Header,foot_Accel_X,foot_Accel_Y,foot_Accel_Z,foot_Gyro_X,foot_Gyro_Y,foot_Gyro_Z,shank_Accel_X,shank_Accel_Y,shank_Accel_Z,shank_Gyro_X,shank_Gyro_Y,shank_Gyro_Z,thigh_Accel_X,thigh_Accel_Y,thigh_Accel_Z,thigh_Gyro_X,thigh_Gyro_Y,thigh_Gyro_Z,trunk_Accel_X,trunk_Accel_Y,trunk_Accel_Z,trunk_Gyro_X,trunk_Gyro_Y,trunk_Gyro_Z
0,-1.25475668240722,2.93224226771638,6.04768461682397,-0.0641194079132598,-0.0294123764711893,-0.0148682583447044,-6.33031713528203,-11.9268790297079,0.079750740708846,-0.0584763244914403,-0.0190892920542285,-0.0240120270587949,-4.32132722050119,1.90404195848225,4.69933732239345,-0.0568403115389012,-0.0311691217152944,-0.0271922846431594,5.90869189163595,-1.64732531646223,-4.78132259293676,0.00611623315554058,-0.0241414801975518,-0.0121721509381806
0.005,-1.25393376758785,2.92958187063061,6.0430587227529,-0.0639598360188856,-0.0295372891475592,-0.0143343609634234,-6.32551468044949,-11.9161805523819,0.0795412529998032,-0.058642486976273,-0.0190409677437265,-0.0240294435681966,-4.31827813858035,1.90201478603137,4.69506309986015,-0.0569525016527553,-0.031284794019337,-0.0269872367282111,5.90252286261443,-1.64594803126258,-4.77678438843873,0.00597183688850804,-0.0242579683936522,-0.0122242718931922
0.01,-1.25311085276837,2.92692147354484,6.03843282868183,-0.0631265587876021,-0.0296160536123745,-0.0131238253967874,-6.32071222561717,-11.905482075056,0.0793317652907604,-0.0585574875357059,-0.018792980279514,-0.0238646607205476,-4.31522905665929,1.89998761358049,4.69078887732687,-0.0567703002943582,-0.0312768219792203,-0.0263028892583232,5.89635383359268,-1.64457074606293,-4.77224618394075,0.00557352831793648,-0.0243015612634581,-0.0121580958019875
0.015,-1.25228793794895,2.92426107645907,6.03380693461077,-0.0611868696245489,-0.029304250392116,-0.011587435920522,-6.31590977078486,-11.89478359773,0.0791222775817175,-0.0575434708711356,-0.0181999546064542,-0.0233050609939993,-4.31217997473846,1.89796044112961,4.68651465479357,-0.0556650807917737,-0.0307899554520895,-0.0250622244107388,5.89018480457116,-1.64319346086327,-4.76770797944272,0.00493665651927256,-0.0239473341415175,-0.0117799550599534
0.02,-1.25146502312958,2.92160067937329,6.0291810405397,-0.0580519645437799,-0.028554480033209,-0.00965965192742246,-6.31110731595231,-11.884085120404,0.0789127898726747,-0.0554807581560575,-0.0172251389495148,-0.0223734047031198,-4.30913089281762,1.89593326867862,4.68224043226029,-0.0535121104100987,-0.0298173101443195,-0.0232590383002719,5.88401577554964,-1.64181617566362,-4.76316977494469,0.00403621516224402,-0.0231784434820554,-0.0111464522753849
0.025,-1.25064210831016,2.91894028228752,6.02455514646863,-0.0538447717502765,-0.0274186879061811,-0.0073903923037263,-6.30630486111977,-11.8733866430781,0.0787033021636034,-0.0524604966419344,-0.0159010251927473,-0.0211214372014118,-4.30608181089679,1.89390609622774,4.67796620972697,-0.0504029296581748,-0.0284117883019775,-0.0209681326350938,5.87784674652789,-1.640438890464,-4.75863157044671,0.00286527977441529,-0.0220391762346718,-0.0102915122863573
0.03,-1.24981919349079,2.91627988520175,6.01992925239756,-0.0489008574599442,-0.0260489927131754,-0.00496423882285081,-6.30150240628723,-11.8626881657521,0.0784938144545606,-0.0487774903249327,-0.0143279738822858,-0.0196271591820414,-4.30303272897572,1.89187892377686,4.67369198719369,-0.0466379972771864,-0.0266832560734833,-0.0183408399873385,5.87167771750637,-1.63906160526435,-4.75409336594862,0.00143426392633202,-0.0206255806931306,-0.00921132613552606
0.035,-1.24899627867131,2.91361948811598,6.01530335832649,-0.0436106143082941,-0.0246224496733448,-0.00260890922129523,-6.29669995145514,-11.8519896884262,0.0782843267455178,-0.0447740039734733,-0.0126249138447341,-0.017974124887873,-4.29998364705489,1.88985175132598,4.66941776466039,-0.0425669236982118,-0.0247543238674021,-0.0155488406089448,5.86550868848462,-1.63768432006466,-4.74955516145064,-0.000240594844673438,-0.0190420153073517,-0.00789947733338965
0.04,-1.24817336385189,2.91095909103021,6.01067746425542,-0.0382984121127011,-0.0232850099824832,-0.000506601498544944,-6.2918974966226,-11.8412912111002,0.0780748390364749,-0.040734470609384,-0.0108954291950656,-0.0162333625648145,-4.29693456513405,1.88782457887498,4.66514354212711,-0.0384812366120339,-0.0227271802571452,-0.0127427769526993,5.85933965946288,-1.63630703486501,-4.74501695695267,-0.00214463754075098,-0.0173766261921349,-0.00639014825064066
0.045,-1.24735044903252,2.90829869394444,6.00605157018435,-0.0331990589413131,-0.0221379706007064,0.00121867331897928,-6.28709504179005,-11.8305927337742,0.0778653513274321,-0.0368628344683896,-0.00922271411838125,-0.0144578920743353,-4.29388548321299,1.8857974064241,4.66086931959381,-0.0345919414119169,-0.0206749396545806,-0.0100440912028236,5.85317063044135,-1.63492974966539,-4.74047875245464,-0.00426365215888269,-0.0156959456357379,-0.0047632247596814
0.05,-1.2465275342131,2.90563829685867,6.00142567611329,-0.0284666784831582,-0.0212357199095208,0.00247408827335115,-6.28229258695774,-11.8198942564483,0.0776558636183893,-0.03327421288737,-0.00766984594750182,-0.0126847347318172,-4.29083640129215,1.88377023397311,4.65659509706052,-0.0310209818879341,-0.0186417362916166,-0.00754567441412025,5.84700160141961,-1.63355246446574,-4.73594054795666,-0.0065807725999115,-0.0140384757910279,-0.00311790439790021
0.055,-1.24570461939368,2.9029778997729,5.99679978204244,-0.0241919781374065,-0.0205908222531969,0.00319634101366081,-6.27749013212542,-11.8091957791223,0.0774463759093464,-0.03001433211351,-0.0062798508170303,-0.0109401095164491,-4.28778731937132,1.88174306152223,4.65232087452722,-0.0278192013802133,-0.0166516556041756,-0.00531241295758657,5.84083257239809,-1.63217517926608,-4.73140234345857,-0.00907704390130522,-0.0124183094174921,-0.00155162173078058
0.06,-1.24488170457425,2.90031750268712,5.99217388797138,-0.0204251443956694,-0.0201855571777156,0.00337681480674239,-6.27268767729288,-11.7984973017963,0.0772368882002752,-0.0271061184092633,-0.00507798367809273,-0.00924491002663535,-4.28473823745048,1.87971588907135,4.64804665199394,-0.025011374405635,-0.0147232447810932,-0.00338380315042375,5.83466354337656,-1.63079789406643,-4.72686413896059,-0.0117351406501821,-0.0108398166434895,-0.000155311714982402
0.065,-1.24405878975483,2.89765710560135,5.98754799390031,-0.0171882048956758,-0.019976092654916,0.00306657732650468,-6.26788522246034,-11.7877988244704,0.0770274004912324,-0.0245693660876356,-0.00407634982106888,-0.00761586221432224,-4.28168915552942,1.87768871662058,4.64377242946064,-0.0226161778034042,-0.0128741527062503,-0.00177837152480901,5.82849451435482,-1.62942060886678,-4.72232593446262,-0.01453954590279,-0.00930401001093519,0.000985402323794653
0.07,-1.24323587493546,2.89499670851558,5.98292209982924,-0.014475165665519,-0.0198874914699038,0.00235507922666751,-6.26308276762802,-11.7771003471444,0.0768179127822179,-0.0224060967696543,-0.00327944237543326,-0.0060629138845902,-4.27864007360859,1.8756615441697,4.63949820692736,-0.0206333233637446,-0.011115253973516,-0.000498033886071661,5.82232548533329,-1.62804332366713,-4.71778772996453,-0.017471517278644,-0.00780387662208321,0.00178902031781956
0.075,-1.24241296011604,2.89233631142981,5.97829620575817,-0.0122530795923844,-0.0198179716734717,0.00134997900822021,-6.2582803127957,-11.7664018698185,0.0766084250731467,-0.0205909656504737,-0.00268685506142251,-0.00458835386073674,-4.27559099168775,1.87363437171871,4.63522398439405,-0.0190350437031802,-0.00944723304013224,0.000468304788553149,5.81615645631177,-1.62666603846748,-4.71324952546655,-0.020505489329582,-0.00632220738194392,0.00218167021656507
0.08,-1.24159004529662,2.88967591434403,5.9736703116871,-0.0104686589160505,-0.0196722074647671,0.000156617732583872,-6.25347785796316,-11.7557033924925,0.0763989373641039,-0.0190788978854394,-0.00229180309843271,-0.00318992809804989,-4.27254190976669,1.87160719926783,4.63094976186075,-0.017773636602043,-0.00786362603715853,0.00114035213730482,5.80998742729003,-1.62528875326782,-4.70871132096852,-0.0236121492113489,-0.00483711521561316,0.00211159757134772
0.085,-1.2407671304772,2.88701551725826,5.96904441761603,-0.00905760757391241,-0.0194016163033312,-0.00114130651026849,-6.24867540313062,-11.7450049151665,0.0761894496550326,-0.0178184637994691,-0.00207854068005032,-0.00186595087674027,-4.26949282784585,1.86958002681683,4.62667553932747,-0.0167941374071327,-0.00635682383080717,0.00154203504232149,5.8038183982685,-1.62391146806817,-4.70417311647054,-0.0267646452088544,-0.00333000519456575,0.00156675631690482
0.09,-1.23994421565783,2.88435512017249,5.96441852354496,-0.00795405530883547,-0.0190026819793487,-0.00247838656398591,-6.2438729482983,-11.7343064378406,0.0759799619460182,-0.0167627703766533,-0.0020231277343831,-0.000618318765830236,-4.26644374592502,1.86755285436595,4.62240131679417,-0.0160445218322798,-0.00492306067063284,0.00170019583603495,5.79764936924698,-1.62253418286852,-4.69963491197251,-0.029937882406511,-0.00179006698301591,0.000575736757947782
0.095,-1.23912130083835,2.88169472308672,5.9597926294739,-0.00709845523167383,-0.0184857170984621,-0.00379729053525993,-6.23907049346599,-11.7236079605146,0.0757704742369754,-0.0158729741348414,-0.00209727601680802,0.000548267776349132,-4.26339466400418,1.86552568191507,4.61812709426088,-0.0154793276654218,-0.00356318889650371,0.00164493530530624,5.79148034022523,-1.62115689766887,-4.69509670747448,-0.0331024036887999,-0.00021459796678699,-0.000805548985199511
0.1,-1.23829838601898,2.87903432600095,5.95516673540283,-0.00644316314565175,-0.0178609907948455,-0.00505201687632121,-6.23426803863345,-11.7129094831886,0.0755609865279041,-0.0151184011904817,-0.0022713756873217,0.00162757658262656,-4.26034558208312,1.86349850946419,4.61385287172757,-0.0150603399084255,-0.00228164833552199,0.00140846610309844,5.78531131120371,-1.61977961246922,-4.6905585029765,-0.0362212636371997,0.00139111734198401,-0.00250217133195182
0.105,-1.23747547119956,2.87637392891518,5.95054084133176,-0.00595254868141186,-0.0171375219196717,-0.00620436929570569,-6.2294655838009,-11.7022110058627,0.0753514988188613,-0.0144779580015645,-0.00251620629183015,0.00261193417171587,-4.25729650016228,1.8614713370132,4.60957864919429,-0.0147583040035687,-0.00108651889022474,0.00102359400442337,5.77914228218197,-1.61840232726959,-4.68602029847847,-0.0392474148595421,0.00301359123926681,-0.00442426419080734
0.11,-1.23665255638014,2.87371353182941,5.94591494726069,-0.00559854874690944,-0.0163209840484224,-0.00721666628298634,-6.22466312896859,-11.6915125285367,0.0751420111098184,-0.013938501616783,-0.00280413405589311,0.00349330400687477,-4.25424741824145,1.85944416456243,4.60530442666099,-0.0145518435896665,1.20538479294304e-05,0.000522465971877788,5.77297325316044,-1.61702504206994,-4.68148209398049,-0.0421246354263247,0.00463296124765525,-0.0064762352129685
0.115,-1.23582964156077,2.87105313474363,5.94128905318962,-0.00535701279530266,-0.0154196980995318,-0.00806136446750228,-6.21986067413627,-11.6808140512108,0.0749325234007756,-0.0134885745294271,-0.00310979148393185,0.00426551407927191,-4.25119833632039,1.85741699211144,4.60103020412771,-0.0144222910507809,0.00100593171724608,-6.56579780723915e-05,5.76680422413892,-1.61564775687029,-4.6769438894824,-0.0447956022819298,0.00622635569412508,-0.00856665406021219
0.12,-1.23500672674129,2.86839273765786,5.93666315911878,-0.00520459408050863,-0.0144530568539324,-0.00873280449005144,-6.21505821930373,-11.6701155738848,0.0747230356917328,-0.0131118496362653,-0.00341199255120639,0.00492620874392143,-4.24814925439955,1.85538981966056,4.59675598159441,-0.0143482811148519,0.00189277604509803,-0.000717198348362144,5.76063519511717,-1.61427047167061,-4.67240568498443,-0.0472080089261854,0.0077716937763006,-0.0106154385301075
0.125,-1.23418381192192,2.86573234057209,5.93203726504771,-0.0051171187454328,-0.0134517524498775,-0.00925135090005596,-6.21025576447141,-11.6594170965588,0.0745135479826615,-0.0127836817367949,-0.00369658755477465,0.00547885279331996,-4.24510017247871,1.85336264720968,4.59248175906113,-0.0143032004651107,0.00267871690344508,-0.0014158630925403,5.75446616609565,-1.61289318647098,-4.66786748048639,-0.0493214310533939,0.00925405230449554,-0.0125636745181916
0.13,-1.2333608971025,2.86307194348632,5.92741137097664,-0.00507355967712321,-0.0124497026231433,-0.00966125366319564,-6.20545330963887,-11.6487186192329,0.0743040602736471,-0.0124750231961227,-0.00395721466339019,0.00593333824846913,-4.24205109055788,1.8513354747588,4.58820753652782,-0.0142588256812555,0.00337740899680023,-0.00215064494056323,5.74829713707391,-1.61151590127133,-4.66332927598842,-0.0511149720036605,0.0106724293501201,-0.0143816779789196
0.135,-1.23253798228313,2.86041154640054,5.92278547690557,-0.0050619931499659,-0.0114700358070464,-0.0100054653857821,-6.20065085480655,-11.6380201419069,0.0740945725645759,-0.0121664111823098,-0.0041926734970183,0.00630151759685533,-4.23900200863682,1.84930830230792,4.58393331399454,-0.0141967631076998,0.0040013059220622,-0.00290971264648773,5.74212810805216,-1.61013861607168,-4.65879107149038,-0.0525748313031135,0.0120363886119953,-0.016060310548024
0.14,-1.23171506746365,2.85775114931477,5.91815958283451,-0.00508058979875071,-0.010514729811863,-0.0102880909396471,-6.19584839997401,-11.6273216645809,0.073885084855533,-0.0118619520127661,-0.00440259704429474,0.00659013732259374,-4.23595292671598,1.84728112985704,4.57965909146124,-0.0141194722011983,0.00455107756586414,-0.00367572537651441,5.73595907903064,-1.60876133087203,-4.65425286699235,-0.0536690441041954,0.0133505450236316,-0.0175893221390001
0.145,-1.23089215264423,2.855090752229,5.91353368876344,-0.00513027557566411,-0.00957359719946488,-0.0104720269116227,-6.1910459451417,-11.616623187255,0.0736755971464902,-0.0115839073047132,-0.00458671058115867,0.00680020236498329,-4.23290384479515,1.84525395740604,4.57538486892796,-0.0140457057065404,0.00501773673304472,-0.00443077709407175,5.72979005000911,-1.60738404567238,-4.64971466249438,-0.0543476737492677,0.0146033899391864,-0.018948406688497
0.15,-1.23006923782486,2.85243035514323,5.90890779469237,-0.00520443586288133,-0.00864503399880276,-0.0105137237639954,-6.18624349030915,-11.605924709929,0.0734661094374189,-0.0113509175043107,-0.00474913413581831,0.00693322133123636,-4.22985476287408,1.84322678495516,4.57111064639466,-0.013992850140227,0.00539600217473099,-0.00516762974784596,5.72362102098737,-1.60600676047272,-4.64517645799634,-0.054569430638138,0.015770926636083,-0.0201162796680494
0.155,-1.22924632300544,2.84976995805746,5.9042819006213,-0.00528831055043106,-0.00773896253549141,-0.0103850057054621,-6.18144103547684,-11.5952262326031,0.0732566217284045,-0.0111671091289834,-0.00490099846677872,0.00699425898767619,-4.22680568095302,1.84119961250428,4.56683642386136,-0.013967821387636,0.00569040298749009,-0.005893977529762,5.71745199196585,-1.60462947527307,-4.64063825349831,-0.0543206612319099,0.0168260029400626,-0.021075868481907
0.16,-1.22842340818607,2.84710956097169,5.89965600655023,-0.00536682913771166,-0.00686293379381599,-0.0100680788842331,-6.17663858064429,-11.5845277552771,0.0730471340193333,-0.0110273037258483,-0.00505893254042211,0.00698911447279719,-4.22375659903219,1.8391724400534,4.56256220132806,-0.0139706904135494,0.00591042300544687,-0.00662843209975221,5.71128296294432,-1.60325219007342,-4.63610004900033,-0.0536153381035294,0.0177449249213008,-0.0218081726964289
0.165,-1.22760049336659,2.84444916388592,5.89503011247916,-0.00542755644909333,-0.00601865904489093,-0.00954823881696205,-6.17183612581198,-11.5738292779511,0.0728376463102904,-0.0109213378322002,-0.00524340544237592,0.0069213710047788,-4.22070751711135,1.83714526760241,4.55828797879478,-0.0139974598321892,0.00606582441166292,-0.00739683463730671,5.70511393392258,-1.6018749048738,-4.6315618445023,-0.0524859915153122,0.0185108667110304,-0.0222848991878437
0.17,-1.22677757854717,2.84178876680015,5.89040421840809,-0.00545763114391956,-0.00521098080926375,-0.00881242536564364,-6.16703367097944,-11.5631308006252,0.072628158601276,-0.0108334692260757,-0.00547795868823214,0.00679119434944439,-4.21765843519029,1.83511809515153,4.55401375626148,-0.0140389227736042,0.00616531530563682,-0.00823100154241053,5.69894490490105,-1.60049761967414,-4.62702364000432,-0.0509740714444521,0.01911477502474,-0.0224630632923163
0.175,-1.2259546637278,2.83912836971437,5.88577832433702,-0.00544290361217434,-0.00445307574202354,-0.00784955608174512,-6.16223121614712,-11.5524323232992,0.0724186708922048,-0.0107421321361512,-0.00578806537933647,0.00659407429082252,-4.21460935326945,1.83309092270065,4.5497395337282,-0.0140799948979059,0.00621540293445341,-0.00916824548266451,5.69277587587931,-1.59912033447449,-4.62248543550629,-0.049127114049536,0.0195557041162845,-0.0222798811356087
0.18,-1.22513174890838,2.8364679726286,5.88115243026596,-0.00537289980179027,-0.00376047783095774,-0.00665224647409846,-6.15742876131458,-11.5417338459733,0.0722091831831619,-0.0106217729893459,-0.00619845675211214,0.00631890347905321,-4.21156027134862,1.83106375024977,4.54546531119489,-0.0141005971653162,0.00621794266687663,-0.0102492561842168,5.68660684685779,-1.59774304927484,-4.61794723100826,-0.0470048287053548,0.019843220966027,-0.0216505977226534
0.185,-1.22430883408896,2.83380757554283,5.87652653619489,-0.00524966880987081,-0.00313479074109329,-0.00522753282737613,-6.15262630648226,-11.5310353686473,0.0719996954741191,-0.0104456730613189,-0.0067257332543133,0.00594953672719525,-4.20851118942778,1.82903657779889,4.54119108866161,-0.0140766792190398,0.00616915814531274,-0.0115071376993251,5.68043781783626,-1.59636576407519,-4.61340902651023,-0.0446900084926291,0.0200036683968078,-0.0204877161144367
0.19,-1.22348591926954,2.83114717845706,5.87190064212405,-0.00509098563115104,-0.00255565917221176,-0.00362187447156966,-6.14782385164972,-11.5203368913213,0.0717902077650763,-0.0101882973162248,-0.00736735598538843,0.00547594574762811,-4.20546210750672,1.82700940534801,4.53691686612831,-0.0139817991589039,0.00606681619555161,-0.0129489760078916,5.67426878881452,-1.59498847887554,-4.60887082201225,-0.0422929281765789,0.020085325433207,-0.0187622812552974
0.195,-1.22266300445011,2.82848678137128,5.86727474805298,-0.00492096750452793,-0.00200078606550726,-0.00192592226075221,-6.1430213968174,-11.5096384139954,0.0715807200560334,-0.00983343242667633,-0.00810047879146332,0.00490649084394447,-4.20241302558588,1.82498223289701,4.53264264359503,-0.0137975489580856,0.00591996211540642,-0.0145518933528613,5.66809975979299,-1.59361119367588,-4.60433261751422,-0.0399357762888153,0.0201508843632602,-0.0165606019476514
0.2,-1.22184008963075,2.82582638428551,5.86264885398191,-0.00475944333214897,-0.00147132402995805,-0.000231237284437441,-6.13821894198509,-11.4989399366694,0.0713712323469622,-0.00938835463215106,-0.00889696789974606,0.00426388108246268,-4.19936394366505,1.82295506044613,4.52836842106173,-0.0135306209699702,0.00574562338391958,-0.0162841272754475,5.66193073077147,-1.59223390847623,-4.59979441301618,-0.0377282306402998,0.0202586822918067,-0.0140559734454793
0.205,-1.22101717481127,2.82316598719974,5.85802295991084,-0.004620312103316,-0.000991190574194117,0.00140697975323401,-6.13341648715254,-11.4882414593434,0.0711617446379194,-0.00888224881520475,-0.00973685312656808,0.00357027055211319,-4.19631486174399,1.82092788799525,4.52409419852843,-0.0132117200989325,0.00555833243660224,-0.0181270585675052,5.65576170174973,-1.59085662327661,-4.59525620851821,-0.0357592342185525,0.0204487689428582,-0.0114228746639439
0.21,-1.2201942599919,2.82050559011397,5.85339706583977,-0.00451229216269426,-0.000591713608005356,0.00295781515111745,-6.12861403232,-11.4775429820175,0.0709522569288765,-0.00834431506180285,-0.0106073217781151,0.00284035979715066,-4.19326577982315,1.81890071554437,4.51981997599513,-0.0128727835703984,0.00536872614329404,-0.020078210160658,5.6495926727282,-1.58947933807693,-4.59071800402018,-0.0341035037098742,0.0207406702428475,-0.00878634364881878
0.215,-1.21937134517248,2.8178451930282,5.8487711717687,-0.00443662222788723,-0.000303889001317191,0.00439251318109984,-6.12381157748769,-11.4668445046915,0.0707427692198337,-0.0077872740633086,-0.0114971159989512,0.00208356924219416,-4.19021669790231,1.81687354309349,4.51554575346185,-0.0125296699249962,0.00518759529827795,-0.022142954698085,5.64342364370668,-1.58810205287728,-4.5861797995222,-0.0328246563677864,0.021137812847176,-0.00622155765905759
0.22,-1.21854843035311,2.81518479594243,5.84414527769763,-0.00438357971311101,-0.000158422542421718,0.00568069274688331,-6.11900912265537,-11.4561460273656,0.0705332815107909,-0.00720460920211686,-0.012394711019809,0.00130726601107874,-4.18716761598148,1.81484637064261,4.51127153092855,-0.0121787235647092,0.00502755674663867,-0.0243264432909786,5.63725461468493,-1.58672476767762,-4.58164159502411,-0.0319705457072191,0.0216336808999064,-0.00376708330122241
0.225,-1.21772551553363,2.81252439885666,5.83951938362657,-0.00433143675322889,-0.000184160736394016,0.00679455670907644,-6.11420666782283,-11.4454475500396,0.0703237938017196,-0.00657351693961984,-0.0132880315177795,0.000518622987381931,-4.18411853406042,1.81281919819173,4.50699730839527,-0.0117994099902964,0.00490317460111435,-0.0266296635550043,5.63108558566341,-1.58534748247797,-4.57710339052613,-0.0315715331779187,0.0222178640200733,-0.00143574361407976
0.23,-1.21690260071421,2.80986400177088,5.8348934895555,-0.00425076585549318,-0.00039894890433366,0.00771820842383664,-6.10940421299028,-11.4347490727136,0.0701143060926768,-0.00586356948222575,-0.0141638881104381,-0.000275061477829657,-4.18106945213958,1.81079202574074,4.50272308586197,-0.0113628661278126,0.00482954034084364,-0.0290491169458711,5.62491655664167,-1.58397019727835,-4.57256518602816,-0.0316501772209121,0.0228814632759673,0.000777052467745236
0.235,-1.21607968589484,2.80720360468511,5.83026759548443,-0.00410991593258668,-0.000794983253866388,0.00845650529541464,-6.10460175815797,-11.4240505953877,0.0699048183836624,-0.00504411567557858,-0.0150066419327434,-0.00106637333166519,-4.17802037021875,1.80876485328986,4.49844886332868,-0.0108388145847533,0.00482042838875716,-0.0315749196893677,5.61874752761992,-1.58259291207867,-4.56802698153007,-0.0322319746108697,0.0236190952170439,0.00288599312218016
0.24,-1.21525677107542,2.80454320759934,5.82564170141336,-0.00387362773095698,-0.00133158909260766,0.00903020984361636,-6.09979930332565,-11.4133521180617,0.0696953306745911,-0.00407886562093104,-0.0157955215501873,-0.00184614486575602,-4.17497128829768,1.80673768083898,4.49417464079538,-0.0101894593156688,0.00488965309198581,-0.0341846086249024,5.6125784985984,-1.58121562687901,-4.56348877703209,-0.0333401294967118,0.0244257676366285,0.00490831016976183
0.245,-1.21443385625605,2.80188281051357,5.82101580734229,-0.00349519562963534,-0.00194712339908116,0.00946181856327627,-6.09499684849311,-11.4026536407357,0.0694858429655483,-0.00291484873447262,-0.0165022421227327,-0.00260093629992364,-4.17192220637685,1.8047105083881,4.4899004182621,-0.00935828286258889,0.00505474516256246,-0.0368380017070472,5.60640946957665,-1.57983834167936,-4.55895057253406,-0.0349784356005929,0.0252929350002776,0.00685627953709564
0.25,-1.21361094143657,2.7992224134278,5.81638991327122,-0.00291259205507828,-0.00257801964315802,0.00977228863901837,-6.09019439366057,-11.3919551634098,0.0692763552565054,-0.00148373168942173,-0.0170911403379846,-0.00331271003674925,-4.16887312445601,1.80268333593722,4.4856261957288,-0.00827177741457919,0.00533754649830256,-0.0394789230189446,5.60024044055513,-1.57846105647974,-4.55441236803608,-0.0371241257271791,0.0262084075870612,0.00873222873542921
0.255,-1.2127880266172,2.79656201634202,5.81176401920015,-0.00205378963905497,-0.00316370785934307,0.00999180240936593,-6.08539193882825,-11.3812566860838,0.0690668675474626,0.00028502588118834,-0.0175207984793158,-0.00396131419197907,-4.16582404253518,1.80065616348634,4.48135197319552,-0.00685277908928818,0.00576034658909491,-0.0420404558115884,5.5940714115336,-1.57708377128009,-4.54987416353811,-0.0397346386209607,0.027157867323055,0.0105277628634162
0.26,-1.21196511179778,2.79390161925625,5.80713812512931,-0.000842807873487665,-0.0036417987625672,0.0101636217136772,-6.08058948399594,-11.3705582087579,0.0688573798383914,0.0024578309082112,-0.0177445067392419,-0.00452644240262402,-4.16277496061412,1.79862899103534,4.4770777506622,-0.00502642362667606,0.00634286427993996,-0.0444460590795213,5.58790238251186,-1.57570648608043,-4.54533595904002,-0.0427475985048945,0.0281233376653876,0.0122241997225442
0.265,-1.21114219697841,2.79124122217048,5.80251223105824,0.000800098461536444,-0.00394964836614856,0.0103361884071937,-6.07578702916339,-11.3598597314319,0.0686478921293769,0.00510182605353879,-0.0177134093142412,-0.00498727990765999,-4.15972587869328,1.79660181858446,4.47280352812892,-0.00271590775422585,0.007103696683723,-0.0466118254251109,5.58173335349034,-1.57432920088078,-4.54079775454204,-0.0460736028907317,0.0290824542062416,0.0137932815333526
0.27,-1.21031928215893,2.78858082508471,5.79788633698718,0.00295897784141724,-0.00402764227733353,0.0105631877049848,-6.07098457433085,-11.3491612541059,0.0684384044203341,0.0082875822641133,-0.0173874035596503,-0.00532213335576357,-4.15667679677244,1.79457464613347,4.46852930559562,0.000157268810574217,0.00806355327750253,-0.0484606686429384,5.57556432446881,-1.57295191568113,-4.53625955004401,-0.0496057354336162,0.030013861390873,0.0152026742065149
0.275,-1.20949636733951,2.78592042799894,5.79326044291611,0.00571861184606325,-0.00381294886890047,0.0109134293443069,-6.06618211949876,-11.33846277678,0.0682289167112913,0.0120852542328425,-0.0167436317664131,-0.00550988245098462,-4.15362771485161,1.7925474736827,4.46425508306234,0.00366715443115875,0.00924572880949753,-0.0499363998259934,5.56939529544707,-1.57157463048148,-4.53172134554603,-0.0532399621653315,0.0309005246628238,0.0164228641883746
0.28,-1.20867345252015,2.78326003091317,5.78863454884504,0.00915996506517655,-0.00322851797173525,0.0114752795383677,-6.06137966466622,-11.327764299454,0.06801942900222,0.0165612890773269,-0.0157712750177083,-0.00553235674658881,-4.15057863293055,1.79052030123182,4.45998086052904,0.00788136179997551,0.0106730712856407,-0.0510007133684611,5.56322626642554,-1.57019734528183,-4.527183141048,-0.0568811598138577,0.0317232027958305,0.0174286251923524
0.285,-1.20785053770072,2.78059963382739,5.78400865477397,0.0133591329876434,-0.00217403555727525,0.0123556444534084,-6.05657720983368,-11.317065822128,0.0678099412932056,0.0217800164485807,-0.0144602803434759,-0.00537624085853692,-4.14752955100971,1.78849312878094,4.45570663799575,0.0128653112786581,0.0123651587551103,-0.0516223326023406,5.55705723740402,-1.5688200600822,-4.52264493654997,-0.0604389495337635,0.0324513575335268,0.0181994237264042
0.29,-1.20702762288136,2.77793923674162,5.7793827607029,0.0183879537588738,-0.000527985821657813,0.0136765003822679,-6.05177475500113,-11.3063673448021,0.0676004535841344,0.0278050152769098,-0.0127962554446218,-0.00503387661391887,-4.14448046908888,1.78646595632995,4.45143241546245,0.018684647007492,0.0143374254577862,-0.051772827115573,5.55088820838228,-1.56744277488255,-4.51810673205199,-0.0638249255031431,0.0330414592727735,0.0187212112179866
0.295,-1.20620470806188,2.77527883965585,5.77475686663183,0.0243085743624415,0.00182609421305871,0.015563612250966,-6.04697230016905,-11.2956688674761,0.0673909658750915,0.0346891844731187,-0.0107654927997025,-0.00450367390924796,-4.14143138716781,1.78443878387895,4.44715819292917,0.0253947510331874,0.0165990124116903,-0.0514309110009827,5.54471917936075,-1.5660654896829,-4.51356852755396,-0.0669502397229852,0.0334461268577579,0.0189867425604444
0.3,-1.20538179324245,2.77261844257008,5.77013097256076,0.0311587674163601,0.00496687245518797,0.0181292614908315,-6.0421698453365,-11.2849703901502,0.0671814781660203,0.0424556513427959,-0.00836526993150236,-0.00379143171431354,-4.13838230524698,1.78241161142819,4.44288397039587,0.0330205772064545,0.0191481883732039,-0.0505913610033592,5.53855015033901,-1.56468820448322,-4.50903032305592,-0.0697307238778577,0.0336273436772497,0.0189982452698789
0.305,-1.20455887842309,2.76995804548431,5.7655050784897,0.0389353595704467,0.00892391282164287,0.0214539708451289,-6.03736739050396,-11.2742719128242,0.0669719904569774,0.0510846073785419,-0.0056097540143047,-0.00291155295283029,-4.13533322332614,1.78038443897719,4.43860974786257,0.0415429292628863,0.0219689555394404,-0.0492707891659427,5.53238112131748,-1.56331091928357,-4.50449211855789,-0.0721009012752686,0.0335619826985113,0.0187717618751615
0.31,-1.20373596360361,2.76729764839854,5.76087918441863,0.0475815091967435,0.0136782127141432,0.0255686226849935,-6.03256493567142,-11.2635734354982,0.0667625027479346,0.0605065175758533,-0.00253014038256802,-0.00188656122144,-4.13228414140508,1.77835726652631,4.43433552532929,0.0508918814493215,0.0250297157016296,-0.0475066990169839,5.52621209229596,-1.56193363408394,-4.49995391405992,-0.0740220912954457,0.0332394357781765,0.0183359311435054
0.315,-1.2029130487843,2.76463725131276,5.75625329034756,0.056974040194228,0.0191560077374008,0.0304388165539295,-6.0277624808391,-11.2528749581723,0.0665530150388918,0.0705901796199938,0.000824688941834815,-0.000745903480277237,-4.12923505948424,1.77633009407543,4.43006130279598,0.0609351976739789,0.0282810612630097,-0.0453551498548766,5.52004306327422,-1.56055634888429,-4.49541570956194,-0.0754806530952202,0.0326590640773837,0.0177264080583502
0.32,-1.20209013396482,2.76197685422699,5.75162739627649,0.0669072305568938,0.0252186869291879,0.0359514382052957,-6.02296002600679,-11.2421764808463,0.0663435273298489,0.0811241025127483,0.00438449440009375,0.000474810379463246,-4.12618597756341,1.77430292162455,4.42578708026269,0.07145975680629,0.0316519909609688,-0.0428910632333549,5.51387403425269,-1.55917906368464,-4.49087750506385,-0.0764848245753859,0.0318292522849504,0.0169809451298495
0.325,-1.20126721914539,2.75931645714122,5.74700150220565,0.0770741323158843,0.0316554087828983,0.0419027563517362,-6.01815757117424,-11.2314780035203,0.0661340396207777,0.0917955269502871,0.00805227520542136,0.00173423641425851,-4.12313689564257,1.77227574917356,4.4215128577294,0.0821504216997006,0.0350454773182616,-0.0402100725973366,5.50770500523117,-1.55780177848499,-4.48633930056587,-0.0770629331833668,0.0307659895056242,0.0161353025437526
0.33,-1.20044430432603,2.75665606005546,5.74237560813458,0.0870470348306011,0.0381787659411864,0.0479890431632596,-6.0133551163417,-11.2207795261944,0.0659245519117633,0.102168556420999,0.0116981873804115,0.00298532498949792,-4.12008781372151,1.77024857672279,4.41723863519611,0.0925680037650496,0.0383335410835999,-0.0374309366930617,5.5015359762092,-1.55642449328533,-4.48180109606784,-0.0772615497794071,0.0294907283600167,0.0152191100006501
0.335,-1.19962138950655,2.75399566296968,5.73774971406351,0.0962526298386669,0.0444234507923656,0.0538009884932229,-6.00855266150938,-11.2100810488684,0.0657150642027204,0.111655076659337,0.0151549491034834,0.00417358642827364,-4.11703873180068,1.7682214042718,4.41296441266282,0.102120940977217,0.0413488155335769,-0.0346961070978081,5.49536694718768,-1.55504720808568,-4.47726289156986,-0.0771399579319184,0.0280264497148409,0.014251566907514
0.34,-1.19879847468718,2.7513352658839,5.73312381999244,0.10393224701515,0.0499490019888992,0.0588215435630179,-6.00375020667707,-11.1993825715425,0.0655055764936492,0.119466916151288,0.0182169204289618,0.00523170749010205,-4.11398964987984,1.76619423182092,4.40869019012952,0.110020623737343,0.0438674433010432,-0.0321664438237105,5.48919791816616,-1.55366992288603,-4.47272468707177,-0.0767565542217268,0.0263887905527899,0.0132367605745197
0.345,-1.19797555986776,2.74867486879813,5.72849792592137,0.109099417844239,0.0542422164243544,0.062418491217836,-5.99894775184453,-11.1886840942165,0.0652960887846348,0.124568100735644,0.0206373548857534,0.00607394937986451,-4.11094056795901,1.76416705937004,4.40441596759622,0.11523625410303,0.0455924154314207,-0.0300190473746633,5.48302888914441,-1.55229263768638,-4.4681864825738,-0.0761591242217867,0.0245772805476989,0.0121599995239832
0.35,-1.19715264504839,2.74601447171236,5.72387203185031,0.110640978502516,0.0567618770699617,0.0638939761695248,-5.99414529701198,-11.1779856168905,0.0650866010755635,0.125788550886886,0.0221465619998052,0.00660512750413737,-4.10789148603794,1.76213988691916,4.40014174506294,0.116605579785082,0.0461880583114956,-0.028440350909908,5.47685986012289,-1.55091535248675,-4.46364827807582,-0.0753921339253041,0.0225827987448719,0.0109915704119761
0.355,-1.19632973022897,2.74335407462659,5.71924613777924,0.107786952284352,0.0571350664664636,0.0627447804482466,-5.98934284217967,-11.1672871395646,0.0648771133665207,0.122330561623467,0.0225573747282451,0.00675780492289501,-4.10484240411711,1.76011271446816,4.39586752252964,0.113335822408643,0.0454243186823734,-0.0275618969259763,5.47069083110114,-1.54953806728707,-4.45911007357779,-0.0745063809264953,0.0204160440727048,0.00970863298977753
0.36,-1.19550681540949,2.74069367754082,5.71462024370817,0.100678961270193,0.0554111869782387,0.0590116829957351,-5.98454038734735,-11.1565886622386,0.0646676256574779,0.11436902796577,0.021907474343264,0.00653287373545862,-4.10179332219627,1.75808554201728,4.39159329999636,0.10560262182178,0.0433404975764364,-0.0273627456877,5.46452180207962,-1.54816078208742,-4.45457186907976,-0.0735545987925197,0.0181315007262779,0.00832542359920082
0.365,-1.19468390059012,2.73803328045505,5.7099943496371,0.0903342388864839,0.0520498721144549,0.0532886423215053,-5.97973793251481,-11.1458901849127,0.0644581379484066,0.102999744489987,0.0204567810104707,0.00599426267964195,-4.09874424027521,1.7560583695664,4.38731907746305,0.0945015673830822,0.0402267528428371,-0.0276655343442846,5.4583527730581,-1.54678349688777,-4.45003366458172,-0.0725768998565602,0.0158181563632993,0.00689633932794289
0.37,-1.1938609857707,2.73537288336928,5.70536845556603,0.0780385148200562,0.0476392330014039,0.0463699865656401,-5.97493547768249,-11.1351917075867,0.0642486502393922,0.0895858773701348,0.0185354220580155,0.00522465631028476,-4.09569515835415,1.75403119711552,4.38304485492976,0.0813971963641121,0.036444264957799,-0.0282382834480869,5.45218374403635,-1.54540621168815,-4.44549546008375,-0.0715909344262026,0.0135689984817246,0.00548825512105943
0.375,-1.19303807095133,2.7327124862835,5.70074256149496,0.0648889008752496,0.0426805201632949,0.0389588618291734,-5.97013302284995,-11.1244932302607,0.0640391625303209,0.0752779123131461,0.0164236381375379,0.00429473157870353,-4.09264607643331,1.75200402466464,4.37877063239647,0.0674419214218174,0.032297268201823,-0.0288808447873927,5.44601471501483,-1.54402892648849,-4.44095725558577,-0.0705984049877205,0.0114613578669595,0.0041574488964757
0.38,-1.19221515613185,2.73005208919773,5.69611666742389,0.0517091281869432,0.0375543659437171,0.0315969298336299,-5.96533056801763,-11.1137947529348,0.0638296748212781,0.0609344904286875,0.0143279592299729,0.00325930552773671,-4.0895969945127,1.74997685221376,4.37449640986318,0.0534949791834784,0.028014745788281,-0.029445845895389,5.4398456859933,-1.54265164128884,-4.43641905108774,-0.0695991171798359,0.00955224984579042,0.00294349577122617
0.385,-1.19139224131249,2.72739169211196,5.69149077335283,0.0390874861826331,0.0325477571491843,0.0246782380492166,-5.96052811318509,-11.1030962756088,0.0636201871122353,0.0471693103518533,0.0123929361232465,0.00216099333718421,-4.08654791259141,1.74794967976277,4.37022218732989,0.0401689483336983,0.0237642044870883,-0.0298314093023926,5.43367665697156,-1.54127435608916,-4.43188084658971,-0.0685976226315671,0.00787797263074887,0.00186815377354539
0.39,-1.19056932649306,2.7247312950262,5.68686487928176,0.0274164858121706,0.0278723576142084,0.0184683302128886,-5.95572565835278,-11.0923977982828,0.0634106994031924,0.0343948771619941,0.0107132909648528,0.00103291336327916,-4.08349883067058,1.74592250731189,4.36594796479659,0.027873867453364,0.0196631381099652,-0.0299717184348707,5.42750762795004,-1.53989707088954,-4.42734264209167,-0.0676009826001596,0.00645695302192215,0.000935649671904884
0.395,-1.18974641167364,2.72207089794041,5.68223898521069,0.0169316491045713,0.0236742515147597,0.0131246563614995,-5.95092320352023,-11.0816993209569,0.0632012116941496,0.0228624456394811,0.00934432885368606,-9.93270351195541e-05,-4.08044974874974,1.74389533486101,4.36167374226329,0.0168576038531351,0.0157888938867148,-0.0298287307943372,5.42133859892851,-1.53851978568989,-4.4228044375937,-0.0666143571468807,0.00529512806823931,0.000135463432183894
0.4,-1.18892349685427,2.71941050085464,5.67761309113985,0.0077461777247295,0.0200428893106067,0.00871492629608415,-5.94612074868792,-11.0710008436309,0.0629917239851068,0.0126982880008633,0.00831064880997339,-0.00121585609811888,-4.07740066682891,1.74186816241013,4.35739951973001,0.00724223931926941,0.0121878724271649,-0.0293861858851942,5.41516956990677,-1.53714250049023,-4.41826623309566,-0.0656410540122098,0.00438994146761424,-0.000553610332253038
0.405,-1.18810058203479,2.71675010376887,5.67298719706878,-0.000118692668321426,0.0170213874040988,0.00523178978635707,-5.94131829385537,-11.060302366305,0.0627822362760355,0.00393717273914128,0.0076133874115363,-0.00230050431058246,-4.07435158490784,1.73984098995925,4.35312529719671,-0.000942793763212675,0.00888480389938403,-0.0286459334509379,5.40900054088524,-1.53576521529058,-4.41372802859763,-0.0646857188807913,0.00373253265143627,-0.00115907421217211
0.41,-1.18727766721543,2.7140897066831,5.66836130299771,-0.00670739821109056,0.0146171024383422,0.00260743088095137,-5.93651583902306,-11.049603888979,0.0625727485670211,-0.00344933898905537,0.00723679065549837,-0.00333885801908315,-4.07130250298701,1.73781381750837,4.34885107466343,-0.00773266224589083,0.00589073148846466,-0.0276243436630799,5.40283151186372,-1.53438793009096,-4.40918982409966,-0.0637547487030257,0.00330969172992645,-0.00171038323744693
0.415,-1.186454752396,2.71142930959733,5.66373540892664,-0.0121081806445664,0.0128105234703514,0.000729469140945926,-5.93171338419052,-11.038905411653,0.0623632608579499,-0.009531171369589,0.00715370455344735,-0.00431705701185404,-4.06825342106617,1.73578664505737,4.34457685213013,-0.0132053108144463,0.0032085888035524,-0.026348491911704,5.39666248284198,-1.53301064489128,-4.40465161960162,-0.0628537398231092,0.00310619316661609,-0.00223526777364181
0.42,-1.18563183757658,2.70876891251156,5.65910951485557,-0.0164353013384462,0.0115598012451728,-0.00054418924386614,-5.9269109293582,-11.0282069343271,0.062153773148907,-0.0144032083449178,0.00732877277053106,-0.00522144431227594,-4.06520433914511,1.73375947260649,4.34030262959683,-0.0174648224114945,0.000836857449989517,-0.024853820728589,5.39049345382045,-1.53163335969163,-4.40011341510365,-0.0619853712184434,0.00310762636542297,-0.00275746635279398
0.425,-1.18480892275716,2.70610851542579,5.6544836207845,-0.0198164503850916,0.0108055532070492,-0.00136706860269441,-5.92210847452566,-11.0175084570011,0.0619442854398642,-0.0181768247325252,0.00772119387888017,-0.00603932558990745,-4.06215525722428,1.73173230015561,4.33602840706354,-0.020632154331025,-0.00123007252867394,-0.0231804707416932,5.38432442479848,-1.53025607449197,-4.39557521060556,-0.0611450077153832,0.00330262678560203,-0.00329530522010559
0.43,-1.18398600793773,2.70344811834002,5.64985772671344,-0.0223865270548813,0.0104818949819184,-0.00187924356631893,-5.91730601969334,-11.0068099796751,0.0617347977308214,-0.0209814317961997,0.00828950602314863,-0.00676091336834043,-4.05910617530344,1.72970512770473,4.33175418453025,-0.0228445569586146,-0.00300579924422986,-0.0213652462894188,5.37815539577696,-1.52887878929235,-4.39103700610758,-0.0603118983145881,0.00368310899947166,-0.00386076027138197
0.435,-1.18316309311837,2.70078772125424,5.64523183264237,-0.0242823428481203,0.0105234432736502,-0.00219662693823945,-5.9125035648608,-10.9961115023492,0.0615253100217501,-0.022961248407345,0.00899400788881354,-0.00737957389425858,-4.05605709338261,1.72767795525385,4.32747996199696,-0.0242518085706216,-0.00451184163538996,-0.0194389956262398,5.37198636675544,-1.5275015040927,-4.38649880160955,-0.0594510035915553,0.00424360680893117,-0.00446058404748275
0.44,-1.18234017829894,2.69812732416847,5.6406059385713,-0.0256349269471198,0.0108623352135854,-0.00242079216221217,-5.90770111002848,-10.9854130250232,0.0613158223127073,-0.0242610052690055,0.00979401133403323,-0.00788955650420942,-4.05300801146154,1.72565078280292,4.32320573946367,-0.0250041893461157,-0.0057705796369853,-0.0174339515583122,5.36581733773369,-1.52612421889302,-4.38196059711157,-0.0585278126998058,0.00498049700609125,-0.0050985645689295
0.445,-1.18151726347952,2.69546692708271,5.63598004450023,-0.0265664436713249,0.0114306131362377,-0.00263764361107717,-5.90289865519617,-10.9747145476973,0.0611063346036644,-0.025021155552417,0.0106472097688269,-0.00828595597040484,-4.04995892954071,1.72362361035204,4.31893151693036,-0.0252481627675309,-0.00680370864930024,-0.0153856855823356,5.35964830871217,-1.52474693369336,-4.37742239261354,-0.0575112948841697,0.00588991156805617,-0.00577607198128193
0.45,-1.1806943486601,2.69280652999693,5.63135415042916,-0.0271919331662283,0.0121682531156423,-0.00290911902260891,-5.89809620036363,-10.9640160703713,0.06089684689465,-0.0253812493045022,0.0115130296851941,-0.00856648795191288,-4.04690984761987,1.7215964379011,4.31465729439708,-0.0251282977322208,-0.00763554567531856,-0.0133283907259738,5.35347927969065,-1.52336964849374,-4.37288418811551,-0.0563702656489615,0.00696546782616293,-0.00649340254055848
0.455,-1.17987143384067,2.69014613291115,5.62672825635809,-0.0276186852404254,0.0130231890730417,-0.00328073753452688,-5.89329374553108,-10.9533175930453,0.0606873591855788,-0.0254747992760591,0.0123533983523366,-0.00873119200436028,-4.04386076569881,1.71956926545022,4.31038307186378,-0.0247825619695772,-0.00829105440861572,-0.0112962350490415,5.3473102506689,-1.52199236329409,-4.36834598361753,-0.0550810819373424,0.00819707396648118,-0.00725300417194908
0.46,-1.17904851902131,2.68748573582538,5.62210236228702,-0.0279454160755691,0.0139482504172107,-0.00378241597644708,-5.88849129069877,-10.9426191157194,0.0604778714765359,-0.0254281010774124,0.0131315378637458,-0.00878272958793886,-4.04081168377797,1.71754209299934,4.3061088493305,-0.0243415296049189,-0.00879540409853811,-0.00932562105700891,5.34114122164738,-1.52061507809444,-4.3638077791195,-0.0536291819330459,0.00956958996122281,-0.0080596218162762
0.465,-1.17822560420183,2.68482533873961,5.61747646821618,-0.0282632569690829,0.0148987213178272,-0.00442458085156362,-5.88368883586645,-10.9319206383934,0.0602683837674931,-0.0253639362107845,0.0138131984587731,-0.0087277760244634,-4.03776260185714,1.7155149205484,4.3018346267972,-0.0239312658140059,-0.00917651884645796,-0.00745318436315767,5.33497219262586,-1.51923779289478,-4.35926957462146,-0.0520048627118936,0.011062758406335,-0.00891913138285877
0.47,-1.17740268938246,2.68216494165384,5.61285057414511,-0.0286549685587442,0.0158265964308928,-0.00520981523096728,-5.87888638103391,-10.9212221610674,0.0600588960584503,-0.025396546971166,0.0143683157671078,-0.00857659181999768,-4.0347135199363,1.71348774809752,4.2975604042639,-0.0236685755730312,-0.00946312406726822,-0.00571618499199412,5.32880316360411,-1.51786050769516,-4.35473137012349,-0.0502093208377982,0.0126521812972437,-0.00983930176312129
0.475,-1.17657977456304,2.67950454456807,5.60822468007404,-0.0291939062865391,0.0166784172596926,-0.00613444940480251,-5.87408392620137,-10.9105236837415,0.059849408349379,-0.0256299149127002,0.0147699076486162,-0.0083428307556275,-4.03166443801524,1.71146057564658,4.29328618173061,-0.0236596125883793,-0.00968400697856871,-0.00415373598206918,5.32263413458259,-1.51648322249548,-4.35019316562546,-0.0482557902471485,0.0143072260544509,-0.0108272338605194
0.48,-1.17575685974367,2.6768441474823,5.60359878600298,-0.0299437901554498,0.0173978174910806,-0.00718429291807146,-5.86928147136905,-10.8998252064155,0.0596399206403362,-0.0261585857668144,0.0149932585723986,-0.00804371085735107,-4.02861535609441,1.7094334031957,4.28901195919732,-0.0240002157637976,-0.00986922967078377,-0.00280450088539657,5.31646510556084,-1.51510593729583,-4.34565496112748,-0.0461642948505023,0.015989650089617,-0.0118844730430666
0.485,-1.17493394492419,2.67418375039653,5.59897289193191,-0.0309568690450266,0.0179260998636991,-0.00835287621787521,-5.86447901653673,-10.8891267290896,0.0594304329313218,-0.0270560859855749,0.015018542092166,-0.00769830017555511,-4.02556627417357,1.70740623074482,4.28473773666403,-0.0247645596952409,-0.0100461184939187,-0.00170454437154274,5.31029607653932,-1.5137286520962,-4.34111675662939,-0.0439662750945995,0.0176580164489889,-0.0130061318552476
0.49,-1.17411103010477,2.67152335331076,5.59434699786084,-0.0322717359701297,0.0182044217000398,-0.00965493990934776,-5.85967656170419,-10.8784282517636,0.0592209452222505,-0.028364631390374,0.0148334158273974,-0.00732626259784022,-4.02251719225274,1.70537905829394,4.28046351413074,-0.0259953683138684,-0.0102353227296591,-0.000887380358687763,5.3041270475178,-1.51235136689655,-4.33657855213141,-0.0417087133549207,0.0192722759746201,-0.0141813890576319
0.495,-1.1732881152854,2.66886295622498,5.58972110378977,-0.0339111090265057,0.0181802385128387,-0.0111138136788681,-5.85487410687165,-10.8677297744376,0.0590114575132077,-0.0300969961475185,0.014432559425769,-0.00694797935707681,-4.01946811033167,1.70335188584301,4.27618929159745,-0.0277055987207384,-0.010451634924788,-0.000383343542841035,5.29795801849605,-1.5109740816969,-4.33204034763344,-0.0394469337271077,0.0207938426253646,-0.0153920612025162
0.5,-1.17246520046598,2.66620255913922,5.5850952097187,-0.0358789261760355,0.0178137130470085,-0.012748724438455,-5.85007165203933,-10.8570312971117,0.0588019698041649,-0.0322388837038531,0.0138168622583098,-0.00658342431053845,-4.01641902841084,1.70132471339213,4.27191506906415,-0.029880328376471,-0.0107047432873965,-0.000215707090678865,5.29178898947453,-1.50959679649725,-4.3275021431354,-0.0372357472835409,0.0221871515304588,-0.0166140134071535
0.505,-1.17164228564661,2.66354216205344,5.58046931564763,-0.0381602388383713,0.0170829415778172,-0.014578003694896,-5.84526919720702,-10.8463328197857,0.058592482095122,-0.0347480698264299,0.0129951009820017,-0.00624973624428035,-4.01336994649,1.69929754094119,4.26764084653085,-0.032475196346163,-0.010998489486026,-0.000393646933446572,5.285619960453,-1.50821951129757,-4.32296393863737,-0.0351272778393465,0.0234297278929688,-0.017824441212838
0.51,-1.17081937082713,2.66088176496767,5.57584342157656,-0.0407203683541214,0.0159868436575741,-0.0166188871233051,-5.84046674237447,-10.8356343424597,0.0583829943860792,-0.037554646281059,0.0119857644057811,-0.00595968846084186,-4.01032086456894,1.69727036849031,4.26336662399757,-0.0354162600698802,-0.0113302947369287,-0.000908210071089611,5.27945093143126,-1.50684222609794,-4.31842573413934,-0.0331701390109446,0.0245198146770643,-0.0190063716066626
0.515,-1.16999645600777,2.65822136788189,5.5712175275055,-0.0434936484754206,0.0145459864439802,-0.0188660889648357,-5.83566428754193,-10.8249358651338,0.0581735066770079,-0.040558278700974,0.0108164422188265,-0.00572161886823663,-4.0072717826481,1.69524319603943,4.25909240146427,-0.0385980715325676,-0.0116894084838186,-0.00173626150582331,5.27328190240974,-1.50546494089829,-4.31388752964136,-0.0313996201084434,0.0254643990784717,-0.0201427449104399
0.52,-1.16917354118834,2.65556097079612,5.56659163343443,-0.0463653766757206,0.0128064698384267,-0.0212665741851334,-5.83086183270984,-10.8142373878078,0.0579640189679651,-0.0436169634252573,0.00952378176437308,-0.00553947945658909,-4.00422270072727,1.69321602358849,4.25481817893099,-0.041873742803268,-0.0120527549574426,-0.00284640336711188,5.26711287338821,-1.50408765569864,-4.30934932514333,-0.0298239187347559,0.0262578363601827,-0.0212067672309693
0.525,-1.16835062636892,2.65290057371035,5.56196573936336,-0.0491582894751727,0.0108473646526711,-0.0237119876231128,-5.8260593778773,-10.8035389104819,0.0577545312589223,-0.0465309629602735,0.00815639075761763,-0.00541245722673743,-4.00117361880643,1.69118885113755,4.25054395639768,-0.0450394689177522,-0.0123802223396223,-0.00420017105386417,5.26094384436624,-1.50271037049899,-4.3048111206453,-0.0284202979543651,0.0268725757121436,-0.0221556781739557
0.53,-1.1675277115495,2.65024017662459,5.55733984529229,-0.05163124464132,0.00878620457487484,-0.0260464787468712,-5.82125692304476,-10.7928404331559,0.0575450435498794,-0.0490345603963249,0.0067780844649513,-0.00533517528522067,-3.99812453688537,1.68916167868667,4.24626973386438,-0.0478257704666943,-0.012613425574615,-0.00574896849630614,5.25477481534472,-1.50133308529934,-4.30027291614732,-0.0271439720679425,0.0272660863468524,-0.0229288069591293
0.535,-1.16670479673013,2.64757977953881,5.55271395122122,-0.0534974998073715,0.00677637733386262,-0.0280874217057589,-5.81645446821221,-10.7821419558299,0.0573355558408366,-0.0508087621022515,0.005467813617615,-0.00529876877516294,-3.99507545496454,1.68713450623574,4.2419955113311,-0.0499086741539224,-0.0126811096055335,-0.00742866309158114,5.24860578632297,-1.49995580009968,-4.29573471164929,-0.0259461227911148,0.0274024701416054,-0.0234538928748923
0.54,-1.16588188191071,2.64491938245304,5.54808805715038,-0.0544456966250145,0.0049950850752383,-0.0296477250403693,-5.81165201338013,-10.771443478504,0.0571260681317654,-0.0515005076849483,0.00431595966684009,-0.00529121160970173,-3.9920263730437,1.68510733378486,4.2377212887978,-0.0509281013109277,-0.0125049040113936,-0.00915723028124013,5.24243675730145,-1.49857851490003,-4.29119650715131,-0.0247893059964524,0.0272754975263947,-0.0236583108521442
0.545,-1.16505896709123,2.64225898536727,5.54346216307931,-0.054164291033057,0.00361782907597754,-0.0305486171585799,-5.80684955854758,-10.760745001178,0.0569165804227509,-0.0507562446586101,0.00341458233417909,-0.00529791490417667,-3.98897729112264,1.68308016133398,4.23344706626452,-0.050522448694339,-0.0120061189856403,-0.0108434197094761,5.23626772827993,-1.49720122970038,-4.28665830265328,-0.0236455366539278,0.0269089747730668,-0.0234790311953322
0.55,-1.16423605227186,2.6395985882815,5.53883626900824,-0.0524532651736513,0.00276017314876395,-0.0306698862817317,-5.80204710371504,-10.7500465238521,0.0567070927137081,-0.0483574377250049,0.00282949813831926,-0.00530738681106376,-3.9859282092018,1.6810529888831,4.22917284373121,-0.0484637955400487,-0.0111399218040264,-0.0124042360367035,5.23009869925818,-1.49582394450076,-4.28212009815525,-0.022487762020853,0.0263483882892977,-0.0228910338589922
0.555,-1.16341313745244,2.63693819119572,5.53421037493717,-0.0493886449421843,0.002410908099618,-0.030035360373531,-5.7972446488825,-10.7393480465261,0.0564976050046369,-0.0444066645057979,0.00256591981667147,-0.00531949968494476,-3.98287912728097,1.67902581643222,4.22489862119792,-0.0448413151088518,-0.00994548996673108,-0.0137780922119087,5.22392967023666,-1.4944466593011,-4.27758189365727,-0.0212916537251314,0.0256663972892351,-0.0219474190263663
0.56,-1.16259022263301,2.63427779410995,5.52958448086611,-0.0453167157631295,0.0024369186524599,-0.0288115919271702,-5.79244219405018,-10.7286495692001,0.056288117295594,-0.0393175902022777,0.00257049791421986,-0.00534590952162991,-3.97983004536013,1.67699864398128,4.22062439866463,-0.0400513823143293,-0.0085438697631429,-0.0149255163129142,5.21776064121514,-1.49306937410142,-4.27304368915924,-0.0200374013782829,0.0249561070597951,-0.0207680306646209
0.565,-1.16176730781365,2.63161739702418,5.52495858679504,-0.0406623142401251,0.00266015509851306,-0.027209437904141,-5.78763973921787,-10.7179510918742,0.0560786295865512,-0.0335950018466915,0.00276814612915353,-0.00540097717108293,-3.97678096343907,1.67497147153034,4.21635017613134,-0.0345827490648349,-0.0070767677459693,-0.0158250583538747,5.21159161219339,-1.49169208890177,-4.26850548466126,-0.0187061657089336,0.0243032525090248,-0.0194760223412911
0.57,-1.16094439299417,2.62895699993841,5.52033269272397,-0.0357822556884548,0.0029210497303347,-0.0254121471357623,-5.78283728438532,-10.7072526145482,0.0558691418775084,-0.0276635618292105,0.00308921301705803,-0.00549400228042246,-3.97373188151823,1.67294429907946,4.21207595359805,-0.0288499565403169,-0.00565769881291509,-0.0164723917774351,5.20542258317187,-1.49031480370215,-4.26396728016317,-0.0172829502541798,0.0237687070351832,-0.0181543345335169
0.575,-1.1601214781748,2.62629660285263,5.5157067986529,-0.0309420844067692,0.00309765156046626,-0.0235585122763444,-5.77803482955278,-10.6965541372222,0.0556596541684655,-0.0218404646133881,0.00347666501494237,-0.00562883240884321,-3.9706827995974,1.67091712662858,4.20780173106475,-0.0231658905391598,-0.00436545606855574,-0.0168769743952563,5.19925355415035,-1.4889375185025,-4.2594290756652,-0.015760168510258,0.0233868694501164,-0.0168430008830483
0.58,-1.15929856335538,2.62363620576686,5.51108090458183,-0.0263294712288106,0.0031063528999653,-0.0217464514457346,-5.77323237472046,-10.6858556598963,0.0554501664593943,-0.0163515310741692,0.0038851909659122,-0.00580415412065072,-3.96763371767634,1.6688899541777,4.20352750853145,-0.0177565090167028,-0.00324960556988001,-0.0170566533086765,5.1930845251286,-1.48756023330284,-4.25489087116716,-0.0141354708052019,0.0231717714756943,-0.0155549546183283
0.585,-1.15847564853595,2.6209758086811,5.50645501051076,-0.022065279035124,0.00290118068691535,-0.0200460299142099,-5.76842991988815,-10.6751571825703,0.0552406787503799,-0.0113403049960104,0.00427653286051343,-0.0060111666435129,-3.9645846357555,1.66686278172676,4.19925328599817,-0.0127702969439098,-0.00233115757548784,-0.0170368844418429,5.18691549610708,-1.48618294810319,-4.25035266666919,-0.0124147233078266,0.0231283779611414,-0.0142953059438569
0.59,-1.15765273371653,2.61831541159533,5.50182911643969,-0.0182199784018363,0.00247395326598991,-0.0185000974163525,-5.76362746505561,-10.6644587052444,0.0550311910413086,-0.00688862168232911,0.0046197076551201,-0.00623567973133862,-3.96153555383466,1.66483560927588,4.19497906346487,-0.00829731287044083,-0.0016099452520993,-0.0168474948052713,5.18074646708556,-1.48480566290354,-4.24581446217115,-0.0106148311073972,0.0232524101059537,-0.0130668427887091
0.595,-1.15682981889717,2.61565501450955,5.49720322236863,-0.0148307585978502,0.00185016194826528,-0.0171114346383813,-5.75882501022329,-10.6537602279184,0.0548217033322658,-0.00304482121521791,0.00489783960292592,-0.00646528531669246,-3.95848647191383,1.66280843682495,4.19070484093159,-0.00439319113535732,-0.0010793507184062,-0.0165133879247804,5.17457743806381,-1.48342837770389,-4.24127625767312,-0.00875269529964504,0.0235139436285345,-0.0118597407300667
0.6,-1.15600690407774,2.61299461742378,5.49257732829756,-0.011909902952099,0.00107705751778573,-0.0158445197356565,-5.75402255539075,-10.6430617505924,0.0546122156231945,0.000164057084042544,0.00511006388522764,-0.0066930871195744,-3.95543738999277,1.66078126437407,4.18643061839829,-0.00108950381980415,-0.000733260565639059,-0.0160512993298672,5.16840840904229,-1.48205109250424,-4.23673805317515,-0.00683235802308578,0.0238481541068543,-0.0106463625642314
0.605,-1.15518398925832,2.61033422033801,5.48795143422672,-0.00944366246622988,0.00020390171082529,-0.0146498279656937,-5.74922010055843,-10.6323632732665,0.0544027279141517,0.00273975601424036,0.00526175993520913,-0.0069139920609612,-3.9523883080717,1.65875409192319,4.18215639586499,0.00161060683912736,-0.000559478987034433,-0.0154798908234269,5.16223938002054,-1.48067380730458,-4.23219984867706,-0.00484792100965683,0.0241707727285013,-0.00939338463776172
0.61,-1.1543610744389,2.60767382325223,5.48332554015565,-0.00739002065195108,-0.000735914748257183,-0.0134904582650098,-5.74441764572589,-10.6216647959405,0.0541932402051373,0.00472269786684276,0.00535199719217659,-0.00711896530414827,-3.94933922615087,1.65672691947231,4.1778821733317,0.00373794755604643,-0.000530040358043471,-0.0148333101897222,5.15607035099902,-1.47929652210496,-4.22766164417908,-0.0027959234815852,0.0244014553404087,-0.00807969676519689
0.615,-1.15353815961947,2.60501342616646,5.47869964608458,-0.00568754773226222,-0.00172143869387107,-0.0123461852224424,-5.73961519089357,-10.6109663186145,0.053983752496066,0.00618408949570378,0.00537374283524474,-0.00729555897404561,-3.94629014423003,1.65469974702137,4.17360795079841,0.00534938977706334,-0.000602927153144688,-0.014162592516558,5.1499013219775,-1.47791923690531,-4.2231234396811,-0.0006804332582851,0.0244617824875651,-0.00670100467836085
0.62,-1.15271524480011,2.60235302908069,5.47407375201351,-0.00427323678092175,-0.0027237727047505,-0.011199252162362,-5.73481273606103,-10.6002678412886,0.0537742647870232,0.00720404231989978,0.0053239996187576,-0.00743385083565799,-3.94324106230897,1.65267257457049,4.16933372826512,0.00651028470175057,-0.000734408519482238,-0.0135238098464811,5.14373229295552,-1.47654195170563,-4.21858523518307,0.00149067742446857,0.0242607368894286,-0.00526253983126076
0.625,-1.15189232998068,2.59969263199492,5.46944785794244,-0.00309484373197977,-0.00369486222805996,-0.0100295099066242,-5.73001028122872,-10.5895693639626,0.0535647770780088,0.00785883745421535,0.00520565070637161,-0.00752942574284354,-3.94019198038814,1.65064540211955,4.16505950573183,0.00728560887114723,-0.00088902266032152,-0.0129631567871465,5.137563263934,-1.47516466650598,-4.21404703068509,0.00370797395388996,0.0237216907255754,-0.00377816078121787
0.63,-1.15106941516126,2.59703223490915,5.46482196387137,-0.00211265116505254,-0.00457308607928359,-0.00882422477308211,-5.72520782639617,-10.5788708866367,0.0533552893689375,0.00822233232019805,0.00501974860511032,-0.00758116276500917,-3.9371428984673,1.64861822966867,4.16078528319852,0.00774254803791395,-0.00104153566620859,-0.0125073212493819,5.13139423491248,-1.47378738130635,-4.209508826187,0.00595791954340487,0.0228378359343566,-0.00227904495465824
0.635,-1.15024650034184,2.59437183782337,5.4601960698003,-0.00129332323397577,-0.0052991649438073,-0.00758621349382681,-5.72040537156386,-10.5681724093107,0.0531458016598947,0.00836996385327816,0.00476195845169235,-0.0075877628422785,-3.93409381654624,1.64659105721773,4.15651106066524,0.00795297584454695,-0.00117246310112799,-0.0121661372003712,5.12522520589073,-1.4724100961067,-4.20497062168903,0.00822144317685811,0.0216791119035609,-0.000818405543318791
0.64,-1.14942358552247,2.5917114407376,5.45557017572924,-0.000600794869989749,-0.00583530354284563,-0.00633199460268664,-5.71560291673131,-10.5574739319847,0.0529363139508519,0.00837910585930515,0.00442579454799684,-0.00754625056210966,-3.9310447346254,1.64456388476685,4.15223683813194,0.00799135778457609,-0.00126249967062191,-0.0119434127812604,5.11905617686921,-1.47103281090705,-4.200432417191,0.010478977789963,0.02034692602829,0.00053515322895781
0.645,-1.14860067070305,2.58905104365184,5.45094428165817,6.346952766423e-06,-0.00616992227167073,-0.00508482918398146,-5.710800461899,-10.5467754546588,0.052726826241809,0.00832576808633598,0.00400679096053031,-0.00745280519875859,-3.92799565270457,1.64253671231597,4.14796261559866,0.00793080046301492,-0.00129169856797921,-0.0118419341701372,5.11288714784769,-1.4696555257074,-4.19589421269302,0.0127168363027638,0.0189370402408711,0.00170817910833983
0.65,-1.14777775588362,2.58639064656607,5.4463183875871,0.000568628760919305,-0.0063022764420731,-0.00386948914449881,-5.70599800706646,-10.5360769773328,0.0525173385327662,0.00827948810975121,0.00350502756681512,-0.00730378207707003,-3.92494657078373,1.64050953986504,4.14368839306536,0.00783862718207723,-0.00124159440707108,-0.0118618641786216,5.10671811882594,-1.46827824050774,-4.19135600819499,0.0149246909312624,0.0175268337104468,0.00262769975511095
0.655,-1.1469548410642,2.58373024948029,5.44169249351603,0.00111953978293437,-0.00623136280039686,-0.00270641987720775,-5.70119555223414,-10.5253785000068,0.0523078508236949,0.00829747484264674,0.00292336373582021,-0.00709664863774728,-3.92189748886267,1.63848236741416,4.13941417053206,0.00777066258734047,-0.00109740346303638,-0.0120017824708439,5.10054908980442,-1.46690095530809,-4.18681780369695,0.017089592111781,0.0161750823199196,0.00322788412529207
0.66,-1.14613192624478,2.58106985239452,5.43706659944496,0.00168505993932784,-0.00596057253955666,-0.0016062337784491,-5.6963930974016,-10.5146800226809,0.0520983631146521,0.00842141802056708,0.00226298398699347,-0.00683120844734782,-3.91884840694183,1.63645519496328,4.13513994799877,0.00776779366409409,-0.000849811499347332,-0.0122618326941322,5.09438006078267,-1.46552367010844,-4.18227959919898,0.0191969318801418,0.0149292449327337,0.00346153718369121
0.665,-1.14530901142541,2.57840945530874,5.43244070537389,0.00228461832970777,-0.00549868304740014,-0.000571430248539629,-5.69159064256928,-10.5039815453549,0.0518888754056093,0.00867866716262977,0.00152400690310674,-0.00650907921382689,-3.915799325021,1.63442802251234,4.13086572546548,0.00785716943513009,-0.000494368058446415,-0.0126427970814241,5.08821103176115,-1.46414638490879,-4.17774139470094,0.0212308128561015,0.0138283946225547,0.00330240077097309
0.67,-1.14448609660599,2.57574905822297,5.42781481130282,0.002929912433452,-0.00485371134587047,0.00040521065266934,-5.68678818773697,-10.493283068029,0.0516793876965664,0.00907990317310749,0.000709168983888096,-0.00613288005919461,-3.91275024309994,1.63240085006146,4.12659150293219,0.00805031424812725,-3.14179139516441e-05,-0.0131429871661101,5.08204200273963,-1.46276909970916,-4.17320319020291,0.023171823572604,0.0129009572993794,0.00274169923885888
0.675,-1.14366318178651,2.5730886611372,5.42318891723176,0.00362558973301662,-0.00403504518145448,0.00134719904678719,-5.68198573290442,-10.482584590703,0.0514698999875236,0.00961613834753871,-0.00017664515806794,-0.00570708702461787,-3.9097011611791,1.63037367761058,4.1223172803989,0.00834054369251196,0.000532084928887041,-0.0137575214045114,5.07587297371788,-1.46139181450951,-4.16866498570488,0.0250022610201868,0.0121669280139998,0.00179229238721987
0.68,-1.14284026696714,2.57042826405143,5.41856302316091,0.00437413489327823,-0.00305926341402505,0.00228124549064418,-5.67718327807188,-10.471886113377,0.0512604122784808,0.0102701240899054,-0.00112686415186877,-0.00523671795617047,-3.90665207925827,1.6283465051597,4.11804305786561,0.00871389696890678,0.00118610065389592,-0.0144779184745348,5.06970394469636,-1.46001452930983,-4.1641267812069,0.0267106737081557,0.0116400769137661,0.000487604607384898
0.685,-1.14201735214772,2.56776786696566,5.41393712908985,0.0051797730558949,-0.00194878507167524,0.00321467561847146,-5.67238082323956,-10.4611876360511,0.0510509245694379,0.0110322167910475,-0.00213110789593452,-0.00472396840190748,-3.90360299733743,1.6263193327087,4.11376883533231,0.00916397708170474,0.00192443932604265,-0.0152913807351277,5.06353491567484,-1.45863724411018,-4.15958857670893,0.0282871385514562,0.0113265157781075,-0.00113046801382321
0.69,-1.14119443732829,2.56510746987989,5.40931123501878,0.00604673062834365,-0.000727707612934397,0.00414387839199565,-5.66757836840725,-10.4504891587251,0.0508414368603667,0.0118957039159281,-0.00317692636950768,-0.00416887026634015,-3.90055391541637,1.62429216025788,4.10949461279901,0.00968698067001725,0.00274365357237723,-0.0161836277283699,5.05736588665309,-1.45725995891056,-4.15505037221089,0.0297202671271841,0.0112266933771752,-0.00301647528122914
0.695,-1.14037152250887,2.56244707279411,5.40468534094771,0.00697449023603937,0.000579925022219957,0.00507804515112813,-5.66277591357471,-10.4397906813992,0.0506319491513239,0.0128413552987837,-0.00425273317938864,-0.00357323247623504,-3.89750483349553,1.62226498780694,4.10522039026573,0.0102668905160661,0.00363630633147488,-0.0171423690510014,5.05119685763157,-1.4558826737109,-4.15051216771286,0.0309981189334939,0.011339379563756,-0.00511652966466441
0.7,-1.13954860768945,2.55978667570835,5.40005944687664,0.00795621810925781,0.00194957180005779,0.00603206483406185,-5.65797345874216,-10.4290922040732,0.050422461442281,0.0138397567468435,-0.00534475792519115,-0.00294170288658251,-3.8944557515747,1.62023781535606,4.10094616773243,0.0108783228689894,0.00459057177250644,-0.0181560008663613,5.04502782861005,-1.45450538851125,-4.14597396321483,0.0321051785409475,0.0116610972645191,-0.00736752240148993
0.705,-1.13872569287008,2.55712627862258,5.39543355280557,0.00898097750644899,0.00335628157311479,0.0070078071791203,-5.65317100390985,-10.4183937267472,0.0502129737332382,0.0148637486075861,-0.00643459932680737,-0.00228015484131495,-3.89140666965386,1.61821064290513,4.09667194519915,0.0114985457050743,0.00559462097201128,-0.0192124974346417,5.0388587995883,-1.4531281033116,-4.14143575871685,0.033020549897442,0.0121844610628642,-0.00970308340866151
0.71,-1.13790277805066,2.55446588153681,5.3908076587345,0.0100353005019589,0.00477739584657225,0.00800021492882276,-5.64836854907753,-10.4076952494213,0.0500034860241954,0.0158892818766982,-0.00750342319692871,-0.00159557738849122,-3.8883575877328,1.61618347045425,4.09239772266584,0.0121075827492466,0.00663721337572252,-0.0203029818478183,5.03268977056678,-1.45175081811195,-4.13689755421888,0.0337230704486249,0.0128994556814914,-0.0120589619261171
0.715,-1.13707986323124,2.55180548445103,5.38618176466343,0.0111031760675649,0.00619455704123872,0.00900701630271632,-5.64356609424499,-10.3969967720953,0.0497939983151241,0.0168925927865605,-0.00853529190346177,-0.000897210818967956,-3.88530850581196,1.61415629800331,4.08812350013255,0.0126853012227346,0.00770599586498004,-0.0214239321211744,5.02652074154503,-1.45037353291229,-4.13235934972079,0.0341965053916923,0.0137937434183581,-0.0143750483845786
0.72,-1.13625694841181,2.54914508736525,5.38155587059236,0.0121665693213079,0.00759224742880534,0.0100223062854481,-5.63876363941245,-10.3862982947693,0.0495845106061097,0.0178541962908656,-0.00951584170990626,-0.000196725667372922,-3.88225942389113,1.61212912555249,4.08384927759926,0.0132157993082448,0.00878776588429765,-0.0225750605984929,5.02035171252328,-1.44899624771264,-4.12782114522281,0.0344304457837074,0.0148507927079461,-0.0165961411358
0.725,-1.13543403359245,2.54648469027948,5.3769299765213,0.0132068944182962,0.0089537582042016,0.0110282890129038,-5.63396118458013,-10.3755998174434,0.0493750228970669,0.0187632529431327,-0.0104311570063741,0.000492501519734745,-3.87921034197007,1.61010195310149,4.07957505506597,0.0136919688498041,0.00986960445550047,-0.0237569193904871,5.01418268350176,-1.44761896251299,-4.12328294072478,0.0344200260607992,0.0160497617822459,-0.0186724179745514
0.73,-1.13461111877302,2.54382429319372,5.37230408245023,0.014206507494386,0.0102572078599389,0.0119937250867197,-5.62915872974781,-10.3649013401174,0.0491655351879956,0.0196180768022335,-0.0112683957009458,0.00115627574727679,-3.87616126004923,1.60807478065067,4.07530083253268,0.0141159965632448,0.0109393686010085,-0.0249696303536935,5.00801365448001,-1.44624167731337,-4.11874473622674,0.0341665331018726,0.0173673780572836,-0.0205593712525152
0.735,-1.1337882039536,2.54116389610794,5.36767818837916,0.0151494140224629,0.011474643664048,0.0128772400202848,-5.62435627491527,-10.3542028627915,0.0489560474789528,0.0204239156539795,-0.0120164910532659,0.00178035096934631,-3.87311217812839,1.60604760819973,4.07102660999938,0.0144972325435982,0.0119854428614439,-0.0262115340810635,5.00184462545849,-1.44486439211371,-4.11420653172871,0.033678924896561,0.0187790907398723,-0.0222173108585246
0.74,-1.13296528913418,2.53850349902217,5.36305229430809,0.0160214706354431,0.0125736506961009,0.0136329771283752,-5.61955382008273,-10.3435043854655,0.0487465597698815,0.0211895737587639,-0.0126666702891055,0.00235116617976294,-3.87006309620756,1.60402043574885,4.06675238746608,0.0148489384275841,0.0129962344350952,-0.0274778014903304,4.99567559643697,-1.44348710691403,-4.10966832723074,0.0329755868144519,0.0202591291096053,-0.0236107051986888
0.745,-1.13214237431475,2.5358431019364,5.35842640023725,0.016810960845901,0.0135186108374788,0.0142150626076521,-5.61475136525064,-10.3328059081395,0.0485370720608671,0.0219248677172929,-0.013213050179087,0.00285686064090948,-3.8670140142865,1.60199326329791,4.0624781649328,0.0151856444107493,0.0139603269378551,-0.0287597454534644,4.98950656741522,-1.44210982171438,-4.10513012273276,0.0320852323051128,0.0217805145428174,-0.024707494711139
0.75,-1.13131945949539,2.53318270485063,5.35380050616618,0.0175092538675319,0.0142717336202019,0.0145807104245735,-5.6099489104181,-10.3221074308136,0.0483275843518243,0.0226389378645193,-0.0136532282955198,0.00328832349830952,-3.86396493236566,1.59996609084703,4.0582039423995,0.0155211541790295,0.0148671461868945,-0.0300450864306193,4.9833375383937,-1.44073253651476,-4.10059191823473,0.0310466048903638,0.0233153343863059,-0.0254787542133471
0.755,-1.13049654467596,2.53052230776485,5.34917461209511,0.0181108765360012,0.0147956413737545,0.0146942205913014,-5.60514645558555,-10.3114089534876,0.048118096642753,0.0233383461469438,-0.0139889800975013,0.00363985402925972,-3.86091585044483,1.5979389183961,4.0539297198662,0.0158662886014008,0.015707416955613,-0.0313190275361411,4.97716850937218,-1.43935525131511,-4.09605371373669,0.0299074886435441,0.0248352220752748,-0.0258994508945468
0.76,-1.12967362985654,2.52786191067909,5.34454871802404,0.0186133365053232,0.0150575085127164,0.0145313807851876,-5.60034400075301,-10.3007104761616,0.0479086089337386,0.0240254043537663,-0.014226788919591,0.0039096391134339,-3.85786676852376,1.59591174594522,4.04965549733291,0.0162268587779643,0.0164735899277863,-0.0325655727738396,4.97099948035043,-1.43797796611545,-4.09151550923866,0.0287234563688318,0.02631183914087,-0.0259501342378882
0.765,-1.12885071503712,2.52520151359332,5.33992282395297,0.0190168526255435,0.0150335343861751,0.0140822674879578,-5.59554154592092,-10.2900119988357,0.0476991212246674,0.0246973267094958,-0.0143774412140643,0.00410013705819596,-3.85481768660293,1.59388457349434,4.04538127479961,0.0166026059236187,0.0171603216935471,-0.0337681798674445,4.96483045132891,-1.43660068091577,-4.08697730474069,0.0275558752146586,0.0277169251341935,-0.0256185524918149
0.77,-1.12802780021775,2.52254111650755,5.33529692988191,0.0193237772148809,0.0147154199320977,0.0133537849264707,-5.59073909108838,-10.2793135215097,0.0474896335156245,0.0253459573583226,-0.0144543457881089,0.00421811118307874,-3.85176860468209,1.59185740104346,4.04110705226633,0.0169869971876971,0.0177646600354987,-0.0349094174404545,4.95866142230739,-1.43522339571615,-4.08243910024271,0.0264693313308834,0.0290218059444127,-0.0249015375107713
0.775,-1.12720488539833,2.51988071942176,5.33067103581084,0.0195402634973648,0.0141229144104375,0.0123779772987287,-5.58593663625584,-10.2686150441838,0.0472801458065817,0.0259593288151317,-0.014472604091562,0.00427511693688426,-3.84871952276126,1.58983022859252,4.03683282973303,0.017368546369835,0.018287169700978,-0.0359713805121106,4.95249239328564,-1.4338461105165,-4.07790089574462,0.0255297592501268,0.0301983352696647,-0.0238108205648816
0.78,-1.1263819705789,2.51722032233599,5.32604514173977,0.019682770827726,0.0133129614031761,0.011219543693067,-5.58113418142329,-10.2579165668578,0.0470706580975389,0.0265283750028874,-0.0144495583143858,0.00428903664075302,-3.84567044084019,1.58780305614164,4.03255860719975,0.0177365234477972,0.0187355543823196,-0.0369380776981697,4.94632336426412,-1.43246882531685,-4.07336269124664,0.0248021106429774,0.0312226359549198,-0.0223823305221431
0.785,-1.12555905575948,2.51455992525023,5.3214192476687,0.0197829908764484,0.0123658189926659,0.00995883029003942,-5.57633172659121,-10.2472180895318,0.046861170388496,0.0270573146056187,-0.0144005237356461,0.00428408007047482,-3.84262135891936,1.58577588369076,4.02828438466645,0.0180911705498022,0.01912770604619,-0.0377953745579808,4.94015433524237,-1.43109154011719,-4.06882448674861,0.024346061826869,0.0320762137241628,-0.0206764633544014
0.79,-1.12473614094006,2.51189952816446,5.31679335359763,0.0198834659898921,0.0113568006616868,0.0086594526248968,-5.57152927175866,-10.2365196122059,0.0466516826794248,0.0275670228122244,-0.0143304601042598,0.00428747855990559,-3.83957227699852,1.58374871123982,4.02401016213315,0.0184486236523638,0.0194896140183531,-0.0385274120289438,4.93398530622085,-1.42971425491757,-4.06428628225063,0.0242119899258879,0.0327417648509287,-0.0187657390145382
0.795,-1.12391322612069,2.50923913107868,5.31216745952656,0.0200287292972654,0.0103431012855706,0.00735948532681165,-5.56672681692612,-10.2258211348799,0.0464421949703819,0.0280864312504827,-0.0142328830509524,0.0043258349478844,-3.83652319507746,1.58172153878894,4.01973593959985,0.0188335253444893,0.0198499484951679,-0.0391162439003829,4.92781627719933,-1.42833696971789,-4.05974807775254,0.0244391679114536,0.0332005600421426,-0.0167259535235781
0.8,-1.12309031130121,2.50657873399291,5.30754156545549,0.0202597317091788,0.00936954438615912,0.00608561797740358,-5.56192436209358,-10.2151226575539,0.0462327072613391,0.0286419138516117,-0.0140955048753091,0.00442355590167262,-3.83347411315663,1.57969436633806,4.01546171706657,0.0192683555769152,0.0202361529015478,-0.0395452009544784,4.92164724817758,-1.42695968451824,-4.05520987325457,0.0250554062637346,0.0334335841989585,-0.0146376639455047
0.805,-1.12226739648179,2.50391833690714,5.30291567138443,0.0206114886207848,0.00847779726656209,0.00486484100418313,-5.55712190726149,-10.204424180228,0.0460232195522963,0.0292523047552395,-0.0139040191630798,0.00460242079192803,-3.83042503123579,1.57766719388712,4.01118749453327,0.0197682301027982,0.0206728667871559,-0.0398010451544485,4.91547821915606,-1.42558239931859,-4.05067166875659,0.0260768817259688,0.0334226359458173,-0.0125894708145407
0.81,-1.12144448166242,2.50125793982136,5.29828977731358,0.0211119158317713,0.00771168408454623,0.00372863154136209,-5.55231945242895,-10.193725702902,0.0458137318432534,0.0299277264355364,-0.0136434702299049,0.00488127224255764,-3.82737594931473,1.57564002143619,4.00691327199999,0.0203398058964199,0.0211811310765853,-0.0398741143943451,4.90930919013454,-1.42420511411896,-4.04613346425856,0.0275076659986667,0.0331509947278331,-0.0106780612852633
0.815,-1.120621566843,2.4985975427356,5.29366388324229,0.0217817976605287,0.00711770455526773,0.00271265138330768,-5.5475169975964,-10.1830272255761,0.0456042441341822,0.0306703848643065,-0.0132993310685215,0.00527598549527473,-3.82432686739389,1.57361284898531,4.00263904946668,0.0209821947593252,0.0217781105967505,-0.0397576787453985,4.90314016111279,-1.42282782891931,-4.04159525976053,0.0293390589881683,0.0326047938805666,-0.0090054664827448
0.82,-1.11979865202358,2.49593714564983,5.28903798917145,0.0226351099470058,0.00674039407597648,0.00185203588623808,-5.54271454276409,-10.1723287482501,0.0453947564251393,0.0314761266476353,-0.012858008488457,0.00579954742947382,-3.82127778547283,1.57158567653443,3.9983648269334,0.0216886652686296,0.0224770954102769,-0.0394469455730033,4.89697113209104,-1.42145054371966,-4.03705705526249,0.0315479812101215,0.0317751690926046,-0.00767443012832628
0.825,-1.11897573720415,2.49327674856406,5.28441209510038,0.0236780305300916,0.00661495500560406,0.00117522409203106,-5.53791208793155,-10.1616302709241,0.0451852687161249,0.0323346847369721,-0.0123070374907271,0.00646139098056592,-3.81822870355199,1.56955850408355,3.9940906044001,0.0224472929783926,0.0232864806964382,-0.038937907534118,4.89080210306952,-1.42007325851998,-4.03251885076452,0.0340940437910188,0.0306609256503807,-0.00678227414893916
0.83,-1.11815282238473,2.49061635147827,5.27978620102931,0.0249068613132148,0.00676189217542284,0.000700699305543584,-5.53310963309923,-10.1509317935982,0.0449757810070537,0.0332285661691635,-0.0116362680777311,0.00726604681008842,-3.81517962163093,1.56753133163261,3.98981638186682,0.0232402886819002,0.0242078536220163,-0.0382270936934772,4.88463307404777,-1.41869597332035,-4.02798064626654,0.0369172064053856,0.0292718034194648,-0.00641385828577238
0.835,-1.11732990756536,2.4879559543925,5.27516030695824,0.0263064931784243,0.00718841041457184,0.000439971518019904,-5.52830717826669,-10.1402333162722,0.0447662932980109,0.0341319800079892,-0.0108400846225844,0.00821181333272536,-3.8121305397101,1.56550415918167,3.98554215933352,0.024043030784426,0.0252344411821217,-0.0373130355309876,4.87846404502625,-1.4173186881207,-4.02344244176845,0.0399398913351128,0.0276304536758482,-0.00663288477096815
0.84,-1.11650699274594,2.48529555730673,5.27053441288717,0.0278500895136036,0.00790019772468797,0.000410350986240735,-5.52350472343437,-10.1295348389462,0.044556805588968,0.0350101205441515,-0.00992002447786232,0.00928920515937351,-3.80908145778926,1.56347698673085,3.98126793680022,0.0248232635554078,0.0263497322662449,-0.0361990061834485,4.8722950160045,-1.41594140292105,-4.01890423727048,0.0430770657184746,0.0257688520206862,-0.00746918965610219
0.845,-1.11568407792652,2.48263516022097,5.2659085188161,0.0295007144155938,0.00891044572808829,0.000644082780892567,-5.51870226860183,-10.1188363616203,0.0443473178799252,0.0358211722617632,-0.00888616970835925,0.0104800107187764,-3.80603237586843,1.56144981427991,3.97699371426692,0.0255428693082861,0.027527443058455,-0.0348954248170207,4.86612598698298,-1.4145641177214,-4.01436603277244,0.046245915501036,0.0237217618512566,-0.00890833544873282
0.85,-1.11486116310709,2.47997476313519,5.26128262474504,0.0312159418079042,0.0102267065839884,0.00117381502397329,-5.51389981376951,-10.1081378842943,0.0441378301708824,0.0365234459402611,-0.00775514367117678,0.0117592186007754,-3.80298329394736,1.55942264182903,3.97271949173364,0.0261642552129519,0.0287355775243799,-0.0334204095338983,4.85995695796146,-1.41318683252177,-4.00982782827447,0.0493628447509958,0.0215251833075169,-0.0108963248358229
0.855,-1.11403824828767,2.47731436604942,5.25665673067397,0.0329527552482073,0.0118341317196043,0.00201504894132797,-5.50909735893697,-10.0974394069684,0.0439283424618111,0.0370815896387376,-0.00654716467584201,0.0130980767958568,-3.79993421202653,1.55739546937809,3.96844526920034,0.0266557264157773,0.0299412784849713,-0.0317992434514545,4.85378792893971,-1.41180954732209,-4.00528962377643,0.0523405164491612,0.0192163147952164,-0.0133529392910402
0.86,-1.1132153334683,2.47465396896365,5.2520308366029,0.0346684924230499,0.0137007540705749,0.00316796550925091,-5.50429490410465,-10.0867409296424,0.0437188547527967,0.0374675058248155,-0.005284266917026,0.014464843003074,-3.79688513010569,1.55536829692721,3.96417104666706,0.0269926798427474,0.0311113373937286,-0.0300617883241273,4.84761889991819,-1.41043226212244,-4.0007514192784,0.0550989685488761,0.0168280118337937,-0.0161767861413656
0.865,-1.11239241864888,2.47199357187788,5.24740494253183,0.0363192738062913,0.015786990055219,0.00461729768444924,-5.49949244927211,-10.0760424523164,0.0435093670437254,0.0376609895104651,-0.00398757694596552,0.0158250691686604,-3.79383604818486,1.55334112447628,3.95989682413375,0.0271591920864166,0.0322114809356825,-0.028237085864925,4.84144987089667,-1.40905497692279,-3.99621321478043,0.0575746041985187,0.0143858184194396,-0.0192474116726954
0.87,-1.11156950382946,2.46933317479211,5.24277904846076,0.037859069363021,0.0180427656827386,0.00632210276879438,-5.4946899944398,-10.0653439749905,0.0432998793346826,0.0376506382098899,-0.00267497747400367,0.0171434388206486,-3.79078696626379,1.5513139520254,3.95562260160047,0.0271491178849166,0.0332077329308481,-0.0263496679089045,4.83528084187492,-1.40767769172317,-3.99167501028239,0.0597167991388315,0.0119147597670173,-0.0224340924442561
0.875,-1.11074658901003,2.46667277770634,5.23815315438969,0.0392390596083088,0.0204041451777241,0.0082141876727109,-5.48988753960725,-10.0546454976645,0.0430903916256398,0.0374308448256931,-0.00136203003703585,0.0183853815783751,-3.78773788434296,1.54928677957446,3.95134837906717,0.0269626764961682,0.0340672224757355,-0.0244196091256024,4.8291118128534,-1.40630040652351,-3.98713680578442,0.0614849514328143,0.009448340091291,-0.0256058715081449
0.88,-1.10992367419067,2.46401238062057,5.23352726031862,0.040407593146157,0.0227931962417713,0.0102065561343227,-5.48508508477494,-10.0439470203386,0.0428809039165969,0.0369963168309234,-6.57269645139178e-05,0.0195181190765288,-3.78468880242212,1.54725960712358,3.94707415653389,0.0266002735298531,0.0347581085739683,-0.0224651014730033,4.82294278383188,-1.40492312132386,-3.98259860128633,0.0628501155086051,0.00703544048318934,-0.028639763919536
0.885,-1.10910075937119,2.46135198353479,5.22890136624778,0.0413105523555428,0.0251167821382872,0.012199358979548,-5.48028262994239,-10.0332485430126,0.0426714162075541,0.0363383133466927,0.00119175266550285,0.0205117229794969,-3.78163972050106,1.5452324346727,3.94279993400059,0.0260578737717976,0.035250101253411,-0.0205057074487514,4.81677375481013,-1.40354583612418,-3.97806039678835,0.0637957583507488,0.00474746839056799,-0.0314265989174262
0.89,-1.10827784455182,2.45869158644901,5.22427547217671,0.0418886030242031,0.0272680813113404,0.0140790155869478,-5.47548017511008,-10.0225500656866,0.0424619284984828,0.0354428515216719,0.00238262288150402,0.0213385105463204,-3.77859063858023,1.54320526222176,3.93852571146731,0.0253255617212059,0.0355131112611354,-0.0185615112606822,4.81060472578861,-1.40216855092456,-3.97352219229032,0.0643182746627984,0.00268226840650487,-0.0338680670931342
0.895,-1.1074549297324,2.45603118936324,5.21964957810565,0.0420688757176422,0.0291333406526197,0.0157165250802752,-5.47067772027776,-10.0118515883607,0.04225244078944,0.0342864539044388,0.00347691710396354,0.0219691061899764,-3.77554155665939,1.54117808977088,3.934251488934,0.0243857325180235,0.0355109521582821,-0.0166465074519132,4.80443569676709,-1.40079126572491,-3.96898398779234,0.0644273815481033,0.00095978000626297,-0.0358611558912007
0.9,-1.10663201491298,2.45337079227748,5.21502368403458,0.0417648708117345,0.0306118260871023,0.0169882085207256,-5.46587526544522,-10.0011531110347,0.0420429530803972,0.0328319359789395,0.0044490788244036,0.0223699985043529,-3.77249247473856,1.53915091732,3.92997726640071,0.0232106972278806,0.0351975410664147,-0.0147632131582981,4.79826666774534,-1.39941398052525,-3.96444578329431,0.0641497889066424,-0.000303623356659561,-0.0372927191266291
0.905,-1.10580910009361,2.45071039519171,5.21039778996351,0.0409145832288861,0.0316475996808998,0.0178256775123663,-5.46107281061268,-9.99045463370874,0.0418334653713544,0.0310483323302684,0.00528693876374734,0.0225140424290703,-3.76944339281749,1.53712374486906,3.92570304386741,0.0217775635194751,0.0345365097374259,-0.0129120662285618,4.79209763872382,-1.3980366953256,-3.95990757879628,0.0635340789645035,-0.00105481700969678,-0.0380815567291685
0.91,-1.10498618527413,2.44804999810593,5.20577189589244,0.0395377959707265,0.0322374605276628,0.0182358313408218,-5.45627035578036,-9.97975615638278,0.0416239776623115,0.0289578333258427,0.00599735475298403,0.0223995424987661,-3.76639431089666,1.53509657241818,3.92142882133413,0.0201049032711089,0.0335385147889775,-0.0111127941199714,4.78592860970207,-1.39665941012598,-3.9553693742983,0.0626366265047335,-0.0013512714672939,-0.038237052797511
0.915,-1.10416327045476,2.44538960102016,5.20114600182137,0.0377378771156274,0.0324032512034483,0.0182563689890231,-5.45146790094805,-9.96905767905682,0.0414144899532403,0.0266530231027409,0.00660149333777052,0.022053227545265,-3.76334522897582,1.5330693999673,3.91715459880083,0.0182678075979526,0.0322687394299007,-0.00940949559801952,4.77975958068032,-1.3952821249263,-3.95083116980027,0.0614942308935488,-0.0013294740818455,-0.0378538102492038
0.92,-1.10334035563534,2.44272920393439,5.1965201077503,0.0356429951389542,0.0321679510537278,0.0179114243013912,-5.4466654461155,-9.95835920173085,0.0412050022442259,0.0242566488574396,0.00712360171443792,0.0215127223386199,-3.76029614705476,1.53104222751642,3.91288037626754,0.016366811640838,0.0308123891335435,-0.00785190218942657,4.7735905516588,-1.39390483972664,-3.94629296530223,0.0601164328174824,-0.00112761017873411,-0.0370514002150199
0.925,-1.10251744081597,2.44006880684862,5.19189421367923,0.0333594028780619,0.031554914619997,0.0172132020531782,-5.44186299128296,-9.94766072440489,0.040995514535183,0.0218753421951675,0.00758374465786203,0.0208108768287601,-3.75724706513392,1.52901505506549,3.90860615373424,0.014490135403482,0.0292419169747828,-0.00647813359052904,4.76742152263705,-1.39252755452699,-3.94175476080426,0.0584988421992218,-0.000843569566028401,-0.035934471424606
0.93,-1.10169452599649,2.43740840976285,5.18726831960817,0.0309638663539766,0.030592341860149,0.0161776774617835,-5.43706053645064,-9.93696224707893,0.0407860268261118,0.0195855565917461,0.00799688438339582,0.0199720200872624,-3.75419798321309,1.52698788261461,3.90433193120096,0.0127016647629867,0.0276087783127494,-0.00531094702370216,4.76125249361553,-1.39115026932737,-3.93721655630623,0.0566363109768483,-0.000536445692648414,-0.0345873920950721
0.935,-1.10087161117707,2.43474801267707,5.1826424255371,0.028510682640542,0.0293125628435847,0.014828467081633,-5.43225808161833,-9.92626376975297,0.0405765391170689,0.0174385381396097,0.00837429025507446,0.0190133773954851,-3.75114890129225,1.52496071016367,3.90005770866766,0.0110451766430761,0.0259466582928278,-0.00435917345650421,4.75508346459401,-1.38977298412772,-3.93267835180819,0.054529349384909,-0.000238475625881725,-0.0330759208763609
0.94,-1.1000486963577,2.4320876155913,5.17801653146603,0.0260388439877529,0.0277499569194511,0.0131946972934926,-5.42745562678579,-9.91556529242701,0.0403670514080261,0.015467812916712,0.00872515805662214,0.0179472139432869,-3.74809981937119,1.52293353771279,3.89578348613438,0.00955083596781249,0.0242760196004675,-0.00361910362212961,4.74891443557226,-1.38839569892806,-3.92814014731016,0.0521865334051159,3.5560377281506e-05,-0.0314479476456565
0.945,-1.09922578153828,2.42942721850553,5.17339063739485,0.0235783502497435,0.0259402996369445,0.0113087493037411,-5.42265317195324,-9.90486681510104,0.0401575636989833,0.0136960092718105,0.00905819271995964,0.016783109243202,-3.74505073745036,1.52090636526191,3.89150926360107,0.00824099476735548,0.0226086429789253,-0.00307590706342406,4.74274540655074,-1.38701841372838,-3.92360194281218,0.0496253533795516,0.000281345237180098,-0.0297351842557909
0.95,-1.09840286671886,2.42676682141975,5.168764743324,0.0211554885102506,0.0239217985382796,0.00920560657843478,-5.41785071712093,-9.89416833777508,0.0399480759899404,0.0121403697323892,0.00938278912866106,0.0155299698802796,-3.74200165552952,1.51887919281103,3.88723504106778,0.00713471977150644,0.0209516301457049,-0.00270534043785098,4.73657637752922,-1.38564112852876,-3.91906373831421,0.0468731520786257,0.000499833225311535,-0.027955417117142
0.955,-1.09757995189943,2.42410642433398,5.16413884925294,0.0187968555027569,0.0217370225085122,0.00692442666699883,-5.41304826228861,-9.88346986044912,0.0397385882808692,0.0108164055913326,0.00970938055363701,0.0141974865450584,-3.73895257360846,1.51685202036003,3.88296081853449,0.00625061619393987,0.0193103291268317,-0.00247562136266485,4.73040734850747,-1.38426384332911,-3.91452553381617,0.0439681576634208,0.000693476252522009,-0.026114938554221
0.96,-1.09675703708001,2.42144602724822,5.15951295518187,0.0165321283210727,0.0194344730468979,0.0045111153474499,-5.40824580745607,-9.87277138312316,0.0395291005718548,0.00974007943619695,0.0100490133456426,0.0127969121051212,-3.73590349168762,1.51482484790921,3.8786865960012,0.00560837998226614,0.0176901213804806,-0.00234936412877841,4.72423831948595,-1.38288655812946,-3.90998732931814,0.0409600314814065,0.000863542275069753,-0.0242108452562443
0.965,-1.09593412226064,2.41878563016245,5.15488706111068,0.0143940082183807,0.0170660571363009,0.00202102392606641,-5.40344335262353,-9.8620729057972,0.0393196128627835,0.00892512757596581,0.0104117204168578,0.0113413713912633,-3.73285440976679,1.51279767545827,3.87441237346791,0.00522550631391097,0.0160967613069112,-0.00228658462922025,4.7180692904642,-1.3815092729298,-3.90544912482011,0.0379081097026791,0.00100919498325971,-0.0222339185170345
0.97,-1.09511120744122,2.41612523307667,5.15026116703973,0.0124122127006225,0.0146762074376042,-0.000480332253814769,-5.39864089779144,-9.85137442847124,0.0391101251537407,0.00836967895153073,0.0108031436246293,0.00984660632121695,-3.72980532784595,1.51077050300739,3.87013815093462,0.00510303726703318,0.0145350008499678,-0.00224950113148793,4.71190026144268,-1.38013198773015,-3.90091092032213,0.0348750873057383,0.00112859586871508,-0.0201778241562882
0.975,-1.0942882926218,2.4134648359909,5.14563527296866,0.0106061005024636,0.0122936713459323,-0.00292665525592957,-5.3938384429589,-9.84067595114527,0.0389006374446978,0.00804566064900597,0.0112232325015079,0.00833345226301471,-3.72675624592489,1.50874333055646,3.86586392840131,0.00521391312397444,0.0130094167449834,-0.0022055446013534,4.70573123242116,-1.3787547025305,-3.8963727158241,0.0319197654711172,0.00121837847056959,-0.0180578564345177
0.98,-1.09346537780237,2.41080443890513,5.14100937889759,0.00898598600374904,0.00993985385795955,-0.00527119713785576,-5.38903598812635,-9.82997747381931,0.038691149735655,0.00791326158727571,0.0116704217253624,0.00682987600538796,-3.72370716400405,1.50671615810558,3.86158970586801,0.00551684475679512,0.0115300778231838,-0.00212608459327697,4.69956220339941,-1.37737741733085,-3.89183451132607,0.0290953296115543,0.00127066790844088,-0.0159199459353477
0.985,-1.09264246298295,2.40814404181936,5.13638348482652,0.00755983024354418,0.00764123267486608,-0.00749357482736933,-5.38423353329381,-9.81927899649335,0.0384816620266122,0.00794286112757734,0.0121451264877178,0.00536774432697491,-3.72065808208322,1.50468898565464,3.85731548333473,0.00597885648568013,0.0101145981688981,-0.00198567050747448,4.69339317437789,-1.3760001321312,-3.88729630682809,0.0264541706531806,0.00127272233992513,-0.0138213282641295
0.99,-1.09181954816358,2.40548364473358,5.13175759075546,0.00633522529917979,0.00542959500953611,-0.00958242133705652,-5.37943107846172,-9.80858051916739,0.0382721743175694,0.00811606125520935,0.0126470314311364,0.00397611009063211,-3.71760900016238,1.50266181320382,3.85304126080143,0.00657753604685209,0.0087820780926795,-0.00176519344728369,4.68722414535637,-1.37462284693157,-3.88275810233006,0.024052939300865,0.00121030588266271,-0.0118029064900494
0.995,-1.09099663334416,2.40282324764781,5.12713169668439,0.00531782436997428,0.00333610858867425,-0.011524032736607,-5.37462862362918,-9.79788204184142,0.0380626866084981,0.00841983069225897,0.0131706136504416,0.00267747377107825,-3.71455991824132,1.50063464075282,3.84876703826815,0.00729534582662134,0.00754875111117764,-0.00145692226797546,4.68105511633462,-1.37324556173192,-3.87821989783208,0.0219469936869153,0.00107286541826064,-0.00987854884902324
1,-1.09017371852474,2.40016285056204,5.12250580261332,0.00450957083786481,0.00138828655574104,-0.0133079150875297,-5.36982616879664,-9.78718356451546,0.0378531988994837,0.00884708649720123,0.0137048506656996,0.00148717075226839,-3.71151083632049,1.49860746830194,3.84449281573484,0.00811982596401513,0.00642831057751536,-0.00106730102613757,4.6748860873131,-1.37186827653224,-3.87368169333399,0.0201762804586109,0.000857322057610646,-0.00803746583556468
1.005,-1.08935080370532,2.39750245347627,5.11787990854236,0.00390704472697102,-0.000393444117533982,-0.0149283003136783,-5.36502371396409,-9.7764850871895,0.0376437111904124,0.00939274850213164,0.0142386635823363,0.00041268116315851,-3.70846175439965,1.49658029585106,3.84021859320156,0.00904088990673306,0.00542985164826043,-0.00061199640222137,4.66871705829158,-1.37049099133259,-3.86914348883602,0.0187622870727725,0.000563660043927041,-0.00625045029449899
1.01,-1.08852788888595,2.39484205639049,5.11325401447129,0.00350207850535805,-0.00200132683590967,-0.0163788027339475,-5.360221259132,-9.76578660986354,0.0374342234813696,0.0100470191270572,0.0147662071714704,-0.000546438540436673,-3.70541267247859,1.49455312340018,3.83594437066826,0.0100459368171999,0.00455464213740928,-0.000107237308686845,4.66254802926983,-1.36911370613296,-3.86460528433798,0.017719512491108,0.00018614097086199,-0.00447784229669669
1.015,-1.08770497406647,2.39218165930473,5.10862812040023,0.00328262298869825,-0.00343734723345448,-0.0176479682216561,-5.35541880429946,-9.75508813253758,0.0372247357722983,0.0107943407409071,0.0152830129488902,-0.0013968833146527,-3.70236359055775,1.4925259509493,3.83167014813498,0.0111181164572212,0.00379720864082295,0.000428969993437856,4.65637900024808,-1.36773642093331,-3.86006707984001,0.0170592522332649,-0.000285540242624679,-0.00267594052677505
1.02,-1.0868820592471,2.38952126221896,5.10400222632916,0.003230943339744,-0.00469949788293188,-0.0187155799687778,-5.35061634946692,-9.74438965521161,0.0370152480632839,0.0116152690977083,0.01577563817954,-0.00214937861384742,-3.69931450863692,1.49049877849836,3.82739592560168,0.0122354735085474,0.00314928960754397,0.00096623398724262,4.65020997122633,-1.36635913573366,-3.85552887534197,0.0167791880595944,-0.000855701749310245,-0.000800435699595659
1.025,-1.08605914442768,2.38686086513319,5.09937633225809,0.00332178578829704,-0.00577325072209063,-0.0195521628025434,-5.34581389463438,-9.73369117788565,0.0368057603542411,0.0124868159320773,0.0162178243208162,-0.00281727751142695,-3.69626542671585,1.48847160604743,3.82312170306838,0.0133701923065257,0.00260169532926817,0.00145821033253592,4.64404094220481,-1.36498185053401,-3.85099067084394,0.0168565413071217,-0.00151804783015506,0.00119103702992134
1.03,-1.08523622960826,2.38420046804741,5.09475043818702,0.00352261711440193,-0.00663940588692584,-0.0201258075864254,-5.34101143980229,-9.72299270055969,0.0365962726451698,0.0133803004145713,0.0165808517215836,-0.00341670822105117,-3.69321634479479,1.48644443359655,3.81884748053508,0.01448900579969,0.00214173503038719,0.00185531390083934,4.63787191318329,-1.36360456533436,-3.84645246634597,0.0172532950168322,-0.00226392105337214,0.00333642266950627
1.035,-1.08441331478889,2.38154007096164,5.09012454411595,0.00379596322680867,-0.00728910846935827,-0.0204121918875252,-5.33620898496974,-9.71229422323373,0.036386784936127,0.0142597510381537,0.0168472613396332,-0.00396652749987914,-3.69016726287418,1.48441726114567,3.8145732580018,0.0155547891852642,0.00175050025544838,0.00212099686801742,4.63170288416154,-1.3622272801347,-3.84191426184793,0.0179252301787377,-0.00309242145206084,0.0056657226236927
1.04,-1.08359039996941,2.37887967387587,5.085498650045,0.00410214391483946,-0.00772730529914639,-0.0203962049957657,-5.3314065301372,-9.70159574590777,0.0361772972271126,0.0150825128578128,0.0170099102826348,-0.00448571623253939,-3.68711818095335,1.48239008869479,3.8102990354685,0.0165265228801834,0.00140528995085345,0.00223222778442757,4.62553385514002,-1.36084999493505,-3.8373760573499,0.0188234328661681,-0.00400780889732608,0.00819465034153368
1.045,-1.08276748515004,2.3762192767901,5.08087275597393,0.0044006899516595,-0.00796583805000958,-0.0200687212281247,-5.32660407530489,-9.6908972685818,0.0359678095180413,0.0158011375863246,0.01706366774055,-0.00499014900469628,-3.68406909903206,1.48036291624385,3.80602481293522,0.0173587265124244,0.00108410033930866,0.00217170233396121,4.6193648261185,-1.3594727097354,-3.83283785285192,0.0198903501031311,-0.00500969110431559,0.0109186738174782
1.05,-1.08194457033062,2.37355887970432,5.07624686190286,0.0046532721120067,-0.0080229088265613,-0.0194331933596731,-5.32180162047257,-9.68019879125584,0.0357583218089985,0.0163693822027016,0.0170067410043371,-0.00549083491296568,-3.68102001711122,1.47833574379297,3.80175059040191,0.0180072795257208,0.000768296372974247,0.00193002785581865,4.61319579709675,-1.35809542453578,-3.82829964835389,0.0210630311572456,-0.00608968101285994,0.0138111747376127
1.055,-1.08112165551125,2.37089848261855,5.07162096783179,0.00482853904624856,-0.00792665379155677,-0.0185145392635108,-5.31699916564003,-9.66950031392988,0.0355488340999557,0.0167500398050451,0.0168443569490855,-0.0059923378112194,-3.67797093519039,1.47630857134203,3.79747636786863,0.0184377432296026,0.000444911131418274,0.00151126271671773,4.60702676807523,-1.35671813933612,-3.82376144385591,0.0222808818050148,-0.0072314051574624,0.0168237601292695
1.06,-1.08029874069183,2.36823808553278,5.06699507376072,0.00490427793081179,-0.00771188095957021,-0.0173576244516288,-5.31219671080748,-9.65880183660392,0.0353393463909129,0.016917594435833,0.0165862605998707,-0.00649135153791974,-3.67492185326955,1.47428139889115,3.79320214533533,0.0186274263036339,0.000108399580380161,0.00093218587142679,4.60085773905371,-1.35534085413644,-3.81922323935783,0.0234876406966822,-0.00840778626294283,0.019886817313387
1.065,-1.07947582587235,2.36557768844701,5.06236917968965,0.00486617001482471,-0.0074130584744972,-0.0160228731546614,-5.30739425597517,-9.64810335927796,0.0351298586818416,0.0168575452573552,0.0162446865679327,-0.00697685766161013,-3.67187277134849,1.47225422644021,3.78892792280205,0.018564501164476,-0.000239644472394782,0.000220928322208664,4.59468871003196,-1.35396356893679,-3.81468503485985,0.0246305335544603,-0.00957889385085599,0.0229115976909568
1.07,-1.07865291105298,2.36291729136124,5.0577432856187,0.00470852551244233,-0.00706357731773288,-0.0145847377751611,-5.30259180114263,-9.63740488195199,0.0349203709727988,0.0165685468213588,0.0158347516369733,-0.00743166204597333,-3.66882368942765,1.47022705398939,3.78465370026875,0.018250281590391,-0.000591088826149196,-0.000584337520220483,4.58851968101044,-1.35258628373717,-3.81014683036187,0.0256627616950803,-0.0106935122850725,0.0257958169150421
1.075,-1.07782999623356,2.36025689427547,5.05311739154763,0.00444117531333318,-0.0067051569854666,-0.0131249031767372,-5.29778934631031,-9.62670640462603,0.0347108832637559,0.0160678037610708,0.0153735748268563,-0.00783530837185084,-3.66577460750682,1.46819988153845,3.78037947773547,0.01770397526592,-0.000931011162678421,-0.00144238958469187,4.58235065198869,-1.35120899853752,-3.80560862586384,0.0265496693443841,-0.0116969916584267,0.0284366970375971
1.08,-1.07700708141414,2.3575964971897,5.04849149747656,0.0040945269445216,-0.00639028606724918,-0.011718909520542,-5.29298689147777,-9.61600792730007,0.0345013955547131,0.0153935637329376,0.0148790994639586,-0.00816768214055886,-3.66272552558598,1.46617270908757,3.77610525520215,0.016964769276503,-0.00123882461674983,-0.00231599023602192,4.57618162296717,-1.34983171333786,-3.80107042136586,0.0272725391753585,-0.0125419385889575,0.0307444270603586
1.085,-1.07618416659471,2.35493610010393,5.04386560340549,0.00371231477617566,-0.00616234244412002,-0.0104316973655949,-5.28818443664545,-9.60530944997411,0.0342919078456703,0.014600201540104,0.014367446020346,-0.00840808163584088,-3.65967644366492,1.46414553663664,3.77183103266887,0.0160869153955603,-0.00148922448407079,-0.00317098092578154,4.57001259394565,-1.34845442813821,-3.79653221686777,0.0278186584972934,-0.0131845011301209,0.0326294664787305
1.09,-1.07536125177529,2.35227570301815,5.03923970933442,0.00333736040717395,-0.00603608302005567,-0.0093277045613786,-5.28338198181291,-9.59461097264814,0.034082420136599,0.0137481478623436,0.0138478471945516,-0.00853009421996814,-3.65662736174409,1.46211836418576,3.76755681013557,0.0151293200592365,-0.00165168716423795,-0.00397159269612323,4.5638435649239,-1.34707714293856,-3.7919940123698,0.0281617067596892,-0.0135624262933327,0.033967716176925
1.095,-1.07453833695592,2.34961530593238,5.03461381526336,0.00300125899238997,-0.00600561362277709,-0.00847404569765299,-5.27857952698059,-9.58391249532218,0.0338729324275562,0.0128912019209318,0.0133252798722546,-0.00850516732073424,-3.65357827982325,1.46009119173482,3.76328258760229,0.0141450265455951,-0.00169785158797033,-0.00467558003748628,4.55767453590238,-1.34569985773891,-3.78745580787177,0.0282628769495181,-0.0135890922974253,0.0346042656707653
1.1,-1.07371542213644,2.34695490884661,5.02998792119229,0.00272536553141904,-0.00607364806816503,-0.00791824705149959,-5.27377707214805,-9.57321401799622,0.0336634447185418,0.0120654521478642,0.012810414166341,-0.00831709754138113,-3.65052919790219,1.45806401928394,3.75900836506899,0.0131739474983017,-0.00161590959295165,-0.00523644152683255,4.55150550688086,-1.34432257253926,-3.78291760337379,0.028103949413633,-0.0131934751216618,0.0344161124440922
1.105,-1.07289250731708,2.34429451176084,5.02536202712133,0.00253189364967522,-0.00627235658188288,-0.00766185102962272,-5.26897461731573,-9.56251554067026,0.0334539570094705,0.0112878709234249,0.0123191800586605,-0.00796882856275253,-3.64748011598135,1.456036846833,3.7547341425357,0.0122402410654603,-0.00141278253816374,-0.00561964572585019,4.54533647785911,-1.3429452873396,-3.77837939887576,0.0277094071282493,-0.0123664612562598,0.0333565566050425
1.11,-1.07206959249766,2.34163411467506,5.02073613305026,0.00244646821953566,-0.00664649229255482,-0.00767093084026158,-5.26417216248319,-9.55181706334429,0.0332444693004277,0.0105689572040046,0.0118629966377688,-0.00747558301789487,-3.64443103406052,1.45400967438218,3.7504599200024,0.011360486861626,-0.00110260162997957,-0.00581457176735817,4.53916744883759,-1.34156800213998,-3.77384119437772,0.0271305866771113,-0.0111534230510963,0.0314411115912494
1.115,-1.07124667767823,2.33897371758929,5.01611023897919,0.00248336833285559,-0.0072084291439322,-0.00791206548697405,-5.25936970765088,-9.54111858601833,0.0330349815913848,0.00993140364303693,0.0114448685288717,-0.00686172415830347,-3.64138195213968,1.45198250193124,3.74618569746912,0.0105613278994651,-0.000700560959213864,-0.00583335465274078,4.53299841981584,-1.3401907169403,-3.76930298987975,0.0264294498686593,-0.00962603313866763,0.0287460774885469
1.12,-1.07042376285887,2.33631332050352,5.01148434490813,0.00263409346978676,-0.00791540403508567,-0.0083619149670461,-5.25456725281856,-9.53042010869237,0.032825493882342,0.00941445751930134,0.0110596044753307,-0.00616478577062567,-3.63833287021862,1.4499553294803,3.74191147493582,0.00988454219000533,-0.000225467025999869,-0.00571250913735891,4.52682939079409,-1.33881343174065,-3.76476478538171,0.0256805031964125,-0.00788681024534512,0.0254364896749589
1.125,-1.06960084803939,2.33365292341775,5.00685845083706,0.00287680886690957,-0.00870163288077924,-0.00899107100586327,-5.24976479798602,-9.51972163136641,0.0326160061732992,0.00905827770453002,0.0106919621610858,-0.00543080424655362,-3.63528378829778,1.44792815702942,3.73763725240254,0.0093707299077906,0.000300652646456485,-0.00551128695773033,4.52066036177257,-1.33743614654099,-3.76022658088368,0.0249636648408439,-0.00606445058637068,0.0217430244575358
1.13,-1.06877793322002,2.33099252633198,5.00223255676599,0.0031948714230376,-0.0095292762928824,-0.00975901985074348,-5.24496234315347,-9.50902315404045,0.0324065184642279,0.00888911565396351,0.010316436206823,-0.00470098167418885,-3.63223470637695,1.44590098457854,3.73336302986922,0.00904410105448862,0.000857832745156802,-0.00529611531306546,4.51449133275105,-1.33605886134134,-3.75568837638565,0.0243468684365948,-0.00427192376947513,0.0178891127983883
1.135,-1.0679550184006,2.32833212924621,4.99760666269492,0.00358176219907744,-0.0103945934691336,-0.0106209972646325,-5.24015988832116,-9.49832467671449,0.0321970307552135,0.00891751932733399,0.00990195355940408,-0.00400441799107214,-3.62918562445589,1.44387381212766,3.72908880733594,0.00891163564638806,0.00143129447110776,-0.00512548257042975,4.5083223037293,-1.33468157614172,-3.75115017188767,0.0238772974964874,-0.00257862082406977,0.0140483598407224
1.14,-1.06713210358123,2.32567173216044,4.99298076862385,0.00403109952372081,-0.0112968065739365,-0.0115310376214577,-5.23535743348884,-9.48762619938852,0.0319875430461423,0.00913954309591719,0.00942040408530972,-0.00336079904830682,-3.62613654253505,1.44184663967678,3.72481458480264,0.00896650572384895,0.0020082875439852,-0.00504232330838165,4.50215327470778,-1.33330429094207,-3.7466119673897,0.0235854186510863,-0.00101720378109081,0.0103512203857336
1.145,-1.06630918876175,2.32301133507467,4.9883548745529,0.0045280344972721,-0.0122211345417111,-0.0124421894731976,-5.2305549786563,-9.47692772206256,0.0317780553370994,0.00953618767438794,0.00885379612871213,-0.00278603063881438,-3.62308746061422,1.43981946722585,3.72054036226936,0.0091899207655286,0.0025723579757879,-0.00506975691025733,4.49598424568603,-1.33192700574241,-3.74207376289161,0.0234956577578038,0.000402912757624638,0.00690565071891082
1.15,-1.06548627394233,2.32035093798888,4.98372898048183,0.00504924043288893,-0.0131381202665896,-0.013308267831214,-5.22575252382376,-9.4662292447366,0.0315685676280566,0.0100777671626194,0.00819296509809721,-0.00229427891367275,-3.62003837869338,1.43779229477491,3.71626613973606,0.0095551892718454,0.00310326502417631,-0.00521513604337753,4.48981521666451,-1.33054972054276,-3.73753555839363,0.0236276921957294,0.00168870434433083,0.00380639327865629
1.155,-1.06466335912296,2.31769054090311,4.97910308641076,0.00556653578785562,-0.0140021980680319,-0.0140851356692466,-5.22095006899144,-9.45553076741064,0.0313590799190138,0.0107313977396598,0.0074304086272148,-0.00189659971816096,-3.61698929677232,1.43576512232403,3.71199191720278,0.0100323940722606,0.00358229419738543,-0.00548185912293898,4.48364618764299,-1.32917243534311,-3.7329973538956,0.0239843730517614,0.00285889709097673,0.00113191599867332
1.16,-1.06384044430354,2.31503014381735,4.97447719233969,0.00605066146652434,-0.0147594378223242,-0.0147301005108733,-5.21614761415913,-9.44483229008467,0.0311495922099709,0.0114632170630428,0.00655709730254682,-0.00160042487836666,-3.61394021485148,1.43373794987309,3.70771769466947,0.0105889564379727,0.00399501656468677,-0.00587699423350867,4.47747715862124,-1.32779515014346,-3.72845914939762,0.0245456705053899,0.00393771036158982,-0.00105986199571771
1.165,-1.06301752948417,2.31236974673158,4.96985129826862,0.00647579550825781,-0.0153656332775583,-0.0152014776501505,-5.21134515932658,-9.43413381275871,0.0309401045009281,0.0122368993005887,0.00556457841834876,-0.0014102158973229,-3.61089113293065,1.43171077742221,3.70344347213619,0.0111886041668542,0.00433033258569763,-0.00641006159968436,4.47130812959972,-1.32641786494381,-3.72392094489959,0.0252783142989247,0.00494666752465441,-0.00273277153468642
1.17,-1.06219461466469,2.3097093496458,4.96522540419755,0.00682215948097331,-0.0157939980724149,-0.01545688330929,-5.20654270449404,-9.42343533543275,0.0307306167918568,0.0130122139112032,0.0044473430728487,-0.00132750908496747,-3.60784205100958,1.42968360497133,3.69916924960289,0.0117909381495575,0.00457901476685407,-0.00708804492468524,4.4651391005782,-1.32504057974415,-3.71938274040156,0.0261482383733097,0.00589729085496248,-0.00387313303810758
1.175,-1.06137169984532,2.30704895256003,4.96059951012649,0.0070745955153119,-0.0160258707456764,-0.0154506392523442,-5.20174024966173,-9.41273685810679,0.0305211290828424,0.0137444311091689,0.00320388842214487,-0.0013505294481501,-3.60479296908875,1.42765643252039,3.69489502706961,0.0123513750745417,0.00473315282575605,-0.0079121276884526,4.45897007155645,-1.32366329454453,-3.71484453590358,0.0271230035410354,0.00678807694590662,-0.0044898411956356
1.18,-1.0605487850259,2.30438855547426,4.95597361605553,0.00722226951949092,-0.0160398365151487,-0.0151376462069,-5.19693779482941,-9.40203838078083,0.0303116413737712,0.0143896193829036,0.00183641681504974,-0.00147296053778561,-3.60174388716791,1.42562926006951,3.69062080453631,0.0128259019171119,0.00478865910256042,-0.00887823716204878,4.45280104253493,-1.32228600934485,-3.71030633140555,0.0281669340117751,0.00760699781833234,-0.00461287663246707
1.185,-1.05972587020648,2.30172815838849,4.95134772198446,0.00726230832641141,-0.0158110199502899,-0.0144799200999207,-5.19213533999687,-9.39133990345486,0.0301021536647283,0.0149118092161983,0.000350057110081096,-0.00168165251810615,-3.59869480524708,1.42360208761863,3.68634658200301,0.0131771911538607,0.00474944336323182,-0.00997850478646453,4.44663201351341,-1.3209087241452,-3.70576812690751,0.029238615096732,0.00833678493764746,-0.00429461170764259
1.19,-1.05890295538705,2.29906776130272,4.94672182791339,0.0072025243358119,-0.0153150604306625,-0.0134478971686782,-5.18733288516432,-9.3806414261289,0.0298926659556571,0.015283734514807,-0.00124574031040292,-0.00195515794834863,-3.59564572332602,1.4215749151677,3.68207235946971,0.0133751535149221,0.00462895431609143,-0.0112001151825058,4.44046298449166,-1.31953143894555,-3.70122992240948,0.0302917201631628,0.0089580986606867,-0.00361375965590811
1.195,-1.05808004056763,2.29640736421695,4.94209593384232,0.00706116214367915,-0.0145276984621055,-0.0120240614565086,-5.18253043033224,-9.36994294880294,0.0296831782466143,0.0154884759950484,-0.00293452856622527,-0.00226409654363713,-3.59259664140518,1.41954774271682,3.67779813693642,0.0133990611610937,0.00445003225222571,-0.0125232084805157,4.43429395547014,-1.31815415374592,-3.69669171791151,0.0312754520212782,0.00945088551426505,-0.00267278599042289
1.2,-1.05725712574827,2.29374696713118,4.93747003977126,0.00686727238429135,-0.0134264706783873,-0.0102097134263615,-5.17772797549969,-9.35924447147698,0.0294736905375999,0.0155249234428211,-0.00469272067426912,-0.00257224675628806,-3.58954755948434,1.41752057026594,3.67352391440313,0.0132432639557756,0.00424492707050289,-0.0139205343444351,4.42812492644839,-1.31677686854627,-3.69215351341353,0.0321389887375466,0.00979917758929317,-0.00158979999472748
1.205,-1.05643421092884,2.2910865700454,4.93284414570019,0.00666241916505677,-0.0119991932698771,-0.00802796529375127,-5.17292552066715,-9.34854599415101,0.0292642028285286,0.0154098811174049,-0.00649060027056025,-0.00283734952617978,-3.58649847756351,1.415493397815,3.66924969186984,0.0129195810582849,0.00405456159614791,-0.0153568185812473,4.42195589742687,-1.31539958334659,-3.68761530891544,0.0328401614617889,0.00999731200989833,-0.000494177752186526
1.21,-1.05561129610942,2.28842617295962,4.92821825162923,0.00650042301944556,-0.0102480818512638,-0.00552760572689421,-5.16812306583461,-9.33784751682505,0.0290547151194858,0.0151791538989952,-0.00829130467631848,-0.00301198974896789,-3.58344939564245,1.41346622536412,3.66497546933654,0.0124589733732323,0.00392747839587643,-0.0167868106232564,4.41578686840512,-1.31402229814697,-3.68307710441746,0.0333483406376227,0.0100513808246832,0.000476929081338112
1.215,-1.05478838129,2.28576577587386,4.92359235755816,0.00644319143293777,-0.00818930620027491,-0.00278301511068029,-5.16332061100252,-9.32714903949909,0.0288452274104714,0.0148857182870007,-0.01005171966915,-0.00304658331516246,-3.58040031372161,1.41143905291318,3.66070124680324,0.0119103704729072,0.00391656401756247,-0.0181562225311124,4.40961783938337,-1.31264501294731,-3.67853889991943,0.0336432640510699,0.00998064258348866,0.00118874421155543
1.22,-1.05396546647057,2.28310537878809,4.9189664634871,0.00655336360907237,-0.00585603062181813,0.000118227778413083,-5.15851815616998,-9.31645056217313,0.0286357397014001,0.0145890194091131,-0.0117275719467544,-0.00289527787529268,-3.57735123180078,1.4094118804623,3.65642702426996,0.011330864059186,0.00407124615885118,-0.0194063984560283,4.40344881036185,-1.31126772774766,-3.67400069542146,0.0337177278065125,0.00982223245822794,0.00152259224242336
1.225,-1.05314255165121,2.28044498170232,4.91434056941603,0.00688636649732133,-0.00329964103818738,0.00308732919839896,-5.15371570133743,-9.30575208484717,0.0284262519923573,0.0143443725157189,-0.0132773001545269,-0.00252213279115181,-3.57430214987971,1.40738470801142,3.65215280173666,0.0107761217028639,0.00442962027291601,-0.0204788409444256,4.39727978134033,-1.30989044254801,-3.66946249092342,0.0335798995155417,0.00963025113766331,0.00138640493858254
1.23,-1.05231963683178,2.27778458461654,4.90971467534496,0.00748428257818591,-0.000584645167905052,0.00603787918347987,-5.14891324650489,-9.2950536075212,0.028216764283286,0.0141994971403463,-0.0146630841466307,-0.00190523805533555,-3.57125306795888,1.40535753556054,3.64787857920338,0.010297339711845,0.00501461708977068,-0.0213192776488002,4.39111075231858,-1.30851315734839,-3.66492428642539,0.0332507712642386,0.00946675171707723,0.000720889867548665
1.235,-1.0514967220123,2.27512418753077,4.90508878127389,0.00837190101211472,0.00221900485944314,0.00888971771293973,-5.1441107916728,-9.28435513019524,0.0280072765742432,0.0141929327761756,-0.0158525562734588,-0.00103887374778665,-3.56820398603804,1.4033303631096,3.64360435667007,0.00993922779970395,0.005832876484212,-0.021883197136497,4.38494172329706,-1.30713587214871,-3.66038608192741,0.0327589777320373,0.0093911603511511,-0.000497497592682289
1.24,-1.05067380719294,2.272463790445,4.90046288720282,0.00955476433070097,0.00504281178446326,0.0115745639326562,-5.13930833684026,-9.27365665286928,0.0277977888652288,0.0143524677892462,-0.0168213369251108,6.56844512917512e-05,-3.56515490411721,1.40130319065872,3.63933013413678,0.00973758092576272,0.00687491822501435,-0.0221416892793364,4.37877269427554,-1.30575858694905,-3.65584787742938,0.0321350400233215,0.00945196164937476,-0.00225729207923271
1.245,-1.04985089237351,2.26980339335923,4.89583699313187,0.0110197099227666,0.00782310908701905,0.0140369036634692,-5.13450588200772,-9.26295817554332,0.0275883011561575,0.0146964466879382,-0.0175539231595339,0.00138069433998319,-3.56210582219614,1.39927601820779,3.63505591160349,0.00971983383102679,0.00811676739106282,-0.0220845952702878,4.37260366525379,-1.3043813017494,-3.6513096729314,0.0314058110332098,0.00968269984153799,-0.00451774107518144
1.25,-1.04902797755415,2.26714299627346,4.8912110990608,0.0127372686124267,0.0105026225708154,0.0162320191669016,-5.12970342717517,-9.25225969821736,0.0273788134471147,0.0152364280681397,-0.018042724077939,0.00286385915867602,-3.55905674027531,1.39724884575691,3.6307816890702,0.00990730745294022,0.00952242421130273,-0.0217197961556258,4.36643463623227,-1.30300401654978,-3.64677146843331,0.0305902941018872,0.0101010095368329,-0.00721713071361443
1.255,-1.04820506273467,2.26448259918769,4.88658520498973,0.0146642304823985,0.0130356861308101,0.018128501360435,-5.12490097234308,-9.24156122089139,0.0271693257380718,0.0159774261168596,-0.0182866143722213,0.00446117912714103,-3.55600765835447,1.39522167330603,3.62650746653691,0.0103153160224507,0.011046043128706,-0.0210699477092528,4.36026560721075,-1.30162673135013,-3.64223326393534,0.0296990632553323,0.0107060246527997,-0.0102784770675779
1.26,-1.0473821479153,2.26182220210191,4.88195931091866,0.0167471201655125,0.0153931650366891,0.0197120450173941,-5.12009851751054,-9.23086274356543,0.026959838029029,0.0169173339713131,-0.0182896315304614,0.00611079292598864,-3.55295857643341,1.39319450085515,3.62223324400362,0.0109522405601098,0.0126348196695916,-0.0201689698604605,4.354096578189,-1.30024944615047,-3.63769505943736,0.0287369211499375,0.011475432964868,-0.013612286297687
1.265,-1.04655923309588,2.25916180501614,4.87733341684759,0.0189283172030659,0.0175564744391554,0.0209808086617472,-5.115296062678,-9.22016426623947,0.0267503503199862,0.0180493488332531,-0.0180600813541437,0.00774820249356488,-3.54990949451235,1.39116732840421,3.61795902147031,0.0118209613163963,0.0142341631153982,-0.0190595368380942,4.34792754916748,-1.29887216095079,-3.63315685493933,0.0277052538587145,0.0123683305757716,-0.017119805099168
1.27,-1.04573631827651,2.25650140793037,4.87270752277652,0.0211522413609939,0.0195070022893529,0.0219377043026972,-5.11049360784568,-9.20946578891351,0.0265408626109149,0.0193645735980383,-0.0176104309495595,0.00931167775615742,-3.54686041259151,1.38914015595333,3.61368479893703,0.0129203504064221,0.015793017959441,-0.0177908218204408,4.34175852014573,-1.29749487575114,-3.6286186504413,0.0266036121446093,0.0133326388379554,-0.0206977067796553
1.275,-1.04491340345709,2.2538410108446,4.86808162870557,0.0233672087388811,0.0212293145471497,0.022595435377323,-5.10569115301337,-9.19876731158755,0.0263313749019005,0.0208484746929859,-0.0169582845927096,0.0107460583356442,-3.54381133067068,1.38711298350239,3.60941057640373,0.014241226954833,0.0172659138432019,-0.0164159553460612,4.33558949112421,-1.29611759055152,-3.62408044594326,0.0254326365316024,0.0143100359768884,-0.024243315778661
1.28,-1.04409048863761,2.25118061375883,4.8634557346345,0.0255239475492758,0.0227217897708062,0.0229876468682184,-5.10088869818082,-9.18806883426158,0.0261218871928293,0.0224741710276809,-0.0161277261175189,0.0120047348962656,-3.54076224874962,1.38508581105151,3.60513635387045,0.015759559933583,0.0186126403149081,-0.0149902346001037,4.32942046210269,-1.29474030535187,-3.61954224144529,0.0241970932021249,0.0152380196314542,-0.0276584455525626
1.285,-1.04326757381824,2.24852021667306,4.85882984056343,0.027575153796459,0.0239905537237684,0.0231627850649309,-5.09608624334828,-9.17737035693562,0.0259123994837864,0.0242024070704022,-0.0151498229845357,0.0130504132128078,-3.53771316682878,1.38305863860057,3.60086213133715,0.0174362447129783,0.0197988513342632,-0.0135709720119418,4.32325143308094,-1.29336302015221,-3.61500403694725,0.0229067835125484,0.0160537363874932,-0.0308492789658113
1.29,-1.04244465899882,2.24585981958728,4.85420394649236,0.0294759885670419,0.0250357914589608,0.0231657093596805,-5.09128378851597,-9.16667187960966,0.0257029117747436,0.025987516274084,-0.0140610431391474,0.0138552559701461,-3.53466408490794,1.38103146614969,3.59658790880385,0.0192232583493409,0.0207972463433237,-0.0122156130490074,4.31708240405942,-1.29198573495256,-3.61046583244922,0.0215768891114812,0.0166993836265828,-0.0337260728155268
1.295,-1.04162174417945,2.24319942250151,4.84957805242129,0.0311837552819836,0.0258618386103663,0.0230349085362579,-5.08648133368365,-9.1559734022837,0.0254934240657008,0.0277804443175973,-0.0128988064210605,0.0144016950345491,-3.53161500298711,1.37900429369881,3.59231368627056,0.0210679882592501,0.0215873329823364,-0.0109734258673322,4.3109133750379,-1.29060844975291,-3.60592762795125,0.0202279710422405,0.0171277702501162,-0.0362139134929663
1.3,-1.04079882935997,2.24053902541574,4.84495215835022,0.0326585677791853,0.0264915325454371,0.0228085366857858,-5.08167887885111,-9.14527492495774,0.0252839363566579,0.0295288528922264,-0.0116975113546434,0.0146837681778224,-3.52856592106605,1.37697712124793,3.58803946373727,0.0229144960652185,0.0221550724172709,-0.00987749617052079,4.30474434601615,-1.28923116455326,-3.60138942345321,0.0188819806842597,0.0173092413339056,-0.0382672939377197
1.305,-1.03997591454061,2.23787862832997,4.84032626427916,0.0338590965725442,0.0269368600768334,0.0225014097586695,-5.07687642401856,-9.13457644763177,0.0250744486475867,0.0311767148945122,-0.0104856619679665,0.0147035232263042,-3.52551683914521,1.374949948797,3.58376524120398,0.0247037582286786,0.0224903188281207,-0.00894661562902142,4.29857531699463,-1.28785387935361,-3.59685121895524,0.0175559947455707,0.0172315097526237,-0.0398528758599346
1.31,-1.03915299972118,2.2352182312442,4.8357003702082,0.034724132370826,0.0271579346150642,0.0220703623630224,-5.07207396918625,-9.12387797030581,0.0248649609385438,0.0326539199325162,-0.0092815236359006,0.0144606564713338,-3.52246775722438,1.37292277634612,3.57949101867069,0.0263652200703956,0.0225768024602586,-0.00819131195949381,4.29240628797288,-1.28647659415398,-3.59231301445715,0.0162614481881909,0.0168846350644636,-0.0409044754206979
