Header,foot_Accel_X,foot_Accel_Y,foot_Accel_Z,foot_Gyro_X,foot_Gyro_Y,foot_Gyro_Z,shank_Accel_X,shank_Accel_Y,shank_Accel_Z,shank_Gyro_X,shank_Gyro_Y,shank_Gyro_Z,thigh_Accel_X,thigh_Accel_Y,thigh_Accel_Z,thigh_Gyro_X,thigh_Gyro_Y,thigh_Gyro_Z,trunk_Accel_X,trunk_Accel_Y,trunk_Accel_Z,trunk_Gyro_X,trunk_Gyro_Y,trunk_Gyro_Z
36.76,-1.30904424392379,-1.22401423598565,1.10566934874286,3.10259211982716,-4.58330548491832,0.395165090824384,-1.03997631705696,-0.373474108228505,-0.834320171975356,2.30155189915307,-5.80380078304093,0.690795533133127,-0.349097195478925,-0.462722029949262,0.203358165759334,2.44371932934949,0.434316252091874,-0.343253081954275,-0.862528510136084,0.0481494655476113,0.141908232709787,0.922328652642073,-0.165536794554259,-0.338111230250262
36.765,-1.34395204758046,-1.32278315294901,1.07491946771523,3.08514154303347,-4.61620272139103,0.245879203383766,-1.12803740255333,-0.271589305292388,-0.83692573406695,2.62186497374035,-5.73716170888407,0.753740026786359,-0.388425031232756,-0.42014221001849,0.24381329341202,2.64912350121297,0.449348107915505,-0.357592680391328,-0.827465995381488,0.0428647398914634,0.162054059371171,0.900775750795153,-0.223523576004989,-0.296615531779494
36.77,-1.35493883216909,-1.34143353465396,1.02281175329788,3.04280004443372,-4.60922705313115,0.00304594019888497,-1.17027438635097,-0.20415295869443,-0.843682605872309,2.77817404196521,-5.69565464131006,0.803041688200409,-0.420916357269547,-0.366589784646516,0.265279522905256,2.71919077645321,0.417116167999183,-0.347951382803202,-0.807094498826221,0.0418570275964539,0.173198813518884,0.878702965174274,-0.280988502964666,-0.259853638197373
36.775,-1.36962137219545,-1.33014484772393,0.963589559970121,2.98436249050836,-4.58454989620902,-0.288958528152555,-1.21095621990504,-0.117675682134449,-0.886939588275963,2.87429661042439,-5.63543008697305,0.876530689957287,-0.461364063845461,-0.283689645906365,0.280344919218796,2.79080069588405,0.356264269871182,-0.357421288029191,-0.787647352096146,0.0417874381176684,0.177019004205582,0.854765525401818,-0.332510004536927,-0.212157696333187
36.78,-1.44096833106786,-1.31774056910545,0.822589773973403,2.86041569984791,-4.52124073670883,-0.653114962836032,-1.24447898395708,-0.0310027331841605,-0.912590848036729,2.89485572126793,-5.59452367122664,0.934653697163823,-0.507180331344678,-0.190948323515758,0.289908568434271,2.77838397276626,0.26918874780145,-0.36650505868307,-0.769223845411699,0.0414187353898002,0.172769296517887,0.823974298525576,-0.385582780026589,-0.167090888313329
36.785,-1.47991646072513,-1.32656987003554,0.648865137885843,2.78173751557649,-4.39178802220749,-0.94886301364355,-1.25003755332812,0.0252445740906084,-0.907544771138802,2.82414043408584,-5.50986349897356,0.967896163319369,-0.548221074843608,-0.0967175545958827,0.293027676631463,2.69618239567039,0.164866553664873,-0.36964904056121,-0.761216987491364,0.0293633551178227,0.158330967389881,0.811235519492968,-0.415855790001876,-0.13740052576705
36.79,-1.52432804487779,-1.32615416544943,0.523762891790811,2.70919481512483,-4.17002884752295,-1.22308881908678,-1.24609336066855,0.0527162709059307,-0.942348368391431,2.6140458153355,-5.39163537669754,0.962271763156004,-0.606018613488305,0.0206011172024578,0.287870544011353,2.5126104462818,0.0575714601380457,-0.360460648419072,-0.748264464946652,0.0316183878191789,0.143501002910312,0.780346729209771,-0.457272131672254,-0.111877487520719
36.795,-1.61433429542746,-1.29934634151319,0.425477688192497,2.64727755349619,-3.90365896219716,-1.47511829243833,-1.22039817410367,0.0543664739147464,-1.01264344753522,2.27082936562556,-5.22598045455008,0.924258717824748,-0.66848327968191,0.150472392919075,0.271497527140071,2.21816480426576,-0.0657372953684228,-0.340413309789435,-0.745684231567727,0.0375379831496654,0.133614923840361,0.746524027967731,-0.502297766592238,-0.0825867674520973
36.8,-1.72007270356806,-1.23191242600997,0.299102144955311,2.59420231792669,-3.64168020904279,-1.67363155246056,-1.18059939555918,0.0262145304477687,-1.06286558402824,1.89321303391197,-5.01971050738261,0.836283848942672,-0.721633918842945,0.264614164901009,0.244692444011999,1.98639069190921,-0.132219029415301,-0.328628244431968,-0.738239659037625,0.0381667905721599,0.123800431079821,0.725194374447021,-0.544081971924943,-0.0421019361292021
36.805,-1.77024839501995,-1.19094621216948,0.12446264304057,2.52903800376743,-3.333761467344,-1.83148039180086,-1.16528650247469,-0.000396579179323676,-1.08278196019054,1.49144311811474,-4.78946110729157,0.715830170488476,-0.824662719864316,0.399751218641192,0.185630921801544,1.59328302262114,-0.166478285758873,-0.342214318810463,-0.739786449038435,0.033775319850434,0.103497929751198,0.70092206812583,-0.590400371099534,0.0186397911544639
36.81,-1.6823503942176,-0.922339075779384,-0.098345455444276,2.24391857817606,-2.95660967107407,-1.84921306345953,-1.16269328400439,-0.00738959809482313,-1.06702927640285,1.06038018272032,-4.54276651529691,0.566657990367939,-0.87048335064561,0.492637887562209,0.118699393736619,1.11087760730443,-0.256461643999608,-0.368595881001775,-0.748782951241129,0.0336799418603218,0.0935816465865644,0.681535886774745,-0.613456897062751,0.0584097257034137
36.815,-1.70531567124743,-0.786544141547294,-0.273081911769401,1.82904757550634,-2.51462767388522,-1.78639862377624,-1.16129452095427,-0.0158199539666913,-1.07068250610469,0.562794330803184,-4.23327452183973,0.38736253560859,-0.915146642293889,0.598135006750219,0.0270539841636569,0.553007003977551,-0.253187043760011,-0.500771497878995,-0.770277451437395,0.0287560971189512,0.0776198364384884,0.640187507950888,-0.62044611072474,0.107077453531532
36.82,-1.71617354306759,-0.667863724602417,-0.417535750698445,1.35721895773516,-2.07776921921257,-1.74138712242723,-1.14814377216101,-0.0297489803710962,-1.08129818354845,0.123871533664976,-3.93745842698738,0.217014641041179,-0.956507473228717,0.694853605747227,-0.0879257435328895,-0.0477660884115179,-0.207984779070251,-0.625630563509653,-0.786367624877511,0.021662168970534,0.066417492436871,0.596891126518972,-0.596178374176748,0.146318572977337
36.825,-1.77954161442164,-0.493523286851327,-0.465603877645444,0.807401488989969,-1.47317839813483,-1.48992314830318,-1.10435912607821,-0.0265433836762379,-1.06494647548007,-0.222398205866322,-3.64758829097616,0.0423356644554654,-1.00355412340299,0.778500745485934,-0.197256104648595,-0.63931904385945,-0.148298947791064,-0.747234542438412,-0.815046233765123,0.00260663555117594,0.0451134437758593,0.547280824308873,-0.557341366654997,0.170379934834492
36.83,-1.97405575612132,-0.496145951906188,-0.36274759719488,0.470774845857854,-1.0965136846743,-1.14563478918258,-1.02903667301482,-0.0628208096619869,-1.04653286353678,-0.529996316991155,-3.22450883225484,-0.126351547817542,-1.12597332526197,0.877814410298154,-0.320932471280906,-1.35302499509702,-0.0308338718601361,-0.943264047939068,-0.838515827240548,-0.00789534307171171,0.0417158299379713,0.4881371464061,-0.484800608346988,0.17815488576889
36.835,-2.18717106056932,-0.560803057023087,-0.276113619292621,0.246636050601845,-0.874737877320593,-0.769734089950429,-0.967980309751146,-0.118577028931199,-1.11887077923361,-0.716707749560319,-2.82324029871338,-0.213355489327209,-1.20300635257351,0.973940270673986,-0.372894174496252,-1.83699921164648,0.0675370682416416,-1.03292029002125,-0.870609225464487,-0.0226888271388748,0.0399075881788253,0.424880853334892,-0.376637752782422,0.16934718754093
36.84,-2.33354722829405,-0.572979559265597,-0.258536503434151,0.0286165140692737,-0.719574255971232,-0.340256737235014,-0.877285579534165,-0.161796367263933,-1.18815811849656,-0.646932413549853,-2.30593449395273,-0.310037221567995,-1.29166336660842,1.09590253831183,-0.394739099840691,-2.30578759781106,0.170718070099541,-0.994802621425755,-0.897388227582777,-0.0293916871546435,0.0481377867221367,0.360938080958003,-0.277953627943762,0.156385771275921
36.845,-2.32051547228394,-0.516706609705878,-0.331424299542239,-0.120858829350122,-0.658327396176706,-0.0933485711752247,-0.80768087061947,-0.181112892537129,-1.18646927695945,-0.435711545395879,-1.94993485556891,-0.339332728904474,-1.35516982255681,1.20176339927548,-0.386901593936228,-2.59755369874058,0.245577926147292,-0.836760083923578,-0.925385381775575,-0.0412731456357263,0.0764328434598068,0.299281712586994,-0.168743692269553,0.136301870517007
36.85,-2.17563901915357,-0.494072169974965,-0.467561489188439,-0.369345020804953,-0.537423860579587,0.174990679682742,-0.714701946772525,-0.172907727458733,-1.14960469094717,-0.0195924031305655,-1.45602059176843,-0.33428824077071,-1.38696615376577,1.27809734775272,-0.339748989808897,-2.74795097773584,0.271668892263582,-0.575589422424455,-0.950198143046318,-0.0448368929223749,0.101722321240545,0.276193245275467,-0.125964643471631,0.10781464100293
36.855,-2.05909797213206,-0.541035336192818,-0.553044080409472,-0.578045419595353,-0.394706167052835,0.323787115601436,-0.669196590314091,-0.100952457510846,-1.09294411350576,0.387091629867294,-1.00876144848855,-0.305397122948042,-1.39703673728067,1.31475576585748,-0.28744550405299,-2.74032130086774,0.270026666370821,-0.265348880267583,-0.980488766869231,-0.05476129937338,0.142367872226027,0.272853184870708,-0.11275427010997,0.0793776395486197
36.86,-1.96083349571046,-0.607152485964147,-0.541454346718821,-0.798299267307591,-0.173493668779944,0.416310299250625,-0.651276020128618,-0.00262863235453519,-1.04012209715998,0.708963818886778,-0.615295035057766,-0.262570979706982,-1.37900126737441,1.31826043052583,-0.19594625832516,-2.57619122451574,0.252082954987533,-0.0306068212112132,-1.01326978276374,-0.0604142744555792,0.183711653989085,0.277458802409941,-0.117451569249864,0.0467715692817677
36.865,-1.91069826397544,-0.677170094667801,-0.473794928756277,-0.927512476748324,0.0239188013916328,0.439671785998765,-0.64339317318466,0.0762618564221684,-1.00228588896988,0.882340151239304,-0.252152687827801,-0.211773112265208,-1.31621634428155,1.31159645884682,-0.110731866563294,-2.20840791589676,0.229003188292228,0.209993294724576,-1.05871665209954,-0.0587688848618583,0.229407714110529,0.305796231007019,-0.173541432819085,0.00501449992806545
36.87,-1.83253082404521,-0.682247666783882,-0.365406110593079,-0.982247544298941,0.185976382534165,0.422102137870148,-0.630932969041987,0.16851303918802,-0.98289979618104,0.873468411796421,0.156075941452447,-0.183503459083122,-1.24385007092145,1.28399830807207,-0.068474504351855,-1.88652982236589,0.195972032445532,0.330581210575225,-1.10601678243468,-0.059813224036419,0.264334288729901,0.328685608421548,-0.249796784134259,-0.0204978795798799
36.875,-1.70276127994896,-0.629630784625006,-0.246416987754381,-1.00723788752808,0.30751050708454,0.389260813634302,-0.613195419700672,0.221713560650483,-0.969955445319051,0.729605576791987,0.431777525873255,-0.197595739238314,-1.07683678408509,1.14954738532378,-0.0152300929543606,-1.36580742123607,0.123640306880037,0.344879406327446,-1.15686085983955,-0.0474864667028467,0.297278769196039,0.342424832165347,-0.344255897876957,-0.0516400249848982
36.88,-1.5142172372731,-0.567940834949383,-0.184039426069737,-1.01394353004814,0.390844004934178,0.372937429449533,-0.613764995814194,0.25758144807981,-0.916190113344519,0.428968676708564,0.655847775598831,-0.239431877347859,-0.922269736501744,0.900521732104167,0.0163188100011991,-1.03098608807423,0.0523368726276314,0.164440211056882,-1.20375534037285,-0.0417348685626116,0.31238810393483,0.35284377859174,-0.439591284214603,-0.0735960009271172
36.885,-1.27236189734966,-0.549388038243434,-0.13396492876267,-1.01946996053892,0.535994736720328,0.375428783767416,-0.651743646375387,0.259949767093845,-0.804796295072022,-0.047646989915437,0.854699951057739,-0.337347508156378,-0.694533638240144,0.568002055236656,-0.0111845050719821,-0.685410770528897,-0.0538625468972169,-0.366480120014272,-1.24727646702728,-0.0231100878634882,0.31843472930223,0.354583621025085,-0.513305140665407,-0.0797794474355621
36.89,-1.12912701814937,-0.542860566552704,-0.062582525973271,-0.931816044648784,0.761631144319987,0.368840701344924,-0.715500348253447,0.216347808742392,-0.717610293874601,-0.566010548138321,0.981149513074872,-0.416821320071456,-0.532471497667821,0.273149980157383,-0.0422145885432647,-0.479226083689473,-0.129733308952163,-0.890242368335774,-1.29413819680701,-0.00340002049256539,0.318792060059974,0.359937110140636,-0.575738776374904,-0.0816199228391419
36.895,-0.783163465146124,-0.673355174972152,0.0586015288947778,-0.75091575147695,1.0364690975345,0.335969988130738,-0.802149720623208,0.181042758284067,-0.613894790596221,-1.15246056425645,1.09597367906158,-0.479878252646814,-0.414355507089836,-0.0232460035687615,-0.0929166623523151,-0.394487723991521,-0.237812256461692,-1.37946467132312,-1.33006779129656,0.014146844416768,0.3189450187544,0.373111907894728,-0.623007052205232,-0.081617945484107
36.9,-0.414831003077354,-0.857234833307741,0.343381936501493,-0.488299791414805,1.34638525175214,0.218417852387452,-0.900465658676717,0.181950695183986,-0.334214646627843,-1.52386286996544,1.12691577539163,-0.496833983957924,-0.346853928839065,-0.274975781537702,-0.154020290685245,-0.334824668102502,-0.317661649949311,-1.73259310778759,-1.34896084231711,0.0324494550262964,0.313163377933968,0.375352412462234,-0.643833249473944,-0.0737634688303912
36.905,0.303240580246848,-0.744471039626636,0.647957650785746,0.188767144975159,1.7859215783166,-0.122219383769785,-1.04215954252369,0.215980394983133,0.373472282224174,-1.47410034529544,0.999815983440952,-0.465460872102579,-0.329657613393982,-0.512573048567908,-0.157973905165281,-0.328035077268878,-0.380278990672718,-2.0723521361614,-1.34343751775788,0.057146078159159,0.31197078715373,0.367511817221349,-0.641625855481846,-0.0464004589188462
36.91,1.02758209369183,-0.549843130043722,1.32295727243361,1.22901733845304,2.74515177514394,-1.17479025471983,-1.42858775935469,0.351074668767807,1.42750726369638,-1.19870489475778,0.640132401352846,-0.410810706102194,-0.362987040923991,-0.716792893998182,-0.167897267203248,-0.338911357233551,-0.396663167034396,-2.29066753352866,-1.32836994212071,0.0770811659827545,0.296504521756343,0.354584135468868,-0.614336851436139,-0.0170112040680187
36.915,0.437701573632292,0.0343031189081962,2.59779216324581,1.25762018313418,2.97548130791116,-2.1800863200391,-1.94012832169588,0.469309633940713,1.26320676503701,-1.71473772566808,0.411809467268471,-0.304253386448814,-0.47640690961524,-0.730389336363737,-0.171160976312837,-0.296410208457785,-0.378393469690828,-2.41942524924023,-1.30741223042832,0.100189787183994,0.283188712253842,0.317026634844624,-0.579818801044371,0.00357068077136277
36.92,-1.70841884098596,0.887495847304588,3.49278663271522,0.1695424272173,2.05825831870163,-2.44827377135958,-2.27675427093095,0.574331825430056,-0.167428825870656,-2.849175199337,0.533199625964016,0.0149811284253491,-0.845826827396064,-0.549742589714494,-0.15922044451536,-0.200482606144614,-0.343313006821117,-2.28278533267232,-1.30039470919681,0.118956382102566,0.254585388292576,0.252787416388008,-0.52925335808242,0.0311137441629722
36.925,-2.94395295296445,1.43627755694628,2.53522280353652,-1.35328919415024,0.487783151004781,-1.82398210805259,-2.08027100979749,0.540743682037633,-0.514538573001352,-3.10751284899866,0.777119430151801,0.349299996295414,-1.39563808482892,-0.333873318533443,-0.118429524344519,-0.153244957486981,-0.409425361814068,-1.87771324697132,-1.34168233676938,0.126778531618348,0.19936129979658,0.177331213548523,-0.453334923451123,0.069504084687324
36.93,-1.75596127695477,1.02347816199077,-0.142531856569165,-1.07441907909472,0.417259383420572,-1.13351329829475,-1.82532302544387,0.150787308611519,-0.546551270149428,-3.02561194224742,0.869949167425593,0.300197280778214,-1.90907405650425,-0.176933938824561,-0.017190067890497,-0.266443396458479,-0.571341651000603,-1.18490400980161,-1.41848418764356,0.129760058708903,0.101329395550696,0.119503037351793,-0.335794135075841,0.117136776357775
36.935,-1.09808599239924,1.53656361994734,0.1382977614234,-1.96383887192314,1.16801262589793,-0.421285478657268,-1.55515388149312,-0.100285410989835,-0.693265326943799,-2.35222207020122,1.01966364067906,0.138061097642074,-2.00110636695471,-0.0655719983804299,0.173414703616964,-0.500227581279415,-0.581342264072364,-0.323254715975543,-1.50408269950265,0.123246001008228,-0.012837126683779,0.0640201669946324,-0.168602547176161,0.174147773501707
36.94,-1.57127036715094,0.0377395417467571,1.10616646451716,-2.96437632698621,0.99035106884359,0.344369192643306,-1.24761391531741,-0.155570645836436,-0.664669054536845,-1.15373733863392,1.25979765113511,0.0773945059730866,-2.00457723251677,0.102480890291106,0.44637860409897,-0.958904835070989,-0.459572952337267,0.584990951600921,-1.53065878061278,0.109539618592686,-0.101714230026533,0.00527659202878916,-0.00770071863563303,0.22875458002675
36.945,-1.31433161476672,-1.39184478290134,1.57845213392366,-2.43619107910171,0.603091202598861,0.386407779280999,-0.965441553388159,-0.212300106036186,-0.39031621542994,0.639786024727615,1.292261765002,0.0153806610239759,-2.00680693261025,0.480949940362118,0.69778667556334,-1.51877131345772,-0.0728177312831564,1.70201324359787,-1.51086653866407,0.0730588918378584,-0.165072855936356,-0.0438873144049542,0.156039542057559,0.271251341244061
36.95,-0.514607108717216,-1.27732113510794,1.17264802825837,-1.22629751276496,0.182877248576968,0.0596314595829648,-0.783152472740755,-0.322416253037642,-0.290477453899352,1.63407689319984,1.25499043234304,0.0533460071187525,-1.97683328755311,0.748581506792701,0.974223176728847,-1.29406253002395,0.285556160727954,2.03917698619845,-1.40616203558703,0.034422617459262,-0.207010497144127,-0.0972543465875294,0.377751436458282,0.26278274695676
36.955,-0.509720640450954,-0.63402097908474,0.789610578856653,-0.387055352696836,-0.00558348830241501,-0.210436683752046,-0.802524502207981,-0.270324442749019,-0.412620437862712,2.68211037390921,1.22353560891742,0.217982367707565,-1.57655104108084,0.904114961383734,1.0481958205288,-0.40615066060164,0.518954388961808,1.65565245355998,-1.26168134508141,-0.000216114191980112,-0.237347746231194,-0.140007090919933,0.60442819334338,0.212452582497337
36.96,-1.05927955276656,-0.092762962004876,0.809616943971438,0.0388325253270218,-4.10478487243146e-05,-0.255393337718303,-0.888813827482202,0.00116823591252214,-0.582650915165204,3.24842408297042,1.20470676919309,0.376085792954383,-1.01695619941741,0.726349368852846,0.880723824587627,0.651297102176308,0.455985636550088,0.948660190551295,-1.13093927911664,-0.00317592395377966,-0.24320492767502,-0.187725375593028,0.767305366615101,0.142075805019986
36.965,-1.08278864589489,0.588756683742955,0.787013049988621,0.0500523799092426,-0.0556736709406713,-0.156015671870007,-0.901368453969441,0.430202851035611,-0.608268922929725,3.48279048288905,1.11652095667458,0.497093158017589,-0.634421378231779,0.379508195176285,0.643967229437491,1.29572218055453,0.268572947259727,0.291469618538511,-0.976260748944769,0.0152316253797677,-0.236474101499554,-0.202962275110603,0.89539795399296,0.0212916520243161
36.97,-0.861945398372358,0.456477278215695,0.919799455271849,-0.189769734677017,-0.0432630742485275,0.0556611257079462,-0.911157269867457,0.576014951046918,-0.474292754989466,3.15829294449505,1.00844740812218,0.524528079963718,-0.422634382527341,0.00416607214176092,0.468358359208258,1.3478839409041,0.118127516671892,-0.520439771172915,-0.866537383319143,0.036097739335338,-0.220402335245998,-0.222026578170219,0.932087226765717,-0.0677558692151312
36.975,-0.669624006469285,-0.128881451376178,0.984064224097609,-0.242287639661347,-0.0882150855059761,0.134433679906441,-0.962391509152839,0.428368293552955,-0.270419743471357,2.60157398249485,0.913671422689231,0.465706637954867,-0.349412481239697,-0.281845756163078,0.321532639305733,0.780499607589077,0.0474960929140512,-1.44594080433188,-0.786423389043509,0.0710950698929691,-0.193658145817878,-0.197677385891022,0.908879512142724,-0.143007952543234
36.98,-0.486287130218577,-0.472682497024342,0.936088368020891,-0.158052824161729,-0.125319852581757,0.0182279517575166,-0.973765819852556,-0.240192702845108,-0.480302499775305,2.2344980468116,0.983686500718697,0.329217755214704,-0.394063568632987,-0.436241823820207,0.161384301346684,-0.0580807505215769,0.142627954712439,-2.10245008955677,-0.709991011944155,0.114307779446535,-0.14141697902632,-0.0931674183542854,0.822620982343212,-0.212278336932519
36.985,-0.897029676714928,-0.0638402588063854,1.1539000472325,0.17212394179904,-0.693187093809509,-0.108613541653004,-0.956660649568057,0.539767608171965,-0.218843232115944,0.859119159252507,1.01948573814358,0.128043633325626,-0.40649556725325,-0.577041055214228,-0.0903762090710288,-0.912285298744367,0.38597792213521,-2.41194587892502,-0.659585447559584,0.143300017155176,-0.0985940280115678,0.0436993254065572,0.672809480184493,-0.266517743535039
36.99,-0.617279928902154,0.0594231095116629,0.793219726066151,0.148709105801708,-0.384062518802417,-0.0847639775352664,-0.987376022819865,0.309362939367972,-0.362762703098042,0.696034581070787,1.01993739078702,0.26973180826779,-0.435825368117963,-0.623171527950487,-0.214352390088389,-1.32048884170609,0.46226388133326,-2.38698686059133,-0.634160298836798,0.192200243678069,-0.0654581037362498,0.166156075079814,0.487184200080922,-0.300048575175659
36.995,-0.550374727577663,0.0363183853880259,0.843595107949308,0.0864928608163371,-0.243756739763633,-0.0670053793839529,-1.0149888891048,0.289806810589824,-0.25228224116522,0.361928657710776,0.834089794854889,0.38972916290789,-0.679457440343746,-0.467741717009484,-0.318223487685811,-1.85300711236339,0.670075986138049,-1.96754247213646,-0.59962611526251,0.23582330721375,-0.045960796304979,0.237326699630405,0.299788488985095,-0.304752408148079
37,-0.531716707669521,-0.132933880322523,0.934460335434898,-0.00743040377183854,-0.192470320236122,-0.0991689810490793,-0.899676709702956,0.392829954583327,-0.267020018856986,0.313176242087327,0.925793566789611,0.386327165619891,-0.817264483539951,-0.328671494118509,-0.337117764336355,-2.02800721812027,0.865326477341178,-1.28580498013691,-0.581736834328348,0.254185916858482,-0.0452837686865274,0.219676049400245,0.161562470247401,-0.275794343996917
37.005,-0.569416310838593,-0.173700204871232,0.834302772662958,0.0154372433650368,-0.0744912892569104,-0.0886005963255938,-0.873155692968312,0.517234921096339,-0.202348738681695,-0.193049399879756,0.764219176840535,0.377168384938552,-0.889580888576985,-0.173409124706331,-0.18740943431801,-1.79782382808893,0.801036455118866,-0.90823291014793,-0.575877321480991,0.265402117402876,-0.0492654953403596,0.162345773483419,0.0827690996456863,-0.217785483874899
37.01,-0.593729418272467,-0.0602092981746179,0.840870785196556,0.00822008241030755,-0.110611962512975,-0.0961987513735043,-0.933765969525237,0.440948871464634,-0.412273904161466,-0.792294983168287,0.882100300321793,0.0494364605369886,-1.15190496594437,-0.0670237774510588,0.0168605365575298,-0.981660669499871,0.42928161348359,-0.251062124412121,-0.571319415600233,0.257590753476185,-0.0529911678913476,0.0597961607514249,0.0843919069382384,-0.152191008407014
37.015,-0.582960840598582,-0.0476014987812926,0.834340712092961,0.102783743465346,-0.115099185704005,-0.0236546388547335,-1.03088618513723,0.549696189623191,-0.345265076691201,-1.2883227222622,0.781584541542935,-0.220289790548288,-1.25557821300835,-0.0890503816495453,0.136752708757208,-0.51091761817324,0.306464909191103,0.392196950638967,-0.588765915154872,0.242070044522822,-0.04733421722315,-0.0245353404328769,0.129854660727409,-0.115199360304214
37.02,-0.558059920090656,-0.028813816486764,0.875949585919557,0.177128594842436,-0.134944468013306,0.00983743198653665,-1.06508590967209,0.485494306124475,-0.257564371408855,-1.45662753257428,0.762590867338741,-0.224601187844148,-1.18624884321402,-0.149851487758028,0.257519329002297,-0.0963493298681031,0.145933954600088,0.593522587976153,-0.649969421528331,0.23715859359581,-0.0284030568723302,-0.133161458389685,0.247090091282212,-0.0798537865398423
37.025,-0.523318280036793,-0.0205719134603372,0.878573282293552,0.180940784259207,-0.0841474138486799,0.015495231864305,-1.06864335370763,0.370110212338882,-0.179790745601636,-1.72199737269113,0.789763648391825,-0.373087079693875,-1.08243121865772,-0.190258195783306,0.402022991680125,0.0741557714401251,-0.00195873235761106,0.306952269892278,-0.711735527381379,0.24150273288961,-0.0180687359150628,-0.209758008585144,0.335744603050351,-0.034555389696934
37.03,-0.532686326404986,-0.0237643939061412,0.861935840548804,0.204312359119252,-0.0196364835441622,0.0223409485243438,-1.06628067401461,0.332975930779096,-0.2003579672821,-2.03666987761201,0.798307228353342,-0.447555787563567,-1.05487562936736,-0.185478709226857,0.478996800136933,0.152708863008687,-0.0272494311919128,-0.24104811581877,-0.809757567416706,0.249611114614998,-0.00245073213506245,-0.229020843783562,0.405186412699324,0.0111051345487182
37.035,-0.53485169842778,0.016993573776327,0.859544738503731,0.215808359593909,0.0444806997162334,0.0208208316140467,-1.05839976388747,0.249540695353741,-0.209754213869156,-2.06918805303897,0.76638020835885,-0.282949551802241,-1.04963928999207,-0.162910799276454,0.501757674304554,0.188725910274681,0.0543056442434676,-0.606085616820879,-0.905068430308588,0.251650793650547,0.0125483244144922,-0.233802003131673,0.44732106392658,0.0804027795487366
37.04,-0.527168175302625,0.0719772389821413,0.862347304065021,0.177924116734167,0.0776010224789978,-0.0064345818909291,-1.04103374354789,0.118914852764125,-0.205834803721592,-1.83409557149874,0.7240541909857,-0.208751238698655,-1.07998632662998,-0.0920998224803768,0.501987153826802,0.135879600716916,0.147168820546886,-0.753554822676587,-1.01201716460207,0.243562330860213,0.0264839174171996,-0.241846591927469,0.444141620851051,0.150047893057933
37.045,-0.512020047206752,0.0901219676824406,0.853121696239379,0.142570259698748,0.0713597020662976,-0.0452789595716736,-1.02484038064595,0.0381003529821795,-0.207046506559694,-1.44002864741134,0.692860224124939,-0.150193225115817,-1.08278384634319,-0.0273053415644065,0.464840086907107,0.0750154340796187,0.253086231690383,-0.590458039876733,-1.11407369034453,0.229904260668711,0.0395237696445866,-0.194712724501612,0.401368423636051,0.207836648269019
37.05,-0.521870255836216,0.0749135644265944,0.848667091774187,0.149411211378767,0.043229550177569,-0.0570684051286823,-0.996738371929462,0.0222516462943558,-0.22399879618976,-0.909174316448789,0.62470591814051,-0.0359772091806778,-1.03457991977912,0.0143081485035704,0.34790330039971,0.0710851168750963,0.396862843329039,-0.271886783929446,-1.21821851548211,0.221313763055912,0.0545045966032891,-0.0773844374945048,0.299167069142782,0.264611246317571
37.055,-0.523275306065065,0.0749450206392357,0.846392023535104,0.157692842860689,0.00124696326486124,-0.0735724848165468,-0.944355584509511,0.0174160085820601,-0.235217440391374,-0.214566336832845,0.564883674121565,0.058213349434253,-1.02123715734008,0.0192460169603934,0.246202995582187,0.0346624571744982,0.444802990172243,-0.117526187331696,-1.29679974407484,0.213612176726469,0.0553864688858869,0.0405278853886722,0.16273546807058,0.313005327345736
37.06,-0.517781372966146,0.0714591748068833,0.841214083497867,0.161143492692745,-0.0141166011330811,-0.0836471359192354,-0.924753848249807,0.0172578248078487,-0.240046402776139,0.413970836189133,0.510661709288617,0.117540623092193,-1.02539623905018,-0.00460481901712521,0.195838339841679,-0.0173205995032298,0.428711575492653,-0.0565333281896991,-1.37694707866081,0.20223044728149,0.0508464735925372,0.207537076476268,-0.0291837714020184,0.366378343774929
37.065,-0.520509546082489,0.0522962057456579,0.838068999216306,0.165568276701231,0.000278155989005229,-0.101012657000062,-0.953981653831669,0.0567221009821542,-0.238589316290828,1.10570295293247,0.453310118468893,0.21522643107553,-1.038858633997,-0.049754632973074,0.179872730443665,-0.0632808237740865,0.344942147150568,-0.0435732503288457,-1.42528674503553,0.177844332962629,0.0496674536949083,0.339701664840783,-0.142386338949326,0.399076555034491
37.07,-0.510668319393906,0.040746758169083,0.837468023213894,0.20178516350718,0.00677662881280447,-0.0924695880554813,-0.974321705659161,0.082336830861318,-0.246921132224287,1.56237923235165,0.392010328001177,0.277719049329642,-1.04145594466816,-0.075242240483111,0.224817514455682,-0.128656330177613,0.278242580678373,-0.0330938076997993,-1.48327547634789,0.109508573047376,0.0273768422271977,0.518411615216309,-0.240929663514118,0.425674215044362
37.075,-0.518375249871961,0.0382446480013745,0.840165184208887,0.227087422273955,0.0400223575571798,-0.0811860627313223,-1.00441920230578,0.110196624139458,-0.254008915924159,1.9734159653561,0.337372103450479,0.309148942096837,-1.02713883734533,-0.0741674015351761,0.271645642916851,-0.18370451474188,0.230848636755285,-0.0484940495203193,-1.50920179003374,0.0732697398653474,0.00943614425218834,0.651988780653736,-0.268132300773954,0.425472688356386
37.08,-0.516896299555684,0.0409992521871708,0.848246320226915,0.248517318672873,0.0667703921069854,-0.0690656702350597,-1.00521180281761,0.150621576270268,-0.259828829549267,2.35455026838276,0.28713444576647,0.303931450104159,-1.00709559304017,-0.051862485575063,0.310177803890709,-0.222161927338824,0.224917676854128,-0.0843946378144285,-1.50691374246781,0.0655615187263802,-0.0208679479450556,0.790362414606527,-0.259741873322737,0.395499531366383
37.085,-0.520691532052302,0.0438506080625869,0.8390969308038,0.270115778823216,0.0835719878588334,-0.055003293352176,-0.994551996909442,0.235495522262927,-0.251530160205723,2.52906864664713,0.263234712031105,0.261201374047275,-0.99197976333838,-0.0349716925967202,0.338830462200334,-0.230284562654093,0.271317847561552,-0.157927972501157,-1.48350886709974,0.0543999891808895,-0.0267330033861549,0.875683137452874,-0.20434794935257,0.380725521171037
37.09,-0.516576634399776,0.047706874100848,0.845782427451042,0.279563635263136,0.104832539204038,-0.0424530257609815,-0.995726576673199,0.308872531449109,-0.250680222297515,2.55228393602393,0.222642851966981,0.182545850556262,-0.972631996010169,-0.0258888390958936,0.365171195455767,-0.223320128837794,0.37266753261797,-0.279221849591161,-1.44453251121049,0.0474117448119129,-0.0244796033169906,0.922803977985286,-0.123962508361555,0.369696031294062
37.095,-0.518934031076034,0.0560990480322394,0.845238038552973,0.282614464417787,0.107747533576156,-0.0360055033987623,-1.00169893667299,0.391258261662981,-0.2624237288094,2.4035930156798,0.195475512744124,0.0925997453354381,-0.962590770362298,-0.0132469809314533,0.378520028480813,-0.256047507715325,0.470251223985643,-0.386939695575647,-1.40094837111916,0.0361486791270828,-0.015405483043775,0.915603057284849,-0.0329866650180406,0.350806357998147
37.1,-0.525342377044123,0.0526378770058702,0.840286541568882,0.28089794943734,0.103238972202296,-0.0360970709843658,-0.993735963840538,0.463107608049106,-0.274853846657333,2.11512598013338,0.176393723569685,0.017589597132333,-0.964120810665857,-0.00830166523662295,0.378438151713522,-0.284175722066936,0.52431293536222,-0.452729345940928,-1.34477549535063,0.00722935815451536,0.00691209149876221,0.882462128952781,0.0146683688604287,0.315091207579414
37.105,-0.530303855487035,0.0502824750305063,0.843142607448979,0.268083516433126,0.0858881372193755,-0.0285060450204071,-0.997438797820083,0.516830480548771,-0.283067745270421,1.73976894207018,0.158308996104883,-0.0492660990875063,-0.965616096122448,-0.0129306779734481,0.364140031124821,-0.352287599901826,0.549703641573371,-0.539218790955084,-1.29225914862347,0.00414944992088701,0.0184519449908413,0.852073708984468,0.0123260584079042,0.270597344048683
37.11,-0.525721304977211,0.0619936197614276,0.835093741005936,0.245874220275765,0.101169029693002,-0.035987731371255,-0.983444932855166,0.547051863873661,-0.271683691293003,1.24633302032166,0.149478049244645,-0.0955008665997153,-0.965368977338293,-0.0253515640073781,0.341634513422912,-0.364243984244454,0.528823971792437,-0.613035082772993,-1.23832532170493,-0.00559191132843319,0.0305644047881097,0.807477266419903,-0.033134787830385,0.192319882316195
37.115,-0.518922534282924,0.0773201575022152,0.833093144716429,0.219277988290251,0.0959584883425447,-0.0406163649047839,-0.970148458663517,0.554199995320303,-0.259157680380504,0.673646191910607,0.133494577487367,-0.144490160598234,-0.971214076332427,-0.0426090504865231,0.304495535796789,-0.340817518411678,0.487791287595501,-0.657705403890127,-1.19159198715429,-0.0131238322775697,0.0336624378766843,0.763853516809506,-0.101240939480469,0.102787246632295
37.12,-0.514507621136276,0.0889864279339364,0.834814364761149,0.186182219901898,0.0881327643142726,-0.0463331888825872,-0.96251819883132,0.536909428042238,-0.249275874273003,0.152731172628742,0.107907390417862,-0.18277011936704,-0.979620276445491,-0.0621593694835309,0.257997879162696,-0.314116014337685,0.419579417100004,-0.717351500400035,-1.12415510244182,-0.0229141959747884,0.0255205129402181,0.714714806259222,-0.191500240663321,-0.0119678186491786
37.125,-0.527224124217082,0.0792368406990925,0.836619739290059,0.144240357222152,0.10700455721147,-0.0539311280904834,-0.951869988040835,0.469579291207304,-0.237655692891986,-0.369568719216843,0.0888463818251611,-0.212926479034501,-0.983271024834088,-0.0693339827053386,0.216076292476111,-0.313215575287781,0.340993232855561,-0.748642118151803,-1.07395108615629,-0.0104073733007274,0.0120603417547354,0.676612017323405,-0.235865412769294,-0.0896137413752417
37.13,-0.528384013846718,0.0792165862301385,0.831540763184834,0.113505648638078,0.0780924465178657,-0.0619215779006481,-0.952174631219814,0.408368212032246,-0.226662490583638,-0.6360986572249,0.0758350884985253,-0.233573325472118,-0.987534604393634,-0.0679352581052532,0.172694294325271,-0.338057493454169,0.252717869659726,-0.762283454859767,-1.0212370050241,-0.0174802161959008,0.00116944647742667,0.645990042501068,-0.258661315943461,-0.150603157896785
37.135,-0.524615870437947,0.079268103634053,0.832233829399394,0.0900663815323661,0.0712067084580386,-0.0612505961431552,-0.955538330498604,0.34068101363454,-0.220163855110622,-0.772517793167249,0.0496740973052305,-0.256965895758973,-0.982886868551157,-0.0536675856504015,0.146025410396489,-0.373738274526001,0.186602987773343,-0.758099338427674,-0.975838134896291,0.00447789204517522,-0.0125089671169281,0.620601501396812,-0.268408173197367,-0.190653251971122
37.14,-0.519984722480567,0.0793629199207933,0.83154244775917,0.0769293846425249,0.0521921196347331,-0.0596184862932565,-0.948906049701802,0.288026808804422,-0.20996431378783,-0.784878221376105,0.024872348290835,-0.26986921206093,-0.977968340878365,-0.0372076476698422,0.117052064449722,-0.469051946576583,0.0989058702696205,-0.77255653954112,-0.925205530383828,0.0434072652079858,-0.0237574110157126,0.595493952432955,-0.259608022198862,-0.231154330591312
37.145,-0.512845427306596,0.095714554918357,0.833837257051197,0.0698219937240483,0.051406902226172,-0.0632527108273495,-0.939334434543045,0.252047707755427,-0.198905154478688,-0.681393426284007,0.00724706393288054,-0.283440541053468,-0.969857280559967,-0.0263576576867931,0.103255950264606,-0.563513781965526,0.0374736901526905,-0.793418322141128,-0.893896705465143,0.0612244595892114,-0.0276991046842052,0.595825152017092,-0.240071810628063,-0.257508574628539
37.15,-0.51628586179679,0.0972701279708765,0.835730960972306,0.0653729513287544,0.022576856182936,-0.0647921343268367,-0.9435132949523,0.230813918447136,-0.199696449896814,-0.466757884811305,-0.0304399527623651,-0.30575127622636,-0.970823287361921,-0.0204194534763037,0.0975916453035119,-0.691578414037606,-0.0265079112110675,-0.839575234160899,-0.861583998603677,0.0713635018684781,-0.0339818807463082,0.590572547493446,-0.185342422326327,-0.277345405534757
37.155,-0.518111432063164,0.0870277959584355,0.836682867382724,0.0682310065008737,0.0171751786513386,-0.0684447145972137,-0.944787436855925,0.216453824649194,-0.204801548150234,-0.262783100304673,-0.0548535640662141,-0.31338666573927,-0.978736981710693,-0.0165747574606942,0.098144405206295,-0.834888565049171,-0.0822305142189615,-0.88934523647644,-0.84684784937996,0.086410973781461,-0.0308928064589912,0.593840514605819,-0.129712939473288,-0.291220372473205
37.16,-0.51797266223646,0.0783259204590114,0.834028101087255,0.0743210336010267,0.0131148419945978,-0.0785960434091259,-0.943767473366006,0.199542662610579,-0.217471809995139,0.00570334858260419,-0.091195112736378,-0.322593164883886,-0.981274610324629,-0.0144079608351709,0.0928273786044621,-0.942693141981084,-0.1096899979537,-0.924178278512958,-0.824547436897825,0.108387570265391,-0.0237093235422151,0.603953031016538,-0.0910831954001904,-0.308367064441169
37.165,-0.526504126856967,0.0679481087490551,0.831401332567379,0.0872405876083772,0.00406673954292131,-0.0766843044622407,-0.953683956405117,0.181989862022594,-0.221612176844382,0.219471891014447,-0.129525914569451,-0.322695620725575,-0.988111870941873,-0.0189495038404451,0.0909803456764798,-1.0936512278703,-0.132731861591877,-0.961951851296121,-0.821378121704608,0.121289213346319,-0.016545358876131,0.654102794413336,-0.0632236969877948,-0.317474805617314
37.17,-0.523716114555621,0.069854024452539,0.828536644525844,0.0812600491189181,0.00677591097068387,-0.0843260702481826,-0.956264405707158,0.168829962578356,-0.223169838975589,0.485257736882165,-0.152072470633302,-0.310777167775956,-0.980044488181154,-0.0198874646707563,0.089795151596725,-1.22329645031484,-0.131593704223633,-0.985677351103078,-0.832949360027801,0.128492116333703,-0.00533695920111443,0.715933389623714,-0.0344261369494592,-0.301609117594071
37.175,-0.523547267972677,0.0592947951084095,0.828871939981394,0.0864305131286195,-0.00762888108058549,-0.0930414471395811,-0.95884592070551,0.152468995145703,-0.228937036558537,0.706447562978533,-0.186635944298116,-0.291956294777234,-0.969959150388054,-0.0248973273657964,0.0793628828327314,-1.35904177632776,-0.122004791513642,-1.01678112365126,-0.84148873107623,0.139633233925985,0.00370996438037397,0.773235101945883,-0.00268983701033279,-0.288255091479879
37.18,-0.526017496886762,0.0424166231533453,0.830635605677027,0.0924306129977667,-0.0196290742487836,-0.0973507240414619,-0.960714941972117,0.149195400667134,-0.231884335541084,0.861400366757699,-0.203435920646442,-0.271460254011311,-0.963077055315714,-0.0226857461107589,0.0737418273282083,-1.47056806762954,-0.104613699155713,-1.05555820339628,-0.862741369630246,0.148790392956809,0.0115199042691807,0.838382196175045,0.031162044647602,-0.251828010332262
37.185,-0.527383762204825,0.0351859168795912,0.8303311173823,0.0945677516474125,-0.0316070316330856,-0.100159385970535,-0.966817689655517,0.164163807194195,-0.221125531331382,0.997109642538443,-0.232128857839531,-0.248942152280044,-0.963010570569547,-0.0167730769604329,0.0768400154483184,-1.56040649310995,-0.0829217243047819,-1.08602223028326,-0.891315230086444,0.152598325350466,0.023875735481758,0.885799943204406,0.0541633561433281,-0.192922314825747
37.19,-0.524155783842102,0.0441459801021665,0.834451034316559,0.10413971079995,-0.0349992569140921,-0.10509654707489,-0.974607826759625,0.163372297747309,-0.205558110518049,1.06358012165878,-0.237488614791085,-0.22812724077994,-0.967906087816687,-0.00876924193860826,0.0830610731790567,-1.60371783548559,-0.0535050408489437,-1.11068215785629,-0.909072593819177,0.156916788547857,0.0359361874121452,0.9633391506223,0.0661042476702218,-0.130345457113496
37.195,-0.519737488967818,0.0455954932559555,0.838373525172974,0.0994896984266855,-0.0406328591306914,-0.110193628467328,-0.977882236791021,0.164723721271299,-0.193560652754205,1.08589004690551,-0.244649189757439,-0.203888257147707,-0.97314712734877,0.00211076993407429,0.0990360505213827,-1.6258744853137,-0.0298335816817872,-1.12437728255362,-0.926478999538181,0.158717377314156,0.0477805029108652,1.0348762426501,0.0519608938506695,-0.0456382741177828
37.2,-0.527564131789773,0.0349805767919022,0.842665546123386,0.094887749212208,-0.045174941898391,-0.106679110389721,-0.980012283372898,0.187479696622284,-0.177785264072653,1.10708563192568,-0.248488733492682,-0.190422382310252,-0.974916263952694,0.0166150462592402,0.121389290283902,-1.65124326337403,-0.00764676584961295,-1.13467524111029,-0.94930115976611,0.162838884307328,0.0617812418508928,1.11713916647296,0.0292374740713197,0.0435987610261021
37.205,-0.527406689638222,0.0413757845727582,0.842882732044963,0.0865411427563613,-0.0410990757963584,-0.113192816407023,-0.970418160866128,0.223080737060277,-0.151227912990635,1.11353259449241,-0.241616574815771,-0.18562310999853,-0.979151155406205,0.0300126284329852,0.160467722324891,-1.68245913960223,0.00611374797864505,-1.14709863876668,-0.960093397625376,0.148754312880347,0.0643190478184453,1.20933380298829,-0.0296858785666248,0.138624735844375
37.21,-0.524174537032955,0.0511936223494833,0.841199547181412,0.0983587056398392,-0.0359989109401985,-0.111264782988741,-0.964260473098686,0.251458752987626,-0.147348738007838,1.09888901815546,-0.219644551109877,-0.177141192686723,-0.978669663679976,0.0385833795330984,0.194851201051497,-1.70003529030647,0.0182629236890363,-1.15859968055384,-0.953303293006887,0.134769534215536,0.0804335634581478,1.27572293186937,-0.100307741867353,0.194008639190643
37.215,-0.522084687811916,0.0651779716113033,0.839696352250235,0.0997263490337241,-0.0330988882196709,-0.110251486260598,-0.960415887463851,0.26029482922387,-0.141526674336513,1.0713397856795,-0.206975656986886,-0.179779203949384,-0.985359594773541,0.0469250904287894,0.239636082776704,-1.71171160876066,0.0177222249425599,-1.15770236246892,-0.96172779185097,0.121143555815092,0.084209138824207,1.36966291865726,-0.217780431176527,0.24275639669958
37.22,-0.516803017395265,0.0863902225610109,0.840367742035848,0.0937710581660094,-0.0314852744340897,-0.102753896384252,-0.967339267811082,0.278986703243347,-0.131639944300673,1.03216952836106,-0.196101911505746,-0.19562202958012,-0.986604606928921,0.0521906681688988,0.28527848862417,-1.72052311199683,0.017269886875134,-1.14541828159785,-0.963873670633642,0.109905440276579,0.0863027252164389,1.43607169046048,-0.329079340022717,0.255337369802515
37.225,-0.514308284509203,0.0906104482378489,0.833104011688726,0.0806481213955577,-0.0318224185021087,-0.0996592543542053,-0.96366305343583,0.299220137707806,-0.133339425919152,0.966583511932423,-0.176981630222246,-0.218949843593572,-0.986054511705114,0.0559361353101685,0.32455350080222,-1.676761917197,0.0241640608542827,-1.13886548435503,-0.974744577239223,0.10196780853878,0.0858050220900983,1.50868407350907,-0.461627422501079,0.245870291812385
37.23,-0.518028222425781,0.0936363296080086,0.832548724848556,0.0647012519786168,-0.0349997778288197,-0.0980918546574247,-0.970831943377373,0.317517096582611,-0.13696919097104,0.8745895237759,-0.177247317299782,-0.25762452571562,-0.979985916255529,0.0570841959228157,0.358658158277427,-1.59771909390349,0.03256614488659,-1.13578569659463,-0.976349781421047,0.0996723678426522,0.0864896765157978,1.55653033274978,-0.554263648574178,0.238372781380229
37.235,-0.520890041707987,0.0975340397651964,0.827276014594546,0.045808442317012,-0.0304031838719445,-0.0950295434998144,-0.967487864865585,0.32259560582807,-0.138371511018994,0.784821834440949,-0.164379831474557,-0.277838841691212,-0.970194266336033,0.0550085516204381,0.389881332447728,-1.48131638742246,0.0407881501576938,-1.13203257574452,-0.971868957977807,0.102798090981563,0.0780463044420013,1.61426273944743,-0.628573360279022,0.226584029065112
37.24,-0.520766083748951,0.102055453971388,0.831961285460021,0.0288223305134409,-0.0345144502016844,-0.0892227917127962,-0.964628881893547,0.32384693786728,-0.130722765991507,0.667097495666233,-0.156549043077372,-0.307927552195617,-0.955504809689567,0.0514826411957052,0.41074968043386,-1.38374737999361,0.0411659314674979,-1.1378980420071,-0.96178065350442,0.0971827412502636,0.0690370322229509,1.64958303455528,-0.673500465166002,0.201516364806484
37.245,-0.515164666893409,0.128126233868923,0.83199539745082,0.00530287908677016,-0.0438552935774298,-0.0874240852407927,-0.957826933867821,0.319166190310908,-0.116143157188782,0.562765474446625,-0.15387940131553,-0.33226467593449,-0.941596115263307,0.0443725873015947,0.423514375515951,-1.27018991652055,0.0388230165939551,-1.16811544040894,-0.950697016304225,0.10912630682334,0.059336248738891,1.68032477741252,-0.703275442123413,0.154205374382862
37.25,-0.503904980262336,0.131590473528922,0.841749537513364,-0.0295215549603792,-0.0485362761069801,-0.0840094974545039,-0.956541333248957,0.320145664873511,-0.110348573712128,0.426456495077887,-0.13830276365199,-0.346270491483179,-0.931164826238883,0.0371296881224942,0.423785544372901,-1.18853901297171,0.0326791033809867,-1.19584211501646,-0.944183703464201,0.112309784766901,0.0539227720245841,1.69233906269073,-0.701385038842055,0.11122708981111
37.255,-0.512967909234376,0.0996513728503948,0.833597352942626,-0.0506243382401201,-0.0605950181645639,-0.0850143916045672,-0.958235349264105,0.317412094205686,-0.114427980096494,0.286982357996948,-0.121121162320621,-0.359409372153797,-0.920268814991221,0.0266428982610017,0.411262189863418,-1.08714451182606,0.036948344164159,-1.22786148598086,-0.933153182846729,0.119893845791563,0.0498210491461166,1.69231186076309,-0.689673583887407,0.0750428908846574
37.26,-0.520018278825122,0.0583759960814649,0.841088777242454,-0.0571962613860265,-0.062027633190155,-0.105458004551393,-0.955466024676095,0.325941510565862,-0.126167079368509,0.160910090840701,-0.10858963774872,-0.364910367884084,-0.924724583463392,0.0229898728109495,0.379085133316982,-0.964576087752251,0.0361272142415849,-1.27364263824521,-0.920577480014766,0.117618470288313,0.0379379761488114,1.69054855163339,-0.679093427997675,0.0433023479375787
37.265,-0.518580442196352,0.0414571635370496,0.844675362477926,-0.0573453779219614,-0.059501621652589,-0.117570650928508,-0.957720907957206,0.301311885018435,-0.134402780848639,0.0179142167045565,-0.0948830992416121,-0.36886459495858,-0.938997073858842,0.0323407255052443,0.321820024887563,-0.816709448050716,0.0329983378093335,-1.32930964113981,-0.8961273984174,0.119926793873218,0.0289572470678854,1.676227605943,-0.66438584347362,-0.0159272776489372
37.27,-0.513810895638192,0.0425498915711955,0.841635024515495,-0.0543504791536773,-0.0516314057533092,-0.123014189428435,-0.966242380702819,0.252925377676784,-0.134198521945012,-0.113906061746692,-0.0875649377703667,-0.366697975434012,-0.955221742510127,0.0466791895798715,0.245758187549158,-0.676928203057555,0.0295344520690948,-1.3889657188399,-0.868333770997239,0.127998342110343,0.0228010882188249,1.66107410960318,-0.6435286982243,-0.0778285423052963
37.275,-0.513010453237176,0.0520393659537062,0.841273615033507,-0.0543198805058343,-0.0473340708518369,-0.129642561847068,-0.973741578248014,0.199169180114279,-0.122478340636097,-0.164954920245094,-0.0850765836578939,-0.365711578990784,-0.971227195013207,0.0542538815161932,0.158927848034136,-0.592528030625885,0.0396027478448635,-1.42969508057322,-0.850183388632944,0.144492841069893,0.0187460652349682,1.63996019133119,-0.620757053102883,-0.13103529736388
37.28,-0.511121155565523,0.0683207980352983,0.843095222893589,-0.0561596495014955,-0.0468344522515823,-0.129855637312165,-0.982667091555864,0.156596611744138,-0.109982506102616,-0.161219343621353,-0.0814444646435033,-0.367493156390086,-0.985844302459207,0.0597071395557157,0.0751983889497591,-0.580621582979236,0.0590397267664448,-1.44654247159764,-0.838496950598137,0.160002869243901,0.00965130396219287,1.60803979784677,-0.586668400822206,-0.177632460814763
37.285,-0.510330133569609,0.0690472072829704,0.83936600756964,-0.0598059276487569,-0.04672956152583,-0.129680819578062,-0.99195460072681,0.132451191057097,-0.10491715346611,-0.133704339580832,-0.0783450881296433,-0.362479044880144,-0.989782961922825,0.065969998678303,0.0103550690006488,-0.650615717035908,0.0813340316665256,-1.451346922309,-0.834079698829295,0.175855840870475,0.00228210412234622,1.56980436562675,-0.533688027536378,-0.211798351079161
37.29,-0.513027133413481,0.064410719507167,0.834643754697948,-0.0657633639621918,-0.0474456345179575,-0.131636509809782,-0.989239730137299,0.10603850520311,-0.108609950470389,-0.0283895622254417,-0.0723389698118768,-0.345039899632272,-0.990521439411998,0.0736610889791338,-0.0362509986210323,-0.769314774298968,0.105518085256865,-1.45628392040222,-0.840303023029911,0.19639971844554,-0.000285701011091738,1.5298760440459,-0.473479037554216,-0.241480461768052
37.295,-0.511880168647383,0.0717162289372252,0.834034716721718,-0.0674163015086737,-0.0509370317495139,-0.127674572082437,-0.981215456658137,0.0801280171527952,-0.104863696292097,0.139477207434999,-0.0623584319563672,-0.321272249366374,-0.992960315835954,0.0817375260263016,-0.0604244467909326,-0.908046419341105,0.120714433935226,-1.47882637147541,-0.842980247421771,0.220505045022426,-0.00213984069304028,1.49548073449127,-0.407064285348538,-0.258802192077133
37.3,-0.504956688689969,0.0871842366926598,0.840003281023395,-0.0690550611195916,-0.0555522676399027,-0.118403181667469,-0.974392521172139,0.0704280933302335,-0.0847622541513466,0.316153460758576,-0.0484349587868252,-0.298136467978717,-1.00303510186689,0.0860233597198004,-0.0682624090395548,-1.0496544325786,0.121831843132142,-1.52015670867663,-0.84376661212633,0.244709622876815,-0.00128232132081283,1.45876069142398,-0.335531086794444,-0.265502279905011
37.305,-0.499792841580264,0.101130288280796,0.844076625728785,-0.0774790685522321,-0.0564581424899358,-0.109596410024571,-0.968666057275433,0.0922444187767855,-0.0619626255539143,0.494308945628059,-0.0349144804725204,-0.274400490113663,-1.01829428531507,0.0806735541823562,-0.0546248928024543,-1.17250474855199,0.109353834039463,-1.5667891186459,-0.845178606181345,0.275367791504913,-0.00264127892374631,1.41901908091559,-0.263866345637356,-0.25982495113692
37.31,-0.50390373998897,0.10210728314391,0.839892873052297,-0.0830587153128196,-0.063240894094645,-0.108345970511436,-0.967906959640175,0.126721383196341,-0.0504568847616367,0.624407328820283,-0.0110764737336237,-0.249646539820341,-1.03682384679455,0.0651147517417066,-0.015254243216675,-1.25165870056122,0.0806173131516359,-1.60310725157282,-0.845956060183287,0.30347504695046,-0.00145267732700483,1.39183870857969,-0.216737561027019,-0.242144546375502
37.315,-0.509941180577448,0.0941093238848478,0.838000139485961,-0.0912790218707238,-0.067494727826512,-0.106024682644994,-0.967861944823749,0.1578994980194,-0.0484841362208987,0.698696907477139,0.0198921952935118,-0.223388820676608,-1.05192458425676,0.0457711576037612,0.0406644643688962,-1.27323733773466,0.0456147519997419,-1.61291821647927,-0.849722917558844,0.322297790165618,0.00246952788673804,1.37247181844981,-0.185413617649659,-0.216714704381865
37.32,-0.503469321137228,0.061163121460747,0.841965115608968,-0.102873171505911,-0.0738099188986504,-0.107998250544814,-0.958320145279518,0.186129936739485,-0.0457117804878522,0.729290820820624,0.0494901095192946,-0.200369789211178,-1.05554991301045,0.020620630663611,0.109247920187427,-1.24072884673411,0.0145238456043221,-1.58855229912059,-0.849480800645191,0.335258655633443,0.00454696939587528,1.35324335698365,-0.156888049783186,-0.185362732589731
37.325,-0.501963928480118,0.0853176447205096,0.8401216622733,-0.111015681654975,-0.0768634430643262,-0.0934582961584582,-0.943581625566374,0.212570190097363,-0.042304038033233,0.714653133223856,0.0853429816132433,-0.187906373699873,-1.05167797034794,-0.0202513170006379,0.184021060347685,-1.15533462698139,0.00229208980333416,-1.5244924023539,-0.847682721991288,0.348979498052995,0.00313073385026786,1.32539567433872,-0.128210674146535,-0.150597576786949
37.33,-0.510177230275382,0.105812698093956,0.843923144604258,-0.133793861432897,-0.0701438092525502,-0.0734225821632473,-0.932596317488642,0.24313673705513,-0.0340585694159539,0.644044509144496,0.126395314421521,-0.193462262417851,-1.03885973893235,-0.0781393493871668,0.251849741539998,-1.01230117934116,0.00725166139691568,-1.42969913200603,-0.84759741724318,0.364220457436165,0.0015523987512455,1.28595934293213,-0.111677075966506,-0.115407442270255
37.335,-0.507613714642527,0.0544982947138036,0.851457052850588,-0.155753761529922,-0.0729113250232926,-0.0737246987899318,-0.925752545454839,0.264394597063822,-0.0271311536538437,0.512378358549843,0.173943556627724,-0.211260273417406,-1.01471376007575,-0.142451974534857,0.307470827839579,-0.818778793912982,0.0286831107983107,-1.30982986605325,-0.845582083527601,0.378799526736574,-0.00320354829466952,1.23905781251278,-0.101681270624972,-0.0820732604737977
37.34,-0.509044540957314,0.0579471179426712,0.852555734515017,-0.160723504946171,-0.07372672462397,-0.0667253923112382,-0.930318780110044,0.270472988908271,-0.0402155674495362,0.322156597751396,0.221141927802563,-0.237102306233104,-0.98940668728688,-0.208623122457321,0.356452025066977,-0.568870898724865,0.075565795592981,-1.16171061738029,-0.853653964799598,0.392296637629031,-0.00474360800969877,1.19274204060595,-0.0961997515494297,-0.0509103099934478
37.345,-0.509083114892872,0.0557403776341572,0.858371360095169,-0.173318808946023,-0.0670066665953418,-0.0587289437964493,-0.939681662378987,0.27518473205501,-0.0571772608984888,0.101301967960821,0.252250112028669,-0.27161265624619,-0.968818440964555,-0.27460242944468,0.399531926601077,-0.249135986699861,0.147468626353108,-0.996064716343704,-0.871716096999952,0.40300430717224,0.00309213966717799,1.14692848360351,-0.0912234042330877,-0.0114343455138716
37.35,-0.569751672507058,0.0963606348543407,0.830484142155275,-0.174848093627955,-0.0590768149146287,-0.047151937882109,-0.958525220968006,0.314713826904566,-0.101319556101173,-0.0739186730753822,0.279688595305586,-0.297525459360088,-0.958382076623674,-0.325103734044861,0.440925911933761,0.11428656936442,0.230072558908391,-0.820823151874725,-0.895094573198019,0.414103083744537,0.0256493583972262,1.08755558362112,-0.0800972631107131,0.0465477639453033
37.355,-0.57371089794578,0.157744618451682,0.951571321226944,-0.191637811048028,-0.277974683736901,-0.0726316638426528,-0.944329516759167,0.359850889658697,-0.0197427430227461,0.0986284110015946,0.338587993599632,-0.356492458601393,-0.949406840175112,-0.343157703301769,0.474742544221047,0.474380387853349,0.314911828399931,-0.640095950188354,-0.925177519085661,0.418372382233231,0.0536363718379111,1.03842960106181,-0.0754625950897265,0.0861613728334089
37.36,-0.462784090705578,-0.0163997987392137,0.844439416611731,-0.0366482220965527,-0.0647541715859048,0.0327195111335506,-0.906000784763245,0.246018859865104,-0.134262186077956,-0.420045479014991,0.401768237692404,-0.364360283602004,-0.931861079859375,-0.346933425435428,0.497614008105588,0.665682733226791,0.368681589453916,-0.531901340306797,-0.945754988390802,0.413440529816657,0.0848101593859171,0.988209920715939,-0.0584967516243184,0.141838641343689
37.365,-0.512559359135709,0.109882478890211,0.836508544297914,-0.191557705731959,-0.0808825497275903,-0.0225166075618133,-1.0029971961717,0.302077261178397,-0.172415632807359,-0.311860869846666,0.48036048756531,-0.371641130933324,-1.00086047508023,-0.350550538476805,0.537281805884405,0.861185493145402,0.37042871115338,-0.394320305390403,-0.988522003015127,0.398318971492536,0.11702306378941,0.935327363374279,-0.0489855587010909,0.190388495647316
37.37,-0.509794588202127,0.0814351820707119,0.856079541610727,-0.175189853732925,0.0188929579410913,-0.0109169724359335,-0.959399447307795,0.298255962573987,-0.109050862451637,-0.443464097784396,0.36502398024873,-0.376070574029398,-0.964206238752578,-0.323725938700793,0.496003351005321,0.898732228486806,0.381237042453339,-0.254656826309416,-1.05104492296789,0.38473256110721,0.131342542766671,0.873700012281685,-0.0307947520181938,0.265423430464032
37.375,-0.503041492394449,0.092587392531581,0.853475590034176,-0.225308989721631,0.00835520705979994,-0.0542926663347395,-0.965912813744808,0.301056125792497,-0.147139853629245,-0.531079723130071,0.41176223205218,-0.385333686832147,-0.949204918947793,-0.307440059216284,0.471089280682357,0.802158602742906,0.442871388371359,-0.193994714410174,-1.16306186848331,0.3595325173907,0.11518736057526,0.823329705198528,-0.0131418257454396,0.329102682897894
37.38,-0.495548323500709,0.0811943109697791,0.857524949404914,-0.217591288627965,0.0277953086331458,-0.0636121620936848,-0.96926339629692,0.256427780243269,-0.175865236688799,-0.644911280460339,0.38838069419124,-0.397415961832148,-0.960032901689165,-0.263981972459062,0.467651833546499,0.783031127080648,0.385090946078975,-0.141158978411224,-1.30163833872189,0.324758538392946,0.0605898705455262,0.787867651381665,0.0355711892076733,0.389229505039458
37.385,-0.498197818429835,0.0724152803580933,0.855683242517512,-0.222154219450561,0.0289466371531441,-0.0733737748288418,-0.976513943141927,0.188411090438837,-0.199420650415552,-0.634814494172109,0.368489726938717,-0.393661076933928,-0.967426942509827,-0.249592412221539,0.399173542830578,0.705578101635159,0.330385652386499,-0.0668982114814746,-1.46694991694318,0.289577651380201,-0.0164135599987141,0.771053163111658,0.130602029265357,0.437831382817225
37.39,-0.508825994238656,0.0506750570624351,0.849380242744131,-0.22837777249001,0.0263893476942182,-0.0846788041970133,-0.971601018430268,0.136645545963359,-0.210638482962579,-0.562116256164426,0.342990550897635,-0.390225605102022,-0.958143021214545,-0.25435531515778,0.323066921031362,0.588801585346583,0.31002892574436,-0.0720861872515638,-1.6012125581692,0.228965664236008,-0.0998972442171695,0.757788604650996,0.267312261272454,0.478028132349218
37.395,-0.529018591594304,0.0051223642996234,0.857910943268092,-0.237549626592361,0.0106883152005234,-0.101666611203806,-0.972348360281729,0.104200176740027,-0.210328648630677,-0.446556810347667,0.328764759726442,-0.383865534974208,-0.953009369982835,-0.25240185934667,0.250831553409352,0.48599125322238,0.215141349490965,-0.185158938623654,-1.61972576614631,0.14173810476479,-0.158537299476954,0.727384596911657,0.37691680817543,0.46653115251535
37.4,-0.538576931642022,0.0504906187603908,0.851050143754749,-0.211758427762295,0.009184392059022,-0.100171196429595,-0.986261487386114,0.0541797312522137,-0.236357528112582,-0.343406857659677,0.321502659870325,-0.375975986474659,-0.953015637180611,-0.250075522393591,0.138760012406553,0.385321961120076,0.134985886480606,-0.290509102857703,-1.52149899959659,0.0431606504525933,-0.181610014538934,0.650771026173397,0.43835508960871,0.405238651834964
37.405,-0.524442147935571,0.0606074547125585,0.833489382307811,-0.193385959159273,0.0109985044902418,-0.100981822580741,-0.998584390990164,0.022430789309104,-0.241044463771185,-0.12931456742965,0.304946455841466,-0.345481813529093,-0.941812816833494,-0.247861681444448,0.0303746230395098,0.294893376193552,0.10818683446832,-0.343086373414008,-1.36953684254465,-0.0269422370713413,-0.177366716635537,0.537476425792774,0.42842198532671,0.296308797495673
37.41,-0.501347082659333,0.0111060282955839,0.844030301941257,-0.185186482767679,-0.00472315442908263,-0.11174337441862,-1.00327187166599,0.0138763273828806,-0.223399203169435,0.0980560560589342,0.277348456581222,-0.314408243753202,-0.922356326264776,-0.253229739502018,-0.0503548734397032,0.238916611860364,0.0998901922297274,-0.352022808418714,-1.21969475113251,-0.0573289540597943,-0.161380545882017,0.403031289968373,0.386034909178157,0.139714554536619
37.415,-0.499672357490744,0.0354333140753155,0.855952208758787,-0.154188825557703,-0.00475923525617894,-0.109577854470262,-1.00317555464566,0.0187713147454152,-0.226849003831,0.236102980144757,0.259533314343011,-0.296047173072628,-0.898264991857538,-0.267089058066435,-0.116048455560951,0.197705200128898,0.112022402869203,-0.330443166055504,-1.08057750418179,-0.0495447276769097,-0.130331116833635,0.222880066317498,0.326603032414585,-0.00891406948137354
37.42,-0.508538174873377,0.0215144577318999,0.847846325173015,-0.150784120838593,0.0156742571729211,-0.115781161214464,-1.00252273327538,0.0467122827112802,-0.232165096356615,0.368667101866821,0.247153554513905,-0.265246034524849,-0.876140772871906,-0.292390130718981,-0.170142137212831,0.139084989658493,0.149332485671827,-0.297806381400503,-0.984223238526568,-0.0189481800185182,-0.0973604851761769,0.0411434120985359,0.253998917750734,-0.114434115685059
37.425,-0.509067570080947,0.0145540021319836,0.839233740347565,-0.132163518804783,0.0365054965229066,-0.111628403592731,-1.00092203188355,0.0673349632497374,-0.243019019587788,0.46871567902426,0.234610242739132,-0.235964413786865,-0.866708906621533,-0.320745075483276,-0.205786657265374,0.0645596690857044,0.193425569961066,-0.291009658295602,-0.930576840126613,0.0107709532998136,-0.0738999174760342,-0.105066906129991,0.175031567014767,-0.199211986908825
37.43,-0.524054950717937,-0.00733975988839503,0.851246509682896,-0.116659536957741,0.0442763846910479,-0.104196236492221,-0.984810694217779,0.0805551830259857,-0.252185415452755,0.532089801487098,0.225370925124985,-0.218640228374127,-0.869329270080165,-0.334548342674443,-0.218490176472431,-0.0341227039225047,0.229231906840458,-0.319538189297533,-0.880031967834662,0.0382386155438556,-0.053594625424168,-0.265905792545955,0.0735567560696218,-0.280901116123313
37.435,-0.514985985449871,-0.0187175326129717,0.85064140281886,-0.104064272948409,0.0348190389545206,-0.102147899223923,-0.967860717739831,0.0945965663818509,-0.249267570343709,0.546814141543201,0.200336804323765,-0.221297582683569,-0.874372390585518,-0.338540237819821,-0.214640203245659,-0.155961918045348,0.26160558626744,-0.346219938075932,-0.839823193406593,0.06494343436802,-0.0385439848679055,-0.428867486668587,-0.0377537603928811,-0.353557924482515
37.44,-0.512199505091313,-0.00338269377109071,0.838102856339301,-0.0673034827872783,0.0229264950544879,-0.0757310551082755,-0.959178094005338,0.115757797935391,-0.243927822107516,0.566994641402681,0.199641323852771,-0.239095182038225,-0.882103816453734,-0.335668062998832,-0.197445117550962,-0.290567597684031,0.284293549651954,-0.371710469778445,-0.8113639147039,0.0952393661891925,-0.022344107656477,-0.577655358010693,-0.149090758847755,-0.425941388504963
37.445,-0.522231344017955,0.0143809137337793,0.837162583184092,-0.043203234935787,0.0172278877036428,-0.0575098293659075,-0.956814033750247,0.138953316536179,-0.234692320263214,0.52120506869088,0.196030789760859,-0.25055046774024,-0.888283562452028,-0.327858371822946,-0.168691228377918,-0.44869786409645,0.303005779680081,-0.380394011735916,-0.783388444361887,0.127000465280183,-0.00231698930649726,-0.6805442550046,-0.224271372367872,-0.494554995114817
37.45,-0.515705569693864,0.0133603694908487,0.838580136467834,-0.0396927781403065,0.0171999568280372,-0.0563186313863636,-0.951843049712676,0.157397706450647,-0.227133868971365,0.460187440531555,0.196129552586223,-0.246830395542337,-0.891073573985913,-0.315094997661506,-0.118394588361463,-0.586831581072798,0.318890102277387,-0.377482979553564,-0.764677720339094,0.159608229554865,0.0332161889059082,-0.727083194552338,-0.26081692259013,-0.553894014107867
37.455,-0.515548238481363,0.0207495764609361,0.837128702902064,-0.0405980440094011,0.0158884064513632,-0.056762389428514,-0.945268966314815,0.173387452179927,-0.219123393091344,0.377179216109676,0.192780965219451,-0.245007785306872,-0.892102122280098,-0.304917742393956,-0.0727435550163215,-0.660786860550459,0.31584361202796,-0.360263431912898,-0.751490633215028,0.192457014844029,0.0570434033121199,-0.717095844127229,-0.260952822041759,-0.587202465881259
37.46,-0.519472489964981,0.0261949480672504,0.830774666986156,-0.0472488751605355,0.012224377772842,-0.0576229360930328,-0.937519844287114,0.184537683748086,-0.212241122041232,0.274674075693569,0.195056122192604,-0.242816853327257,-0.898568410803284,-0.290454177919771,-0.00707909098696214,-0.740466915208781,0.306412697965871,-0.324311737755818,-0.753595605795669,0.234061409591423,0.0854612437101331,-0.67472316317905,-0.236525387437812,-0.592734336853027
37.465,-0.512324774633054,0.0451380269622229,0.836267228861612,-0.054088404405371,0.00665196589802144,-0.0471635128728439,-0.934083997970285,0.185189241246557,-0.206397552819249,0.177666276512893,0.189948266523518,-0.242275476455688,-0.908573535620385,-0.273884204802345,0.082059045842763,-0.79904221496324,0.279988031966592,-0.274903748777402,-0.759175679190256,0.272200284592424,0.120403824845887,-0.597669105658054,-0.169944539296927,-0.566566221154767
37.47,-0.493043048803476,0.052398744358516,0.841734463565785,-0.0595735034072266,-0.00183214937587444,-0.0515935556980464,-0.946798425836206,0.198842545720144,-0.197838644010522,0.0993491782557987,0.184423501295544,-0.25153313106566,-0.924230309392469,-0.267818248500843,0.15223785738891,-0.80416954843314,0.250711119381009,-0.252917612139649,-0.773797708890837,0.284786102483264,0.154573262121875,-0.442484857524653,-0.0518941728018717,-0.486021210189066
37.475,-0.510687220511005,0.058664500388279,0.847565568438947,-0.0676107311033816,-0.0125780510518933,-0.0543910220256098,-0.94961860539789,0.20099188569478,-0.19099601000941,0.0245542522934447,0.187808894727998,-0.259507193208336,-0.937953479366759,-0.269693696863192,0.193290125302129,-0.772486807609512,0.237443914615767,-0.254123630069596,-0.790941545151847,0.285919631144925,0.174457470260676,-0.321410586416328,0.0416627721014831,-0.4106434472796
37.48,-0.500013930681337,0.0560023629870966,0.833786901305781,-0.0730604950172968,-0.0214638837558986,-0.0596502235070076,-0.963503468429607,0.19183154835197,-0.207793519209803,-0.0687967182817779,0.170842602434239,-0.267887250864277,-0.953780388520587,-0.277517143465188,0.246748558258262,-0.683186884820237,0.236136347055435,-0.276100402225476,-0.817094831716688,0.272463116903039,0.196386491840276,-0.158636867385868,0.161007385700843,-0.320498714976942
37.485,-0.507852797669984,0.0338084044634504,0.854238595343579,-0.0685569035114565,-0.0154527642512872,-0.0628372122069051,-0.971766099844963,0.165187378817526,-0.22444941520543,-0.0853341750460345,0.166641578009556,-0.269152760505676,-0.963799454701538,-0.27783070294769,0.294118929033335,-0.565873064664988,0.244192941095145,-0.293955622244365,-0.844454215379493,0.249564249174085,0.218536877264183,-0.00637107237465255,0.266294482075349,-0.229979613285574
37.49,-0.498391342921145,0.0503747566458768,0.83129952409494,-0.0748507442670185,-0.0214744248289408,-0.0682334368071691,-0.977912709321223,0.148578821494948,-0.224715517153975,-0.0649578669722492,0.148974278498195,-0.275339477212671,-0.969852700952299,-0.279337011559344,0.323505996255755,-0.442873262752361,0.262013670179656,-0.301903646232413,-0.858597874710655,0.222088090482372,0.242561919020678,0.153389288490136,0.381548191748399,-0.152063479870953
37.495,-0.49368671996284,0.0198523587441533,0.849592649605615,-0.055809340167664,-0.00472525987956067,-0.0823385794778722,-0.981887008096246,0.12523751557218,-0.233749147586543,-0.0312908820510452,0.135442869234381,-0.276385783728569,-0.971658812382831,-0.283602513105428,0.341008889916295,-0.298466147451627,0.28348802717636,-0.276505919611059,-0.882646335291583,0.207810666493925,0.24173062563475,0.19976668120878,0.424542995661648,-0.111182177624017
37.5,-0.541591703165552,0.0181675060705802,0.845586490591056,-0.0603998566850236,-0.00702051463880037,-0.0754528152001532,-0.979960796612156,0.111245983403452,-0.247632378064366,0.00376048811556809,0.143301919552303,-0.260612414657142,-0.971161682364769,-0.293242536698776,0.339004731767619,-0.15522823580952,0.29111260175705,-0.244941085666588,-0.902258731058806,0.191839793843037,0.227709671863422,0.225109307073155,0.462800286569986,-0.0630733601045483
37.505,-0.452274987231946,0.0263143784231028,0.821105097899566,-0.016798596961149,-0.00360429490226926,-0.0857014533875259,-0.980472288832806,0.0835542695891991,-0.242201891265684,0.107644881026173,0.108271141028004,-0.27269197618473,-0.957521023051187,-0.304068436687289,0.320466154158876,-0.0483757763658634,0.291033659287104,-0.228880236669262,-0.930655682582069,0.174647528567656,0.202202196904743,0.194740179575728,0.497428507675785,-0.0126729406654819
37.51,-0.509037025968606,-0.0105913217381346,0.817523163686199,-0.0238953854932631,-0.0274841007168793,-0.0841647611685981,-0.976085538652162,0.0769501720544751,-0.249904805272338,0.172610911803896,0.0964983651134957,-0.26597314611683,-0.942766658989989,-0.306953527862948,0.280438921729699,0.0467029821670597,0.267557431450042,-0.221837354001013,-0.948660092786315,0.150876541411431,0.164486840219836,0.135852217676913,0.514415391073931,0.0246982639319249
37.515,-0.510167572475621,-0.0173388707566208,0.853286226773225,0.0211159306781536,-0.00828815271339244,-0.0861096226980733,-0.972078375910471,0.0474596905841652,-0.259212292049821,0.254364365287092,0.092231523178114,-0.252809379424011,-0.926757256940971,-0.301921276746469,0.231339117745435,0.0611494436267296,0.250952052659448,-0.223993209476246,-0.969747989284182,0.133823875599979,0.129642718187567,0.0526235437812324,0.506141382289128,0.0368791335120522
37.52,-0.511185434163624,-0.0312043325729759,0.830215949854623,0.032954406074566,-0.0102801410624302,-0.0819050196148981,-0.968501814567847,0.0364969471229855,-0.257734685188425,0.354366717148379,0.0747884088843151,-0.237111367324112,-0.911966713172911,-0.303344931192888,0.162750464875321,0.0329053134228704,0.222444984120863,-0.237011645950434,-0.995140920056945,0.117763013348201,0.103954498914721,-0.0259262987926758,0.46796181358607,0.0498619473189457
37.525,-0.528830311610759,-0.00441341150840857,0.844019280927619,0.0607505053486801,-0.0107164680957794,-0.0647661606677562,-0.969424967504351,0.0327197391614495,-0.259029849713572,0.450269045353798,0.0596222712078766,-0.223173342666135,-0.911507447062709,-0.30657015120873,0.118964767128819,-0.0128703963718398,0.209154161733466,-0.245296939489731,-1.01111241313875,0.104769481070774,0.0788326729926898,-0.111420124150758,0.412105844997404,0.0475821127175952
37.53,-0.514007394990007,-0.0272140597852468,0.838274258838938,0.0757485541559041,-0.0013784249185822,-0.0712596242416578,-0.969399841924597,0.0165047314675776,-0.227554198081145,0.559244971279614,0.0737049846345373,-0.204559167515801,-0.906991416417122,-0.313410867099128,0.0626775698156885,-0.131735565300652,0.194531013981559,-0.297782024301827,-1.01955437529151,0.094863562140965,0.0500551367423911,-0.191612800225696,0.314327618849881,0.0462855348216258
37.535,-0.511563513188461,-0.00534514684855093,0.848982596573997,0.0856164044620563,0.00228541823367798,-0.0548571866977661,-0.979825518294387,0.00894098987689012,-0.211154780285953,0.609319144986883,0.0823409067581444,-0.180263829389584,-0.916762870728954,-0.31399754945816,0.0041967345043333,-0.232564045727191,0.192280417838123,-0.342780642950364,-1.02836292148634,0.0886021446622014,0.0797730174348985,-0.268095992154217,0.194023084100071,0.024927308400219
37.54,-0.505940192311388,0.0346700581422574,0.842535357277907,0.111042496005326,0.00390613287205668,-0.0426386636493495,-0.985514120567061,0.0213170604341398,-0.210212705797562,0.641515387611772,0.0957169816757177,-0.154294963620442,-0.932757880501888,-0.315739054560842,-0.0305092792606829,-0.353936573449211,0.213506118807628,-0.393920391393654,-1.05458932268987,0.087155666043388,0.00105527431427654,-0.339856972370814,0.0973571841338636,0.00356712054001093
37.545,-0.525903596606766,0.0394692633848699,0.856943480515528,0.087845480026626,0.00857300042992982,-0.0277141332626343,-0.989081930247216,0.0578277914903448,-0.185059642575001,0.676638343123523,0.105736320125526,-0.149426683783531,-0.94999665030989,-0.306712442732924,-0.0478065948894621,-0.482467748716605,0.230330949686301,-0.42809350517814,-1.0711274316497,0.0912357793993075,-0.0253586173453715,-0.366090987543035,0.0406413469277849,-0.020105114948024
37.55,-0.506579809724406,0.020197220429286,0.838830938626205,0.0828931488628235,0.000278785824775696,-0.0232854172652939,-0.980126125380499,0.0849162657974415,-0.175492348643268,0.667419131984189,0.125826381841946,-0.152889156284732,-0.959974678176683,-0.292906911476487,-0.0455357431564051,-0.568229711604692,0.251441237283829,-0.444916927951718,-1.09913710884396,0.0924396545450944,-0.0411485604045459,-0.368886387107917,0.00205221557741585,-0.0545957078137887
37.555,-0.516089759131546,0.0149827190935328,0.851393326711833,0.0792248767292417,-0.000228736488489783,-0.0071701337424929,-0.978297118450636,0.118715864523345,-0.168746707812426,0.610862317432442,0.147714646101064,-0.161380499668274,-0.966327333065728,-0.275003470842004,-0.0310519270573123,-0.620092394196412,0.275455633126806,-0.458463773632946,-1.12345126284839,0.0971054542166089,-0.0491624804960597,-0.357776354447514,0.00277990419205861,-0.083091635204215
37.56,-0.520808120306664,0.0297952389091842,0.85608893373185,0.0778350733194496,-0.000942900776863098,0.00576197727715668,-0.976065812757863,0.139912370694682,-0.167293017839064,0.555540484668293,0.171365927150505,-0.166728016762627,-0.967232677604447,-0.253353187309886,-0.00632210456692021,-0.620431671892586,0.295085483843156,-0.4463318952243,-1.1357684905902,0.0969062828103057,-0.0567539287900602,-0.328959591681215,0.0273504783429844,-0.116364632853256
37.565,-0.499572560650616,0.0544884079327671,0.850689709833207,0.0676365918512053,-0.00391810662133691,0.0180922845986922,-0.969232700590766,0.159627754524103,-0.154955599216093,0.49089978954763,0.187316328287125,-0.18250796066648,-0.971914472364894,-0.216390513490943,0.0394111406286288,-0.585597548011677,0.317935554793629,-0.400675841091879,-1.13509772218308,0.0981194577568376,-0.054972051899633,-0.293866576779866,0.0665251847046324,-0.145321181327433
37.57,-0.496357005899452,0.0566328100733775,0.86304999588176,0.0484993965650686,-0.00777730468971456,0.0272266946374347,-0.965309854077407,0.180834481797799,-0.142266896530032,0.380744447246188,0.197899232973015,-0.205173347851189,-0.978112459042608,-0.177301198693209,0.0879429876461662,-0.537048618923057,0.328985124826431,-0.338789093423672,-1.12428330069365,0.0998427802466664,-0.0452952698548615,-0.254353125443249,0.115271228807372,-0.164383896626988
37.575,-0.481632052299316,0.0441883214439866,0.849225115217929,0.0441160496774266,-0.00118840867398763,0.0270171047591745,-0.962265465903163,0.207575241050941,-0.143728767128759,0.24648074421104,0.223576721950608,-0.223946218407077,-0.982549827274964,-0.150678645731039,0.124845589495154,-0.50208635698897,0.330093166854649,-0.278610133354809,-1.10614042539251,0.0951381752663331,-0.0325594470263878,-0.209917544770675,0.17049719732843,-0.180689185253149
37.58,-0.500561806311798,0.0403022201910369,0.852590617981619,0.0445109858741243,0.00185661590823634,0.0302314536590996,-0.958040232758788,0.223414254775593,-0.158671609802779,0.0824678682963002,0.253472539728566,-0.239406973485287,-0.982855425526007,-0.128119474434042,0.155675686652074,-0.471547820120187,0.335191501892598,-0.222501224310474,-1.08152537240782,0.0963399680968447,-0.0194675981545279,-0.175821968630857,0.218565483010267,-0.197709123206081
37.585,-0.503384003095622,0.0373993421427729,0.850511304605457,0.0540307931620166,-0.00285841822260919,0.0251656413060144,-0.955231594191555,0.215543307719302,-0.184145433180773,-0.0568387826966871,0.265955332413685,-0.251906943667951,-0.976730809942642,-0.110055186271202,0.18002615444033,-0.436822757068766,0.339980393648148,-0.175270274385798,-1.05550246882281,0.102301538410358,-0.00385804777750586,-0.147032547650153,0.24737828273747,-0.208137763974461
37.59,-0.508616686976665,0.0245736535387548,0.854512544521968,0.0576529865364504,0.008283973316135,0.0192046447605017,-0.950961916341528,0.190095970255383,-0.180075769630124,-0.113823854396218,0.25873058536353,-0.27172999871434,-0.970387293306313,-0.104043462504703,0.196395385127134,-0.409497415195754,0.339048088448571,-0.15007255788789,-1.02932951768238,0.110991062278105,0.0176256230473668,-0.120434508760716,0.256489032421554,-0.214002591924677
37.595,-0.517712755901562,0.0169915811993727,0.856935107490282,0.0633860257060572,0.0174921526612509,0.013221583893392,-0.957278767747773,0.144193457517985,-0.152302232552943,-0.181183572909784,0.279692678134891,-0.278926312923431,-0.963819949810172,-0.117636859479379,0.20108417161913,-0.412913627827896,0.337078834251782,-0.153922771274081,-0.996775876873444,0.124758282468557,0.0395874609516042,-0.0975800951803832,0.236962895000703,-0.218155986292927
37.6,-0.504797665846307,0.035202925821934,0.843827516043116,0.0819660883206341,0.0275467669612441,0.0116405579957918,-0.968972102799863,0.0876950188603799,-0.180089183859971,-0.25647342955101,0.31930043111302,-0.266668271918519,-0.960904481264524,-0.143497616457663,0.195641009040671,-0.455189779965385,0.337343777997722,-0.182859969107038,-0.960725697239246,0.141510625805362,0.0569464185589458,-0.0790301982070251,0.183447122154726,-0.211390170572751
37.605,-0.517311507184003,0.0508076461246843,0.849123887092216,0.0887253593349506,0.0294925830820044,0.0153589343329049,-0.9721527482712,0.0521148354337155,-0.195880888916857,-0.200799371669952,0.340221338831649,-0.242917587270542,-0.968367063887495,-0.166993163999289,0.189381356474515,-0.52032960756463,0.34079168136309,-0.221652688379728,-0.941136281345514,0.159083754384738,0.0683869293680856,-0.0673351323245164,0.131222556721627,-0.192243748604984
37.61,-0.515155389466082,0.0511149261312806,0.839264800798466,0.085203118738117,0.0205994903940063,0.0111348255235811,-0.967605066202242,0.032243632357564,-0.187663573595718,-0.0638772545181289,0.344801966876777,-0.232904385042277,-0.979821058195862,-0.183408652836351,0.184957019871115,-0.574243587723944,0.347670846158099,-0.250896474301793,-0.924471498436451,0.175469277032082,0.0798401573344125,-0.0509974594025255,0.0890361056468459,-0.167198718400609
37.615,-0.519632276197955,0.055891700035495,0.841962109826285,0.0734989416459907,0.0148831943961963,0.00896466975197271,-0.963870894221924,0.0286283243888833,-0.184472958471181,0.069289454095232,0.355107673243452,-0.225439246313601,-0.983800268077411,-0.191537564524601,0.18369499087044,-0.598174457957075,0.360924356631377,-0.257482362201855,-0.906733732184869,0.188901659647612,0.0901676429216813,-0.0402657570533928,0.0614879601325982,-0.135785941904067
37.62,-0.517813706947144,0.0613122017040342,0.840308182434997,0.0702597349882126,0.00674407788142877,0.0169805002056733,-0.960200191529721,0.043549527987493,-0.185500857486942,0.221492894099997,0.376984753298296,-0.218031036250249,-0.977790175206027,-0.193712477205839,0.187558601423891,-0.594248050007252,0.378397798982235,-0.237199734445583,-0.900593911295262,0.201462963621938,0.101277595754059,-0.0338776655158773,0.0443545812463711,-0.101108820203746
37.625,-0.518144868806867,0.0533107210466377,0.83638831486633,0.0691940783712646,0.00887631438812486,0.0271060831913379,-0.955441242579878,0.0607186901050618,-0.183414485155654,0.330265372627115,0.405606098284971,-0.210181950758665,-0.963751767179957,-0.187874771936155,0.191074316496449,-0.569189340325456,0.396410904161824,-0.1978738410759,-0.904034393462986,0.214978204423187,0.113741960858774,-0.0237655851372646,0.0329368547839786,-0.0575279903894518
37.63,-0.536982314763798,0.0282688334957009,0.844514903952527,0.0668145951632792,0.0012398822029005,0.0323688496901284,-0.944583103447096,0.0990258597489183,-0.171157314517352,0.417832612056917,0.417569377148679,-0.21714586271203,-0.957404646442042,-0.166007814502296,0.194686430399973,-0.517970160816806,0.414118628424604,-0.151912874535692,-0.909477742682773,0.232404153855742,0.118293187551906,-0.0258259439547035,0.0368074694868741,-0.000475125425120335
37.635,-0.546420498556337,0.00825090955946137,0.842752568681244,0.0760989872100719,0.00756265039600975,0.0394559120901329,-0.934165413389977,0.135814153151583,-0.141449440990077,0.509092405458853,0.43355766610724,-0.228969533489821,-0.968091996720665,-0.139785039094633,0.198444991366849,-0.455072397716391,0.422452288730527,-0.122802540844285,-0.917902913241236,0.236312637217059,0.120581699094259,-0.0371512759089688,0.0453014686822127,0.0489756391385016
37.64,-0.551239894152081,-0.0150537670362085,0.836651459721519,0.0967843738677803,0.0233591795376042,0.0477958357396068,-0.925397616422152,0.145994995677699,-0.113316593676768,0.513588190617728,0.492068569483034,-0.22443023670752,-0.982096085068692,-0.10890963068505,0.196895941881898,-0.372114042110767,0.439396018475638,-0.0864555005223774,-0.917745937137948,0.248474760163907,0.125798778992834,-0.0546644633470846,0.0635869114641583,0.10747217828186
37.645,-0.552419753630181,-0.0173741254861375,0.825257462810258,0.113214663595113,0.0397779656089894,0.0606391188678953,-0.917448301192918,0.153423051283358,-0.121759248561919,0.509066752063796,0.55084941615784,-0.2261532729877,-0.995483506719202,-0.0781371592609001,0.191970092679155,-0.275639435607674,0.462514200950291,-0.0452298834035142,-0.918351433245441,0.250406621795634,0.125661585505609,-0.0685786499106366,0.0905909187036607,0.174130162503959
37.65,-0.553830185546986,0.0163079100064822,0.825544562133999,0.118876728958601,0.0425526407625704,0.0815343199170279,-0.920024626252787,0.167689838001755,-0.114712210116446,0.471396703906199,0.634707402214797,-0.228067404880884,-1.00473988775643,-0.0452760269231249,0.186432043611547,-0.163246411321867,0.487309135056495,0.00298332390010656,-0.907007162351287,0.248293983907589,0.120758895344575,-0.0918791318775309,0.111627257439642,0.245279830526586
37.655,-0.534532124679163,0.0521140316736037,0.835979378097177,0.106908761579644,0.0477818884128357,0.10092395852881,-0.918876961813912,0.16464373028444,-0.101297051755104,0.433828591504468,0.693378018924798,-0.246216042461483,-1.01771737313089,-0.0174490734630616,0.180741829064155,-0.0694709045775603,0.510595491968325,0.0627349848482154,-0.900500392497532,0.244134695813031,0.113810309751909,-0.115603667476331,0.124978368736238,0.298292271971369
37.66,-0.523827307822263,0.0575604782455003,0.849235694478307,0.0914949716640327,0.05227854502719,0.108804694214608,-0.920350799274463,0.156182224977104,-0.0617420669762239,0.367221096128894,0.766222583919511,-0.270407278209833,-1.03823093338559,0.0164000489015438,0.17257469920235,0.000951407264566691,0.523183479654458,0.129195332215085,-0.900155451525789,0.235778332182346,0.110650380804017,-0.160233387540698,0.13323177271273,0.338062832745698
37.665,-0.518509793816952,0.0430010450636292,0.843477176795234,0.0835871688278017,0.0569846515046934,0.114795854751425,-0.931726864272002,0.14956879963763,-0.0547896729866162,0.263706591216677,0.849668281827328,-0.28939217583021,-1.06622367876979,0.0546962184715511,0.165735250281505,0.0689223355911509,0.534173741277358,0.202055207846068,-0.902718884993205,0.226649728023769,0.107481353757303,-0.203883329682159,0.13404888619931,0.368400964745001
37.67,-0.516206071972409,0.0405872495681262,0.832178667332448,0.0843011347535243,0.0654537677580901,0.121085023726365,-0.942545061289177,0.152387114404354,-0.0485642961095373,0.177518275738271,0.946826564062422,-0.311297467668902,-1.09664024080162,0.101037678937441,0.162504643118703,0.13979143572072,0.550198353690347,0.292661597149822,-0.908253173452561,0.217690999148915,0.107261805804842,-0.231130207057446,0.12724474545062,0.381712053120887
37.675,-0.507155094877533,0.0707587416310173,0.831591086996034,0.0931918813456311,0.0745028468595837,0.140001045557162,-0.948435783825351,0.143451136764745,-0.0170628246533824,0.0945412214392956,1.04264482285254,-0.333048573039454,-1.1298441204736,0.163509728814943,0.159283761426177,0.206817446253662,0.558071491275656,0.414508247929783,-0.916968706809433,0.213508583436274,0.106332444034926,-0.250203728542422,0.115218246182776,0.381549680323654
37.68,-0.474271527228326,0.0953723072302888,0.847247115931928,0.0908304409680961,0.0838625059752234,0.160935309530541,-0.948163946672329,0.120515524102087,0.014305240426062,0.0301686069212397,1.12433292845229,-0.354715532245652,-1.15672903085492,0.231129989223414,0.15524393367399,0.263451713199149,0.557442009449005,0.555951381347228,-0.936312075985038,0.210947737590152,0.0953936326086359,-0.263395141070015,0.0950374206045416,0.361518430726902
37.685,-0.449131268344422,0.0922971755428958,0.871278839325768,0.0794828407310244,0.0887912443689377,0.161648511886597,-0.943882247175879,0.0945659091694173,0.0303578148708485,0.0162461927241116,1.2122410461007,-0.376294027133795,-1.1704773575247,0.286417313625131,0.154654358452268,0.308793106289255,0.551565430739423,0.694361909872757,-0.95793561874138,0.21115991297189,0.0790997982323983,-0.269590685543517,0.0710616856136831,0.32920764163041
37.69,-0.46292499606305,0.0735838569574851,0.852242362468486,0.0763499469114461,0.102864614238961,0.163674527590415,-0.946431076272031,0.0904925088714626,0.0310127151683234,0.0576323539638178,1.30224338022064,-0.388227681317696,-1.17522240894168,0.336535562817819,0.14893247620952,0.343730774497207,0.531271767315279,0.830420177322586,-0.971119095198351,0.213610515745824,0.06235485004881,-0.275530846287745,0.0431938707889028,0.295649492768077
37.695,-0.492031468456466,0.0806391892166698,0.803639305237429,0.0836983695626259,0.114019523765257,0.160673112645965,-0.944358558110946,0.11337719143256,0.0736097495406502,0.194577528858197,1.41563884106765,-0.383018333769279,-1.17233075856526,0.388075240368741,0.137060451419855,0.363387486899647,0.50027548231511,0.967940931376454,-0.971403211139276,0.213958624678674,0.0457593073051671,-0.283482687032485,0.0191047845857928,0.26128124664441
37.7,-0.418595071696023,0.164303842561441,0.839069781941463,0.0895992756122085,0.114142731791352,0.142762879661988,-0.943283004019532,0.0869314057594426,0.134325400558114,0.28370225704714,1.52556599920699,-0.366461311025643,-1.15776107369922,0.436833660588198,0.124604488966531,0.361994481584347,0.461869082215791,1.11332971272711,-0.954101165813584,0.208557917907099,0.0334410267450632,-0.286148187803958,0.00840854548339878,0.234728689793234
37.705,-0.299869373811411,0.183561962140956,0.939257327512887,0.0896826340669275,0.128940714194807,0.121402287078738,-0.960015910803593,0.0631819230041257,0.165168893504629,0.334242633701229,1.59830316974263,-0.358651975483821,-1.13442569301066,0.475499621209134,0.114154759372526,0.340729055125759,0.419475477581384,1.25972168142333,-0.928792436142279,0.188359782117492,0.0200835909006192,-0.277746997466966,0.00202981997551893,0.205627085861514
37.71,-0.31363938266243,0.117169853184381,0.944189347750876,0.0810605030428555,0.146003705571223,0.0851686142491106,-0.990770711533433,0.147408531455995,0.145675236497429,0.397458835299488,1.6994741201556,-0.347788435246145,-1.11924729745817,0.499225350134828,0.109106088815643,0.321318291536249,0.389910214057841,1.37302953089146,-0.909608020184351,0.160658398085904,0.00736539502605884,-0.252715911704017,0.0204096931186275,0.178978896719016
37.715,-0.430575889990411,0.116932384498359,0.891891632190867,0.0932611847378821,0.175044743176346,0.0352443467110127,-1.00919878070624,0.270807442215001,0.0444820750082852,0.39342737635479,1.80550357642729,-0.330390408578903,-1.10676732400074,0.516443509464865,0.109467088189031,0.286838783759435,0.360451877964634,1.48486084180704,-0.901798926663814,0.133457402043613,-0.00763940121430502,-0.215225545147273,0.054389313072698,0.154073577522414
37.72,-0.496653900858792,0.143623923574449,0.869170671161889,0.079121959408268,0.221971484721231,-0.0272135970671055,-0.987534420200548,0.252062187744954,-0.0541917656893757,0.398246906510692,1.89195381825584,-0.314436722554093,-1.09509483628516,0.527083931916335,0.122700555208706,0.248848936154573,0.328436104465481,1.59717656179862,-0.894838660380297,0.112581720472716,-0.0191145032183401,-0.179533494802755,0.0903181930010229,0.129829459875995
37.725,-0.468906779248003,0.0439587829574739,0.916815071549745,0.0524269479403856,0.300125204375801,-0.0848549602224793,-0.963968090397525,0.1367603118586,-0.0750891761184215,0.489204761840005,1.95683241226132,-0.319428817447629,-1.09054712433171,0.52821908011995,0.1430084200898,0.215659556036987,0.300858726404543,1.67986787812357,-0.888378670055961,0.0818244659710812,-0.0287520551931425,-0.143752883693532,0.136570813917522,0.103571383180531
37.73,-0.426815464519486,0.0127477062585003,0.930075207441548,0.0552162981798395,0.397480331148981,-0.147849315137049,-1.00739728192358,0.023601836745416,-0.108663065656048,0.59316682554088,2.02510838536829,-0.344489670472847,-1.09031440917966,0.524818830366038,0.161529540237991,0.160046448899886,0.274413222820377,1.76468654969436,-0.882509165342307,0.0488540597672625,-0.0429757804302589,-0.106222469688258,0.19299381985966,0.0681480673787907
37.735,-0.418392070759826,0.169698826091093,0.914827715749504,0.10670311366555,0.536833340410854,-0.173376969801503,-1.12446185508638,-0.0323986366414311,-0.173565443893225,0.718736722727095,2.10333202008505,-0.352433729356532,-1.09334778391662,0.516338308443642,0.174251319011066,0.0638894906490284,0.246138460028936,1.86408411593791,-0.876235136552181,0.0275612468774449,-0.0495826917299298,-0.0808870513973342,0.245986397347786,0.0336247573734443
37.74,-0.450704011737768,0.0836432431934398,1.00529183696909,0.101806632090104,0.717798358327469,-0.217687050001372,-1.24887127005532,-0.00882104754315584,-0.206439717973521,0.876828203917594,2.15672178336296,-0.317582082862821,-1.10693290250348,0.498330579376346,0.171853112284529,-0.0516072931603057,0.218695186117678,1.95816796200183,-0.869884334249068,0.00697880361870744,-0.0515145365705576,-0.0450469097191025,0.288992100880298,0.0029422582178686
37.745,-0.400088472669844,-0.0030644200468488,0.987266991016826,0.11954073319142,0.913141678496149,-0.345008223586675,-1.37804798131862,-0.0312835669766306,-0.243874428761166,0.957455818451412,2.19281530047675,-0.257633772725534,-1.13082711262401,0.476632443397973,0.160786641526567,-0.160309583191722,0.211392210771483,2.01735941066821,-0.863777987757619,-0.00921963093790909,-0.0501275775294386,0.00939455636114148,0.316457572132985,-0.0269641511243976
37.75,-0.411594414934432,0.0530058109755875,1.03009702335821,0.227697171884029,1.22127984731281,-0.43584551073384,-1.53245964957573,-0.0984466574158293,-0.297598162258728,1.00854824276759,2.23337088526905,-0.179689310691913,-1.18402080986809,0.466472900994047,0.143398722475079,-0.289998641234641,0.222797685817765,2.07677325463817,-0.857041121481824,-0.0200598777668483,-0.0488824380967525,0.0727573597636675,0.32761605127882,-0.05531717041888
37.755,-0.483786771583869,0.022515943705883,1.04268561994394,0.337468618003628,1.59728587038871,-0.578192535665019,-1.69155182284418,-0.145396425893478,-0.314215897102185,1.17870298584072,2.25574904999955,-0.0897704044193111,-1.27609151836078,0.459877527446132,0.109618268875971,-0.437030076423662,0.243549232592276,2.16479237762933,-0.848999258981724,-0.0375537178606424,-0.0388661759415706,0.155168703473448,0.31540987176444,-0.0797785807248721
37.76,-0.519682337709365,0.0073214141191489,1.00136888151221,0.447247333556724,1.94552046970551,-0.666621578460047,-1.82326126148803,-0.184889851438775,-0.260545831683382,1.4754331431707,2.27536508851573,-0.031672850645898,-1.37755790460805,0.439748504030818,0.0657463554048095,-0.551408034529328,0.283162753525404,2.27394598566059,-0.842201219203616,-0.0585430982448763,-0.0202245091097856,0.24416663648362,0.278144668778709,-0.103773220241
37.765,-0.536089131745354,0.106655175576686,1.02472944979875,0.540240543325432,2.35125407032182,-0.732949944699655,-1.93440522400266,-0.225315164679954,-0.175881875968585,1.71671085191593,2.35449025290177,0.0126328874467422,-1.48189430740096,0.401048586772054,0.0137379889966259,-0.626772764030434,0.358926889717874,2.43720668394663,-0.842547892116167,-0.0742091914120109,-0.006581502285055,0.310743048222053,0.241254460307974,-0.122912788642934
37.77,-0.499331254212665,0.175944755719283,1.0846661576199,0.455354398514621,2.79421872035679,-0.792364663802642,-2.01238955618424,-0.211591155922556,-0.108386510318139,1.91718949137254,2.4739729085623,0.0495182063241661,-1.56860097778755,0.35322045654663,-0.0423140415407398,-0.635584272709814,0.464242695411454,2.65886018297004,-0.857436043583935,-0.085173097504821,0.00287313314864291,0.367984879291742,0.199699101724796,-0.144245103807004
37.775,-0.456195819766792,0.122153949757414,1.10797162059143,0.328893940344053,3.34348270500104,-0.855974564045826,-2.0563354263811,-0.158186220798777,-0.0672089138236742,2.15906957633427,2.59034035955161,0.0528935084119504,-1.63791750719803,0.284858532215993,-0.102788953329762,-0.58072844082973,0.591355553318926,2.94164455091271,-0.88569942672056,-0.0934669513015483,0.0181083868218388,0.42811104110387,0.157567977388856,-0.167885460571223
37.78,-0.447491581355866,0.0961903339129484,1.15331794059069,0.354430198391422,3.79684427748656,-0.82107381402286,-2.05748558333189,-0.0312481691407572,0.0372768406533221,2.36990931626275,2.68710540631324,-0.00709575731623389,-1.70312644685433,0.206783034824669,-0.153647921774493,-0.462380503596864,0.717600569001705,3.20825990278772,-0.927510217257306,-0.102049408582263,0.0315760164047259,0.476219833406051,0.13415856631047,-0.187785186192947
37.785,-0.419218482788616,0.142273378688908,1.16811195417856,0.27766527120909,4.16826982950582,-0.798722931343817,-2.01607902316529,0.144273915976286,0.0787281068936896,2.36479832113407,2.8333910520292,-0.11901958645533,-1.75888734795714,0.173427917259458,-0.167722539575444,-0.288616330728855,0.799063017118964,3.35562891215643,-0.97095086135065,-0.107156856494948,0.0402091505749858,0.505338074395574,0.133827359018342,-0.208386649315476
37.79,-0.423623304845416,0.225325319937165,1.17213418359193,0.0783789194521616,4.56270951195481,-0.886474567328781,-1.93919213918095,0.262295610209541,0.0395852307382141,2.21471833233202,2.92456268270733,-0.174482568702446,-1.8310309176571,0.187905060080247,-0.152849463891998,-0.0170874063433423,0.849802449736321,3.47170645923018,-1.01052368149729,-0.10147031058329,0.0554180733422525,0.512182176113129,0.181387446978112,-0.220262763644397
37.795,-0.450198433865798,0.389230927792966,1.14941662217496,-0.0799349297246198,4.99713609823614,-0.957903128188184,-1.86351766097161,0.332131937755069,-0.00058924964860179,2.03825236396578,2.96409445985511,-0.251648417772723,-1.9038582422755,0.245989334209786,-0.141513809979757,0.24211150307472,0.902551166703551,3.63978327496199,-1.05844378476276,-0.102364521947963,0.0816151718807216,0.502468923054053,0.252642931656175,-0.223782628774643
37.8,-0.530566572428445,0.516502734009196,1.13338879505599,-0.281471386556383,5.36036979337041,-1.05912944103701,-1.81258930298946,0.421821717351925,-0.0717976665203982,1.79277084073625,2.94797246153105,-0.39796296558472,-1.92362750212682,0.310711079082175,-0.131606836462725,0.42050425363957,0.931861129736531,3.86881343655646,-1.10423685148081,-0.102584587118826,0.115989069366671,0.492560012726839,0.344426991650451,-0.234156877027063
37.805,-0.596968330631194,0.569015167268925,1.15798341953812,-0.552234006965088,5.65994908035783,-1.21579224484447,-1.70291203922769,0.514111367572023,-0.149885901801035,1.57473451038299,2.86652256381278,-0.507223538796971,-1.88694783183136,0.331711528438309,-0.0973489577714482,0.550884410411003,0.849835165606253,4.07733767107672,-1.13832923590213,-0.0968443155140402,0.142975048771753,0.488199909673266,0.414436167207238,-0.249113991750656
37.81,-0.627075349570965,0.57654592378425,1.11893759078045,-0.820157377399507,5.89421752846615,-1.42454754773748,-1.54126361904465,0.508155658829352,-0.244606594750972,1.43950822231404,2.7879247114969,-0.550129072483688,-1.81716919771483,0.281373278042972,-0.0617124207715148,0.66739103670049,0.646470417482024,4.21894800715001,-1.17216087125743,-0.0914737865323059,0.174249398894388,0.494162239345179,0.452518146372374,-0.255006318806983
37.815,-0.643314365046552,0.521068276204871,1.09158946035538,-0.957992748039731,6.082609654126,-1.68888884389233,-1.42036496806791,0.481846746386377,-0.324758615140977,1.3337146041699,2.74236589189715,-0.532877611998954,-1.72200226334196,0.15977654341908,-0.0608484841546905,0.793507231443825,0.405079030995003,4.24806019225988,-1.20097454840578,-0.0792127855052735,0.209445830003484,0.512421387913872,0.480448842057746,-0.265376851013884
37.82,-0.745969023454202,0.551084498294335,1.26911543999525,-0.878614330685031,6.08732026618677,-1.8958168906683,-1.282208845098,0.482690623303404,-0.41436165852428,1.20527265381626,2.74068200777582,-0.471111212926389,-1.62140085094303,0.008980767683478,-0.0983150006958199,0.862792213485428,0.185909850465462,4.13332179953549,-1.22543173484625,-0.0578888291286467,0.243681990602456,0.53685834687525,0.4868147881374,-0.275454619275787
37.825,-0.990367774060756,0.601439569508122,1.60913068306817,-0.697515211929067,5.89396353220352,-2.04622907499591,-1.13344693755777,0.499563508255643,-0.547167845856115,0.954597531470617,2.70910131236729,-0.391917331368045,-1.54041070054987,-0.165419278219436,-0.150768180952775,0.821163961107348,-0.0292784204508279,3.8477325676077,-1.24968059068146,-0.027066028791207,0.273458547590148,0.57592188279656,0.467815699651053,-0.274685707964845
37.83,-1.18624020695363,0.29143302273429,2.09106926922867,-0.332628245916653,5.53872123814135,-2.26745264230809,-1.02177367692709,0.495534394541995,-0.670345977900034,0.529310652382911,2.63713201419876,-0.322379312627502,-1.46918212303855,-0.301900711726467,-0.204122652477816,0.719210992688429,-0.206645224919537,3.52171223762035,-1.27027544905885,-0.00306236712776584,0.287496427446602,0.611986079332363,0.430685043305347,-0.266628075319796
37.835,-1.32979941997491,-0.0235534110436685,2.60226541690076,0.210062484054533,4.586350511056,-2.50706097507375,-0.930736308225385,0.490923718284693,-0.735665775293549,0.0346410621577032,2.50609204960626,-0.266818898220995,-1.38968306511729,-0.388956857172901,-0.251846418197437,0.606119642858424,-0.343012536484956,3.24606817744977,-1.28808958711568,0.0165848356947107,0.295119175476492,0.63731546740067,0.381538729637489,-0.251418973994848
37.84,-1.37207296327391,0.469575604878358,2.61645790751473,0.564334813181449,3.1154120875847,-2.38084425567484,-0.873183260362054,0.494243653818758,-0.735065353197169,-0.545385417266569,2.28027740425101,-0.216190675103033,-1.3032921126327,-0.448036154148118,-0.300086842495872,0.481088986915027,-0.44247756220839,3.0508766287486,-1.30365289651453,0.0422182038677473,0.302289228645669,0.6567950026117,0.325060250753225,-0.22474174001618
37.845,-1.16523806069638,1.36034771241812,2.22066212151483,0.401200306057075,1.9947861732224,-1.69041949965552,-0.870984276641798,0.450967441649335,-0.624252743658044,-1.0898653732545,2.03067299430637,-0.143129612299682,-1.21505122767039,-0.480208171087252,-0.350562302616851,0.307811410989742,-0.494214373001674,2.95474390588118,-1.31709757580835,0.0693433663938027,0.306808698860958,0.666192644469343,0.256384288726225,-0.177954240152029
37.85,-0.707391546666437,1.71959131360051,1.71548855304707,-0.0989935362246944,1.3178312964226,-0.975868828362541,-0.922811654199736,0.354911886936655,-0.418234285086746,-1.41013712980649,1.75946355590924,-0.0616459013745641,-1.1402011394365,-0.489292710094416,-0.376999612169457,0.105023677516874,-0.504077630992758,2.92732723509608,-1.32318340496726,0.0927973544085991,0.308596956424905,0.660185109588436,0.182613731046258,-0.119271139069277
37.855,-0.101378372687328,1.29835486471127,1.40898455543617,-0.550419768958542,1.03362898587791,-0.703676476693413,-1.01047589693544,0.222759066264552,-0.206408772868889,-1.58456940398862,1.46866605252769,0.0385298175716686,-1.07796450115209,-0.468832221504477,-0.371443360493448,-0.0803246221374692,-0.493934476064779,2.90382848897271,-1.32225493424929,0.105019657444886,0.308141155576162,0.654596879531248,0.105483777207393,-0.0646117160057152
37.86,0.289839100838808,0.67652598444848,1.18155206965448,-0.828565169501186,0.893993798325244,-0.731602003903523,-1.05829694109713,0.167841949584133,-0.0158440257151529,-1.59295249998153,1.23034991607144,0.167244550048998,-1.03221889870963,-0.409289025005421,-0.342293891174812,-0.168795775767113,-0.482032926680671,2.81548963165946,-1.32544786554559,0.109929840924455,0.299613529776844,0.642121776332144,0.0400038686639252,-0.0131411403691811
37.865,0.399727132127114,0.392960065757337,1.04606043165534,-0.564698049923024,0.891652946362064,-0.667343866300468,-1.03055804780537,0.147208459776319,0.0417317067706439,-1.62810935241315,1.03931916728327,0.321027203473365,-0.995382077386228,-0.313294308532707,-0.290979687151134,-0.161619528814426,-0.451190149080669,2.6523710596676,-1.33470449676154,0.115223334455192,0.286385911791252,0.613070936561606,-0.0101432897135174,0.0277066507809817
37.87,0.268367120739636,0.401609378987091,1.1222397171499,-0.13352502085589,0.859720041025756,-0.435900903334859,-0.950580537809297,0.0780369856971122,-0.00499464722052804,-1.78214391446484,0.840414337539547,0.488001334910542,-0.970505971511376,-0.220051832250732,-0.22707477485027,-0.132432599209506,-0.384968497764741,2.46956552746231,-1.34186481437867,0.11889067507724,0.269665422896293,0.577148567069002,-0.0195993565482323,0.0608969981526243
37.875,0.125110352456904,0.51557138673718,1.25079094627121,0.0898614865326578,0.666679555617175,-0.211246081690153,-0.843170755910819,-0.00422402735465501,-0.0683050048126333,-1.8416822098705,0.584396984155189,0.599241750217919,-0.972044399152291,-0.165427142042556,-0.174066759628552,-0.0894135312007495,-0.269676886880412,2.33892852631862,-1.34376339496899,0.11855129045202,0.250572245366458,0.544518864136943,0.0056601628916676,0.0776430308913765
37.88,0.0910332772052795,0.602873390510786,1.31762780027231,0.197175203373237,0.373911773349143,0.00911015360732931,-0.747947805679656,-0.0705808398930261,-0.0837554804441738,-1.71160495662196,0.336814248348147,0.62711243351429,-0.979708612841142,-0.110237832624894,-0.105748203619742,-0.0989575329794972,-0.2063045756359,2.24569122415363,-1.32831603265604,0.122144287906386,0.245558164264438,0.506253235938075,0.0532083293130242,0.0827750056622369
37.885,0.145252909513749,0.553724319302707,1.33355960365157,0.15047622438161,-0.00270772232085528,0.148190300794481,-0.682725972476684,-0.128491542623756,-0.036303203956401,-1.46194295999865,0.100231990659357,0.612151972168509,-0.979288390726262,-0.0506308620054799,-0.035749434512604,-0.078543366134722,-0.150180610218074,2.19168331195209,-1.29778232385338,0.111255610785233,0.25102787969529,0.466666013342119,0.104656466909063,0.0864044725576438
37.89,0.266391380818482,0.366826960314505,1.2944338978185,0.114790350973854,-0.311295551522794,0.214082235210721,-0.656231369690839,-0.167829153429082,0.0234156304561942,-1.16145961982671,-0.18685242037571,0.6340888669149,-0.98373255072624,0.00408518081681112,0.0236673124570393,0.0511689870978982,-0.0777607799337043,2.12800234775662,-1.25637289463926,0.0991050015735971,0.258368082078392,0.44455181483131,0.137418613079252,0.0764515121747809
37.895,0.370817658179589,0.148656896391202,1.2546575773078,0.176159437152994,-0.51196315762044,0.244866564570627,-0.664088257275793,-0.183567210268778,0.0666264948298296,-0.883400567270743,-0.47356295912329,0.701602548941435,-0.988797255021425,0.0580361598889903,0.0720967240902965,0.226458120281319,-0.0337023419274192,2.03907888547146,-1.20641356662463,0.0907290862395735,0.270862252375906,0.448477308914997,0.133164963906378,0.0579201212129446
37.9,0.389234394270286,-0.00802744751753293,1.26368771122418,0.321021224059589,-0.72139051244676,0.246075786450132,-0.685571630946462,-0.178863205359603,0.0775158669781908,-0.693561995370072,-0.72384577726249,0.786899710447822,-0.986306880526087,0.1079111715385,0.101691497565196,0.383834442942104,-0.0203151473244868,1.9277020945334,-1.14260699713514,0.0853515964757502,0.277212854021273,0.462660746431182,0.099335901227464,0.0365239731173927
37.905,0.340928044395714,-0.11415419078289,1.30352172187116,0.495840900818096,-0.963627343086153,0.213870068100363,-0.694390839134445,-0.173979710153284,0.0701426643311909,-0.585782558644144,-0.961611619329698,0.852225488062328,-0.977899993949991,0.149830423816258,0.110869246379801,0.477817680123472,-0.0209513182685258,1.8389302721104,-1.08182596045523,0.0762917641096895,0.269507859482251,0.489168764583178,0.0391172589224423,0.016809360965444
37.91,0.275933262214985,-0.174481419635951,1.34146055256993,0.622381634987504,-1.18682423711395,0.172808830540922,-0.689118705553368,-0.188764059319926,0.0559763073827302,-0.528926188562892,-1.19577286769917,0.881775419025523,-0.960178303528374,0.177448758603239,0.104948380924205,0.509353705656839,-0.0240845791995525,1.79374308423359,-1.03051781192726,0.0704722855630047,0.252715688762428,0.522202229331007,-0.0506302590627955,-0.00350092978734271
37.915,0.224052589208123,-0.217690281409076,1.35295911980299,0.712497195716173,-1.46330996298277,0.108742489774963,-0.681489747795587,-0.226289664505274,0.0389807632056049,-0.449235838720039,-1.45077504768771,0.870956467605246,-0.932028519254,0.184366457692259,0.0859178326416553,0.487404881071852,-0.0276248923638017,1.7611454794938,-0.981461065692225,0.0726367488106618,0.231515761012867,0.558026784954975,-0.141884552249031,-0.0173838130440729
37.92,0.191370953937573,-0.258215528924864,1.3420306015059,0.775483932762487,-1.79397496399534,0.0139263112959369,-0.677402280781636,-0.27182446687586,0.0363923388896945,-0.29632741908112,-1.70213946083085,0.839127916216497,-0.89709460368085,0.173805028918086,0.0581787991239442,0.415586670481665,-0.0319467901829988,1.73258540926764,-0.940285905811895,0.0711863140001225,0.210528008870553,0.59723232365417,-0.21732585980033,-0.0247502144594579
37.925,0.191569623546878,-0.274085125854454,1.32549643000843,0.793024402269194,-2.07096075507974,-0.0896605821152415,-0.687300081473917,-0.299151520628126,0.0453701810702515,-0.0819131986084327,-1.92979217027611,0.822637969801822,-0.851674164560547,0.147995727059968,0.0258767105724612,0.317110619379912,-0.0273275397370522,1.69966469264745,-0.89970268708861,0.0676926386495322,0.187957347021953,0.630216763468886,-0.280052507140041,-0.0265863138038745
37.93,0.197216737473855,-0.287433135606081,1.30075923727267,0.804567648476819,-2.33306606051126,-0.207707402336898,-0.707576583263935,-0.316327889065455,0.0528191905032994,0.162191901786284,-2.15682550536411,0.822543078354208,-0.798044599618799,0.115061597139608,-0.00973496835890193,0.211228278418513,-0.0164007757001939,1.65153327865313,-0.857343913036963,0.0626888127441595,0.15952163069643,0.650593118588226,-0.331446796056369,-0.0150173656884802
37.935,0.180692571497852,-0.352897052732114,1.27767098905283,0.835736890613773,-2.52502802814605,-0.297849508702043,-0.732725229862913,-0.316461686571236,0.0513908240263371,0.352274314234038,-2.35029806329505,0.815443229770028,-0.747440416378719,0.0822071932723001,-0.0402681177479643,0.139639944168205,-0.0167057910647393,1.59208205202571,-0.82414622852283,0.0531105860331972,0.13272722865827,0.645437475480594,-0.353961434402027,-0.00185287165239931
37.94,0.156461239092679,-0.338470199920704,1.26506046267427,0.882721143370992,-2.70304279544535,-0.359942955321526,-0.75530349981173,-0.302671301403249,0.0472527612513509,0.501956371163227,-2.52394079538895,0.799439106253579,-0.701204872221187,0.0510997647636804,-0.0647601517627228,0.10086284623875,-0.0298732964282858,1.53734001734349,-0.792593806159255,0.0378661135338644,0.116689602715616,0.63393104022086,-0.338372384651548,0.00957029508954169
37.945,0.121524940596984,-0.295557761316244,1.24872882127509,0.938100518325021,-2.87084040287516,-0.395992953060857,-0.777414647562434,-0.284156971126242,0.0406054781942348,0.61691819816632,-2.69600525569417,0.765323257864382,-0.667927480569319,0.0386384307863136,-0.0674593629874144,0.0851262009885763,-0.0486966493666518,1.46294562743254,-0.766376390538063,0.0229512568361612,0.105797302244673,0.602596538191045,-0.288938794717636,0.0168912056833506
37.95,0.0781254395817435,-0.243903100026485,1.23165075792738,0.975338882334731,-3.05399435677342,-0.40935360548485,-0.795245089173232,-0.272787951006601,0.0293883877955443,0.719653999259094,-2.86839138995698,0.724214214208699,-0.627599099252935,0.0294012339625079,-0.0532526443591933,0.108858638481333,-0.0637287292141864,1.341977935542,-0.736530802948968,0.0133469867073731,0.0971807962321245,0.540277165717137,-0.20445571239929,0.0140833996993476
37.955,0.0485025452126329,-0.196378033620509,1.2151616640159,0.996368603124442,-3.20492696388581,-0.400509418132385,-0.818307592502927,-0.267321955916323,0.014867147552376,0.81921340216943,-3.03281626146566,0.687984558105971,-0.603373163738196,0.0252939364844167,-0.024642268636159,0.174434957379556,-0.0637285526892636,1.23761798954153,-0.715638810183074,-0.00479703635836753,0.0944852207534057,0.458985696362536,-0.121225883214771,0.00116297837588934
37.96,0.020383017702502,-0.145834693022585,1.19610936372999,1.0065710109947,-3.32520672677061,-0.373066624921882,-0.83526769101453,-0.250711415015641,0.00736729473960936,0.916251209814149,-3.17676854305763,0.658650639818986,-0.592363454636752,0.0330150257748048,0.0138871930557594,0.30155813818081,-0.0583982808141943,1.15417866826614,-0.706071817193095,-0.00903475477074454,0.0982632114593269,0.371576340612896,-0.0417356092348112,-0.0175536689651324
37.965,-0.00668829477739708,-0.10103172101943,1.17402056050404,1.00498057864704,-3.43635355771459,-0.329539277852698,-0.858799205683274,-0.226395838842484,-0.00438209090513587,0.983080591276896,-3.3129383453647,0.633258586282164,-0.585542359132339,0.0464771845605349,0.0516917372452096,0.457283328968157,-0.0547483523106918,1.07764148058646,-0.700897011399539,-0.0104825214555549,0.100464752633288,0.280463333731446,0.0313345826458751,-0.0480734404018623
37.97,-0.0420724326226456,-0.0778469676238345,1.15534142609349,1.00182916766231,-3.51334955693833,-0.269884951652366,-0.88146757735635,-0.203331980430017,-0.0172268676459464,0.999687653666663,-3.43793109121571,0.612715651079048,-0.584932447245091,0.0671002493351412,0.0853000840176695,0.608534200443944,-0.0579234171147792,1.00455987275899,-0.698380580538903,-0.0135489817472488,0.0971825516245739,0.203529382890727,0.0939595781665808,-0.0868888718376423
37.975,-0.0825299014169729,-0.0771381060633169,1.14213794933828,1.00947945295351,-3.55903658688012,-0.193045519493851,-0.901597047115182,-0.180441012920473,-0.0407077172996895,0.931253618379577,-3.56494701838771,0.589985536901324,-0.58553012380722,0.088584888944118,0.116302485042806,0.757501569967711,-0.0711153498836707,0.917396936124022,-0.698801498555655,-0.0179758613665324,0.0911159281592897,0.150652815218394,0.130434617966764,-0.127990075526576
37.98,-0.12207523911531,-0.0780552175151712,1.13940830937499,1.02436947248089,-3.59219512077291,-0.0973884602534079,-0.91935998421873,-0.152506038203743,-0.0615144858367348,0.81670743311136,-3.68722301089512,0.557614538854793,-0.588039170278777,0.106020173699861,0.138694976501922,0.880454735586136,-0.0809857756014156,0.831418987673543,-0.704151623649306,-0.00711508644956061,0.0860796526557313,0.105237641282944,0.158727791166679,-0.18132442835506
37.985,-0.170164641061649,-0.0549648098629745,1.14927995980012,1.03115164820523,-3.62301448461044,0.0183788306281362,-0.93089465535137,-0.118709931722825,-0.0744551255311094,0.694308884252614,-3.79262327022919,0.514477792198624,-0.590849501011416,0.119356864850171,0.144567443503725,0.974697865268638,-0.0800634105278504,0.7629260769766,-0.70319571757208,0.00430942681720103,0.0859695028172332,0.0818356808962458,0.173367859971805,-0.230306335033169
37.99,-0.23293451704515,-0.0193421217328987,1.14414881177774,1.0072346661223,-3.66656923170875,0.150700003448514,-0.941691279131864,-0.0978811296908135,-0.0960619918992778,0.546836163777818,-3.87993175323081,0.475107340702839,-0.593159087965901,0.132825670912653,0.13883642563158,1.04832711016698,-0.0673319403379611,0.70668327920839,-0.703653987366721,0.0106271855412976,0.0898905386104293,0.0722416255571725,0.179327166056207,-0.267476986405582
37.995,-0.279560127620266,-0.00430365793765721,1.12703269655974,0.96408477432217,-3.69763299538383,0.259545258664092,-0.952653941901902,-0.0848578919460283,-0.11468053031239,0.372395015517996,-3.96773224069975,0.432427142329462,-0.597455964420202,0.148133899722429,0.127904528816919,1.10458259871808,-0.0457916709093763,0.658757886459518,-0.709648589070083,0.0181788612064318,0.0910231197636666,0.0746843165654255,0.186265713335106,-0.303004070646765
38,-0.305809957611019,-0.014532471023293,1.1187559579534,0.917106542520407,-3.70542405740226,0.336472177554921,-0.960334865934656,-0.0677340752397501,-0.129275719604595,0.187458620230663,-4.05879178638869,0.385018639039175,-0.601640101431408,0.164245622644051,0.111296626307456,1.15610446482208,-0.0237645785588652,0.623398901223846,-0.729535938753928,0.0292199761733414,0.091988935187598,0.10242300951929,0.18594510507469,-0.329540491091098
38.005,-0.343161309000563,-0.0389696959059984,1.10448448949352,0.869376342480972,-3.69353728836664,0.428689332965932,-0.968547930482452,-0.0544432193347892,-0.149108054403386,-0.0056536351851191,-4.13406250633822,0.348300255121543,-0.605797120317485,0.177564850607054,0.0888786467651101,1.21052121126993,9.87964333802379e-05,0.595990416350968,-0.753728285988713,0.0383140735793261,0.0957960582526041,0.143465162521801,0.181543211494343,-0.340753438272234
38.01,-0.379608067315852,-0.070457380221177,1.09365396613018,0.844406770402078,-3.66317553017093,0.516999354568652,-0.984722620251313,-0.0463463942491507,-0.170537029694097,-0.215208000283765,-4.1974869863696,0.314491515201626,-0.611523736845525,0.191928338797714,0.0616895703495234,1.24957074641373,0.0167313415030577,0.566564252061951,-0.776075296236443,0.039134194695902,0.102258304258211,0.183237339369324,0.179315632026356,-0.335346629544162
38.015,-0.414414162043947,-0.0970297377211508,1.0986926541111,0.846004762415594,-3.62802360567571,0.596466434838032,-1.00683072919314,-0.0398161205514514,-0.188985885001396,-0.405117610454346,-4.25053084207889,0.277794638378813,-0.611680090725213,0.21370335513074,0.0295667455257874,1.24356258188775,0.0204974477358634,0.510794658478916,-0.80574505863328,0.033895811748656,0.112569000484678,0.21449083606566,0.177469802467422,-0.32084287855251
38.02,-0.46404567936031,-0.105661834380812,1.10551699993081,0.84703906221089,-3.59239717328018,0.676380375127095,-1.02927725733389,-0.0382967089633347,-0.202490562751759,-0.578207307381913,-4.30057173928892,0.230228694221209,-0.60568139886235,0.236843334291122,0.00165977146302113,1.19265330269931,0.0276677156623876,0.41852139368125,-0.843202050011129,0.0276621084477166,0.119199533092979,0.240900954111764,0.188401534597495,-0.295198169441978
38.025,-0.514838847857667,-0.097377303555604,1.10018460015006,0.820157544038392,-3.56609757697785,0.743253123988467,-1.05460474506823,-0.0466504383229779,-0.216414697543187,-0.743423692320424,-4.33791172218139,0.174761640694965,-0.603037515900087,0.254624390179225,-0.019990879446567,1.12203259254621,0.0440298345381342,0.322361061128814,-0.878239629402105,0.0195125338333917,0.120250454767843,0.256689890197587,0.213268138824975,-0.269046661852411
38.03,-0.559888079099579,-0.0963047317099475,1.08963851225234,0.745904510375825,-3.51295099538585,0.797008607356666,-1.08725680838294,-0.0594737696572213,-0.233786777754065,-0.880695032557073,-4.34895396234085,0.125609344508339,-0.606028663539802,0.272206592114107,-0.0430874941645223,1.03592083970136,0.0652115434724545,0.24871764640547,-0.898081948288562,0.00556166061302385,0.120984433003053,0.263716963424566,0.245473173653731,-0.241947530602506
38.035,-0.625236078180878,-0.114780706705948,1.10006520742099,0.627712549193414,-3.42897888352966,0.843370402626642,-1.11607420218965,-0.0643612760049902,-0.239555742649964,-0.992296443750421,-4.36084236997083,0.0726789535233773,-0.613608351109462,0.294549357509055,-0.0675051380827603,0.932606992618165,0.0868449159933606,0.188882243993191,-0.904586455237133,-0.0062738606184497,0.124108301010392,0.273994203925509,0.279768199473812,-0.213250202259518
38.04,-0.701578982027967,-0.154427273700785,1.14574697980299,0.529606427139103,-3.35731403520395,0.881813203522321,-1.1407232387824,-0.0643115735992851,-0.238787718480803,-1.08357393815078,-4.36363795551805,0.0115939845222166,-0.624755606994189,0.315811768680928,-0.0921892655830946,0.833312896173974,0.0984950427327534,0.124939885570866,-0.908386541512581,-0.0129945935767374,0.129279598707532,0.279598396928493,0.304220177646031,-0.194402417548385
38.045,-0.800848089351406,-0.197993737969413,1.20048758532196,0.465254186998605,-3.33980583818855,0.92298325407597,-1.16150106676147,-0.0655582598770345,-0.270873460972576,-1.18730316553348,-4.32622749979314,-0.054838419691392,-0.636608212436047,0.333623315865001,-0.114295906265222,0.744315647825952,0.102915272827678,0.0514403312624458,-0.910430159894691,-0.0175979823127059,0.135348491997132,0.276778044190114,0.318502477239764,-0.174002987568426
38.05,-0.890179229220424,-0.243054379147587,1.21236370252444,0.421545928176508,-3.34684397520141,0.96255092041097,-1.1723379926203,-0.06991900568172,-0.328950422441225,-1.27821134450383,-4.26103234233372,-0.106623118987013,-0.649721408319582,0.355037861013315,-0.132249593552171,0.657665710404487,0.103117149118742,-0.0391740080008974,-0.912680760512653,-0.023454392388937,0.141374638245509,0.259670997223124,0.321267612939706,-0.151523413846607
38.055,-0.943052476657703,-0.273738538799336,1.17926588610875,0.379422902343875,-3.34720094161325,0.978906517031958,-1.1777532979069,-0.0768348714173819,-0.355972247014021,-1.31442166788266,-4.21513264758396,-0.164451826299191,-0.665717555482348,0.376885209815469,-0.142323142408277,0.586049513611575,0.0968698178416775,-0.11703755281225,-0.912836291180634,-0.0314233237816008,0.140464382839651,0.216951784221057,0.306076310130749,-0.136864077668252
38.06,-0.967751098825734,-0.29774263477895,1.12682989203762,0.333212028417115,-3.34505977666971,0.976555914915692,-1.18644161396785,-0.102060136942075,-0.365702297253501,-1.32896353532007,-4.14529425039657,-0.230064035125927,-0.679426344883374,0.395357474877812,-0.152988103780796,0.529823998385547,0.0878053233673374,-0.175713064450894,-0.906696224363233,-0.0350084689904749,0.138607450292167,0.176277838327502,0.287497027395967,-0.127479011884422
38.065,-0.965687280525383,-0.326557532801257,1.04796769294825,0.290378678975583,-3.30531579653424,0.955660207412113,-1.18904053568472,-0.117484018525232,-0.365153057318531,-1.31773882074112,-4.08244194902413,-0.295889226541446,-0.687607262502535,0.409471765586993,-0.165951656316999,0.48120539554334,0.0789792612011508,-0.209514046769912,-0.899120808021202,-0.033609392298226,0.143190257057246,0.133466086279668,0.249328126086985,-0.130246922123122
38.07,-0.952715828566829,-0.353768270793015,0.957928121971019,0.257241367834082,-3.23132135412965,0.922127870597939,-1.17985849951371,-0.122199855348509,-0.361575869197115,-1.26677963270596,-4.00762400057339,-0.356801841451227,-0.690760697918477,0.418014012057649,-0.181000783833879,0.437547619506102,0.075306465074624,-0.218342433057419,-0.881191671272569,-0.0249501489712845,0.14162326508853,0.0932275879399009,0.199271456208347,-0.136622242680022
38.075,-0.953648231353287,-0.371803586065056,0.888999313043159,0.246685222285392,-3.13999882561034,0.878793840335049,-1.1664835246579,-0.129160279707009,-0.363841992481589,-1.1929934233923,-3.91486750322982,-0.400416651298341,-0.695246767671883,0.424533260766947,-0.203738640582427,0.351044253568186,0.0772549411019557,-0.218702732825063,-0.864052243221144,-0.0146996654023729,0.139267181094741,0.0745881584791372,0.153444503747634,-0.137424276968051
38.08,-0.955357082248669,-0.379316429669801,0.833375966353471,0.249607524790046,-3.0401232457605,0.827737254206573,-1.1521706235374,-0.135117208405526,-0.372446369452584,-1.09613171865123,-3.81740097317578,-0.427766402885542,-0.696777544734843,0.433870208416136,-0.225999505366789,0.252974275410459,0.0860672660184701,-0.206330193085699,-0.841513105510912,0.00225482979033439,0.145741156015787,0.0458523010612075,0.101746489627568,-0.139414011352824
