Header,foot_Accel_X,foot_Accel_Y,foot_Accel_Z,foot_Gyro_X,foot_Gyro_Y,foot_Gyro_Z,shank_Accel_X,shank_Accel_Y,shank_Accel_Z,shank_Gyro_X,shank_Gyro_Y,shank_Gyro_Z,thigh_Accel_X,thigh_Accel_Y,thigh_Accel_Z,thigh_Gyro_X,thigh_Gyro_Y,thigh_Gyro_Z,trunk_Accel_X,trunk_Accel_Y,trunk_Accel_Z,trunk_Gyro_X,trunk_Gyro_Y,trunk_Gyro_Z
62.025,-0.467554792433831,0.139594364285387,0.910801629123884,-0.336378121131003,1.65252535539198,-0.0652318730337768,-1.05943124147048,0.0448487519106064,-0.265503143763561,-0.348268310605181,2.08590205275072,-0.633995569482734,-0.999891763371358,-0.220768671704598,0.01359140795494,0.277997504735595,0.366857647895813,-0.0656709127367755,-1.10631663867998,-0.0886193235623246,0.266062102986281,-0.381553667297355,-0.23866042126393,0.0996901717667059
62.03,-0.461227543711303,0.148124319928507,0.915261187444191,-0.335475247181443,1.75864461612077,-0.063456624536279,-1.053903395494,0.0324498135562702,-0.245919941533397,-0.310613581447059,2.14831882741289,-0.653051161263241,-0.993711686101816,-0.172514344556157,0.0270919413805492,0.332953554880802,0.376583763619268,-0.037625672413502,-1.11844680080709,-0.113352722488731,0.265317531191197,-0.394789787669294,-0.240334154281415,-0.00950064857970262
62.035,-0.459481547326953,0.146092898258527,0.927398523016238,-0.332982989809431,1.87626239575827,-0.0788413468679242,-1.04895901336214,0.043089989678886,-0.231887792480241,-0.282202451976675,2.22017137038139,-0.676847855763734,-1.01051340558196,-0.133294936007962,0.0398722880389114,0.270413758910545,0.355892672402968,0.00873445777139265,-1.11743953294009,-0.13147713621654,0.267376258469539,-0.372754039498239,-0.2241071072327,-0.130437890254146
62.04,-0.472299945431679,0.144342379761879,0.936060565899942,-0.334878494645419,1.9935677159705,-0.0822334811091423,-1.05313396267982,0.0664942671303645,-0.223487570735409,-0.257645666805729,2.30496113046819,-0.701308534370909,-1.04440435690833,-0.0654389451712679,0.0583060737618832,0.176208148716335,0.33135927933677,0.129939810860514,-1.10560291468534,-0.142718802530396,0.267334015662272,-0.34470266904148,-0.211789975079672,-0.247497927050345
62.045,-0.476622612524956,0.142985092274632,0.950147678342955,-0.357351238806603,2.14158823326058,-0.0743560517901326,-1.06549950349065,0.0854896345456537,-0.217069768796998,-0.261163786900097,2.38082686592502,-0.723421555967836,-1.07355740001485,0.0165771558460722,0.0763238958069249,0.127654883943942,0.319894847255028,0.23799930222746,-1.10453475722063,-0.143771231735343,0.261578105745451,-0.329779998351508,-0.212737569381069,-0.300105341685627
62.05,-0.474644979517138,0.17175289581149,0.96063111163485,-0.343788603023194,2.28692745707328,-0.0871205480764024,-1.10318916482212,0.103661960306754,-0.197419895501962,-0.284656309445692,2.48698748772636,-0.752188152920717,-1.10725915408958,0.0935870331293061,0.11238662116453,0.124388231204051,0.342653229519012,0.283010914006466,-1.10723905937124,-0.124955236320482,0.241508268549731,-0.332898687965576,-0.245960152961897,-0.264709709326671
62.055,-0.458588465810604,0.209704066030423,0.978085385558339,-0.34629524688421,2.48174259717848,-0.104151945059868,-1.17740558034802,0.127627756291846,-0.185564012716574,-0.3315944133671,2.56336491807858,-0.773439832190967,-1.15720161568591,0.165832942159414,0.159599378519611,0.136609823201241,0.379360636557967,0.322290754646652,-1.11226345958483,-0.114769288729068,0.224413443100318,-0.349158066480316,-0.282208618844684,-0.190689785355708
62.06,-0.443438753571296,0.210093771117106,1.00863271575045,-0.351286844044258,2.64213718989445,-0.137900836411042,-1.2326850023141,0.141257597036455,-0.189701214590713,-0.392473113374332,2.65134731125922,-0.787933983061727,-1.20125667557805,0.217675862237285,0.203129364817431,0.128706017376932,0.406522195901033,0.399850847543701,-1.1159459063595,-0.0966618576935749,0.197335716758518,-0.354832019678024,-0.321969110522905,-0.0999716198232694
62.065,-0.459475528620011,0.200733760214876,1.03329828866781,-0.341355169838485,2.86661569634585,-0.200837190288485,-1.2682819121261,0.14256545171579,-0.202090101631281,-0.420098741729323,2.74624533886426,-0.79938014216953,-1.24156352111846,0.298332643699372,0.258597992295297,0.0945290690941752,0.424344122964237,0.623686387226676,-1.12139189933088,-0.0912540748242464,0.171911016034197,-0.338548084570272,-0.338148128579096,-0.0533710918654279
62.07,-0.472117627114737,0.213912773801812,1.0447991905694,-0.320049008446483,3.08094354784498,-0.220652887074772,-1.31680239768397,0.160261175005192,-0.217280009208329,-0.349224691196376,2.8777905912229,-0.834648578121271,-1.27659259370842,0.383036818001013,0.306885496075488,0.0311945355925353,0.415619575126835,0.893083976803466,-1.12735790101277,-0.0861290441560809,0.130872893949173,-0.32447643273299,-0.342673462562015,-0.03991306739598
62.075,-0.463034409562539,0.201936455201119,1.05288477406354,-0.300807888075751,3.34402106853282,-0.264952878624118,-1.35998309102561,0.165994124991533,-0.206357592705308,-0.320606037830702,2.98472948425407,-0.857199606732342,-1.27170667282758,0.465943224389821,0.283845368862227,-0.0293477198638758,0.400952599001615,1.23050212534879,-1.13193690727577,-0.0795354830315412,0.102577325746306,-0.328459627253429,-0.338652221722804,-0.0449729383063642
62.08,-0.49259107583051,0.240092013182956,1.06219459159967,-0.235087052290439,3.6463349500206,-0.342001127709308,-1.41840773814528,0.164157649655055,-0.190406927551786,-0.269534739349824,3.11837590220325,-0.870147568602346,-1.26840568302906,0.614225128247734,0.182534239154476,0.0601775893578508,0.421278755557677,1.58742751228074,-1.12264629849076,-0.0734661491798267,0.066484100244253,-0.350303808479676,-0.313191474007026,-0.0299774623897106
62.085,-0.4890348880832,0.360954651255413,1.08238132904748,-0.115455338675806,4.00357660744155,-0.400556152590502,-1.48452233460418,0.139622955323719,-0.180124241880382,-0.130332289142743,3.21315424191366,-0.905539291544062,-1.30589909766998,0.793299202088817,0.0446971095993676,0.555360080343748,0.550160957774853,2.12165350375221,-1.11963785384671,-0.065861182130219,0.0398635546764124,-0.373149188926664,-0.281544461428928,-0.00107217406998605
62.09,-0.449154956907766,0.40660377281872,1.06253749797442,-0.0453478017226269,4.30555007176366,-0.479395963433026,-1.55618865898622,0.137003018734531,-0.182218167803019,0.0137684918875374,3.29631652722936,-0.9065824832752,-1.31096490271508,0.751783818063918,-0.130345597248221,0.736922031690671,0.817857401241578,2.51738210176719,-1.11602682030498,-0.0603400554880915,0.0292999170224072,-0.401194883309407,-0.244793243097416,0.0381542853823777
62.095,-0.477282360269261,0.483675194514073,1.05373721315211,0.017424451126209,4.63084895017994,-0.618035615705589,-1.62203385957288,0.110344905294202,-0.235492892284886,0.147381882068333,3.36011378848303,-0.854612201812383,-1.23068361802697,0.776551381342587,-0.126248210227593,0.792892487214442,0.730530646353065,2.87710972122416,-1.11351612258787,-0.065391673531046,0.0152154548793711,-0.415915982349083,-0.21898701832261,0.072254846050769
62.1,-0.525680645429872,0.536035968683377,1.03495760317928,0.0366471670567989,4.743015244773,-0.780347218894931,-1.65466518714732,0.082959671625081,-0.300897264740776,0.388797958078542,3.41276887257896,-0.793310963662503,-1.26491752493766,0.551595627890429,-0.162583442174376,0.709088596991354,0.973679369453504,2.93660062079628,-1.11917046942201,-0.0785519297611449,-0.00731383579671293,-0.432195280849402,-0.183633437436938,0.0840863100796548
62.105,-0.563651529677766,0.537698501118563,1.06949047230582,-0.0122680599762476,5.25088289648152,-0.970319569326591,-1.71333772317865,0.0808571487042737,-0.349928781675305,0.609313937008,3.4272162224393,-0.772063343111007,-1.38748604596478,0.482081038708548,0.0288751899339151,1.49238300142926,0.700506063183094,2.78557464830457,-1.13031658940995,-0.0951754074110077,-0.0327935593508821,-0.437074422836304,-0.142397541593371,0.0853060930967331
62.11,-0.605508671973914,0.480391076703694,1.17118670274335,0.135489161165577,5.60836530391387,-1.19053727957361,-1.81320435904981,0.0488098557941957,-0.431667003151307,0.815452248358286,3.41649615815123,-0.697254059849079,-1.33016205335094,0.274992983809759,-0.332599798257039,1.27619441126544,0.844113456845144,2.80274826220985,-1.19185279503874,-0.110840074923327,-0.0803509354134415,-0.443550731037408,-0.0949307003389546,0.0908480468221567
62.115,-0.667264826055139,0.391641519917845,1.17655247643274,0.366544074049996,5.91274969500765,-1.31546209917866,-1.90908934478629,-0.000234064729213031,-0.459809187333199,1.02154484806916,3.39452775560622,-0.667220462990424,-1.43119601627072,0.253848897351175,-0.160853267077209,0.878586325534952,1.08565366534882,2.72044955627927,-1.21414580893237,-0.0975879380747416,-0.122812397185526,-0.465299614528005,-0.0565297920138915,0.0781242074974058
62.12,-0.770625045696964,0.358088635936756,1.23751455438909,0.705517125702035,6.29323597104597,-1.4113338442746,-2.04418379063125,-0.099693498471136,-0.485013342920238,1.35229199007015,3.38011537992438,-0.678247837372854,-1.63684711966346,0.155495731284664,0.0276428565048327,0.866135334636657,1.05274975969081,2.91225145908822,-1.26616903606225,-0.0729983643965182,-0.172439014245131,-0.505755852860673,0.00514495987003137,0.0609534004497349
62.125,-0.908732391506919,0.278556667625012,1.27326388591788,1.11363998705174,6.70676279969349,-1.51400945557678,-2.15148102794793,-0.180421302774018,-0.496014800661007,1.70823828348971,3.39566052304897,-0.698654941938476,-1.6078470304713,0.0607445464864269,0.0188723289108981,0.814932263430056,0.913638554870737,3.02600690229512,-1.30481682277651,-0.020210169025565,-0.227633217652251,-0.55882834973592,0.0420390851041386,-0.00540893788086964
62.13,-1.11867262713651,0.180380102419851,1.32637277947586,1.55753385994083,6.9103067254117,-1.65595267025908,-2.20020948946094,-0.219787474415423,-0.464295682694049,2.04569545833548,3.44171357026798,-0.747928516926789,-1.62283425346699,-0.049949754828592,0.0493314320030223,0.100053227826969,0.946830516941836,2.94111648805455,-1.29961222196385,0.0126328957132907,-0.254233996782896,-0.590720374913839,0.0567282467101331,-0.0390992051431844
62.135,-1.35750849810042,0.215535867035391,1.39027377049511,2.01882622452264,7.00905806212733,-1.73166964834637,-2.14464892837488,-0.247184747163009,-0.419714094964735,2.31444827081015,3.47599983215332,-0.813532403040073,-1.67979908136455,-0.120049205387017,0.24651060319194,-0.495954731157207,0.738164568699938,2.99792562705438,-1.3035775731936,0.0438438470525058,-0.274687324838065,-0.616698718775308,0.0761656314134598,-0.105806671911032
62.14,-1.37930004223919,0.277193765027177,1.41351524429639,2.38482713893995,7.07430878619871,-1.67211975631721,-2.03400206374163,-0.263372691648427,-0.374624204546007,2.3452421213796,3.44535061721199,-0.913247742428834,-1.65165785958002,-0.190898718740523,0.22677740630491,-0.918233795743819,0.642697433246744,2.98854071629451,-1.30407577559728,0.0761198145505559,-0.279421570219952,-0.638539789815229,0.0632865982021628,-0.136265935638696
62.145,-1.19387212054492,-0.0820490809991221,1.34056101710236,2.72571878842683,7.27168435278261,-1.44832258568482,-1.93665582504676,-0.247440184822122,-0.289915273420502,2.39712816937938,3.40404680572913,-1.05139731330467,-1.81445158575829,-0.205120758459569,0.385211343600448,-1.27222730350278,0.670806010050831,2.90511792612589,-1.28966365573515,0.0774195453801552,-0.267817689542873,-0.657588169565458,0.0133959852875928,-0.0924569534198959
62.15,-0.964085208710766,-0.608564487010345,1.32826085120803,3.19323380267873,7.47673733413244,-1.47731802173687,-1.88481024502345,-0.173165285871963,-0.0938918496590278,2.6525843024753,3.29607532346904,-1.38968933307868,-1.86445751561657,-0.230171006769013,0.501478141808863,-1.18310614723228,0.417012438944619,3.10555202757318,-1.27797325588254,0.068087856017653,-0.261140317170829,-0.720348171854665,-0.090775945924096,0.000352137690534833
62.155,-0.802979135797238,-0.119145968486262,1.25472476543515,4.05770082795432,7.79752678521722,-1.5198280007656,-1.87787668774026,-0.124757471832934,-0.0222651099683066,2.85167219895011,2.98648957101302,-1.92179444974575,-1.62666252451688,-0.36343766545273,0.484105331283564,-1.05840875672127,0.115121432351096,3.39195713126912,-1.23375422759528,0.0433904166577278,-0.248405710112437,-0.798272207075766,-0.134903225488811,0.0809311401702442
62.16,-1.16783836439263,1.31801844946058,1.23958971519272,4.70699398972466,7.6893695624653,-1.7601059360797,-1.8611137318252,0.178662232588291,-0.0635325078138392,2.896014799798,2.50963335758224,-2.44876869453055,-1.40883366788876,-0.465513219264431,0.534811107422141,-0.904263067717243,-0.0516430257243921,3.40267169073172,-1.17562644634462,0.00454805278047221,-0.229725463017674,-0.897503806654198,-0.151542823841464,0.201492697722855
62.165,-1.96378961552399,3.4040615825003,1.40485047142678,3.42993935740263,6.95655030447763,-2.51810327949323,-1.75133711530095,0.606687820887593,-0.189366201057977,2.62511719481429,2.04269463741343,-2.65812658926589,-1.37374296322824,-0.484927868676725,0.615694489614576,-0.722625084430063,-0.220313308687549,3.28161936158753,-1.13875412283435,-0.0431927869359507,-0.222280841708863,-1.00393082125878,-0.115446287004374,0.249605375098395
62.17,-1.91091436366918,3.81730039164393,1.45210486584464,1.14484889219423,5.77452507780836,-3.23398495778814,-1.58468321736973,1.06363233459251,-0.455775635400657,2.70908499464743,1.98622910805269,-2.51488425530515,-1.39305855156671,-0.568239383322483,0.642153089179904,-0.67736358980227,-0.419757930844624,3.17057569131713,-1.10047809658833,-0.0720105915616722,-0.196818531961142,-1.1141572098189,-0.072823924503125,0.262231520222284
62.175,-1.37125782445958,3.19970595370818,1.70464665211477,-1.32350339521989,4.49688024174116,-3.69547310946816,-1.45836179220993,1.38379713309239,-0.490218914950421,2.77432826335104,2.38497001294389,-2.33253947041068,-1.40575118140471,-0.716511885483593,0.623804434296304,-0.63949674332662,-0.568661264180474,3.0573500090694,-1.07298948596283,-0.0931755939024405,-0.177787645827593,-1.17913702349929,-0.0439243082152389,0.346383541963897
62.18,-0.954520761372806,1.99935934085386,1.86428995568553,-3.41355890494758,3.33847580637734,-3.92920800024005,-1.35925603719758,1.67151177032819,-0.266244613315157,2.34634039973564,2.65705255423128,-2.3101021688547,-1.36105974398153,-0.816272064802925,0.510997924505251,-0.477653122348152,-0.508412657285623,3.01263117305888,-1.04610234880593,-0.103374483909393,-0.146013678733513,-1.20025735312339,-0.020394807500124,0.414624431910939
62.185,-0.720750233631151,1.24904110652742,1.69976564254789,-4.60866605221718,2.46987647070444,-3.98886171787772,-1.23018246367857,2.09924229226601,-0.169426341362676,0.379681453684285,2.73286544410139,-2.29431937207119,-1.42396516740526,-0.988281787307589,0.727534568388006,-0.0705333569299375,-0.67468842987515,2.56116774076961,-1.00473779197183,-0.114978980656027,-0.106240459426886,-1.13151117196081,-0.00547646262919074,0.444134479714941
62.19,-0.559034239037019,0.880103585137666,1.40883504105191,-4.62235821269786,1.92951325202578,-3.71242417848015,-1.05659186968941,2.19977388954813,-0.151426030024939,-2.03544032754536,2.62189694205922,-2.13248435777842,-1.53341723604007,-0.921136265944678,0.534073791857002,0.36644990426733,-0.878194265679187,2.29653250061825,-0.985088346260474,-0.106390916379886,-0.0681715751645405,-1.01646783784137,0.0278311587777633,0.428908959768963
62.195,-0.267844248617896,0.672021019974728,1.01617335933971,-4.94234057396558,1.76685048610917,-3.39379830581587,-0.777470251935962,1.85982817907478,-0.326966561809883,-4.48132782309341,2.49276590694451,-1.9615605097084,-1.44213217083122,-0.944004005529223,0.625788319379692,0.625885588942186,-0.877349583640668,2.4009897525693,-0.988337242981734,-0.099311828307558,-0.0331533871785251,-0.859808508629471,0.0673678518388171,0.393756186891367
62.2,-0.106135668367379,0.604477286670114,1.2703817370951,-5.66807518130533,1.78502678258864,-3.01867290045872,-0.550939919821808,1.2933438770114,-0.732795704750974,-6.592110239938,2.4105366883292,-1.82630573254714,-1.40457663192576,-0.907656114602011,0.807209255602856,1.05224686491255,-1.26318769297684,2.15990667283632,-0.959673882452076,-0.0973142731380628,-0.00422232885896139,-0.687954675478182,0.11287869955989,0.37530799560969
62.205,-0.509259409561513,0.570576778626739,2.05458076140498,-5.31526103179033,1.33252078425337,-2.28607484315769,-0.406237728862818,0.6803806734522,-0.79392918983095,-8.22186248136564,2.08854956024715,-1.74107256285617,-1.47441784539841,-0.816435746394632,0.677418085650903,1.52192728928605,-1.56270545339824,2.19229917617492,-0.942161402167768,-0.0994178705521797,0.00907813387226832,-0.567114677679259,0.164468171624789,0.345056587335631
62.21,-0.605966312099282,0.759450490612428,1.83322058876779,-4.61893315817533,0.586853249003193,-1.56299637502165,-0.392892095358398,0.417504613389237,-0.700067914756142,-8.89778961092395,1.63606967544497,-1.74561447345118,-1.41303248482763,-0.873152854733351,0.68084167252653,1.8835562407532,-1.55853497754326,2.32709246610352,-0.946106812995101,-0.0744619812723793,0.000137709465663878,-0.472767485072182,0.232643508492256,0.350087957319405
62.215,-0.275603807424816,1.00704594895335,1.68753003914207,-4.28930330785734,-0.0412053813416146,-1.12441307329842,-0.494300667981533,0.315920310759203,-0.566343073866895,-9.31791578507922,1.24336477313402,-1.84085834857227,-1.43583198486519,-0.869568648119994,0.632016016481768,2.1498533676613,-1.59664356113662,2.37399773012111,-0.945767486657985,-0.075897188350107,-0.0128192741547775,-0.446028170331478,0.239872694015503,0.422099937148711
62.22,0.0896448968171035,1.16907660583541,1.29945920480841,-4.22014772955681,-0.724676290984773,-0.766922101364484,-0.623541718253072,0.122292719811076,-0.36508744816692,-9.86943287644371,0.846619634528183,-1.85639904439952,-1.43391412885099,-0.885642565779618,0.592257242657331,2.47021400549485,-1.51113699848014,2.60024226764095,-0.950570694625754,-0.0791792506511035,-0.020203453636947,-0.433022305946653,0.233437758513882,0.461853903210167
62.225,0.337669196106799,1.19601262878614,0.987822873508721,-4.29234993272558,-1.17896392608347,-0.578735100928936,-0.694679413043797,-0.0293880462417976,-0.0393296053619138,-8.69968764719088,0.811286471170523,-1.8848281417029,-1.39448558149788,-0.86928508475002,0.588865885571054,2.7745196137909,-1.44293258855495,2.74033402575215,-0.960860844338138,-0.0744065380239737,-0.0232301537560729,-0.426641029388329,0.211240599686965,0.48655500275322
62.23,0.45626464922356,1.07186430870096,0.753547398628703,-4.35715056154353,-1.46804794192029,-0.527894673700145,-0.814276285606778,-0.331806256096232,-0.102452712599148,-6.85354609936252,0.784030561837821,-1.85941498553613,-1.3934630134127,-0.804243116909322,0.458506188209639,3.02466966194365,-1.39658463439287,2.94401278009214,-0.960503788192151,-0.0727113214333092,-0.00378260867869058,-0.441153311136686,0.201625751311988,0.554328383250698
62.235,0.452165697274719,0.850560887749308,0.54457220012294,-4.36972937951446,-1.63552630683217,-0.401073528609587,-0.745702141473581,-0.64542758051643,-0.056713950650283,-5.55123789639947,0.667114211589924,-1.66496675578831,-1.35234124220167,-0.761089031700294,0.336236705535964,3.29683154174795,-1.28852197775908,3.10209476166832,-0.990114753990554,-0.0640721252254178,0.0116247595447913,-0.445226805093626,0.223015122640933,0.597042736574087
62.24,0.466920117429953,0.653713509252195,0.458732636367812,-4.23756729494876,-1.67078324849731,-0.232928686013886,-0.632553134504275,-0.708587141538906,-0.066402006445583,-4.16307792974997,0.487443950760641,-1.60061339672078,-1.31890373356414,-0.701843909149435,0.237485377619301,3.57937890083019,-1.16077436187543,3.10533701073189,-1.0334484814067,-0.0606166043761876,0.032258966288125,-0.471768105779367,0.25662911330353,0.634316797592827
62.245,0.436826447185209,0.538149979658873,0.431049193598992,-3.83887469663933,-1.61716937950785,0.0105150911197634,-0.494713718808614,-0.629720614768762,-0.0920031617484234,-2.59632508734083,0.253393520408039,-1.62964762179308,-1.27002393571051,-0.619027712774225,0.148232191119614,3.8764461562498,-1.01010230367074,3.05489221678812,-1.07047356308382,-0.054747599623424,0.0388047517954508,-0.519274487715226,0.263360056858836,0.644704621553379
62.25,0.377206506338209,0.556383459454552,0.423560119795976,-3.42825827094225,-1.53987315297127,0.18740506399996,-0.275654145335396,-0.501494368866276,-0.0783536050704711,-0.826975225813559,-0.0879741401625409,-1.87022897425229,-1.28334014955302,-0.584343905632313,0.0507005362450081,3.98598172056954,-0.896830812294224,3.02527802928201,-1.08553536662718,-0.0517587582945089,0.0331030474633322,-0.583076372109977,0.220823633562906,0.616983496890076
62.255,0.350831383102964,0.562404432669166,0.421166433675666,-3.01722168014328,-1.51199837723665,0.382690880660775,-0.20664171628196,-0.324150700032532,-0.066154068900633,0.298837887541892,-0.392801897371489,-2.05770662323664,-1.28603505080679,-0.54033469656682,-0.0385309458354094,3.8152284263368,-0.685270990844143,3.04274265007542,-1.09660100837612,-0.0467647099188842,0.00351615013310254,-0.649444690986275,0.119719496142912,0.551968315143404
62.26,0.335839079023802,0.557924244676444,0.438248503126495,-2.53435706499024,-1.55615912335611,0.704493095036632,-0.223158333645395,-0.136468660709735,-0.0613931679729014,1.08610562703098,-0.694865140603314,-2.15609713192559,-1.2242595877008,-0.50464706765791,-0.0589010621467807,3.61759529693295,-0.470191772802574,3.02526938140451,-1.10216699915851,-0.0453238795981556,-0.0144989811580374,-0.702239474216693,-0.0160525327278313,0.450435179842687
62.265,0.299463169957244,0.571262130126253,0.458249546000168,-2.14915062230651,-1.63397800586083,1.05273412125157,-0.283731536156354,-0.0107296726685434,-0.0746304713911147,1.46235571285708,-0.918071454942467,-2.21103282377239,-1.15083118708246,-0.442438388799804,0.0891716607157014,3.63002758770073,-0.5031878076962,2.85547866284592,-1.10204160581936,-0.0447892059318045,-0.0135373742319639,-0.706407444948358,-0.122682249882359,0.348258728819141
62.27,0.241118489934759,0.649652663625056,0.456009938908845,-1.92463698687616,-1.77777249936732,1.35680781809189,-0.347461975885275,0.100317140532004,-0.0735013103685827,1.63142304722852,-1.11297428233274,-2.24218275541241,-1.10688636923777,-0.416719646350703,0.0936006631068802,3.73499621902947,-0.766191273076292,2.74839117975584,-1.09053310230738,-0.0407232957389255,-0.0169165160064253,-0.668139367859303,-0.1937739735391,0.235320414397516
62.275,0.187380354107059,0.747727273772269,0.467436677360729,-1.83720419401747,-1.93384178460315,1.61710013199956,-0.39044864249246,0.215068884527042,-0.0737238744281067,1.62977024330614,-1.31552703498319,-2.21915265166678,-1.03385414234655,-0.420497536885947,0.0248015814949522,3.64295948349617,-0.862510923909009,2.66673993994604,-1.07658347558107,-0.0396513574225049,-0.00421936649365116,-0.630577545361189,-0.197929759000338,0.163137713540738
62.28,0.161774070942899,0.775411593162266,0.482690494213037,-1.9130064295797,-2.08416316487575,1.7588433747753,-0.387054008641855,0.338432984281661,-0.0914492950926668,1.41441599280974,-1.51626496149139,-2.18506035610577,-0.956011939104637,-0.42281709616004,0.0242184286258883,3.51313324209721,-0.814932085666333,2.48381813505241,-1.05313162132672,-0.0469297127333827,0.00426390454452586,-0.580476033666583,-0.182051177779648,0.0805094415125372
62.285,0.0910777514384143,0.780963637722176,0.523114201083273,-2.08878406029689,-2.2598252511719,1.88298920394884,-0.354311534192399,0.454568584530532,-0.0991926037619711,0.93016389347862,-1.73570199850051,-2.16291288519681,-0.935584663812004,-0.426718929463381,0.0601555428865279,3.41192776381396,-0.803003508775026,2.21080221342777,-1.0244618532167,-0.0507400487299968,0.00814198730619355,-0.559056061484107,-0.161114767730232,0.0178210492873362
62.29,0.024334731649226,0.742533566633314,0.548474529071511,-2.21927782064717,-2.42715031657627,1.94890644685655,-0.349513860329533,0.5038966694703,-0.113096948656167,0.461989398039342,-1.93233350464131,-2.12856650435489,-0.930588679809401,-0.436342404433849,0.0629145995381356,3.18195680943074,-0.820513529064659,1.980891158461,-0.992838825905709,-0.0566276389939501,0.0204443078380907,-0.562439108776613,-0.151351492150959,-0.0348898583658286
62.295,-0.0710775027198288,0.71409156484987,0.581858228109414,-2.31040507472788,-2.62531651194768,1.99550413652932,-0.355385081324278,0.551978120439144,-0.128306623485218,-0.00626231811033659,-2.10682806718825,-2.06901410043248,-0.931160538812434,-0.429120111778924,0.0583947130512305,2.90603786497525,-0.793964713478847,1.91646769360937,-0.971140503510876,-0.0471587925272436,0.0374440599973415,-0.574020209559013,-0.166074720194983,-0.0630926534211776
62.3,-0.153568163582043,0.701735019958532,0.604481908108407,-2.34829826788703,-2.89537882354447,2.05207826751396,-0.362735430426684,0.584032324223353,-0.142688019446362,-0.277453822750777,-2.31171332513284,-2.0148131303947,-0.926325729043215,-0.427900526426592,0.0925674732335374,2.62126047900743,-0.767627216868899,1.8602904350412,-0.946595446353213,-0.0369145721640003,0.0567971702376054,-0.600323150548195,-0.187680011769489,-0.0775649780283376
62.305,-0.200032790984264,0.692390875757907,0.603351547343816,-2.34488561158076,-3.15941789041157,2.11192948416337,-0.37888743681833,0.604349423181264,-0.155606301221996,-0.834868769840256,-2.49431280054707,-2.01111706662756,-0.893759687312153,-0.424415559915789,0.149059020497582,2.44980588882821,-0.767750884182163,1.80447882310262,-0.925344890067304,-0.0250965365361264,0.0655085330353723,-0.620168932727445,-0.206982210790472,-0.0797482376078723
62.31,-0.217448871419181,0.702550227883762,0.5849250547092,-0.462076802961272,-7.02078564803623,2.15601173100015,-0.402266847579683,0.598013001510116,-0.16724482238772,-1.18964592794104,-2.73918754072229,-2.04222167311294,-0.876328277964558,-0.430715665681693,0.189843971214602,2.30519995927721,-0.746786826465266,1.73033744360666,-0.910870611453304,-0.00811687590133963,0.0777366921656026,-0.645839462454853,-0.220346006630276,-0.0681259866377032
62.315,-0.252061540016126,0.713107692947785,0.563493102442538,-2.20040950144028,-3.66200705463683,2.19827361927092,-0.449713035099054,0.548888542586094,-0.20804154292957,-1.37976096657763,-2.92938082296436,-2.0613295019874,-0.854257899696456,-0.434947133134756,0.249270390953332,2.21077380285327,-0.714531759487486,1.63720635640115,-0.896405591583574,0.000106197375164552,0.0843172617497911,-0.661492882695359,-0.225382826307717,-0.0524884856969223
62.32,-0.2782782814132,0.711044124413994,0.542738539841419,-2.12974031938533,-3.83476438558081,2.20442193294437,-0.493392623249032,0.486911390863374,-0.234026690830279,-1.48744097362798,-3.11412342601328,-2.06587063903341,-0.807981884904082,-0.431726084756958,0.284034111194092,2.18951158104649,-0.722559226504996,1.53372089111262,-0.887664728675203,0.0162578137027276,0.0858515546915773,-0.689421000098327,-0.224396894052357,-0.032885233426682
62.325,-0.330564109465395,0.701096685244971,0.513288090436437,-2.04205876720448,-3.99192569358408,2.19657082999299,-0.526650754152107,0.42076989052967,-0.25914708239187,-1.53366730795968,-3.28992619883639,-2.0434796962943,-0.818650595594692,-0.455740606082805,0.306450271805748,2.18393834383654,-0.678708788089855,1.41164912146213,-0.876443554592175,0.0216885844547716,0.0884137727490727,-0.71050639667049,-0.207606622139313,-0.00832775647345802
62.33,-0.369572466967167,0.700825071948394,0.489543716207963,-1.93681886829208,-4.08176785838452,2.16160309457296,-0.572655946150777,0.367837055825311,-0.282720006765975,-1.50779696068116,-3.49617607774345,-1.99496675472114,-0.830256244244295,-0.467693728314189,0.324002625296163,2.33842671707325,-0.603263850081226,1.33048079711476,-0.862550194068641,0.0255191477987967,0.0937198676948728,-0.71910017316531,-0.166111130295469,0.01935408635564
62.335,-0.424151749278031,0.700023315214176,0.484621949805624,-1.84836732303283,-4.15099525358438,2.13103484463002,-0.604796350656197,0.353682073703715,-0.309963241867004,-1.43007169019726,-3.66392314210755,-1.94307933386459,-0.826840499762179,-0.483192726580011,0.324865711983403,2.53106079753957,-0.568598259733904,1.29300981930363,-0.862773360946941,0.0205085574450831,0.0978209953603543,-0.732800747116807,-0.138761721454067,0.0416298469993779
62.34,-0.495418678946167,0.701263958154302,0.485093873620399,-1.71398282252173,-4.23237703442025,2.09416670051231,-0.629109939607933,0.356974030128848,-0.340329023452293,-1.34913186340603,-3.81360489944655,-1.8843049973075,-0.81907678001775,-0.50499729747633,0.306527917992007,2.8401144274248,-0.578861904411837,1.22731947228373,-0.862102440430816,0.0133260472881702,0.101770872987358,-0.742078282370843,-0.10752991940963,0.0746767505410135
62.345,-0.560269521717436,0.717956828849395,0.486344526848901,-1.57767757161127,-4.30281300151014,2.05929322755,-0.643217326549345,0.371320436665283,-0.372434415875284,-1.31258554354977,-3.9324375635609,-1.81788690878229,-0.805635999042656,-0.525624776574487,0.274033861909183,3.1475695022503,-0.597184726928801,1.17853641072154,-0.859057037050031,0.00116608194787658,0.109772810664059,-0.764954386398081,-0.0997583791613579,0.102985459721716
62.35,-0.616389010145585,0.73727919770883,0.475738343733762,-1.45376984839055,-4.3583879560996,2.04277499970525,-0.64466109499484,0.392583583268503,-0.407853490476225,-1.34261537219789,-4.04786067602257,-1.73062178831884,-0.828376126197387,-0.55192171433083,0.221359290132013,3.4812068281231,-0.595030184291309,1.11893272633117,-0.870880545987755,-0.00720093301282633,0.111663551560388,-0.790818136505108,-0.0975036454452812,0.132116893596027
62.355,-0.68586933490277,0.772418585821647,0.462257349645702,-1.32325806507929,-4.41079639015744,2.03229473416079,-0.664610292296829,0.404505237148305,-0.444649708868991,-1.43010405230509,-4.15999558178104,-1.63193498710487,-0.809625482336148,-0.569916562417002,0.171038845949637,3.78850356244441,-0.584769590259972,1.04279389480201,-0.876031480902929,-0.0196721724609184,0.106070918886703,-0.829739897403762,-0.0970694160781382,0.152014335590898
62.36,-0.730402312069292,0.791029391156673,0.451566124513104,-1.23076723621815,-4.43156261969345,2.04867328597292,-0.691857279233846,0.413413720996653,-0.477610220777587,-1.53437346362017,-4.24552071138628,-1.54624775659397,-0.8001071074082,-0.579790441971644,0.106810405008187,4.02752707740479,-0.568103408856832,0.992234822058886,-0.892534336846234,-0.0276362627509678,0.103545277761079,-0.868488973831509,-0.0956735250961337,0.162617357188308
62.365,-0.789404343232144,0.812133997936834,0.449305801619422,-1.11587733527331,-4.42972223152461,2.09665491403771,-0.71215016255072,0.400113896219584,-0.511220848820284,-1.66609939501771,-4.32956644967413,-1.45719649839552,-0.789910793196658,-0.581289610141968,-0.00335497895358245,4.32180704714243,-0.515100191825239,0.943626359977555,-0.912760876727314,-0.0324899164211392,0.102266397825593,-0.904467913328796,-0.0949899606497555,0.164716243743896
62.37,-0.842268634982687,0.819822196220422,0.447793483073616,-1.03349838019806,-4.40857126727385,2.1720904103511,-0.733407674512106,0.371703725920245,-0.540586032510052,-1.79297933145434,-4.39294893817696,-1.37629605542483,-0.753701680211423,-0.5643658746224,-0.0751091815740029,4.55313600370679,-0.414361483978919,0.93148605305544,-0.937275958649425,-0.0429882809457761,0.101919419298861,-0.945248173204544,-0.104074544739628,0.155213359436788
62.375,-0.8941494636975,0.83134046577076,0.479520366597521,-0.927326466329619,-4.37707871904652,2.28389563067757,-0.75005747489683,0.340048929780823,-0.565300248490698,-1.92516273546318,-4.4692969362024,-1.27700005617918,-0.734196245979777,-0.578725897331426,-0.105077903128559,4.72250878508237,-0.377770905805638,0.889836944134487,-0.946780330430374,-0.0520054622544967,0.0978768453274898,-0.97129277434214,-0.106045015331921,0.146372322694069
62.38,-0.923772536774575,0.83081069217366,0.481248460092413,-0.841613000495623,-4.33026609641834,2.39412082871638,-0.763040496966629,0.25978639143723,-0.601810358664929,-1.97396194382247,-4.53792206816635,-1.20056422308199,-0.743934025038291,-0.573901513547654,-0.169963141620546,4.9205444521155,-0.382699280516467,0.789224961651385,-0.960063943282026,-0.0593160059323764,0.0951837968166071,-0.988388965099966,-0.12246715466513,0.135453291557792
62.385,-0.949485080811361,0.822869694131725,0.474717074836357,-0.754281101993802,-4.26667757855428,2.51238039373259,-0.793010366051658,0.26058379628298,-0.615476313252313,-1.91824709616907,-4.57832302827747,-1.16748167440957,-0.755103380050314,-0.530677725909204,-0.302400050869049,4.87042414545702,-0.251826687351137,0.805644594962216,-0.974528577034466,-0.0701503792066816,0.0968394052082284,-0.996093741772733,-0.133190566224838,0.131859705332939
62.39,-0.955872767313547,0.793890387698051,0.486320835546328,-0.631565025919486,-4.19423465695647,2.64728128089188,-0.823633712067726,0.308681879428167,-0.622320967509948,-1.92261878259622,-4.63041789182952,-1.11136393486381,-0.708594495819882,-0.457745042127042,-0.344950595106711,4.60428526383283,-0.0876923903409437,0.850869811196018,-0.990123455767796,-0.0816646232678076,0.0920618793714124,-1.00212409315692,-0.133214244187246,0.132325370472846
62.395,-0.982864471269669,0.750678654834362,0.524204950131646,-0.459062696973533,-4.0837971101265,2.79103325948066,-0.860480227015331,0.237073508304956,-0.638541299327708,-1.87087495780434,-4.67007567680722,-1.06277415978724,-0.688665507836119,-0.39958870974259,-0.369148244394617,4.40925889847206,-0.0767586877141879,0.799008593097493,-0.990645590131235,-0.0827529462928316,0.0889713613953754,-1.01039150744002,-0.129897195891306,0.12856632891958
62.4,-1.01912820263774,0.762546588886666,0.558655320865038,-0.32074136052898,-4.02571147688224,2.89857396276418,-0.916003511209499,0.00239779969305717,-0.679783253512662,-1.59220836950985,-4.71719302794911,-1.10534582590276,-0.658996203673094,-0.332476589047109,-0.398287670350805,4.00823311011625,-0.0483943214216977,0.743469425507226,-0.987422550216484,-0.0856170625096172,0.0843727156008386,-1.02090618560485,-0.113404357404081,0.126121394647112
62.405,-1.07131970777205,0.829340976177189,0.595469919307004,-0.19976556793385,-3.9535780838386,2.99767051222303,-0.969658373252795,-0.0027610318281469,-0.662239835992451,-0.974666968685176,-4.74892919777126,-1.22585694578352,-0.625481130369862,-0.288684576618678,-0.403152866145369,3.55421633342926,0.0104128720721002,0.680571873289869,-0.983931249607895,-0.0906880606927595,0.0737889603994738,-1.02457985924611,-0.0920585519516834,0.1156636278552
62.41,-1.13031104361901,0.823110140719447,0.590636370513414,-0.15359537423824,-3.90357517242435,3.05980017510096,-0.989251980533041,0.477158815044507,-0.655713478569953,-0.868041802041461,-4.79047942038038,-1.10227520350974,-0.603218472713087,-0.236426459173699,-0.37885235812074,3.10283715270894,0.0289624488540246,0.587046361028243,-0.971046857279934,-0.0886158042268595,0.067901302768361,-1.03000043047546,-0.0541796246255986,0.109547290093416
62.415,-1.14094549810392,0.811778636200558,0.617482055917931,-0.118357019655611,-3.83797826107817,3.07633918013289,-1.00945064726405,0.564087665295407,-0.671318332018407,-0.931193302846787,-4.85506044959203,-0.814450979582052,-0.592429646589586,-0.201831236318377,-0.355256358327191,2.58450649927935,0.0380540249579116,0.442937591001302,-0.955638565879529,-0.0908502343356956,0.0575120784659598,-1.03203964233398,-0.0171545758189603,0.102913830625639
62.42,-1.17894441823613,0.822194846855931,0.644347371722944,-0.052858629847202,-3.75653772772818,3.11762431530796,-1.03081353930802,0.515364157045224,-0.690589721285317,-1.11541568297378,-4.90652106995055,-0.674561744182154,-0.592315546547155,-0.173345374186874,-0.32993479826226,2.16528787594997,0.044405703635438,0.325197778188956,-0.937960555341048,-0.0929773039173801,0.0528665887787074,-1.02387673216542,0.0179571337878189,0.101182640271319
62.425,-1.25309088636609,0.842573678257065,0.658823445757652,0.0313543358151277,-3.72860086500969,3.14490371608625,-1.05143399246849,0.446633946690459,-0.735193217840794,-1.30621487394623,-4.94849833945182,-0.622558665394556,-0.587126322013645,-0.148110913800092,-0.301977226614095,1.78615384538483,0.0512605169396457,0.206588575946365,-0.930317065431209,-0.0981177894324417,0.0529928538298095,-1.01204556160609,0.0480753229554326,0.105521555158752
62.43,-1.33582893580539,0.862660229270858,0.645501505289935,0.0776806563828362,-3.69185977488286,3.1747574598279,-1.06400999047803,0.400733319462355,-0.771117873242649,-1.35620961148047,-4.9651844848599,-0.611455949437067,-0.593027035042477,-0.128365764451583,-0.28356213854553,1.46036671057641,0.0306346280463928,0.025362891174696,-0.915586080962573,-0.106747720156387,0.0578719264704062,-1.00130225361452,0.0722023859899419,0.114041703413559
62.435,-1.38595644189536,0.877565990544714,0.621732157334663,0.102299490520928,-3.63061466152171,3.20707080270863,-1.06578214148988,0.430580418809847,-0.773930199758069,-1.3613274396825,-4.95843291325704,-0.581619288986996,-0.603078735486968,-0.118296671401595,-0.265123803762843,1.20526078768386,0.00215130359258532,-0.113446183136865,-0.911641736888225,-0.104568371995872,0.0615236588274163,-0.997724284948338,0.0891087249288521,0.114533549490582
62.44,-1.402526916682,0.904633680483982,0.599540433453536,0.119164782235931,-3.57169565523264,3.26489110259751,-1.06557023894527,0.501155123609329,-0.783279485015993,-1.44546635575336,-4.9486259357328,-0.502002199846834,-0.615502263988689,-0.112781846952226,-0.258012957115908,1.05565685284552,-0.0340063876606405,-0.248912245676965,-0.911672462909307,-0.102451980737753,0.0673399203563493,-0.99659593677315,0.105030380314644,0.121132729972612
62.445,-1.43362963521497,0.965613204672144,0.567655460171241,0.137522776446787,-3.47969548014009,3.35040304441617,-1.08709502997853,0.521743599846422,-0.79891100952091,-1.59717676701485,-4.93474975643736,-0.405420324172803,-0.617037278382489,-0.114083808542025,-0.265158222634039,0.954002653612456,-0.0774814171734462,-0.401919542455858,-0.907748136875203,-0.0933028421154994,0.072679404387551,-1.00334062322357,0.119066489275125,0.125261971043967
62.45,-1.47446347044302,1.0210006852121,0.53405738610502,0.0909446171886513,-3.38733548486742,3.41904127236173,-1.10640376545669,0.517585073300983,-0.818517055155172,-1.83363956626699,-4.90267633190857,-0.35262938956812,-0.612774473175141,-0.131990712576077,-0.270028665439701,0.899837646923304,-0.0882460745031462,-0.505629463599739,-0.912784800865326,-0.0848556063464223,0.0738525512590315,-1.00329672106055,0.127861913308404,0.123371188293231
62.455,-1.51968709419652,1.07608053430572,0.490321099956493,-0.00173432840012725,-3.24800733783876,3.49962271315026,-1.14664983010943,0.549876157417151,-0.834394244447896,-2.06195015980648,-4.86372656270867,-0.325316833445926,-0.613489264291873,-0.149704237913376,-0.268778183614507,0.859882978216348,-0.0999981620585474,-0.619088011246642,-0.918035477409377,-0.0722293507945153,0.0755718841400487,-1.00787490658022,0.129920184612274,0.124400317668915
62.46,-1.5517221760182,1.11603978527259,0.438138326882439,-0.111096273733969,-3.07943946175762,3.61657686791393,-1.1686551430673,0.576772610314476,-0.85347516729992,-2.31028541823122,-4.81719139669034,-0.275333875870191,-0.632150790953947,-0.167848995657264,-0.269989189184065,0.869230913794481,-0.10432245690994,-0.689646358553261,-0.926442998445571,-0.0587491209622315,0.0769613224310881,-1.01086065315902,0.127485697573251,0.121965840527789
62.465,-1.57712007017536,1.13717603631515,0.391074435319982,-0.211855353347399,-2.91498924167773,3.74832977559285,-1.19464425167678,0.592773176948599,-0.864259266006931,-2.61666572161943,-4.73620636911835,-0.19951655410363,-0.617623935188546,-0.192888921571262,-0.277014731845304,0.881251603392259,-0.113702641378969,-0.763873651001272,-0.934226473044249,-0.0519544517987374,0.0814546614649811,-1.01906208424747,0.120689941855787,0.120735242962837
62.47,-1.59911481548426,1.15391669083195,0.343974070117634,-0.349281357792742,-2.66076358438268,3.93350374516316,-1.2180904210404,0.578645653002785,-0.876107463499115,-2.8683024480985,-4.68090622723258,-0.128181374590587,-0.630090443225757,-0.211860638921727,-0.276979171276552,0.883602173724341,-0.122029107819774,-0.805296158534185,-0.937111393583691,-0.0450261666601165,0.0870872962191767,-1.03087941110963,0.110955250411495,0.125814699501093
62.475,-1.61442830122091,1.14148384234583,0.275628956035659,-0.454962610315709,-2.43543920665793,4.0580118172573,-1.22921521706815,0.542308522279297,-0.883107978033505,-3.11869986110546,-4.62402654605702,-0.0678390397691186,-0.647510638455717,-0.203943131427428,-0.270305243223754,0.957100204854189,-0.12023372821866,-0.861225729264918,-0.945728058677461,-0.0389279257951232,0.0949689534528121,-1.05059980427734,0.0881478381935961,0.130015312881809
62.48,-1.59847768678536,1.05446242625028,0.236138590572285,-0.55133822951431,-2.16090551319295,4.18976701475312,-1.24234721286859,0.47046929124221,-0.893213581819709,-3.44690675165496,-4.53633887285193,-0.0130460163810426,-0.664627130448837,-0.182772335922597,-0.275382097172028,1.01375614021722,-0.116402967819319,-0.891988764510173,-0.945179066972231,-0.0336133195279876,0.10087375905242,-1.06297807240994,0.0701077442366263,0.139439785575732
62.485,-1.55789572126049,0.804613879474891,0.229596949111745,-0.571606570449935,-1.76797030053254,4.35174858666271,-1.23681786884576,0.400140866614541,-0.909515057961679,-3.74814441043095,-4.44430299188333,0.0350799645944833,-0.674389666020852,-0.149099326636671,-0.255807698285053,1.13300020284031,-0.0873825114372661,-0.947519444931144,-0.936220159046981,-0.0347176217706105,0.107755413913991,-1.07257648096793,0.0521363583449482,0.146987006656787
62.49,-1.56259037632809,0.545607112697448,0.252882216921448,-0.44404007330141,-1.40670640562624,4.48497971110372,-1.23364172092837,0.312056158205301,-0.936387509704109,-3.91783062089065,-4.31917606438202,0.0553687156060508,-0.702344185706479,-0.114677611630323,-0.230213738424995,1.18352810251683,-0.0678726530139675,-0.987233248097762,-0.948114399049506,-0.0353489374294397,0.112794590071673,-1.06726183807588,0.0480666533112526,0.163328481469564
62.495,-1.59928479354115,0.376358282375238,0.271858478694069,-0.161915651871326,-1.02205527852391,4.61358774772208,-1.23462872590925,0.207568939451831,-0.961154734659652,-3.91358736740143,-4.24503179646418,0.038423805294306,-0.741699412359186,-0.0601813268510933,-0.182515938108708,1.20942693261764,-0.0437155534701602,-0.991241276264191,-0.953634602452319,-0.0433119790668246,0.114907832771167,-1.07077288154221,0.0470609273682457,0.179015565971925
62.5,-1.63428393819501,0.295523310848495,0.299565688628421,0.120778490981493,-0.64577476522712,4.68054541265824,-1.24296074556863,0.0981114256913112,-0.982880674270753,-3.82511661467984,-4.15792655305496,0.0194799803896539,-0.767284175329361,-0.0102801174471019,-0.153232086532057,1.23909312253321,-0.0111879472988674,-0.965570604009278,-0.955718025355826,-0.0504390766600616,0.108512627701772,-1.0821206531314,0.044810220407744,0.188737229278486
62.505,-1.69174507568799,0.252904643413868,0.336942233440766,0.290137625442427,-0.343867642397423,4.66615268030897,-1.26578914648452,0.0044627165207934,-1.00007817917577,-3.56468527968846,-4.03262195877507,0.00477553234882445,-0.810930686209377,0.0292796114879428,-0.142678745650945,1.29279143149372,0.0145174200019409,-0.892067173085769,-0.970189095014874,-0.063436890305132,0.0989252645535823,-1.09561397569226,0.0300476982384038,0.202517412102275
62.51,-1.81529639540064,0.221321268430868,0.378383369116166,0.342527877746349,0.0129286080932296,4.61038329385592,-1.29282424012281,-0.072245237871113,-1.03195812922978,-3.24613284009621,-3.90721860816341,-0.0181467293658022,-0.892225154087836,0.0877392039645888,-0.0918217290684013,1.44366896295561,0.105213116336619,-0.796045592616231,-0.975229161226994,-0.0740200163707513,0.099129708918955,-1.10902899473944,0.0026247001712248,0.210329914201353
62.515,-1.9338164423502,0.234437764285689,0.418875055381354,0.302639723139752,0.244692276949762,4.53553570567455,-1.29860852717334,-0.0670007481307471,-1.05606562373432,-2.78146095514277,-3.78001316974578,-0.0349459661067294,-0.888113177393229,0.111141694499569,-0.08954906617294,1.57898929478677,0.172704121293023,-0.740843954559458,-0.978402552209811,-0.089207086065852,0.0905106324127039,-1.12479862764244,-0.0243442725224039,0.211851581305854
62.52,-2.09212580949453,0.284722537801159,0.51021126710124,0.119582434093107,0.407630216955802,4.37193800000436,-1.28797997163867,-0.0236147461600323,-1.06443720415365,-2.08182052906235,-3.60869355634814,-0.049187836803875,-0.954505542829291,0.118362107417047,-0.0657796353505204,1.69581900969536,0.224761864015363,-0.768305363255064,-0.975401029462333,-0.109158310351597,0.0909455376370918,-1.13712350845338,-0.0529708677209552,0.21195709518286
62.525,-2.16227329122044,0.299485820075748,0.56269961814574,-0.151817470808914,0.44844912700326,4.16523920707098,-1.24893244477068,0.059414382089006,-1.05919767987186,-1.41400900476911,-3.46042756619171,-0.0671702160027627,-0.971529024999277,0.162462769195039,-0.0432510830321216,1.68228744876956,0.245279412829496,-0.769457552228286,-0.981345408843829,-0.128275726114167,0.101554924139027,-1.13966508152282,-0.0718344526175099,0.206835331647832
62.53,-2.19604139094906,0.254960373115408,0.596672827950454,-0.406696067972709,0.396221331351297,3.97919691469375,-1.22489298178311,0.123644300805795,-1.06991538913839,-0.924421544424277,-3.34256141900461,-0.0928041047167673,-0.985686843848316,0.19715932748746,-0.00837908071738365,1.72678051161659,0.256714687033327,-0.920138510879318,-0.997986011491793,-0.141892553405187,0.109630008425185,-1.14550555615156,-0.0728811100125313,0.186000978173932
62.535,-2.17569879256826,0.176317415359406,0.572580438612772,-0.711430094293392,0.273209997460864,3.71012458525397,-1.21919537918153,0.239786330722942,-1.05143558785581,-0.313752507949516,-3.16167698715309,-0.153367304442085,-1.04090483999222,0.23430921454543,0.0388158688253007,1.61555247220968,0.221970828497126,-1.00345826148987,-1.01066752699797,-0.136140998345292,0.130251313130533,-1.1567557996734,-0.0509636870588217,0.18663365637434
62.54,-2.113909019215,0.0964529289854046,0.483701187669325,-0.888730175069675,0.128322159412259,3.39801325062346,-1.22089729645859,0.321690911381983,-1.03684188873421,-0.0619802516716943,-3.03175766547642,-0.179282123050318,-1.10976050447371,0.25114027315614,0.0734001531521317,1.41405277809928,0.184407966029749,-0.946387949741904,-1.01327318285065,-0.146170988494103,0.143582454199506,-1.16276097297668,-0.0139134736522485,0.20420374169234
62.545,-2.07979805668265,0.0306172424346164,0.367470402546521,-0.948228743871064,0.0169796536429788,3.10545791620963,-1.22281617734448,0.408308518142433,-1.02878834758671,0.0496086193155233,-2.87504350501506,-0.181772113146478,-1.24623293755798,0.290695652004876,0.148620359723652,1.17278884999248,0.139978033307683,-0.754266670195088,-1.0329856852018,-0.155606344670269,0.14765912923071,-1.15727423925542,0.0298005972296673,0.210643291582186
62.55,-2.06940290175388,-0.0166202611800741,0.233225407709379,-0.940256378089738,-0.116582953117631,2.72761823357317,-1.21084745753839,0.490172241230207,-1.03096342639539,0.0241961571421019,-2.64050346345453,-0.152656140264903,-1.4803925940119,0.306443146815838,0.218240972149091,0.865569875199153,0.152028021276031,-0.645111693287793,-1.05703431128134,-0.1726811703453,0.154404432001497,-1.14810390358445,0.056791662194278,0.190719725019216
62.555,-2.05329862670005,-0.0301669872206151,0.121132771228307,-0.850316338755567,-0.203415105875762,2.41565118323808,-1.17205634683334,0.542060055348742,-1.05555612135163,-0.155920804245932,-2.43604672131442,-0.0808473237184287,-1.42785613291965,0.420293307552497,0.231918968496601,0.609941999599801,0.13306962400845,-0.584749926900915,-1.0628119557012,-0.187194697045741,0.157253107924343,-1.16890146693148,0.0346471262651226,0.184461636503526
62.56,-2.01401884841127,-0.0722545680669521,-0.00861663786673482,-0.632610831451828,-0.254106256683634,2.04719935063877,-1.09019896802658,0.540003931649299,-1.03905186543517,-0.451622335247124,-2.16737654096683,0.0446415639307767,-1.5024378452415,0.524977773162325,0.243862859040531,0.521715319403032,0.0792597949206565,-0.450120338591965,-1.08085047521384,-0.201771973595211,0.156251148873085,-1.19976954086581,-0.0272699845402932,0.195013911482783
62.565,-2.00119961921361,-0.125024698751827,-0.0848802149474039,-0.375330663574512,-0.24827627550002,1.71721492880856,-1.0237003531299,0.527270356816424,-1.03679352301236,-0.704902597412552,-1.89968693053463,0.150424554252268,-1.57373027789948,0.58080841494033,0.254106341542743,0.502943575379416,0.0299337910221119,-0.377101889301695,-1.09261549524345,-0.216264743185978,0.147760577016009,-1.22702390095888,-0.0880347471194841,0.211263953415304
62.57,-1.98353794912893,-0.178437468381373,-0.214415137411919,-0.0445894173205703,-0.201905208560087,1.43335505198702,-0.981309837827074,0.46413912838933,-1.04250549224857,-0.971777594211447,-1.65369081364278,0.249440042963983,-1.53429141911598,0.649553523307786,0.228284797436959,0.568852351451953,0.00329456499476084,-0.298739213153378,-1.11460979529569,-0.221225300550379,0.14016161602232,-1.23710571421967,-0.13879060542698,0.203752114252662
62.575,-1.92382827669727,-0.185360796048713,-0.31162911513498,0.336512031282586,-0.128190825208544,1.17819448090661,-0.940476763312719,0.382986621865103,-1.03558005036803,-1.21981341629132,-1.37672942113521,0.375477221622035,-1.48927098699802,0.676118727866157,0.209666187423958,0.657238194908224,-0.0540080590628729,-0.197950018791507,-1.11692849827649,-0.214977064112645,0.134518064221007,-1.23238381253221,-0.170170568577788,0.187310696880436
62.58,-1.86100036833075,-0.178124982914523,-0.402162220683572,0.709048729972612,0.0094026554148502,0.98907423908909,-0.900181066927616,0.286765489007546,-1.02824745183855,-1.35787650486692,-1.15464395607079,0.481125354466496,-1.40736497133539,0.650658313455929,0.175969819337508,0.607311036747069,-0.0926464319346129,-0.173103384650162,-1.11631372251009,-0.206850052390073,0.125628204070059,-1.2142363718897,-0.174699920537147,0.181049280123981
62.585,-1.79466734164206,-0.150923188779323,-0.473253554593841,1.04338394006554,0.219351068474356,0.853524287346317,-0.87448055031393,0.198441409483803,-1.02139032489588,-1.36387480664998,-0.95124540808804,0.551254892186187,-1.32038794670966,0.58720635003307,0.0999750697082007,0.444708497932259,-0.0874202999234891,-0.216337761758017,-1.10448286917139,-0.197138591342128,0.115871369272582,-1.17475784282783,-0.165426838752607,0.174949118672301
62.59,-1.72501521842407,-0.110345543578777,-0.529027525823037,1.31275690467164,0.461563624832715,0.758707429028255,-0.843704686921982,0.101866014383584,-0.996329775937394,-1.21392198024132,-0.750242279182213,0.583840912718396,-1.24525619022206,0.506820288982876,0.0488420064790422,0.320190094538443,-0.0396825739261089,-0.280499114947344,-1.09569432155659,-0.182897269244021,0.105471302139309,-1.11769240723633,-0.143983991078596,0.172468537131651
62.595,-1.64490267718669,-0.0609769831512624,-0.569837347326427,1.55877948206117,0.821480712862506,0.699856914757413,-0.822201223199272,0.0194314438226615,-0.973207238294737,-0.907383358389854,-0.52459257671867,0.578664465075715,-1.18573786430849,0.425078631289199,-0.00741873491314844,0.205431982699467,0.0389999820381239,-0.346250492313412,-1.08507330486214,-0.175435219786482,0.091782549880992,-1.0646845963916,-0.133758068883193,0.161790781564687
62.6,-1.57770688432501,-0.0199660699778615,-0.587670795571356,1.73532232086616,1.11668249920782,0.684757167193298,-0.809620764536575,-0.00626465004480025,-0.948406522242122,-0.478424496957566,-0.309331094754041,0.546657500781019,-1.13103617488852,0.328686086477891,-0.0617373751513979,0.0176408086632745,0.129047975323111,-0.399948433594683,-1.07897501921326,-0.16546335433654,0.0787572950230589,-1.01769749864969,-0.133579812894432,0.1460684383015
62.605,-1.50443462870736,0.0466749425402139,-0.565111665651885,1.84924969565401,1.49278597706513,0.679081716195258,-0.800915163624556,0.0036447815398155,-0.91618800026639,-0.0420112337639015,-0.118064361239165,0.507394115344005,-1.10837358264143,0.259522356841017,-0.089134331121198,-0.208276211951156,0.195688644533913,-0.435184896030514,-1.07764546883972,-0.162306103459283,0.0713907765080178,-0.994245827727982,-0.136019119269478,0.139450763420866
62.61,-1.46148678891284,0.125211735858929,-0.559320922785921,1.88509780962335,1.7805404396127,0.659979458884314,-0.786813475124869,0.0461752076834522,-0.878860233777875,0.353792135355741,0.0471868524032982,0.474814653683682,-1.09546556315429,0.207956436583227,-0.106548741589026,-0.409613280484051,0.250562074764523,-0.487885012421881,-1.07473714331419,-0.162470234959205,0.0700729151614662,-0.954859547925137,-0.150523838414927,0.128990645460929
62.615,-1.43461084435765,0.199728658965108,-0.576667255456537,1.84959177683166,2.09185316723611,0.560666973260491,-0.788891564602518,0.0996102420229355,-0.840683105276323,0.715334777718861,0.214892991045313,0.446151303738465,-1.07603962182346,0.150592034992491,-0.123364277889481,-0.538057054791933,0.31213974826184,-0.521718578678625,-1.08034974916198,-0.168799269972519,0.0710432893218363,-0.932891463070351,-0.163350143422935,0.116222563662836
62.62,-1.40208880950307,0.242517661017771,-0.596118606025055,1.72789538905503,2.34558008719314,0.419084278541781,-0.795064044995075,0.157870321971052,-0.833207539058872,0.985732651707348,0.369235569343485,0.436335071527216,-1.03436798437174,0.119566227872717,-0.108508409429536,-0.506927599289407,0.354370702344423,-0.521180562249292,-1.08269736129211,-0.180705473243091,0.0620613642220779,-0.908308946420236,-0.170193523479111,0.102445626359425
62.625,-1.70246855953552,0.616326854365654,-0.559931510242234,1.09893373232806,2.67311965845975,0.0139663542818181,-0.809198158459327,0.241161146751051,-0.874495031376114,1.1198513636231,0.491429789548056,0.443355315675636,-0.977830155903557,0.0813123320771928,-0.0969203989825761,-0.372092846748095,0.359730231364945,-0.45092174306359,-1.08383561331543,-0.184499748104628,0.0572980342764561,-0.881363541494024,-0.174055564237759,0.0865501018852651
62.63,-1.85302910454561,0.755250280526339,-0.08618789709109,-0.275356509513592,2.6840990036462,-0.535806295978733,-0.806596801218714,0.387500258922537,-0.896691254200345,1.18829796784812,0.62339305200594,0.502811792939513,-0.950341473070149,0.0654794234320829,-0.0958868591549572,-0.287030633978549,0.314364686354691,-0.39569260293557,-1.07931276776197,-0.179219287174188,0.0581600484436572,-0.867765892169728,-0.179155925613218,0.0712881146107398
62.635,-1.90443469355115,0.67894902454819,0.610011149805608,-3.37077499325017,2.17203290442582,-1.460245358095,-0.796479523287681,0.541390729558337,-0.901810782258787,1.19956872430524,0.779802637108692,0.623168877875265,-0.953032444449963,0.0735628825455212,-0.0843436953270478,-0.221827720267057,0.261357186473046,-0.298047186873289,-1.07035418004636,-0.180049368324213,0.0647461101570766,-0.838315948491654,-0.187785181191569,0.0519723294403955
62.64,-2.11316530675314,0.426007933988898,0.954104548682664,-5.49472431547161,1.46002898370239,-1.92361418099025,-0.775924483868741,0.580163974824897,-0.915878854844465,0.980179334699476,0.899533241367332,0.7504851121077,-0.961026947175663,0.102282842655135,-0.0648607068107447,-0.102892686777325,0.212247963413615,-0.170705204062672,-1.06753819673316,-0.183032539485823,0.0752724145191378,-0.817855736449122,-0.194636132383449,0.0364599072125893
62.645,-2.44714617626419,0.39460000170751,2.05266582307876,-7.08033935894019,0.258292705773141,-2.18319368946871,-0.796234496339831,0.456988422871813,-0.92201557511621,0.322443069512237,1.09668994446501,0.81918606026963,-0.992246490058166,0.129831191690016,-0.0515458747738451,0.0011261211080702,0.181659003892131,-0.0229875641977022,-1.06372092203537,-0.17978096922283,0.0906604515207155,-0.801137288385397,-0.196272253990173,0.0193324304407962
62.65,-2.7714752134673,0.128454254575682,2.33980130757579,-6.03040476734197,-0.641121430798099,-1.16942461127743,-0.853380419636418,0.256209174838205,-0.768945313886328,-0.227638845149266,1.34913038477006,0.773811485997287,-1.00676026811687,0.196184595647646,0.00546434133073482,-0.192606045198044,0.121010369355063,0.224546992057844,-1.06754229964279,-0.185124021735862,0.0972009375673192,-0.779622713251432,-0.219328738901564,-0.0117627483715007
62.655,-1.88804845348004,-1.3526968324437,1.42832415562267,-1.92328520450147,-2.40723310262888,-0.276926595235592,-1.04069076912888,0.184006256724329,-0.106234754632097,0.0320260891705104,1.57997629187698,0.573058283678957,-1.02352333085778,0.180747722922794,0.07851146865263,0.142653507672565,0.0165503635596563,0.45136442751188,-1.07245876641189,-0.182079037199691,0.111690168969564,-0.786558160311644,-0.240861301972236,-0.0358788630280066
62.66,0.016244670674899,-0.804831510525064,0.923539287588669,-0.615588537724167,-3.05565099416074,-0.880003262667293,-1.39395903126701,0.154917476352669,0.459385816981329,-0.096945086362123,1.43345136032167,0.395692765174267,-1.01362159422155,0.0173251016873124,0.136111234720649,0.0804821459359184,-0.122968179517433,0.578797151252317,-1.08409328666167,-0.178422400366032,0.124098541569341,-0.805626362852613,-0.289950977375595,-0.0702675672334151
62.665,1.00760398712297,0.563971430293765,1.42445660343648,-1.27452737339485,-2.54599925405381,-1.95881054492337,-1.73579561105894,0.0326858891148879,0.649967458810425,-0.9249292746934,1.17910511599009,0.36567148566246,-1.04272763358518,-0.279861705631503,0.189060095110202,-0.28880520521561,-0.330194586605009,0.327048848683107,-1.09465130157187,-0.170006891692777,0.131354056498839,-0.830008054018903,-0.347298885057496,-0.0964975160089484
62.67,0.90335853664613,0.937449991188512,1.33884312048569,-1.85176542739295,-2.27431086291979,-2.07737078460582,-1.86818147377874,0.0166339786631448,0.483397503647503,-2.10865774263704,0.908060469486764,0.468811516867097,-1.12695674411747,-0.492274036269138,0.193965780939409,-0.674371457754754,-0.462083091833076,-0.220351794486913,-1.12135521233449,-0.158737391936747,0.14020291921155,-0.868851494087998,-0.408579391099499,-0.120072488288938
62.675,-0.166167997998586,1.08181830845345,0.964307600981259,-2.27995138574186,-1.77424684855671,-1.50903054809512,-1.795561209744,-0.0574927664609359,0.0351872353760623,-2.71626606200068,0.838215358204149,0.491300874532903,-1.23299276599509,-0.587190041136547,0.191661767540977,-0.820710412134556,-0.537909491122724,-0.818515812965449,-1.15589794756657,-0.139685108966854,0.136244654100964,-0.915401018220307,-0.466306505023025,-0.135518501629661
62.68,-1.20987772253339,0.439733471674965,0.722752931528072,-2.03711254327497,-1.29510816920116,-0.987376786374613,-1.60343555632304,-0.222299519653275,-0.202352581094565,-2.7168321678309,0.867249483172197,0.436744648969219,-1.36386427647344,-0.511800783978573,0.198147318363983,-0.576794454627216,-0.548064051655536,-1.34866679122846,-1.18880790573188,-0.125110082748321,0.12639312367279,-0.965573239825083,-0.524400856155331,-0.142729266226778
62.685,-1.38818411503833,-0.178591082664015,0.628398744635223,-1.96291303558913,-0.808988687899916,-1.06745636871072,-1.34840481888984,-0.493196766766363,-0.434012637101666,-2.51986886705354,0.915620025554852,0.387053567381864,-1.46184542733312,-0.281228070156474,0.177145181173139,0.00870214438708534,-0.50082190780645,-1.5086369036466,-1.22307682037914,-0.11064663034248,0.104869657267892,-1.0218400774821,-0.577599296302156,-0.148908582686367
62.69,-1.22422303498415,-0.458740696690035,1.02242092702683,-1.24607451332557,-0.632156981670725,-0.857458544619581,-1.1599169422335,-0.801305985820276,-0.410117575779171,-2.06106806076029,1.12907702171763,0.313521324084817,-1.5215996908567,0.199830412224988,0.106717415925534,1.35956869182733,-0.403398954642588,-1.19213389928607,-1.24964271450452,-0.0972431249446067,0.0811240681410391,-1.07417853714088,-0.632745757172614,-0.153319017777039
62.695,-0.49757598861139,-0.645277515040203,1.07378255278209,-1.09383622156538,-0.463835779572228,-0.347404335446709,-1.2224785916698,-0.865594496842558,-0.208855230817913,-1.47006662831786,1.3712320695769,0.195513473020954,-1.4812144064406,0.508253553564437,0.0105984237831479,2.71732172926857,-0.318385784651218,-0.634519061791617,-1.26575527350637,-0.076505539264934,0.0513925620375466,-1.11807683858066,-0.692951113445636,-0.155367732048035
62.7,-0.137529196479946,-0.336130254301341,1.02616748687095,-0.529143601007871,-0.361161902398333,-0.0059683520344672,-1.36622780264347,-0.681593819144019,-0.0767992357907539,-1.31258094461149,1.52430966980162,0.0807564004379899,-1.32983430267917,0.570212806329037,-0.116733991212869,3.66594348494228,-0.284672168126387,-0.1455631098972,-1.26661018094237,-0.0574046766291356,0.0105510285102852,-1.13181114529695,-0.735847387340965,-0.155367732048035
62.705,-0.242087847215478,-0.0599062471785778,0.937427508249809,-0.251928245445266,-0.40210871428912,0.105964353132661,-1.44202409341818,-0.327349846908313,-0.0469048402548298,-1.61175695466434,1.56033490870899,0.126536062037463,-1.03793282515612,0.311242677298572,-0.328258978647897,3.64827963884284,-0.407684512001267,0.0238715894115229,-1.25159362511069,-0.0493820627543509,-0.0192298734492785,-1.11788443706208,-0.747256457805634,-0.153162461832698
62.71,-0.400629444956734,0.109954223223577,0.902578158735281,-0.18285080771626,-0.330122856821392,0.117665967641026,-1.33865689572353,-0.0580719240544939,-0.0319725309901281,-2.07930435573731,1.52743166595119,0.28959798339256,-0.834039579139582,0.0772993812688808,-0.548117346170492,3.05047161585919,-0.574045619531969,-0.160653891267454,-1.21605874234292,-0.0342425753063171,-0.0654022132191914,-1.04637944949148,-0.73173486278692,-0.144462583179869
62.715,-0.384822462613749,0.116568419597024,0.895646849658178,-0.142224091650367,-0.232213408107399,0.167813865256548,-1.07699917267565,0.0001097730647351,-0.0720810573046251,-2.52687968848711,1.41313344613526,0.494354887588345,-0.774554965740742,-0.0150847440567003,-0.874548065215851,2.48731702893236,-0.668889587141967,-0.506428522206214,-1.17284330409615,-0.0232337083696014,-0.0903952104408497,-0.953009940509092,-0.685519948361691,-0.130791701913501
62.72,-0.366438967326929,0.152415731984927,0.857652217481607,-0.0726355228796819,-0.101392816764036,0.203228342175852,-0.804223330749333,-0.0927373375311982,-0.141125939251005,-2.61161618623748,1.3033249989474,0.602059910162153,-0.777461579995632,-0.0278107581605919,-1.16707741667148,1.95627737638423,-0.688502491023042,-0.833312913838581,-1.11472054182434,-0.0096267969759117,-0.0978649330190465,-0.817079355698727,-0.605571198780037,-0.115868872101466
62.725,-0.426144325820586,0.224889107914185,0.822249515649097,-0.0456634730961983,-0.0352832871126562,0.181497416794646,-0.626842464316463,-0.269783726488247,-0.204504456417661,-2.21972729530488,1.18553482887462,0.640677184774732,-0.806248172867716,-0.0188008983678282,-1.30545209229909,1.4537842474768,-0.569486376686838,-1.04280765869129,-1.07250490119873,0.00947217369863947,-0.0804818565384059,-0.659987859041748,-0.520207985305533,-0.111615632178222
62.73,-0.476649737358125,0.329333389520625,0.79152406454086,-0.0555834422175752,-0.0450550651395354,0.13701811895721,-0.643585947741048,-0.322178999184292,-0.198493739413858,-1.61370418429215,1.1119196797514,0.640570250355883,-0.858670722474253,-0.0445619908415118,-1.22232192903187,0.653620888908638,-0.361748013554673,-1.20835466004389,-1.04465434206241,0.0258917170199552,-0.0479184176864295,-0.499078257607093,-0.424350193094055,-0.118554101900117
62.735,-0.423178726753177,0.319814777137288,0.805587283315327,-0.103282165476286,-0.0877096253016726,0.0828034056319776,-0.74689499830666,-0.281741104392444,-0.178712079069857,-0.981027185151072,1.04822528878999,0.641126377969533,-0.891390295014396,-0.0903050494968139,-0.995372304540106,-0.198449784051709,-0.234886591433216,-1.24866031257173,-1.02440834107714,0.0331327423049081,-0.012973040413574,-0.325108173722034,-0.330785743102823,-0.142975349130295
62.74,-0.376905424497805,0.251227511047944,0.825446197725739,-0.108984611127113,-0.1303338247076,0.0361555094755604,-0.866860178195815,-0.196019542127443,-0.155136149973441,-0.393008894221323,0.985938765477457,0.661517087872095,-0.907282339280552,-0.197968277518373,-0.624695912603671,-1.23993869865732,-0.140192538061553,-1.22583011000298,-1.01114956309178,0.0297785266605967,0.00339593162118983,-0.204796266497948,-0.280913014422541,-0.167625418553252
62.745,-0.377528109845369,0.238429997024761,0.825530614678936,-0.0804644212615051,-0.131846120793166,0.0217106089224051,-0.988268725789749,-0.110057004049485,-0.141421493125592,0.188653616156479,0.933302969563337,0.712602683315651,-0.879650641962039,-0.311064868165478,-0.255218578623805,-2.06002420194398,-0.0642057669931931,-1.18335800438985,-1.00303874819917,0.0331389166000799,-0.00699061057826755,-0.136331041930825,-0.255336286106735,-0.181486046474983
62.75,-0.405915179892445,0.272425928590615,0.818069843120125,-0.0483796509379433,-0.102923992516741,0.0201351638186906,-1.02477282713082,-0.0360719521679722,-0.134989190362808,0.557516020914865,0.903172996913425,0.721089707167566,-0.855637645613391,-0.413721604289605,0.0709335187455679,-2.46233786675145,-0.0159474277919513,-1.11956411527363,-0.989303001296017,0.03589037122251,-0.0368779926873176,-0.135260607776776,-0.235895423627921,-0.178270060529379
62.755,-0.401694753663809,0.271466780202736,0.823381765961589,-0.0430601167767685,-0.0685460264435488,0.018209649227461,-1.04877000525563,0.0650784193394962,-0.13813159533263,0.908637455042162,0.869734052203366,0.678410063736113,-0.82516363254078,-0.502213039861355,0.386630948408088,-2.39210514016409,0.000872776698570655,-0.980429953374392,-0.969582567621752,0.0419684920094608,-0.0720073991144174,-0.19900786941562,-0.214318942081251,-0.165415981812822
62.76,-0.384583019388121,0.246406152232906,0.832246235250576,-0.0208387680098286,-0.0446626728880022,0.0193543181344036,-1.05522513783313,0.146700073092087,-0.135875879101034,1.1027599292482,0.848245215989417,0.626317200861382,-0.793132714140306,-0.518057537503249,0.554394041208856,-1.95577764049323,-9.54845551763737e-05,-0.866942609860414,-0.944268301407123,0.0456880572623932,-0.090406438623793,-0.311883943068211,-0.158893032304632,-0.139527859688878
62.765,-0.384725174172021,0.231769124090062,0.825526716402022,-0.00991010650360861,-0.0199473434377471,0.0285420702517553,-1.04821358271422,0.225601841345854,-0.13247024462748,1.15089599465738,0.824715137643973,0.571666577850995,-0.805828654321524,-0.460319365580126,0.653384282338964,-1.233204894675,-0.0270385231591833,-0.768078701890925,-0.920777297849039,0.0524177233301369,-0.0913705672093322,-0.404504119040958,-0.0937902167395611,-0.113940304164135
62.77,-0.404596405040147,0.234214363754826,0.828423970807165,0.0041712065093796,-0.0250036232714254,0.0407006556435236,-1.04885396369607,0.304091000852735,-0.141236443742852,1.02316167104335,0.764562456585994,0.489707016813218,-0.856333767162417,-0.386323258625062,0.678443386310998,-0.736388907843761,-0.107167043586858,-0.758632090149014,-0.891662271606993,0.057511831673602,-0.0718953526444873,-0.520397796134919,-0.00137470175845608,-0.0888396174423003
62.775,-0.410971673336668,0.228873767816788,0.833864270587055,0.0132487393687635,-0.0212537438718431,0.0629947072437174,-1.03943580787389,0.353571477949438,-0.159575709934077,0.783603482721254,0.728541619845708,0.428672708317323,-0.948890888599281,-0.258642340554513,0.651193908835352,-0.367176531120056,-0.231062941230697,-0.784481427056379,-0.861229314106249,0.0631392928095944,-0.0522514292404498,-0.5800708672072,0.0585019468819567,-0.068454709206161
62.78,-0.408724471549898,0.206705441118506,0.837453723714501,-0.000678466029961213,-0.0170712549534114,0.0788343010360627,-1.02848618078018,0.377752779341747,-0.153542371819511,0.436841352600712,0.684345915354876,0.365692804355667,-1.0081253420423,-0.193894010296648,0.578977827704263,-0.0749471545864272,-0.331376858855682,-0.808163537022262,-0.832012513020605,0.0681452586053718,-0.0488839687268982,-0.628203523027593,0.0757346966547576,-0.0428722715056697
62.785,-0.399327002027691,0.211420757214152,0.840205016368086,-0.00841756502296582,-0.0142632685601711,0.0921009323473787,-1.02701391893549,0.415904103126196,-0.145886247606012,-0.0967743617995364,0.63387699834009,0.313840818651654,-1.03124247995848,-0.202495245249194,0.464907921867658,0.227919464972778,-0.395371318354417,-0.869681978022649,-0.804185510602847,0.0589582133628132,-0.0612200144798267,-0.66919921966736,0.0410152891510856,-0.0118634440599219
62.79,-0.402542454047166,0.226639418606325,0.843168629972963,-0.0412068031080952,0.00120916457868268,0.126157553827642,-1.02868262165893,0.38626586050182,-0.129086684993904,-0.539499298105133,0.592721135914547,0.315842255081716,-1.01799021675089,-0.265757906238932,0.34925602943739,0.506174596788499,-0.41624853014946,-0.937743261711965,-0.800608241600737,0.0494908722763227,-0.0705699458792047,-0.702691620921193,-0.0380513061456121,0.0196803654833632
62.795,-0.393934592097405,0.230868310470487,0.840073617352555,-0.0427719788084457,-0.00824738783259988,0.120281032933198,-1.01641729336446,0.296880509920234,-0.127802343889909,-0.952643015113707,0.549676602292398,0.330524642227798,-1.01051335327833,-0.293230561213643,0.282980035662101,0.640144116707922,-0.412009752899238,-0.957651391040137,-0.797733854197041,0.0252263191560144,-0.0806949506414728,-0.750196066110693,-0.123338363814894,0.0487963399953671
62.8,-0.388862256168707,0.232288381351941,0.8422187021835,-0.0826605614129794,-0.00693310238420963,0.104361739454208,-0.9976128009912,0.178775007465297,-0.118611132778433,-1.14353525262482,0.517486437326081,0.350679985073387,-0.997984696530936,-0.277566882203624,0.195101423625152,0.748306632947157,-0.393933834657674,-0.953815776819663,-0.804394678187349,0.004474734400804,-0.0817910889546316,-0.790024680334387,-0.160689063569182,0.0798695547421697
62.805,-0.391777324714843,0.240925924563472,0.837046773858834,-0.123305798437819,-0.00810018343383924,0.0869611081808466,-0.984901923162446,0.088360315100358,-0.11062340013344,-1.1724060148131,0.509792884299407,0.359293058052615,-1.01813409401909,-0.238267482908352,0.143477566682164,0.753543916402605,-0.373434291995177,-0.937072816549089,-0.821663887637246,-0.00481896624986542,-0.0735708237358077,-0.830808125340192,-0.160569142871187,0.112138985488202
62.81,-0.391850920688095,0.25411670231362,0.834342772674363,-0.143524728427859,-0.0026683297138094,0.0707866260227223,-0.970525555659354,0.0327362117909529,-0.10259760944893,-1.02888339457748,0.486780262451634,0.368563843427044,-1.05278734606766,-0.141032892264852,0.0910513713066645,0.668574861130034,-0.338458500105984,-0.926657827732432,-0.847857096436203,-0.00728721797342778,-0.0609664818890152,-0.86811411427344,-0.0949529299134804,0.137822696028604
62.815,-0.380634167358416,0.243801082268382,0.841133511808561,-0.153474420879336,-0.0225189536260696,0.0411885345751353,-0.977377345788076,0.0127551085806034,-0.101529387369148,-0.735791282529961,0.482299517962744,0.377090886696862,-1.06767121847955,-0.0754128777463205,0.0717622618700447,0.560475854304401,-0.279195856748176,-0.89505470793114,-0.875735930335948,-0.00234983016361071,-0.0457243231974054,-0.880825965344868,-0.00132870322365682,0.156048191286744
62.82,-0.374816225905215,0.221086776052853,0.850990821074632,-0.141955232022379,-0.0264802128076553,0.0178643847283792,-0.9915254007678,0.00765180774687999,-0.0927065999011097,-0.374252012242888,0.478210142645771,0.383380491522475,-1.06345206907356,-0.037565687643152,0.095124862668355,0.386114935036047,-0.194869637607051,-0.855115562633229,-0.915820941097159,-0.00251009225875482,-0.0206089186745812,-0.858548143189037,0.116513301259165,0.170420032379867
62.825,-0.370246910250789,0.209971337167056,0.852578903930471,-0.118077946050239,-0.0253050838022654,0.00243595974426599,-0.991801771330483,0.0016127885209509,-0.0983526337858267,-0.0208067439193658,0.472089162748676,0.332900673653886,-1.04524973846229,-0.0305014363894816,0.137558841170243,0.236772926662164,-0.103305061326106,-0.803458706427144,-0.957460292454545,-0.00590592792052257,-0.000566508237242392,-0.814730409090252,0.212876146485889,0.178913049716482
62.83,-0.381411194727695,0.203670127149014,0.848307350529655,-0.0674769028819666,0.00213061972063282,0.0164678439763217,-1.0062304170426,0.0694512439656283,-0.0897841321734635,0.263475690622094,0.470146887673822,0.276047363523137,-1.02217967749924,-0.0399727228588219,0.196925503847966,0.173189242291745,-0.0315739251230718,-0.765357928581264,-1.00007863243607,0.00448700253487681,0.0224981057742924,-0.7549835387047,0.264585583401967,0.179996467323142
62.835,-0.376409771395648,0.21482135815493,0.845345443143179,-0.0394515666961231,0.00854281156468079,0.014381912947223,-1.01478698618152,0.117592894211953,-0.0883493178132145,0.466538102677928,0.462722371246806,0.249031875050005,-1.0016024514853,-0.0661520995502103,0.251022358866344,0.165041791314539,0.00313329225670425,-0.703681557610787,-1.05925041965481,0.00691851595875496,0.0416354038274653,-0.670497271188918,0.287408571118678,0.185084545581149
62.84,-0.37528404084603,0.203878962210792,0.84285881397392,-0.00435500081556118,0.0181676176092635,0.00786039449640138,-1.00338330759145,0.132334617779544,-0.0833560024586233,0.572082076102269,0.450852166730176,0.232042996272558,-0.985031733845732,-0.0869228581893794,0.25597542422666,0.212034824953766,-0.0046941994333154,-0.665917883311016,-1.11466625892752,0.0153651423546079,0.0451719346796666,-0.573477675926731,0.270935135405254,0.187121023600336
62.845,-0.379826357362951,0.195341281846724,0.845433762161524,0.0177719466707815,0.0246310290727273,0.00572852231562138,-0.995952467755365,0.158903235380489,-0.0810187718053169,0.551965524689988,0.439372680194465,0.205608527317903,-0.961414728616658,-0.101369267614495,0.221737566503696,0.296921979832707,-0.0150302532417043,-0.621639231825163,-1.15719414153179,0.0180676456660793,0.0388076126375517,-0.496366686292285,0.239915603660664,0.181163343927812
62.85,-0.387064486188292,0.1952664923258,0.83831494182897,0.0300910788703069,0.0282722318097618,0.0157515502015994,-0.986887702896917,0.174807375584974,-0.0971743895461343,0.494857686763035,0.4289556190384,0.162925740837264,-0.954564336859444,-0.110891339396421,0.172699701870988,0.367777362371783,-0.0183346715263758,-0.598034933862032,-1.18645754298839,0.0173172612540907,0.0140402156575365,-0.401227926733849,0.193356094458746,0.173733956935664
62.855,-0.392506204513375,0.209977207543339,0.829696231720837,0.0367461740383427,0.0287930559419646,0.0172851189156653,-0.978041920411918,0.170128062606092,-0.0954917257865179,0.396666399083116,0.413169723949686,0.127946887878002,-0.962062186119281,-0.116321251063748,0.124978222221583,0.44535094224264,-0.00193346020426103,-0.587222215340878,-1.18915704355495,0.0224969852974637,-0.0063743519252924,-0.354284383814506,0.158724136982022,0.160965035802719
62.86,-0.387694964982113,0.221197887231404,0.833110993074008,0.0241433261214738,0.0204916694923167,0.0196811827201497,-0.977346821075246,0.15626496840843,-0.100920100307423,0.236056885871563,0.394277086888429,0.127684675143587,-0.965534626834763,-0.119497268318894,0.0850595050256349,0.46636952386629,0.0114439675529052,-0.576206098916589,-1.18713544177255,0.0242270926506518,-0.0270393537253296,-0.32277580634777,0.12435238109294,0.148518718144658
62.865,-0.379239804079548,0.218957556024874,0.839086228663189,0.0054320217291581,0.0187224838882685,0.0215648079993496,-0.983764589741147,0.147259005165036,-0.1063451417609,0.11464573368037,0.380632786590629,0.146174165330782,-0.96643819293849,-0.121477680942583,0.0525329086202326,0.421124182373932,0.0126486897721773,-0.578061230274529,-1.17705551101616,0.0240682457961726,-0.0406363908101956,-0.310487540922752,0.109808440695261,0.137180468962712
62.87,-0.371967154532011,0.216669600871005,0.843429343965486,-0.0119103160586382,0.0106523565480698,0.0150203437080395,-0.990730958722174,0.132481569733203,-0.10593201964922,0.0313417724710212,0.364601107261154,0.159629334455778,-0.976577223388976,-0.117277268774084,0.0027465019156789,0.310501468575433,0.0125615659116619,-0.588687069911572,-1.14965878467793,0.024839690181707,-0.0477272910621881,-0.316840282273673,0.117582206506997,0.128258935306016
62.875,-0.378054186340614,0.209407595568351,0.840383672024098,-0.0352092607663228,0.0126140099018812,0.0140949630862456,-0.997528893729166,0.120535936719475,-0.114202839490931,-0.0489304366355339,0.347678829351121,0.184045452311384,-0.988689096863552,-0.10978422006276,-0.0276438651640814,0.228935723344505,0.0285720960863266,-0.608226600871801,-1.13566360775315,0.0222354576353958,-0.0516749455807229,-0.333139812272789,0.133160579975649,0.127898357040784
62.88,-0.386114435256665,0.196355349994643,0.84380817011893,-0.0346289030203043,-0.00121074823263904,0.00599755757052457,-1.00345805439048,0.114189070563446,-0.125450582909868,-0.101320826528057,0.341393900927983,0.19936736512773,-1.00290166429634,-0.105921142749216,-0.0490558288643365,0.0815906410102488,0.0510614760052532,-0.624036954475429,-1.11107558111344,0.0212908121024746,-0.04706481039968,-0.363373219903624,0.149064063594568,0.124807244341461
62.885,-0.384507017468418,0.195068715982934,0.843918482572075,-0.0411466085868082,0.0165141060089416,0.0219935652893622,-0.999836110446593,0.110887025957459,-0.134003131278794,-0.101089309117183,0.332953863668562,0.203123764561813,-1.0035549612435,-0.107532184705156,-0.0518677427282382,-0.0653204451226703,0.0623547112313345,-0.656431866312912,-1.08736705699244,0.0214138132099776,-0.0407113743844394,-0.389997869152326,0.168612080210225,0.124400317668915
62.89,-0.384575152997772,0.208878683142644,0.838958872150962,-0.037022412206151,0.0245773285373845,0.0370317723512803,-1.00700205974265,0.105025293366097,-0.126905993973146,-0.0678862008060188,0.322373957679961,0.202753947423194,-0.998721776519241,-0.122863324802337,-0.0416052187559559,-0.221727730858572,0.070810851085923,-0.689308559192854,-1.06873574317249,0.0135983923271261,-0.0331824698547295,-0.415177983646903,0.173186985924712,0.125208583725946
62.895,-0.381057941046751,0.220767547935209,0.838494323077062,-0.0249924300565124,0.0252738782409081,0.0404908409668804,-1.00204822329569,0.10424957154721,-0.129120241471359,0.00926065908575102,0.307226985147732,0.190850338476408,-1.00120835826738,-0.14403067846729,-0.0220290279562468,-0.362628598292655,0.0547405383740284,-0.731413433025475,-1.05091143759187,0.0122654937075785,-0.0229921953667374,-0.433993289660077,0.174326357844319,0.137838959693909
62.9,-0.37038865508827,0.219692986890267,0.843712928759852,-0.0146392902844782,0.0357512430538096,0.0462438024057505,-0.996331876142655,0.103924225043104,-0.132455647061775,0.142386088883123,0.285064504989432,0.164457314665968,-1.01195410374211,-0.165224906547816,0.00646429634805388,-0.433941180545684,0.0342645363493249,-0.75330307785532,-1.03350566243633,0.010790302458123,-0.013031498997329,-0.441477250325824,0.161914464032218,0.15056341373625
62.905,-0.36916442104531,0.224443269046649,0.832550720167759,0.0042090970453139,0.0418223483821191,0.0473223012405564,-1.00209516845098,0.0992537164353649,-0.135279831666659,0.2541509970423,0.270862495825697,0.131567958624541,-1.00976866959063,-0.197602700725684,0.0473487951298082,-0.524569560027593,-0.000552662833073932,-0.774735235222437,-1.01332853921451,0.00903596363484985,0.0050707109268871,-0.446498355551975,0.15348202855943,0.166227235065346
62.91,-0.382102947706955,0.224579598137819,0.833704358350245,0.0102572052143738,0.0387591811317273,0.0453100610866836,-0.994573705559372,0.100114629269972,-0.154280848545647,0.346590812665805,0.25308134399559,0.102069363288396,-0.975329027260031,-0.211722577284305,0.0651746313056861,-0.559370887445342,-0.0175664988980189,-0.805819736851522,-1.00701498901827,0.00637214778517423,0.0181123574852143,-0.44579301190603,0.151568151194329,0.178691502608936
62.915,-0.389971395588004,0.22836814050494,0.826446663952,0.0067738376544509,0.0379496769736174,0.0429320188252535,-0.982453547156559,0.107882318398673,-0.152329934741254,0.441782586152751,0.236802774753618,0.0741810844636673,-0.971293835572394,-0.22059863968082,0.116825354188864,-0.577409286930214,-0.0305837560804842,-0.835153038099457,-0.973121659140807,0.00357298007121832,0.0413670337730849,-0.433154994432122,0.162181398339878,0.189639575654367
62.92,-0.394067893831704,0.22945162403897,0.822577961346551,0.00610480550676584,0.036333538075161,0.0427365380128861,-0.970067584250273,0.11769188639312,-0.146996263261758,0.495908026673296,0.219749003476817,0.0579580823956104,-0.922695733242115,-0.212614299843455,0.142246447736859,-0.552277488347316,-0.0534394831504363,-0.816485498280416,-0.961136749762021,0.0040674152575252,0.0668896062499043,-0.409873822464183,0.171855165191265,0.191181348606134
62.925,-0.394926256627099,0.225978810915134,0.827056759095457,-0.0114772284157561,0.0300150874053203,0.0400350865650229,-0.9565998949243,0.135813208104952,-0.141227588291092,0.510974890022461,0.203713197230661,0.0565194789350664,-0.91393818270204,-0.223892790043975,0.135872320271138,-0.520036631861632,-0.0727358352623441,-0.932882041179023,-0.954565137001575,0.00556307570167109,0.0881344880008964,-0.385228337815365,0.19252298179534,0.203720092562549
62.93,-0.395347719322595,0.216887314019861,0.826443108864153,-0.0245998079820195,0.0203463210384328,0.0417220590722589,-0.956912477587571,0.138716550209759,-0.135633447470988,0.475476452634503,0.191857163305957,0.0653762115048239,-0.939274559916846,-0.232228030408578,0.154002318656121,-0.443958806661268,-0.0922823870149784,-0.907029901256094,-0.926035055380549,0.00257097843677762,0.102081976282166,-0.372134147095276,0.210339473243425,0.232518707257439
62.935,-0.388661309372288,0.217482206713067,0.831974657232111,-0.0480563430772157,0.0103743975506875,0.0479279281299929,-0.955517986720917,0.144928301872313,-0.124942438365149,0.402620727210385,0.176146004924891,0.0701792578318683,-0.958189150459518,-0.229312861103893,0.169637125645635,-0.323978050636327,-0.0693511965644237,-0.832349947857163,-0.906213777569742,-0.00116100979286089,0.118779203131097,-0.332577337428921,0.237721249701287,0.22349591507524
62.94,-0.385163078270934,0.213864027798113,0.834465868243917,-0.0664266370465909,-0.000919024961382907,0.049860014812468,-0.961017471496007,0.168978940803535,-0.124338642839528,0.297831052343919,0.160584313252085,0.080860890932481,-0.955906231395494,-0.227447834745581,0.1884876208092,-0.145773107365804,-0.00908237025668641,-0.782336666300262,-0.906419735679976,-0.00202830523064085,0.126825056463994,-0.304439752438187,0.244067797501912,0.196627636053051
62.945,-0.388556745353788,0.2146939673841,0.831341830732171,-0.0836849962935366,-0.0044897124171257,0.0485904327653263,-0.972038305891571,0.162530990335231,-0.138239495762774,0.159558894995833,0.137105999004221,0.0938778379799273,-0.962421469051274,-0.208090761488955,0.193301192620243,-0.0918064085022426,0.0354948033014421,-0.802329167398706,-0.895115563643341,-0.0013206089286846,0.126867370147386,-0.296925817574385,0.212215716572752,0.187168399740304
62.95,-0.401319350629123,0.210292764972706,0.834391274346314,-0.102151227759533,-0.00737057154088062,0.0467006441463508,-0.98178732569382,0.170890567528127,-0.132389359534656,0.0900216326431625,0.137189553123502,0.0890791642124846,-0.978684429589627,-0.179818323310918,0.186250095706608,-0.0407237895183136,0.0747381372464584,-0.759592902115893,-0.891047082402418,-0.00146222431419384,0.116384971933431,-0.273154279748042,0.16114742073577,0.163406710991231
62.955,-0.399413138818556,0.204766763527035,0.835667298659767,-0.111177869141102,-0.012670493728818,0.0458665225328371,-0.991534606295041,0.147365161565652,-0.126183907187769,0.0559026935803313,0.130465081878269,0.0765848428800691,-0.97778650145862,-0.15471967471702,0.165375137039055,0.05413633059876,0.11045166159236,-0.731420934251571,-0.890592925647567,0.00513443000682188,0.0902724359757351,-0.22994597699205,0.10027435643342,0.0996954628840921
62.96,-0.389721511628928,0.200268239892372,0.842941076123173,-0.112041213356679,-0.0184333464120543,0.042884351299654,-0.998073729708812,0.135215995427081,-0.104052601466373,0.0565550484384035,0.135726727622819,0.0648169764576555,-0.994841925201031,-0.129120215387044,0.146131737313259,0.114381442182448,0.154179177001914,-0.707944306406301,-0.900339715888569,0.0106624286170696,0.072652040658008,-0.202095216665009,0.0606835124593015,0.0767522408020346
62.965,-0.389396858379074,0.195571371581173,0.841528779677045,-0.113572774062514,-0.0191500466316938,0.0436010509729385,-0.996295196622171,0.136497757069082,-0.0965731882370519,0.0650034323928493,0.141810595643328,0.0568291358253864,-1.01134139351945,-0.112705210580894,0.143087722649838,0.13460133209594,0.185499998246782,-0.662084500398428,-0.907513094467696,0.0103479522544099,0.0601030518505467,-0.175032666821443,0.00609012240081844,0.0709712173716419
62.97,-0.388184673623382,0.203142408869607,0.841730648962535,-0.101404309272766,-0.0232964367806589,0.0357895801536853,-0.974728530595797,0.147126740460808,-0.088309324827718,0.0863149976067771,0.145538747860217,0.0522577059551259,-1.00716590895712,-0.0976722286405053,0.137312222636839,0.124348399737204,0.198131061647043,-0.620219388948381,-0.912977372158361,0.0142495421973844,0.0505201541384369,-0.16395297409895,-0.0276414643919111,0.0560131340328127
62.975,-0.392340688191697,0.206771765701805,0.841001320338745,-0.0953391322970469,-0.0286424407631753,0.0309949552505206,-0.956427307969139,0.12615306727522,-0.0871611118967733,0.130178640307417,0.154513826007629,0.0433027154740115,-1.01930593025808,-0.074296276934849,0.136677335656835,0.135944064084272,0.21893106724527,-0.590545221101388,-0.935853750455305,0.0240745482083994,0.0420608016644918,-0.147845869260468,-0.0602006987440843,0.0289637995466586
62.98,-0.390021013325338,0.199180635558173,0.84615364632046,-0.0836671048056305,-0.0438554383600784,0.0164522716920065,-0.939187719386482,0.11292026932028,-0.0785611965362039,0.219877876798586,0.168779735364856,0.0176743590960717,-1.03848592252775,-0.0563050213891379,0.135770801675779,0.170122062774984,0.233350371690368,-0.562724381153544,-0.946971511569847,0.0334811182606864,0.0401173114896186,-0.122405536896451,-0.0712136603111416,0.0173204458523712
62.985,-0.380051918662914,0.206651285640618,0.843926867225016,-0.0760384818332537,-0.0402086099403247,0.0166078722421066,-0.941214098430473,0.114864904185637,-0.0706281241988979,0.33855918543975,0.185082530309986,-0.0115099171531722,-1.04649239312971,-0.0436862834211592,0.13958863275753,0.189990175556723,0.238579750061035,-0.489699069629899,-0.956939849989761,0.0461679534962506,0.0479465594602888,-0.0804370144572323,-0.0719102383267084,0.00689927346698706
62.99,-0.37925978367145,0.223352848653035,0.839732280025504,-0.0681556514694506,-0.0426082699868006,0.00572852231562138,-0.964672911262817,0.144965366080191,-0.0617716365207218,0.39266134212898,0.19109489597106,-0.0235226480515257,-1.04705946667121,-0.0446911701947135,0.143060179307622,0.206495463501771,0.244295205761297,-0.450981142425525,-0.962570991839711,0.0571320802862104,0.0536218993831487,-0.0438780626275257,-0.0779508235149713,-0.00326359589577982
62.995,-0.370915846905168,0.232339387529493,0.847197125065338,-0.0618526241786069,-0.0452449291056864,0.00185287235579236,-0.990861053190553,0.159249587574277,-0.0534970591777047,0.399322993207076,0.19748088378439,-0.024873618047834,-1.0466304498461,-0.0540440407991652,0.139309430117761,0.239201390618832,0.247322696372929,-0.425006281138456,-0.965650079946501,0.0632341554842197,0.0610366241460231,-0.00649794194295211,-0.077477254516213,-0.0121388357423205
63,-0.362640297605574,0.221164866748028,0.852036933310321,-0.0689178506449422,-0.0532724623908755,-0.0140097272509329,-1.01000979057553,0.169757007812356,-0.059182655834137,0.370684646617079,0.202608960020065,-0.0228273533284664,-1.04980294455935,-0.0616888297479768,0.130859770717217,0.263676673281949,0.246730754760817,-0.41828574748918,-0.966099309746333,0.06371890201114,0.0640699102815958,0.0322181814083746,-0.0801246975819896,-0.004385837629985
63.005,-0.372611263792384,0.196837488249416,0.855171181470397,-0.0626912657404264,-0.0500100581815131,-0.0268125173153191,-1.01204352908429,0.172508490538937,-0.0872760985757174,0.300946056133764,0.206385712434116,-0.0183000272917126,-1.05378969508318,-0.084919053172454,0.11082390507869,0.269714147163883,0.241588919275497,-0.39288339108032,-0.960748501269888,0.0636207124476719,0.0554908619535369,0.0711893316000359,-0.108974306996872,-0.0003375588309347
63.01,-0.384574758042713,0.193374807878072,0.854975525158935,-0.0515592388579921,-0.0362534628460527,-0.025302332335807,-0.188321429674767,0.027067096797954,-0.0214437397305309,0.043072240267548,0.210374789088294,-0.0288294454980086,-1.04948706271308,-0.0945082967536027,0.0850446124142981,0.236974110381817,0.230027884244919,-0.37020945994528,-0.953014987180986,0.0662070771454288,0.0368344811532971,0.0964557149022776,-0.144130580135783,-0.00181476626797156
63.015,-0.388634363032511,0.19512005737728,0.849396510342033,-0.0519775689193,-0.0302490651625459,-0.0218114886977662,-0.999207086239681,0.139167006435971,-0.12081274732099,0.223080037595427,0.215035451394089,-0.039538709905667,-1.03693561294148,-0.103286282681911,0.0685105549889229,0.227769253681357,0.221701458823202,-0.358425781983331,-0.938088888561007,0.0673458490410597,0.0151383095443104,0.114725148724081,-0.206454843231714,-0.0043721624764898
63.02,-0.390934370116414,0.196842096964419,0.850200774501134,-0.0470072210255965,-0.0306466499194473,-0.0185641866352574,-0.996039460962423,0.134322105655796,-0.125150392948356,0.228329215152396,0.224507259533465,-0.0529005713802013,-1.01901095076652,-0.119107022218142,0.0525557856653515,0.226602538055934,0.200650029618991,-0.357612882211463,-0.936712567152446,0.06698176874036,-0.00579239191345339,0.123299425423498,-0.246884608587355,-0.0107188979130467
63.025,-0.389157431507968,0.204782072738383,0.846671507293515,-0.0452063642442226,-0.0348707622816531,-0.0151478257672411,-0.997221819340309,0.13365724840886,-0.121285964995311,0.247816356980721,0.228668091855218,-0.0604971913333647,-1.00963859415968,-0.129294610759565,0.05423471495361,0.198439744580598,0.182450708980476,-0.365195927384009,-0.935410550960108,0.0713819085891046,-0.023367614438056,0.108112352408013,-0.265083516966423,-0.0169625324031829
63.03,-0.398420456082751,0.214163088960428,0.842329621739335,-0.0486684116025691,-0.0281997648440921,-0.00282333977520466,-0.989932261838924,0.127827328060347,-0.121315503513611,0.238952311885836,0.233054778565978,-0.0660555937861439,-1.00292681055486,-0.149426451071218,0.0651330933423516,0.154592620946966,0.152326256081949,-0.381860663478411,-0.949521132057126,0.074792679495195,-0.028733655199441,0.0850420790143809,-0.249312960054793,-0.0203841975995303
63.035,-0.394851555529391,0.202216430627021,0.847363416919752,-0.05523398083846,-0.0345239546369067,-0.00282333977520466,-0.984160221606072,0.134943121082541,-0.118371769037779,0.230142362235662,0.244139633532394,-0.0706859072621217,-1.00439277935861,-0.165848918891763,0.0836868312679962,0.123752635603817,0.123504019867774,-0.391972521302072,-0.966059768456294,0.0697998645812758,-0.0329561237339914,0.06988396942707,-0.212512998610914,-0.0178093995152989
63.04,-0.390142416510083,0.199008403473361,0.850436448580631,-0.04053300852946,-0.0382040664720071,0.00489321176934066,-0.97569583372307,0.147166925975425,-0.116711263702668,0.229836440379452,0.250813244374543,-0.0808864060241712,-0.999266578787101,-0.164734672872735,0.103353380826836,0.0921170003598209,0.107833988636336,-0.38317946495505,-0.986311329336639,0.0615526431727303,-0.0432728998431008,0.057749043546117,-0.150972365922164,-0.0201544581608764
63.045,-0.391259306521273,0.197604992044395,0.847868059303448,-0.0225455813103768,-0.0374754667282104,0.0058287793270065,-0.962539432030141,0.156780240936308,-0.114068815247226,0.231396767348249,0.255422977548328,-0.102446056815851,-0.993260706766241,-0.142784600492951,0.108066701544175,0.100049642686338,0.0942136232470648,-0.372248355921713,-1.00000309047516,0.0592256902580258,-0.0632612985304174,0.0585981103357966,-0.0947843238088159,-0.018761547980885
63.05,-0.39933263487641,0.21490026033947,0.838608744542468,-0.0199797672421536,-0.0284106574506965,0.0111282462017258,-0.968622976366717,0.141082023012515,-0.100797899666544,0.224049117889206,0.263739273180014,-0.119114723341473,-0.998173547822602,-0.111453588156796,0.0909286372578489,0.19177939767659,0.0900660720652596,-0.362618240758111,-1.01257176057047,0.0530388866751451,-0.0945420727853242,0.065203328201709,-0.0502923197369805,-0.0134898334643087
63.055,-0.398682061727708,0.207873416717269,0.842597970058964,-0.0219941679388285,-0.0463968287025606,-0.00295482709546054,-0.957996939261114,0.120141638920433,-0.0972870133606216,0.211841914478972,0.275984733321037,-0.122053377977939,-0.988644282052582,-0.0963718315787111,0.0352924303124433,0.292862705506796,0.0843172461706767,-0.33815097330926,-1.01674400988713,0.0476438514112653,-0.118241037931453,0.067263725647736,-0.00573946467082949,-0.0114294280268586
63.06,-0.39667440655147,0.179550054178633,0.849306063981579,-0.0237247180589148,-0.0587531278151546,-0.0141234596207398,-0.941429493420259,0.104845928137815,-0.0953931742695556,0.219159474826769,0.293820079333545,-0.115083018168696,-0.982089347376227,-0.0986384886332377,-0.0136134993381027,0.310482680797577,0.0797230236734881,-0.303998843170493,-1.01036163774025,0.0403786120234187,-0.129705928851509,0.0582945542951304,0.0193444571597322,-0.0107870360062251
63.065,-0.396107320786091,0.163972781874553,0.851150263661674,-0.00683711136244402,-0.0841065894172645,-0.0268222452854065,-0.93733862550204,0.0894353073467886,-0.0916925989777463,0.23335096628049,0.300630892336878,-0.102791748128674,-0.990988141082463,-0.0697065328110063,-0.0575381632351843,0.300376651277952,0.0875209124510256,-0.290482641980372,-0.99917724798477,0.0717668009146585,-0.125962299195839,0.0239085993331429,0.0650021517220853,-0.00787125381068677
63.07,-0.391703835818278,0.178610073924707,0.854629213572775,0.00913674206794324,-0.0677235519300377,-0.00771011598408222,-0.935963867950965,0.0777993584263265,-0.0941195515265271,0.236410185694695,0.316408661989882,-0.0930171553994874,-1.00369363241939,-0.0309125786762646,-0.0741714996964024,0.275123928405936,0.105327995921506,-0.288853978310691,-0.995792596000682,0.000251558480605345,-0.101933782720695,-0.0222689461005639,0.106462379773583,-0.00469921326978087
63.075,-0.37967819719444,0.184957813782917,0.856886832115545,0.0290919118249514,-0.0619093552231789,-0.00882035253535414,-0.94960792182736,0.0808569597034121,-0.0918315647674937,0.246138553446115,0.329573271727377,-0.079706534984731,-1.02756134206745,-0.0126443144322448,-0.0734472225662312,0.182565138591127,0.122072161753799,-0.26438907565203,-0.995205291419547,-0.0272254326491152,-0.05049007633206,-0.087810075596332,0.177070275756207,0.00547178413760843
63.08,-0.374923785088394,0.189599122730539,0.861131486700264,0.0520176060537713,-0.0601857496349811,-0.0101535059511662,-0.983262325775411,0.094431121250666,-0.0926945848726271,0.28974256582846,0.346035108952793,-0.0832606938746098,-1.05403695850864,-0.0282947989570535,-0.0642630951947643,0.0545442834592321,0.136420192844979,-0.234507916532437,-0.998630841431741,-0.039451260132855,-0.0047937587150315,-0.130366605485856,0.237714985833644,0.0107723146619696
63.085,-0.368034966874457,0.19629476951147,0.861819174910627,0.0726435221589544,-0.0336962768887911,-0.0089821568823195,-1.00173144852891,0.107174582845777,-0.0874898425667166,0.315180710659241,0.365955623617928,-0.092080165440529,-1.074856352032,-0.0580674002506384,-0.0540469077289236,-0.0664403565934065,0.144098309745204,-0.196454130993254,-1.01109386735931,-0.0603307074418343,0.0487713094697307,-0.145419846257338,0.290392438104292,0.00762696347578466
63.09,-0.35824315278596,0.198231450591885,0.853662071627119,0.077217595784418,-0.0313669927418232,-0.0183488684878725,-1.01742654383168,0.115020505723806,-0.0973313333004854,0.330203311599692,0.370415565995663,-0.0956293510148717,-1.06823740184433,-0.0612236996000412,-0.0364298217376123,-0.147945041361528,0.153349983508769,-0.179315664350676,-1.02377620066819,-0.077181676625092,0.0801144359313198,-0.116123723338988,0.304816770755482,0.00446877592638425
63.095,-0.369733836554959,0.204212662878574,0.850466813757946,0.0832028672658773,-0.0397304674539419,-0.0387282231466908,-1.01250597607572,0.132503536327914,-0.110917219582512,0.354231525587799,0.382397062597922,-0.105086276319766,-1.04816012400171,-0.0423832685170688,-0.0209759189374961,-0.186575571983663,0.163496055546871,-0.163535565030937,-1.02771772536237,-0.0882147393549161,0.0999468506159606,-0.0641274271377211,0.282705060220486,0.00495527069123226
63.1,-0.375217891269062,0.206359150403643,0.850214833697528,0.0857265250928269,-0.051419162301011,-0.0523429190560157,-1.00562493215552,0.152486822951755,-0.112989108788723,0.418242590687902,0.394452723540938,-0.12257291869859,-1.03926892566076,-0.0352655944255301,0.0075747210447321,-0.245009536669169,0.158660384390595,-0.146966939848731,-1.0480285477796,-0.110860235481519,0.119883587693876,0.00127132731362936,0.226676622362271,0.0127753538028582
63.105,-0.369991711449954,0.206201126934097,0.848296743512532,0.086626247100923,-0.0451368153798065,-0.0611334906008647,-0.994495322767075,0.158329774895712,-0.119692122608896,0.474530799255691,0.406544546581251,-0.138090451255812,-1.04038433738619,-0.0428593344479112,0.0352324830646921,-0.307424973267918,0.147558004976001,-0.133298079272525,-1.06534979258418,-0.136931943235414,0.126668897244567,0.0629132858739684,0.156153216825497,0.0256611287869557
63.11,-0.378150294693332,0.246479604166473,0.838372874826755,0.093313108193972,-0.0440864062306406,-0.0617503884426122,-0.993777392202663,0.165426349964407,-0.1276372797057,0.40614014797554,0.411595426855553,-0.119805948829228,-1.03165162950856,-0.0570034771198529,0.0864513461421772,-0.431359794695184,0.120953874086175,-0.127802382780871,-1.07770340662718,-0.164312911168557,0.134092338211882,0.111166975894651,0.0820257497468533,0.0421161941033573
63.115,-0.378313792729654,0.250030001251462,0.838711010692925,0.0892793989399923,-0.0482719751755688,-0.0793575648060702,-0.992837320504062,0.168910172147512,-0.127682861975204,0.255421374708774,0.416952705733592,-0.0797647579882564,-1.01795709139195,-0.0697543543823361,0.117824755955263,-0.508540505343233,0.0960084048002026,-0.138332103535718,-1.09188496066941,-0.181555184508152,0.135927862673466,0.16578146982368,-0.00627313568135284,0.0533425431286589
63.12,-0.369417139794846,0.250594791008435,0.834645830727182,0.0792920584185671,-0.0431144515905158,-0.100161756996016,-0.990739234896963,0.170516013504032,-0.129478276703016,0.582724376176366,0.41932001709938,-0.190774150405153,-1.00488884108424,-0.0883233766793575,0.139503988203073,-0.520625440800583,0.0659742027619838,-0.153034042854718,-1.09221099843889,-0.176647317736583,0.133977638601467,0.208019991105949,-0.0660124616235754,0.0555795212372686
63.125,-0.369703061587476,0.257128005464685,0.833691866544596,0.0698825998037214,-0.0469494009180603,-0.117063379618275,-0.989455083052895,0.169507167237527,-0.133785035949797,0.612577642555985,0.421636140381334,-0.212520948048144,-0.986639259225053,-0.106254290014103,0.153401216231593,-0.508995186792949,0.0307524135513909,-0.170646397424393,-1.08332077635542,-0.155911086083509,0.125872650524593,0.266637977647011,-0.122461026943728,0.0460338389503711
63.13,-0.380496524695786,0.265709037963422,0.825943705178368,0.0561283767312611,-0.0577341994162891,-0.129731520714266,-0.98594232871946,0.165892233992815,-0.133239469403601,0.61026220865351,0.422716451620363,-0.218781757557553,-0.968965490584687,-0.114379627050123,0.157015200905403,-0.472682297752591,0.0132732432140072,-0.185645750169399,-1.06848422483676,-0.13813264799967,0.112190510756506,0.302259120554221,-0.160642709334145,0.0376593481574371
63.135,-0.385018795170198,0.266986806862972,0.829968482030581,0.0196959767265127,-0.0619603911993492,-0.146830759965081,-0.973532413376678,0.166337364523281,-0.132058292265475,0.598805848529395,0.430990606334,-0.223473569942498,-0.958016728191519,-0.119309037539094,0.151298457410201,-0.43358027708174,-0.0155157146717198,-0.205640705708254,-1.04122889598652,-0.106595443573487,0.104238256836123,0.355730757122374,-0.196799927790658,0.0289991710143011
63.14,-0.383705273659545,0.256620214021545,0.830684195350663,-0.0048211776344975,-0.0615148401862753,-0.159331746447972,-0.959159723268662,0.164966731335426,-0.133758524513109,0.555241212780263,0.430315256118774,-0.237826182030937,-0.955245797364608,-0.130364761561589,0.137667379180588,-0.412311467531586,-0.0236982272380385,-0.224450462153469,-1.01297391339842,-0.0806562384799417,0.0947194053966877,0.379765477095097,-0.20685515011662,0.024633717895653
63.145,-0.382705016402656,0.253296883430841,0.824168828771587,-0.0277663128132836,-0.00234870302846799,-0.163939232401939,-0.957009337398071,0.16264919163776,-0.131801894129399,0.483721685287624,0.423356682403983,-0.245051905147078,-0.957875939250784,-0.151222887911647,0.11601906863579,-0.391109892632573,-0.0342990187281442,-0.234329172600751,-0.985971902844253,-0.0492444143096882,0.089802925864036,0.381781226963634,-0.197233224865231,0.0253362929973581
63.15,-0.383304142518589,0.258328207144385,0.82124148374804,-0.0485155095343299,-0.0517991074781807,-0.160306493583404,-0.955283879081362,0.160700386486686,-0.139456913592831,0.343865616080032,0.425529964203082,-0.200812559490347,-0.950766571956245,-0.153836182377903,0.0966115555446478,-0.345049696793868,-0.0331411095558871,-0.233073668787349,-0.960396936779948,-0.0303166768358612,0.0768462416023885,0.351666719309099,-0.177612842075243,0.0230969078247613
63.155,-0.38655967696056,0.244309071238693,0.823162178679113,-0.0839844611944981,-0.050237690317339,-0.161414476643819,-0.949004255897339,0.145247691618227,-0.142298039894869,0.10591964795462,0.426305406848361,-0.104389134313012,-0.933387746652029,-0.150801485695504,0.0772457854773839,-0.279630471503403,-0.021882137614389,-0.228525328948591,-0.949164047464213,-0.00886063522545561,0.0707762878236223,0.290503512353064,-0.147153564308531,0.0222265168049785
63.16,-0.391082593687283,0.231440572105568,0.829655129001447,-0.112617387656373,-0.057441176961436,-0.162819393555682,-0.947441013478174,0.127466606179005,-0.142510126086822,0.194518482267304,0.430060556567947,-0.235402196645737,-0.967840480598881,-0.157287849511214,0.064779561092577,-0.147777274706955,0.0241894334009678,-0.247070642958806,-0.930133282196898,0.0102979242024359,0.0596262844626316,0.2052612785489,-0.112836797457986,0.0152740328104504
63.165,-0.393571800000978,0.218935979493908,0.839406142236791,-0.139675177063764,-0.0455321349806247,-0.152402841522075,-0.949966315729139,0.105203104369847,-0.137408064338471,0.0941189151743845,0.430376856798067,-0.233082010651239,-0.972581952058654,-0.144307080003173,0.0568282973259638,-0.113663001079433,0.0307743770840628,-0.15924943558341,-0.92645565126485,0.0174577023128047,0.0645286740487885,0.132328388849761,-0.0768694438562405,0.00433789275994689
63.17,-0.392679331958498,0.207172569570861,0.84468379944097,-0.13627893561186,-0.0303049701144549,-0.136401460168893,-0.963450850485053,0.085015573313952,-0.131398413033375,-0.00449597891398516,0.423504376246029,-0.231756245218165,-0.955239242911344,-0.150124229043726,0.0344688052870225,-0.0200532558557482,0.0531992961480815,-0.250169213259668,-0.941252722918001,0.0165603963191018,0.0579206483535307,0.0488359225683273,-0.0489957619479198,0.00462438320446384
63.175,-0.382232412494054,0.191667375994445,0.84370459273439,-0.122365427640841,-0.0204953033789286,-0.130854142210661,-0.973207138729301,0.0666684324053765,-0.126419926171019,-0.103852974691058,0.41245322334084,-0.222047796012415,-0.973090252242428,-0.156738360178477,0.00614785590800293,-0.0266100008784798,0.0405468736017194,-0.247810961259137,-0.942659167474765,0.0117228254944258,0.0518351550128006,-0.0426764255322024,-0.00175279180789461,0.0263813061792175
63.18,-0.36302832857616,0.200344341004798,0.848319656011026,-0.134950538998285,0.00132606166563131,-0.111362201047494,-0.975682904331235,0.0494835348858503,-0.132383207651675,-0.197441023131703,0.403300847791333,-0.212505818010751,-0.992816684271264,-0.156106942811146,-0.024767021355211,0.0424144120825262,0.0284482855349779,-0.16302664031287,-0.944337828499826,-0.00968940692702296,0.0529336686524266,-0.0906563804923769,0.0395644222272036,0.0368948732440848
63.185,-0.361445717252655,0.180661982657443,0.842907016232972,-0.142992410659182,0.0101706217974424,-0.105294253202531,-0.97207679230606,0.0392741900055835,-0.143896606620867,-0.255246677575813,0.412575616340303,-0.19707106355542,-0.99493526343165,-0.165598237851814,-0.0724474466257771,0.166837637142801,0.0295669415940742,-0.0662862671931164,-0.954851926536977,-0.038204946342745,0.0538811231966315,-0.126132092615371,0.0845383981487699,0.0330295121244506
63.19,-0.368637590049085,0.175803920846172,0.851572765569223,-0.137329902112254,0.00215403019937559,-0.109529551579967,-0.966072485644264,0.034204706436534,-0.144372737940227,-0.286033936914119,0.415369167064344,-0.191005025136304,-0.985520498710254,-0.169160210298926,-0.112120567245675,0.164509975589754,0.0255998025478649,-0.0124181375712713,-0.962519206031711,-0.0670033060237411,0.0602736577543031,-0.159970755471242,0.0939999381813924,0.0440692778446754
63.195,-0.370096292046721,0.174646571622598,0.860842122914121,-0.140177981895089,0.0196930819384813,-0.0875013602680001,-0.966304803395567,0.0177929211021286,-0.15020731836256,-0.317422733546404,0.414097019177022,-0.181044280108919,-0.989378418616221,-0.178565958941676,-0.147935247970982,0.126818441989086,0.00808570139635006,0.0268397769126397,-0.972021579555554,-0.0978969835871285,0.0596376165301957,-0.177581567623091,0.0811496162520873,0.0519239158443503
63.2,-0.366526811505761,0.158892808939972,0.856612507661533,-0.138733835262523,0.0317086682325482,-0.0797900930047035,-0.965409910900719,0.0126941085608885,-0.157396423913126,-0.359646962127727,0.396608594664702,-0.169856046810542,-0.987999090592981,-0.186679436565703,-0.165233343481272,0.0810583095607477,-0.00557365040018127,0.0493359994316064,-0.981604147527715,-0.119775022682458,0.0588931084537831,-0.181450092070016,0.0772368622634069,0.0510986521840096
63.205,-0.364514412118095,0.140612000372553,0.860208443652245,-0.135080184235436,0.0304638571489078,-0.0804802019970335,-0.964777889739384,0.012568696853752,-0.175916818852415,-0.409531748974625,0.379915832692493,-0.157566311018177,-0.979838610726197,-0.201967997734812,-0.171963598781516,0.027606253590265,-0.0136980081933684,0.051468489158572,-0.988287783005947,-0.14052912551425,0.0647157371575193,-0.172840901105709,0.0908575098037013,0.0550059371900791
63.21,-0.359335513378953,0.145734738777498,0.859335815358488,-0.111455137734092,0.015196031646706,-0.0759791586427453,-0.970372918572176,0.0157209827868411,-0.20992368359744,-0.43064345197771,0.371665494870206,-0.142042835715936,-0.965482653909127,-0.221006481298612,-0.17066715240362,-0.0182533273697388,-0.0177321387872384,0.0412853870308366,-0.988858601550225,-0.153364753606382,0.0668032208771459,-0.153192403000355,0.0999706807421578,0.065094163855877
63.215,-0.36445145878882,0.183970828604797,0.850060797831102,-0.0923810073520937,0.0151516870048602,-0.0506539390811957,-0.975939904994807,0.00990190926192417,-0.227258823219856,-0.411957171185359,0.367735088282751,-0.138272364231542,-0.956471940078412,-0.240147335916162,-0.158513016417296,-0.0822841451113729,-0.0191589029126822,0.032422030417162,-0.99006884328777,-0.162332232755001,0.0805211153431176,-0.123111548298194,0.109146970467715,0.069422811044667
63.22,-0.382567209515631,0.186339675182271,0.847688184917929,-0.0879475806000269,0.0166802957684609,-0.0362464804049272,-0.976268190318798,0.0108965892280705,-0.255563561038425,-0.37530809440287,0.361247189750136,-0.125268275691094,-0.959908631236052,-0.25665934127709,-0.13737782658614,-0.123774937038533,-0.0128579538637351,0.0226109159736962,-0.999282133326325,-0.156147176967748,0.0941222665676242,-0.0519880536358344,0.11706921081216,0.0617949203230557
63.225,-0.392683554355321,0.163265939356696,0.852387009018569,-0.0876338586779448,0.0181945908672608,-0.0321440100669861,-0.985611671883058,0.0183636007466423,-0.270769426040439,-0.330418762295993,0.353676040074579,-0.114668654309759,-0.958939472607185,-0.270243555156737,-0.099711204956334,-0.152178808216759,0.00410703314699957,0.00861377627088457,-1.00723645254601,-0.157496625579967,0.0982862830907829,0.0090280180917962,0.140184193026284,0.0584069270285996
63.23,-0.390863648698478,0.140790295197652,0.85303464354297,-0.0663204905070415,0.0197331040861741,-0.0392183514523253,-0.991696726882044,0.0282815852346205,-0.276681436358274,-0.267880439329098,0.334188359215747,-0.109806020782571,-0.964457141433486,-0.282588614869804,-0.0571095500102428,-0.17962770714715,0.0166597855341257,-0.0120113208019005,-1.0144042449391,-0.157886635826696,0.0910279458159974,0.0725810514016062,0.165304424098782,0.0660486948109534
63.235,-0.39361852669372,0.140745568161191,0.849718733613623,-0.0362934784674722,0.0287753432033233,-0.0362859777698567,-0.98939000921555,0.0371619170672127,-0.277289644561691,-0.228858354668807,0.317311329710683,-0.111538137711248,-0.963188334480337,-0.286549016268159,-0.0243637240601829,-0.216413920702886,0.0196519916008262,-0.0341457079733073,-1.01114133043333,-0.155185811203084,0.0804336432563964,0.0992506867476357,0.169010911159158,0.0718672086633699
63.24,-0.390302493778021,0.173590285915611,0.846444885856911,-0.0163209947151307,0.0333407167788799,-0.0252912403897353,-0.988702803309782,0.0575513391598661,-0.268817958424621,-0.193240720639626,0.29297342297497,-0.106396181223111,-0.953803137020621,-0.290325890624357,0.000710057150603185,-0.234925122325077,0.00268764078430319,-0.0851116649885833,-1.02067276426401,-0.146331750320799,0.0626650496659254,0.103900690580565,0.141418682924619,0.0665655388384796
63.245,-0.407750916906638,0.197893247846026,0.852287698738474,-0.0200614937535489,0.0351515199656038,-0.0224981304924194,-0.997458262713845,0.0686455691900631,-0.242957374693831,-0.157687921946953,0.21713593711923,-0.122293843727304,-0.953770675154797,-0.291456580940256,0.00392492879776472,-0.218541916501786,-0.0108852573614215,-0.12482633853418,-1.01932137660045,-0.134793772837093,0.0599897571499012,0.0960100132512968,0.101450832528973,0.049222806375374
63.25,-0.433321570739966,0.202169238428764,0.84054830649663,-0.0235263666423723,0.0519171517192767,-0.0263257199041351,-0.997882149049214,0.0763477873358726,-0.24381747795885,-0.167340542504534,0.103441361423116,-0.126797417982039,-0.959638254820593,-0.287670702265811,0.00672497092245534,-0.22851935918522,-0.0385550639657349,-0.17222191507813,-1.02285544460252,-0.122947138668346,0.0606234556090336,0.0919192731380463,0.0764333403475331,0.0333461929641376
63.255,-0.429337174939141,0.187210417891501,0.83942382245445,0.00516790191347118,0.0218749416032701,-0.0648763535065867,-0.978599688432047,0.111544798528648,-0.263839763210286,-0.17360374959602,0.0229838622186991,-0.122752743935595,-0.959489973693088,-0.275443172717771,0.0104386777906779,-0.252538571673806,-0.0605718604259237,-0.205446382740614,-1.02960920724325,-0.108542648958646,0.0765299343520483,0.103757603391018,0.072349091922793,0.0184157996178793
63.26,-0.407081673943788,0.18846624132834,0.835503010008765,0.0133693393409474,0.00941085346936758,-0.088639796390985,-0.958720181682918,0.126018532232734,-0.268441354659502,-0.144057916216384,0.00540585553895801,-0.111770771834956,-0.957948826147615,-0.255206766862138,0.0141557505324438,-0.223653037696725,-0.0804254511811014,-0.244173389401612,-1.02919239512258,-0.100720330787648,0.101134559836068,0.128470767604347,0.11127211231402,-0.000156688090420087
63.265,-0.404740552595506,0.20260399262908,0.828555785709572,0.0217823466354606,0.00113112960451284,-0.10727560187032,-0.945115680788718,0.109225539870616,-0.260159947512064,-0.0944806289050807,0.0192677850761568,-0.103127405782914,-0.954357497857896,-0.2385790493257,0.0184847144208284,-0.162141573921265,-0.0920103216633443,-0.260702736487534,-1.03178154571138,-0.0968791990384523,0.119946630163336,0.166805796374925,0.167898309516911,-0.00728512333334921
63.27,-0.407043525961466,0.232827200426509,0.822050705442845,0.0392371954289991,-0.015866163963086,-0.124103419969574,-0.940367163063419,0.0983738906371221,-0.240869627520958,-0.0665816604320175,0.0464072034006051,-0.0985724180936813,-0.968295510232674,-0.229197045475471,0.0262678619541207,-0.121562991902802,-0.103563384854387,-0.254490835822035,-1.02804270183933,-0.0988649603049635,0.129027492112823,0.190212975295836,0.200393984956689,-0.0120687436307961
63.275,-0.397436734850143,0.243839897531288,0.825479332843322,0.020873037679225,-0.00456164377121769,-0.112841776987772,-0.954505957745507,0.0909617871284436,-0.230174394703565,-0.0308673522517622,0.0729709441843475,-0.0997602502364893,-0.980076646098478,-0.215027854552883,0.0351158960082527,-0.0979575372391014,-0.111571302581701,-0.23296325090767,-1.01936620781007,-0.108589703978603,0.115877781158109,0.197840736035294,0.196989593732992,-0.0179279831096325
63.28,-0.378357594027766,0.236206383244567,0.838856927407184,0.0030566428674,-0.0105981845408678,-0.108227748250601,-0.968943952025765,0.0798555649274082,-0.213012381378507,-0.00548532977700233,0.0885412903273598,-0.0942945169589927,-0.987193230535223,-0.199037108455087,0.0416269786413035,-0.0744025899116454,-0.115202690893118,-0.220963258944178,-1.01266949544342,-0.109822888046675,0.088991064923264,0.191071582404851,0.127497966495369,-0.0238873823333778
63.285,-0.365401661622851,0.20937834816167,0.847889789151421,-0.00961029224716858,-0.00722686596190991,-0.10776223068817,-0.986512980606085,0.0719804949648094,-0.199814064178213,-0.00548532977700233,0.103391848111142,-0.090996891269806,-0.995407226024021,-0.188923201384482,0.0370640696166828,-0.0370432242745571,-0.110895471634893,-0.193340359018235,-1.01066111944678,-0.121398565447251,0.0667087669623396,0.168848978646825,0.0201867383888207,-0.0270015207760563
63.29,-0.364687832006147,0.197206411489776,0.858705651202781,-0.0174238568718853,-0.00847126309597191,-0.112639699416401,-0.989460744465858,0.0731180342769246,-0.1884164673723,-0.000682969830842691,0.127081760242174,-0.082513584506978,-1.00438669475505,-0.182393917023573,0.0264139481835594,0.00857146456961699,-0.101094955031655,-0.170906133074002,-0.998656046096613,-0.13060169679967,0.0479519308352925,0.137754891815173,-0.0800052108579903,-0.0283114947378635
63.295,-0.36069440924634,0.180865409533729,0.85060586759259,-0.0116881995079566,-0.00884407806553235,-0.120106004178524,-0.996210208875554,0.0655464247998047,-0.187730845134469,0.00434094673644239,0.14273344067246,-0.0739803681659964,-1.00557148228588,-0.180885650332448,0.0156121790812044,0.03560517686963,-0.0790233578920449,-0.131067160486995,-0.993640316841189,-0.138316201797292,0.0400302695632942,0.100866892298324,-0.146698988723628,-0.0210845630543526
63.3,-0.361958777934624,0.204745481527216,0.836431496190972,-0.00653288873769265,0.00247039565457833,-0.113946844834135,-0.990526089712944,0.0548014166164282,-0.186267453759087,0.00100309972284853,0.164357032940697,-0.0708490082873242,-1.00634292213805,-0.183698891722163,0.0116139714266328,0.0404242625521836,-0.0648796306423642,-0.094581450955234,-0.97791160017382,-0.138726050353173,0.0439839517638176,0.0808941895317437,-0.156214499967338,-0.0151608702908287
63.305,-0.374063172025953,0.256201181957417,0.835313635323311,-0.0187957648563437,0.025960728663537,-0.0802748404914158,-0.983291789001206,0.0574944395342211,-0.177860109950175,-0.0137582390273541,0.164354102741786,-0.0730116595114167,-0.990670595461256,-0.174214843384711,0.000858957405089018,0.0716394963389237,-0.0619568864650275,-0.0823007819410785,-0.969230993500112,-0.144432248160477,0.0501674864879226,0.06165582161197,-0.108124480866125,-0.00699160304496095
63.31,-0.401946763611563,0.253196478762562,0.855723079501418,-0.0375996503478319,0.0360528673131978,-0.0559477993048951,-0.979860846299589,0.0723112988291529,-0.169338841353059,-0.030186113821757,0.125403429983005,-0.0693370480234216,-0.978351670309787,-0.156304493106056,-0.016811471315669,0.142315144986886,-0.0625747883268742,-0.0825957348065941,-0.966817875491607,-0.149785155669001,0.0647468831582877,0.0475994410219741,-0.0326486515061735,0.00361005820120461
63.315,-0.423021524832673,0.179219568487079,0.856359824666924,-0.0587281979117031,0.0130147672548113,-0.0694202525271029,-0.967877235368108,0.0940719479805089,-0.183945890472871,-0.0701020991214463,0.0832166814445415,-0.0559475728945788,-0.974091590399061,-0.143715521420655,-0.0322107508656424,0.203377993190773,-0.0704876866176559,-0.0809937311840684,-0.964672876085198,-0.161263446426585,0.0787646980220548,0.0479293394698595,0.080699411295585,0.0132037801193777
63.32,-0.422605552830666,0.127929978357128,0.852011348515454,-0.017323712521238,0.000764104826706144,-0.0883268795390308,-0.951427487132555,0.0950477121616044,-0.194331394300236,-0.121465577695305,0.0605210804491308,-0.0348328918374114,-0.980379347887403,-0.128869468673753,-0.0335479881678876,0.227931825716557,-0.0713825434511305,-0.0726999789368111,-0.968232205609826,-0.16480363571681,0.0862118834484238,0.0509253880916874,0.137212325356828,0.0171854417104794
63.325,-0.411675497338836,0.145285139179638,0.852962026368016,0.0276882680475883,-0.00571140646934509,-0.0787719144624737,-0.94363466909319,0.0897571058855457,-0.199325024358062,-0.169489871633759,0.0742751073883187,-0.0214606955272442,-0.983361040397329,-0.122495052751873,-0.0260665980165989,0.232294246554375,-0.0792036035196845,-0.0581562807014421,-0.970976612397167,-0.170569621314259,0.0930502590866233,0.0666915139504129,0.215608217756847,0.0199131424543959
63.33,-0.39424035910731,0.170133143954626,0.842823824949727,0.0429467597105015,-0.00875814494345442,-0.0655569834911174,-0.943353328067059,0.0736203435570104,-0.191599011582935,-0.224356270381089,0.11385274938425,-0.0184248909330547,-0.989069031480832,-0.120478253107662,-0.0214532348954675,0.231343205008904,-0.0967207960085533,-0.0510778224913749,-0.979148178803869,-0.171405454436205,0.0937418072276073,0.0879342484345267,0.243763212023256,0.0208883750946138
63.335,-0.365812191950244,0.20260372322848,0.831106651479484,0.0372578679204469,-0.0113110142219537,-0.0517926485152501,-0.960125591867256,0.0667143581152547,-0.183231615942412,-0.271368948256804,0.143090806992701,-0.0243712390809559,-0.987804074589547,-0.115580876203444,-0.0194199105110745,0.206355374804849,-0.112006114636171,-0.0568473292417126,-0.98655814817277,-0.179882549808786,0.0917695993042801,0.11594962475585,0.25317009548887,0.0217578065507912
63.34,-0.351164130283691,0.225963032425708,0.83935358372326,0.0224385682969195,-0.0159099953556787,-0.0346140974662797,-0.967024476448149,0.0632763587934258,-0.175995848793601,-0.317899544089221,0.165703652516751,-0.0275854658915309,-0.991611386387846,-0.113651243060285,-0.0230775823558076,0.17711930885251,-0.113230995047014,-0.0575975122514959,-0.986750092132239,-0.182340530436384,0.0994937068507605,0.140688325433544,0.247107756778202,0.0228131214896682
63.345,-0.353119805173865,0.217668097491726,0.848071630240542,-0.00985989727748131,-0.0114588433248032,-0.0275903092029009,-0.969433884213302,0.0631186559168828,-0.182691545014086,-0.362940426115544,0.186267247549665,-0.0131064285372403,-0.968632568887626,-0.115496837580858,-0.0433064690174578,0.0915529365211867,-0.125025662067178,-0.0613747659505776,-1.0006311191094,-0.181741772705796,0.0994328128652073,0.163970503456534,0.25311452373455,0.0220444351725856
