Header,foot_Accel_X,foot_Accel_Y,foot_Accel_Z,foot_Gyro_X,foot_Gyro_Y,foot_Gyro_Z,shank_Accel_X,shank_Accel_Y,shank_Accel_Z,shank_Gyro_X,shank_Gyro_Y,shank_Gyro_Z,thigh_Accel_X,thigh_Accel_Y,thigh_Accel_Z,thigh_Gyro_X,thigh_Gyro_Y,thigh_Gyro_Z,trunk_Accel_X,trunk_Accel_Y,trunk_Accel_Z,trunk_Gyro_X,trunk_Gyro_Y,trunk_Gyro_Z
10.945,-0.379218869514046,0.16053948526338,0.933375168985769,-0.0913607552647591,0.249843861700526,-0.290926527131171,-0.983736827051973,-0.0291226404182119,-0.36180161894023,-0.0864891306308927,-1.32429987735083,0.790129581265717,-1.01241529405345,0.111250866107801,0.000387135902067176,-0.429449498072942,0.345574560991757,-0.204341937158836,-1.00190628356538,0.177315747177383,-0.03619158908291,1.7977894258649,-0.0553512787136476,-0.405275772246711
10.95,-0.355805276548278,0.0986477628822286,0.905503686082385,-0.0851449620988301,0.307752404723539,-0.291828193455447,-1.03643601492113,-0.00868458410643788,-0.326897517263908,-0.076421694051921,-1.3296173040946,0.791120722445234,-1.02494497967431,0.0963561602328625,0.00726357663336412,-0.462145561682093,0.339530033545128,-0.165759140398354,-1.00456459541859,0.182702006968165,-0.0468091581756749,1.82144307829685,-0.052634819496751,-0.321751971293611
10.955,-0.649951947581931,0.0364659535131336,0.947642251775045,-0.0397506727270729,0.411820127877632,-0.302693655105364,-1.14039794509161,0.0305678356964171,-0.220838380060289,-0.0555186357581807,-1.35098244954003,0.797993971319657,-1.02005148482557,0.109141120761779,0.0440314785955503,-0.479918568012854,0.345146280606071,-0.168691616672625,-1.01007465702004,0.184472662454382,-0.0710728126759757,1.82056289689093,-0.0679079269593606,-0.274931479008882
10.96,-0.323853584155344,0.186672534213074,0.97790986050622,-0.06736816853539,0.448738613851744,-0.242620174842341,-1.22233431788655,0.0591337387064022,-0.119115709419756,-0.0264482775148379,-1.38786039867379,0.81466464631435,-1.01743649306329,0.101272825964504,0.0586799520916733,-0.526453796874116,0.346895444148843,-0.150251872806598,-1.00315453014775,0.178936846916306,-0.0828051561294163,1.79238328109477,-0.07298962156358,-0.277075061989763
10.965,-0.262226249408552,0.130977911698445,1.0026872234398,-0.0957663526850779,0.5193839564658,-0.204470267953007,-1.27429492285859,0.0791695012112276,-0.0738701243417545,0.00398197298391043,-1.43393040953963,0.834567291352217,-1.0290511601346,0.107377405358066,0.102356975548697,-0.686750783456235,0.36162096344327,-0.15090249990733,-0.995910398395756,0.173125414118039,-0.0923684605977573,1.75121490853433,-0.0704805414680494,-0.303107122291135
10.97,-0.308343057656695,0.153147925256572,0.99038356441808,-0.117166022786822,0.603106822925273,-0.185632895412805,-1.30929284539698,0.0943296008737296,-0.0600003695273972,0.0313302772332703,-1.4846851251906,0.85295496495444,-1.01302567108345,0.145778044607124,0.173316119542511,-0.834659388806536,0.370430205743912,-0.056214517415518,-0.997273827850352,0.176304319275571,-0.102102213733179,1.69584166969232,-0.0423922125874578,-0.347619664735812
10.975,-0.36216776863174,0.148449166314108,0.989748269332829,-0.161584589214334,0.709938537998556,-0.158323198367078,-1.33867022881669,0.107406854867507,-0.0570685282406524,0.0534825904826058,-1.537904868623,0.867354060802767,-1.02183120309191,0.192695273214326,0.230235869006257,-0.938864092548105,0.384797208554444,-0.00924866806433801,-1.00417333456909,0.189267309569202,-0.120529974472856,1.63396222750051,0.0331803302970886,-0.387958644446829
10.98,-0.374517838948249,0.248754724663518,0.969681364935688,-0.178528643383654,0.850803963479235,-0.148630015898312,-1.36857439398119,0.119635372408592,-0.0544338769670795,0.0697512155478083,-1.59287989578017,0.876861228371395,-1.04620232709054,0.228410715688714,0.294860546886589,-1.08337475297297,0.417075497499389,0.0275343516409279,-1.01936951905806,0.200745540464072,-0.150062287476205,1.5864111456209,0.115942278990792,-0.37651670399925
10.985,-0.320777964606913,0.32666541929942,0.980516653566209,-0.242085818439007,0.987581965607714,-0.163403039759768,-1.4007011147516,0.131132249883352,-0.049078712384429,0.080055886311139,-1.64950388654318,0.881323914604768,-1.08430507494055,0.270630178762514,0.335182921057158,-1.28714253725497,0.440582825389256,0.0558059990003638,-1.03675001672024,0.208958069174199,-0.16577199808831,1.54776904789793,0.169914168565066,-0.334872085586499
10.99,-0.290467267641217,0.31443230492073,1.05089328351912,-0.309858490099032,1.11515916291503,-0.230221095628898,-1.43422809148533,0.141513299382663,-0.0418902452383274,0.0844461371183779,-1.70767431337466,0.880796247232145,-1.12730546578892,0.294022601937796,0.37364897069939,-1.54093588995539,0.460684363636677,0.143397168735693,-1.05383657038606,0.218060822551142,-0.171051574666923,1.51494478759718,0.164856211721067,-0.278507803748617
10.995,-0.309086288553893,0.346114849232069,1.03450850704193,-0.356657130817961,1.26875497157827,-0.298790544288081,-1.46743616073774,0.150312564483446,-0.0349108469505554,0.0829085371253643,-1.76703212214324,0.875293224637989,-1.17969080720138,0.281129349647497,0.381831400389038,-1.73001292466109,0.465798014145867,0.280972837068839,-1.07269219369677,0.208960789081058,-0.16068352298073,1.48159145185563,0.116840265214047,-0.23049658490496
11,-0.341159722431212,0.415920349767514,1.02641326565132,-0.449635691900901,1.48247737754464,-0.375204792954151,-1.49860705048932,0.157176261177006,-0.0299881161825865,0.0753380270026748,-1.82692113436428,0.864735370908422,-1.24319360500898,0.241617607642848,0.363753577259134,-1.79175225305299,0.436487246133193,0.427755720299145,-1.11135616870746,0.192907271296042,-0.138782353615281,1.45761954154441,0.0415454565663496,-0.201229917371277
11.005,-0.346161696339592,0.410605179533267,1.03401601995491,-0.505026017273467,1.68533677297549,-0.471084286283538,-1.52631452737354,0.161915028801208,-0.0283916700562221,0.0615806912104174,-1.88644128798872,0.848974628481419,-1.30591163984328,0.214325829170308,0.321705213863625,-1.67820779683698,0.390057282511443,0.541438970283355,-1.17773927351325,0.178504951121371,-0.108748145643013,1.46337065150911,-0.04437960880134,-0.160055985713831
11.01,-0.351714021330788,0.442145491972067,1.05351756516364,-0.536338958870427,1.87713993589218,-0.550316742678953,-1.54941447942917,0.164495026923004,-0.0308852138529455,0.0414922154942574,-1.94451738627429,0.827833973129826,-1.36698973468463,0.204491392677711,0.28188914190682,-1.5132113225966,0.354824338595735,0.669536475194939,-1.26227207915735,0.161627888945755,-0.069316487809163,1.51639421860347,-0.0975012272452468,-0.132688047805476
11.015,-0.344014851693135,0.486700307616556,1.07367281429304,-0.574675242787047,2.13393925171945,-0.667440800855925,-1.56696127563704,0.165012562139399,-0.0379153731111601,0.0149851098712099,-1.99995260051724,0.801133433772691,-1.4062793171577,0.23996571611073,0.270664925814297,-1.49600833050088,0.327317330188509,0.759158237323661,-1.34569174822334,0.121068667915234,-0.0559288056078325,1.63689258821041,-0.141494608064406,-0.0822904238382943
11.02,-0.314576369605879,0.512886613113327,1.08489956337374,-0.638746643139799,2.39143688138342,-0.785010335831863,-1.57812536750739,0.163666737165735,-0.0497467107622526,-0.0179410757836523,-2.05146404356468,0.768699448425398,-1.44302664130116,0.34401599796112,0.287761864030234,-1.57980037170454,0.319931093594376,0.823749798542926,-1.41252174215212,0.0767376357575689,-0.0696815663580792,1.78830858787229,-0.150497736710867,-0.0447911798454092
11.025,-0.315166166811656,0.535795678180363,1.09511258605233,-0.72930463162817,2.63760337732133,-0.903741776396493,-1.58215018919518,0.160729774174572,-0.0665145477577625,-0.0571819319831348,-2.09770753324141,0.730363805182542,-1.46851641481881,0.404945949945898,0.288690523889838,-1.62034450321505,0.298293689754396,0.906687350609679,-1.45876037479735,0.0293507781519928,-0.0829484532241419,1.94588443167787,-0.148124624938065,-0.0259895523319887
11.03,-0.322973018551067,0.545264395081646,1.10075407341921,-0.864687627142951,2.93010221389067,-1.03716373973566,-1.57835585116554,0.156512996755671,-0.0882234057219209,-0.102519203552893,-2.13729889581559,0.685959024079978,-1.49131774861054,0.41568778442415,0.275083350108474,-1.57806537451081,0.271542450644009,1.01519120198669,-1.47923892114355,-0.000687270410741595,-0.0886624661731029,2.08839324410978,-0.143897163797782,-0.0101033382517552
11.035,-0.345446365334849,0.567518411672913,1.0927579277334,-1.02047780674893,3.21423901111269,-1.17655354153839,-1.56616705519257,0.151329990768687,-0.114719982051819,-0.153621805974457,-2.16883667122297,0.635314470242029,-1.50342862741812,0.391299167352086,0.251563281121924,-1.51786206010225,0.240377870856506,1.12248220392176,-1.48301742608961,-0.0254893100270245,-0.0990092397571746,2.18176927103303,-0.140404579001235,0.0356186522163931
11.04,-0.416043508949702,0.645391343142805,1.07233867475921,-1.24061526981037,3.5554914362477,-1.30874033179844,-1.5451500941892,0.145460579769754,-0.145666213738236,-0.210058480751759,-2.19092825502069,0.578254851167464,-1.49699772601004,0.371729694595239,0.200966624960704,-1.45759075951787,0.188518227717759,1.26938001871575,-1.4695406759874,-0.0441331990463899,-0.110688132776457,2.19087327467013,-0.133157252772619,0.0543506145366036
11.045,-0.457099466095896,0.702319909779739,1.04695067458107,-1.53298780667192,3.84283193112381,-1.48088747824236,-1.51504954122176,0.139120467624671,-0.180526241670082,-0.271321288098651,-2.20221912553819,0.514601076492982,-1.49254149685751,0.337781597542415,0.145713197427439,-1.35910093733838,0.131184126690319,1.42056503218597,-1.41657930335024,-0.0527236658064908,-0.124536151139893,2.12049438845246,-0.118983614204679,0.0402908016116399
11.05,-0.476509499770437,0.7053421054517,1.0490240775665,-1.95898881221722,4.21370792314152,-1.72047321723362,-1.47570585446094,0.132442050217906,-0.218707590229677,-0.336857471979327,-2.20142361245006,0.444172810665797,-1.46379374837623,0.238048003953295,0.0425215875018405,-1.09434460816615,0.0438788191117322,1.59599356794419,-1.36302001930405,-0.0495478073956559,-0.121763814195496,2.03667144684617,-0.0953321297758235,0.0151014014356718
11.055,-0.490148048197951,0.731319622696478,1.03557452165873,-2.4297322275042,4.55677438682534,-1.97212002055571,-1.4268798414996,0.125470493511408,-0.259787862918762,-0.406105247866083,-2.18735546948193,0.366792392838239,-1.40510328004934,0.116733365186035,-0.0721135676710614,-0.684243028298554,-0.0671565933963173,1.80587573436968,-1.27600527648006,-0.0521225057182253,-0.119983157130826,1.90952945653903,-0.0295894711679325,-0.0155410269044951
11.06,-0.479227862327295,0.765175451996789,1.10653746265717,-2.88406944937629,4.8521159470553,-2.21756249400858,-1.36871690832314,0.118173603267005,-0.302984287285357,-0.478526440424256,-2.15895668229034,0.28229074514776,-1.3566390117743,0.0744069007998047,-0.137491429159214,-0.384396067002807,-0.124926752538301,1.93998322160489,-1.19803997876553,-0.047931219596619,-0.104636608546411,1.82840889234608,0.0517188820165474,-0.0515638541246391
11.065,-0.329774929436756,0.779654571220664,1.14256989181378,-3.32947555557673,5.08354680317184,-2.4618621748229,-1.30222795378623,0.110461596488619,-0.346723916081012,-0.553627458083337,-2.11532316237909,0.190516902544278,-1.32695952400116,0.138802749399579,-0.190838235175644,-0.355256807851285,-0.107144178671211,2.0574471737886,-1.11294219385554,-0.0410625034961763,-0.0866903262651918,1.7673527947029,0.160020987303455,-0.0922881742067391
11.07,-0.263089273123653,0.718674892734158,1.1610559183425,-3.79812496343764,5.28675176075482,-2.71560741304455,-1.22875502453215,0.102210489324378,-0.38939567201318,-0.630961731185893,-2.05572616247581,0.0913534684741675,-1.30585845201902,0.22094023791,-0.248455932952543,-0.615136609948154,-0.0453029779699396,2.19791067977273,-1.0269465558627,-0.0483517685924507,-0.065009723730843,1.71836283057718,0.31394907670562,-0.13062304461927
11.075,-0.284888457304282,0.553002978098274,1.04688236791697,-4.10372641214031,5.50543866058913,-3.01360264407646,-1.14964894498028,0.0932793442499886,-0.429730957963976,-0.710114761321571,-1.97962909104028,-0.0152607847208387,-1.31253694611394,0.237028842356848,-0.297039290583765,-0.886333619819441,0.029822277976645,2.33318922543531,-0.979363472987407,-0.0728268917558095,-0.04497915614246,1.70874884724617,0.430376945340022,-0.147177237113653
11.08,-0.310731337049289,0.599929777399358,0.997356092480478,-4.19045576878049,5.7305444186533,-3.25057220365802,-1.06644422826417,0.0835225162716409,-0.466589490256819,-0.790684349606251,-1.88670128476316,-0.129303692535066,-1.31053526192771,0.149743709354705,-0.327430485195572,-0.790149153552495,0.049549509302201,2.41938018245002,-0.957969180843075,-0.121536774337014,-0.039350939141723,1.72002122879288,0.547463573015241,-0.148835632339615
11.085,-0.404982354813923,0.355552659085401,1.00678667995954,-4.15052940131905,5.91819869635319,-3.42924292206229,-0.980854079826439,0.0728046414927347,-0.498955922125893,-0.872270988326735,-1.77683141564301,-0.250643804682431,-1.30041677021629,0.00777751183931166,-0.349897943752661,-0.392332482345677,0.055531712964108,2.54500652015483,-0.951579124820665,-0.168280508288936,-0.0608837106704767,1.73895898409341,0.62720151310473,-0.138868395907013
11.09,-0.591496447245879,-0.0150889847217273,1.24464223405242,-3.7414388576167,5.99619408990431,-3.71293482557943,-0.894708555564085,0.0610252473992123,-0.525988085679178,-0.954482916648492,-1.65014194227501,-0.379021139462414,-1.29483165323193,-0.0666435487434806,-0.362717982734348,-0.188458136168958,0.0485940791727159,2.59928205878163,-0.956904610154705,-0.214090694943437,-0.0957856680100513,1.77513994660191,0.66185909137268,-0.120159011528335
11.095,-1.06462335278226,-0.456542125580339,1.53135525983881,-2.39411853052918,5.85106364396897,-3.83543327583863,-0.809881396937686,0.0481501486849361,-0.547062849777163,-1.0369490902172,-1.50700371841703,-0.514036270641362,-1.29396510512373,-0.121708517781666,-0.374136516577066,-0.0991140055851935,0.039084149038395,2.63642118124011,-0.963296061656575,-0.266328004686238,-0.139446442133173,1.82252489171125,0.686751517711269,-0.0713776155340426
11.1,-1.6437894754529,-0.284389273578335,2.13181229523522,0.52905798122204,5.33697134836105,-3.58694508678429,-0.728211733499411,0.0342395841623486,-0.561810429458311,-1.11933125651036,-1.34804859183849,-0.65514666928141,-1.28294497399522,-0.112462965589442,-0.375813984666905,-0.187570933052446,0.0298813602379938,2.61735049361401,-0.967767109440666,-0.30204228063659,-0.157309163131048,1.84936435696484,0.671629044066999,-0.0289683012926131
11.105,-1.31664523997585,1.53084380456454,2.2132983659539,1.18127568851049,4.3276738729158,-3.18464917000105,-0.651426403191081,0.0194634753224379,-0.570130774984324,-1.20133086988528,-1.17417771643644,-0.801668855447512,-1.2883555524193,-0.142620871528767,-0.37447734732255,-0.39111738651279,0.0199114755205153,2.58970100896403,-0.9858561355845,-0.336085744742133,-0.16730839562864,1.86487043954868,0.63128798846459,0.0166884631971001
11.11,-0.99379985054262,1.14595981617483,1.74617334047652,0.680589555986762,3.4656088377481,-3.08666902115053,-0.581067565546488,0.00409896750071891,-0.572189772292213,-1.2826915858782,-0.986563663493952,-0.952785978524613,-1.28719996908468,-0.17597868019907,-0.376203314718055,-0.633736990298533,0.00865764545255152,2.5650483838029,-0.997030119785256,-0.358996645007407,-0.15842064070376,1.8961138906794,0.576854195844588,0.023383365914608
11.115,-0.728375189585636,0.513244847158263,1.88407361842956,0.73475380043019,2.94618469803667,-3.26151424167628,-0.518429880639566,-0.0114887894821053,-0.568396501614981,-1.36320062320322,-0.786644883605818,-1.10756155188713,-1.29267390554773,-0.220122648880695,-0.37994061049886,-0.917726263475846,-0.0176192125487723,2.50980554411588,-1.00878451148382,-0.372350717253063,-0.134345000047391,1.92903843914077,0.533373221633763,0.00867958823115688
11.12,-0.540246870396442,0.106930298540902,1.79209491007364,1.34675781254485,2.35726552482408,-3.44420931930743,-0.464511688542667,-0.0268776447599098,-0.559365765209161,-1.44269157749535,-0.576111371081204,-1.26496002812526,-1.31928302742369,-0.236216833598635,-0.368693591672069,-1.23779214576676,-0.0321996107724972,2.4477674065625,-1.02624672986942,-0.383717693390944,-0.10965575080196,1.95335615945691,0.504722089554714,-0.0288615114586107
11.125,0.0109751128860832,0.706289839523313,1.50395577663244,2.24111930202106,1.852290536373,-3.58200896878417,-0.419984242794626,-0.0416257598795879,-0.545871031344184,-1.52104844348931,-0.356880491024774,-1.4238734891966,-1.35198460839972,-0.277197205850595,-0.335030637492862,-1.52570206770691,-0.0793511514173251,2.37082365078588,-1.03415597717082,-0.381594654216744,-0.0897535394724625,2.01118039491295,0.470784611131695,-0.0832690908379807
11.13,0.362026569796826,0.704879843272914,1.41161179261474,2.37728999252627,1.42211426583304,-3.89105166228018,-0.385181356317428,-0.0553110870850525,-0.528791678240824,-1.59820852807209,-0.131062282062829,-1.58315220464501,-1.37675936836223,-0.317483205412994,-0.31028058148282,-1.71440788623744,-0.124064869084195,2.33112154169808,-1.03564316375552,-0.353735911423817,-0.0925874211183794,2.08974672333148,0.450702014021102,-0.135300321524775
11.135,0.563235188290158,0.659818532458096,1.45335305356699,2.38267226167399,1.0070948482169,-4.27577085925768,-0.360109420070545,-0.0675691694940152,-0.509057482603514,-1.67416214200471,0.0990855714798267,-1.74163638377521,-1.40301383818001,-0.345432694913254,-0.305246609326735,-1.80822969367249,-0.172709595236901,2.27257937896226,-1.04131850996763,-0.325905611054902,-0.0946307715761049,2.17060217441359,0.451693732116666,-0.167047458132227
11.14,0.697554242539992,0.446584430536161,1.76651838243064,2.35783057497494,0.403168122599201,-4.66902610989464,-0.344475735744881,-0.0781248297840466,-0.487594079044855,-1.74894820446579,0.33121179643182,-1.89818679960253,-1.40113161148613,-0.364430116909698,-0.327452268441286,-1.86793054855902,-0.209893729470387,2.22844836108731,-1.04556379464222,-0.299911004401975,-0.0974767256887496,2.21498097487627,0.447132472183628,-0.178555577971987
11.145,0.364453978045324,1.23302221662736,2.19326979823981,2.84982076435238,-0.459815073262486,-4.71127824523552,-0.337731692200643,-0.0868139440469247,-0.465273944337387,-1.8226456816786,0.562932364556981,-2.05171224658784,-1.40086877585106,-0.355173427565112,-0.37404962662211,-1.93896328127998,-0.236422585119608,2.18597079149234,-1.04707757099902,-0.261673790793428,-0.097284524954155,2.22422586725,0.408043429700691,-0.173370529725392
11.15,0.744026543014572,1.86465456528834,1.49478516967159,2.64797426893811,-1.27639841575487,-4.55584786990913,-0.339126130202798,-0.0935938243883677,-0.442876682832584,-1.89536122876174,0.791895070898871,-2.20119203022919,-1.40276649907659,-0.329916045294323,-0.417310112103748,-2.07362854979734,-0.233665222610503,2.12954196061927,-1.05416691796493,-0.226709760614304,-0.0918423805261862,2.21119299383425,0.366831549674415,-0.1639685444902
11.155,0.805115305861176,1.53746453232351,1.02973383168448,2.41247454042435,-1.30223381755443,-4.34320243087722,-0.347763283105438,-0.0985431699483967,-0.421060650446983,-1.96721418275053,1.01584414917891,-2.3456923941802,-1.36995488683878,-0.284015146165187,-0.448378002217309,-2.29449100660507,-0.213727753611811,2.04271330785576,-1.05613741931949,-0.17757314713257,-0.0742333385909053,2.17138097544869,0.281244490250846,-0.151221253458211
11.16,0.562398991446082,1.40432789991312,0.893139659365259,2.97520193153441,-1.29779346583619,-3.90684764827675,-0.362659580254246,-0.101853482731231,-0.400346510914471,-2.03832102191985,1.2326808519912,-2.48437699881038,-1.31555732703944,-0.233743460191259,-0.479676316570739,-2.52000793042184,-0.179522789702749,1.95635294523227,-1.055011631988,-0.137384554207116,-0.0617565569860806,2.13952325693291,0.174799639063336,-0.144553266457831
11.165,0.283218565371935,1.78122204024076,1.02466449813021,3.31783516171502,-1.35550584409948,-3.55675656718787,-0.382794855733457,-0.103812856216761,-0.381112308156188,-2.10878174620576,1.44051618431134,-2.61651269257968,-1.23268224495954,-0.188717120987079,-0.50432712976121,-2.78273512007955,-0.109720139852566,1.84809375042007,-1.06889677977251,-0.107772272889629,-0.0610751588010438,2.12699222413154,0.0657531689308753,-0.137318516582199
11.17,0.111232052216027,1.8731605573292,1.13024486572545,3.27981321118863,-1.56405912919329,-3.07960237514688,-0.407155617361139,-0.104780989167673,-0.363598663323923,-2.1786696737732,1.63771299512324,-2.74147216716794,-1.16070646541775,-0.168742940193417,-0.523731186629174,-2.91093537172722,-0.0363548133261498,1.77431544331096,-1.06165964553396,-0.0956528399264682,-0.0733315370210054,2.11433959178179,-0.0215622984973399,-0.125969464633052
11.175,0.0853114774646606,1.69702073187507,1.06323051394459,3.19795440378254,-1.7741133694488,-2.63850941935917,-0.434769823313921,-0.105153657059948,-0.34792169422955,-2.24802412041805,1.82291620249547,-2.85873437048843,-1.08341236387057,-0.1209977462968,-0.51838742516356,-2.92938957644962,0.0376986340893708,1.7013920030049,-1.04754693937649,-0.0848612567376718,-0.0954689050545699,2.07625301277576,-0.0903343035026386,-0.11125230974136
11.18,0.132922960550911,1.53511032328789,0.887375215581916,3.24922465068804,-1.8988598227023,-2.26060138390758,-0.464733494401221,-0.105319273433308,-0.334090508957739,-2.31684402492867,1.99507137076029,-2.96788233223929,-1.02264650632875,-0.0794967372055934,-0.497429429742158,-2.81413741258676,0.0968481215460645,1.6464927374773,-1.023780089833,-0.0890418644888034,-0.122241494611817,2.04279887572045,-0.113259507028344,-0.0945999833351379
11.185,0.128848261133032,1.35068697408485,0.810707010342417,3.44883991993429,-1.92616806246763,-1.87788633670875,-0.496229699560786,-0.105619016393459,-0.322026155761993,-2.38508212632616,2.15343219223494,-3.06859766375787,-0.97414840650827,-0.0609254869595819,-0.46969194852758,-2.6751413176661,0.141612970240123,1.59497021170301,-0.998791394600578,-0.0943056134913804,-0.150829304495587,2.02835041198944,-0.125576749595304,-0.0797132796135632
11.19,0.0905211662744919,1.23335392790386,0.825708978737943,3.62254540830283,-1.900445669225,-1.49172527290475,-0.528540206686364,-0.106325354006562,-0.311580143780133,-2.45264332017626,2.2975564441165,-3.16065217402089,-0.929303348949736,-0.0414328229969199,-0.420251311071908,-2.5559276065528,0.17408406929149,1.54922417460826,-0.957803280720903,-0.100222360476523,-0.183020721322304,2.00873356497139,-0.145187900544338,-0.0792181561787359
11.195,0.0196442721379679,1.02915031334977,0.922259544913188,3.77953110325265,-1.88844313901032,-1.13773231034201,-0.56104972739634,-0.107642300467869,-0.302552853398756,-2.51939197499357,2.42728921439432,-3.24389840666375,-0.851269252617265,-0.0231512253879051,-0.354660609386009,-2.4487919666884,0.204898721946816,1.48059104599602,-0.0285560208138122,-0.00404801962407027,-0.00716591685493025,1.99638205430231,-0.187799113413512,-0.0980261304619864
11.2,-0.0448932497627625,0.822616896167707,1.07448183140452,4.06672086599657,-1.89625883837487,-0.74794938100399,-0.593243410953334,-0.109713864314966,-0.294713782434338,-2.58516695906102,2.54273352636405,-3.31826017635863,-0.779933393974552,-0.0202624192188765,-0.285809343654139,-2.38206863504253,0.233987859674756,1.43582336004101,-0.864811066737112,-0.153152566181848,-0.208687788370428,2.16155371849961,-0.170040811506984,-0.113970802675615
11.205,-0.0743576076838582,0.651595425889649,1.18033943761456,4.29297879765336,-1.93042740725664,-0.459070948217423,-0.624700544093295,-0.112625745049781,-0.287824315686568,-2.64979492601823,2.64421149565426,-3.38372172427229,-0.726946206681276,-0.0520486785929248,-0.205514465179388,-2.32105659739592,0.250396470253415,1.40312552300895,-0.839006757955983,-0.203368373925025,-0.178077195775876,2.48636689313536,-0.072213525389247,-0.0872653939546376
11.21,-0.0726811918529813,0.51774805178943,1.2503054119463,4.50793125176187,-1.98457085383767,-0.162652787231019,-0.655088709969422,-0.116400832283074,-0.281659580155574,-2.71309185915239,2.73222106888741,-3.44031302072488,-0.680041730347407,-0.0612942288755503,-0.154825719866792,-2.22372616224289,0.273053045923177,1.36603821199399,-0.81302962985519,-0.209498948568055,-0.159768638485909,2.7553072991969,0.0412653851653996,-0.0466901341050406
11.215,-0.0819775736309369,0.320587705543283,1.3082123756241,4.65529578997505,-2.03486974229002,0.0371758017204463,-0.684159905308649,-0.121000404806606,-0.276023304071573,-2.77485119401915,2.80739250924558,-3.48809057396736,-0.642435476215772,-0.0662628481150559,-0.131942041666249,-2.16609811707536,0.290665256989567,1.33192258972792,-0.780780866117491,-0.188299174379347,-0.137971725839537,2.81068185916401,0.188542700640525,-0.0193374588368583
11.22,-0.057210652960113,0.171527805345092,1.34177089365116,4.72762070549524,-2.05960399019378,0.201137251361221,-0.71174536406992,-0.126337831469442,-0.270752848236449,-2.83482522246655,2.87044641690743,-3.52711586397273,-0.624514746745474,-0.0751770256402492,-0.114608380397114,-2.07399100588908,0.296945168295877,1.30503237801466,-0.737992632016549,-0.183621538606319,-0.109244068465205,2.65658614032703,0.302497086813622,-0.0174838577638645
11.225,-0.0625663217279125,-0.036955381807388,1.40059886460296,4.83407607027466,-2.07458311337057,0.34194064075156,-0.737745012898748,-0.132300091444059,-0.26571862344506,-2.89270758683746,2.92215372154334,-3.55743453781698,-0.615792932690133,-0.0879378130967258,-0.10022160641329,-1.93176633004259,0.306844037888473,1.28538416098039,-0.723110235979931,-0.196513207097592,-0.0879444886576326,2.46913362605533,0.390975803836115,-0.0265400127670102
11.23,-0.111433503854728,-0.310938425528075,1.50889388454129,5.04840134162218,-2.1265180394974,0.448506954956584,-0.76211212214393,-0.138768014156875,-0.26082534296182,-2.94811939382118,2.96329869944088,-3.57905836038609,-0.611278591852358,-0.105086486142027,-0.086582112991681,-1.80711907367573,0.316103880440541,1.26194335337976,-0.724370935337192,-0.212934870772092,-0.0837446128472036,2.29000865511539,0.462884841294723,-0.0401725078443656
11.235,-0.162527751064752,-0.458806889998205,1.57673436350831,5.23727008520656,-1.9416330193837,0.510316902636224,-0.784838199500113,-0.145630108629373,-0.256018072656912,-3.00059600636364,2.99464728818421,-3.59195035142722,-0.615253259223298,-0.106346700064385,-0.0697133502634531,-1.68215992814606,0.32443131270065,1.23507539705144,-0.734029886057645,-0.218790297446629,-0.0735740646863417,2.12819850713816,0.503137021502987,-0.0658948879821074
11.24,-0.211343664524225,-0.640407285932498,1.64852062465749,5.62733257825666,-2.32885001461854,0.5356940603039,-0.805942309459776,-0.152790271319977,-0.251288999195082,-3.04957109257564,3.01692295639468,-3.59601333875807,-0.623527622509565,-0.10216159946328,-0.0448804439988303,-1.63515962149438,0.332583531122106,1.2077900284289,-0.75881048063487,-0.227920076808385,-0.0703937133985183,2.07004716737295,0.491702576019457,-0.073135946918344
11.245,-0.21949408581293,-0.734985781777786,1.63925484451745,5.93386310921495,-2.45480127912752,0.539314803450558,-0.82546453216421,-0.160171245295521,-0.246678879205447,-3.09435850731306,3.03079098856723,-3.59108317818343,-0.637472076479026,-0.0836926448055501,-0.0120365643376105,-1.59101272726873,0.344388711058669,1.15262805118394,-0.782933485120863,-0.238239309169026,-0.0717214282764015,2.06471434090047,0.450236245373033,-0.0732692021750097
11.25,-0.187661753339368,-0.783877031223844,1.57088483195888,6.14995526261853,-2.55982200215372,0.483587012465081,-0.843460535463953,-0.16771433780231,-0.242271058823879,-3.13413635149091,3.0368506020291,-3.57692855225842,-0.653938199554024,-0.0484690108129933,0.021756353311011,-1.55592317582982,0.352146890219454,1.10770036626538,-0.815758444453382,-0.242403008247969,-0.0774691317944739,2.08098158532532,0.372966815731988,-0.0630221874538483
11.255,-0.154799211813053,-0.849696601603162,1.49607165468111,6.24536949638643,-2.58700046581015,0.358168172435371,-0.859995392701781,-0.175375273682495,-0.238180434156251,-3.16793817588754,3.03563373637371,-3.55325875639637,-0.674411371463793,-0.00863572221328903,0.0428277260483902,-1.48511658684068,0.362989073314263,1.04026183668446,-0.858831737750708,-0.234812485573194,-0.0862590591075645,2.0918333530426,0.214931787575957,-0.0592059638554912
11.26,-0.153758413853764,-0.911024672314348,1.47272738931149,6.25628923151257,-2.58755479983926,0.20948656424953,-0.875137605728805,-0.183117165679779,-0.234540606579349,-3.19465481442692,3.02760937409496,-3.51973983809414,-0.69745571023742,0.0360468918025372,0.0541046339002207,-1.40853966293437,0.371465404398384,0.999679720942669,-0.873357189123226,-0.223677916278453,-0.0859245333349546,2.08906720599739,0.0642938048285718,-0.0629799601346371
11.265,-0.177900577486818,-0.994420079099657,1.4549611948708,6.25490756115844,-2.55406856943946,-0.0361722640552666,-0.888955748756778,-0.190902706617186,-0.231490109747383,-3.21304896908763,3.01319214488352,-3.4760187245218,-0.723512467673494,0.0711994426310823,0.0596086309133953,-1.3301296450143,0.376003047074336,0.944655005348374,-0.887096494412437,-0.217089061041759,-0.0838912980736181,2.07776409933682,-0.0962898945643773,-0.0697308464246927
11.27,-0.215635932634452,-1.04461645638256,1.44851483564175,6.25423998330656,-2.52880154540506,-0.266903856652893,-0.901519269781151,-0.198687525305648,-0.22915604573165,-3.22178446098518,2.99275337796227,-3.4217547914422,-0.739889713155151,0.0969155822297751,0.0550928998767086,-1.27133105340693,0.384238025991207,0.928513384073807,-0.899634780608624,-0.204905076995876,-0.0822241662775583,2.07771989850288,-0.232488629451945,-0.0850972977382767
11.275,-0.273200099093931,-1.03307598013168,1.44754452870741,6.18779870768035,-2.52865011886652,-0.513793606667025,-0.912902802110856,-0.20641513055197,-0.227633974461875,-3.21947235074682,2.96663207880935,-3.35665822414479,-0.73210736623783,0.120690871802327,0.0440783902933717,-1.19223698592718,0.372372972507517,0.879389909351022,-0.900895518960685,-0.203133784314466,-0.0861638703843794,2.07280047392547,-0.323049045574332,-0.0951186088361411
11.28,-0.32477646586643,-1.00398623137069,1.4404350186691,5.99140493374724,-2.54387950897217,-0.806826306215106,-0.923191554840396,-0.214012160488534,-0.226966813626192,-3.20473489525081,2.93514341244652,-3.28053360720459,-0.724755926289265,0.137216354052521,0.0397386760362133,-1.15854470072958,0.352424165625,0.846737879459831,-0.901856210166816,-0.196740058414346,-0.0773035661941552,2.08147817077982,-0.366587276398483,-0.11002448123854
11.285,-0.35725623182257,-1.03497031233323,1.41761444158453,5.78634342957934,-2.54968021999471,-1.04601229352748,-0.932485264521835,-0.221383148307304,-0.227128474408671,-3.17628448926582,2.89858353588983,-3.1933253076096,-0.705343190215753,0.150249189673122,0.0244418851621491,-1.10934039345285,0.315510359863042,0.787306890659703,-0.896510661557436,-0.191217937262003,-0.0729961324477189,2.09678552372412,-0.367178676261465,-0.116917046449457
11.29,-0.380784770132856,-1.06665456477668,1.32802819742266,5.54745925315047,-2.54920220597887,-1.31496825264853,-0.940899582679475,-0.228407434197034,-0.228015308666506,-3.13301112661973,2.85723102336177,-3.09515990430072,-0.673425930141408,0.156975716736973,0.0153489604706408,-1.04956598315405,0.279966699560705,0.716798186231881,-0.901948604310692,-0.188407332911669,-0.0653851322955502,2.0994973379564,-0.323576280316395,-0.116053255643779
11.295,-0.376675133522495,-1.07929374154865,1.22102100259278,5.3349162877726,-2.4939116366393,-1.52982960823425,-0.948564967735097,-0.234943478864163,-0.229442927449891,-3.07407272085509,2.81134532277072,-2.98638175722566,-0.650784174129111,0.171929949584495,0.00585364323208607,-0.971326432398367,0.240530231284134,0.650207523792674,-0.915717783642209,-0.186384393200684,-0.058152347581113,2.11216928548629,-0.223866872818347,-0.1043578166708
11.3,-0.395329944198804,-1.08334457139924,1.14328372337627,5.14187340233128,-2.40135739491292,-1.74000183155168,-0.9556231023715,-0.240843287410989,-0.231145530907256,-2.99898677743745,2.76116199137346,-2.8675799328033,-0.602698086010279,0.181677312962463,-0.00995024049473008,-0.901788539737327,0.191234285772413,0.568460032778336,-0.927955070935381,-0.185206698472188,-0.0604625486756035,2.11918532968314,-0.168247515053665,-0.0953019060075291
11.305,-0.428152552821901,-1.08488561645011,1.08743338362007,4.96261300939402,-2.28036764283048,-1.90630275239275,-0.962220224288808,-0.245973201589063,-0.232780863373863,-2.90772284583577,2.70688456780421,-2.73960552875245,-0.570058353089667,0.185387411884133,-0.0195535265594806,-0.850895639465264,0.152863612199583,0.505734588671077,-0.946136490886187,-0.196933563137471,-0.0522116302883022,2.17387285980549,-0.121183522026682,-0.0792116742965955
11.31,-0.477262675104116,-1.07082241142115,1.03058237540828,4.85357470388897,-2.14680697332153,-2.02515831065633,-0.968468448673247,-0.250231186361782,-0.233980904901844,-2.80078944032652,2.64867437081415,-2.60357710305335,-0.546099022866552,0.197641114418581,-0.0301849209058079,-0.83841833665763,0.108982522182164,0.410337839488652,-0.972777432691117,-0.197112845614533,-0.0357490854715613,2.28089689733157,-0.0175920030175241,-0.0163952090992672
11.315,-0.495103214601862,-1.01930208409561,0.97101330855707,4.73575321725749,-2.01381929576226,-2.04780268983387,-0.9743868470119,-0.25355422792062,-0.234444188029306,-2.6793011591875,2.58664087816369,-2.46087032238061,-0.525298499238125,0.214002757474688,-0.0316417625191769,-0.917812178602835,0.089795126258744,0.351430626420895,-0.997956857319878,-0.16779820417517,-0.0731258866576535,2.1556150341046,0.00771047499272811,-0.000244421877737521
11.32,-0.492744081740237,-0.978890282184632,0.955461239642888,4.60056837821573,-1.84895508682892,-1.99503675698402,-0.980014000842426,-0.255920873949529,-0.233837275649865,-2.545008504739,2.52083536206291,-2.31308832697985,-0.519622534351317,0.237556661725161,-0.00341230528246884,-1.1135703371752,0.0627295398894241,0.312652577743654,-0.992106769687432,-0.13953433151143,-0.120783363406479,1.85221585836993,-0.229254711394273,-0.059442419353583
11.325,-0.530193887105592,-0.927076896454669,1.03957751597626,4.46704501338613,-1.65730870521795,-1.86839735855266,-0.985494131629424,-0.257342415228903,-0.231712973467716,-2.40027724136394,2.45124949781196,-2.16201202642112,-0.515393960590772,0.256430275831467,0.0590331059023915,-1.37813570922401,0.0278638913739361,0.277062290558228,-0.969251396055945,-0.160128564769831,-0.0476971154113031,1.72479467462506,-0.314146250098422,-0.120898592554365
11.33,-0.617771287967158,-0.914882828117192,1.18680873476916,4.37154052227478,-1.54824980438623,-1.71437089891056,-0.990896054959152,-0.257855351009321,-0.227758791891332,-2.24801390747586,2.37781988878816,-2.00953323873767,-0.533941695273131,0.280470340439084,0.151922357962256,-1.6417436494073,-0.0109901712812115,0.255516114348235,-0.98913934985262,-0.196292610945029,-0.00380917012884352,1.76901675112218,-0.254682764250383,-0.124123587769343
11.335,-0.706786897322792,-0.922727348731857,1.32572518255686,4.25459392606562,-1.53415059911852,-1.48789204579568,-0.996141374591294,-0.257521509481462,-0.221936944551906,-2.0915441762549,2.30043933293385,-1.85757634986692,-0.488466246230651,0.306254480462098,0.224263295388241,-1.63373598512655,-0.0720289409643323,0.246561939884059,-1.00858359787765,-0.217941519249656,0.00445518881733768,2.00012134737096,-0.19993731379509,-0.0759624727170847
11.34,-0.694285643526473,-0.952377820009337,1.3533227262836,4.13987607540576,-1.57085363934241,-1.30964364316753,-1.00108628352587,-0.256428922696194,-0.214428882791458,-1.9344560664524,2.21897553790284,-1.70801492280564,-0.247608610481331,0.341539880772547,0.178327558050835,-0.887410035576502,-0.159986169754093,0.235089258679213,-1.01626811658137,-0.191642366170041,0.00271671473624905,2.10636375924124,-0.212814251452723,-0.0330262518213603
11.345,-0.650194339082662,-1.0167242096673,1.32758205794181,3.96809602153929,-1.58484947681427,-1.14885361377389,-1.00555965539598,-0.254697015678397,-0.205615460747711,-1.78041999608467,2.13329699273592,-1.56258912469662,-0.644590988643385,0.381910794870215,0.486651679278884,-2.31524340732752,-0.247833295332795,0.228503779877844,-1.02334797620635,-0.165199832584852,0.0180421663572262,2.11698520011444,-0.260711445989975,-0.0246464051306248
11.35,-0.616113707714005,-1.07545120327245,1.28925783437158,3.79932093950183,-1.55996254353152,-1.05350812915985,-1.00939411051002,-0.252477781255019,-0.196042157634353,-1.63299656486806,2.04330388000203,-1.42282944334324,-0.711245441049455,0.426638693032281,0.57998236262992,-2.57939738280292,-0.338399678869084,0.194694970314507,-1.03417337617613,-0.150646045037679,0.0567150811075588,2.13602716102041,-0.358650064481419,-0.0133174639479861
11.355,-0.68435092684498,-1.08133674634021,1.31723465415706,3.56785886940929,-1.4885047932268,-1.01990949173571,-1.01245737188992,-0.24995015896413,-0.186356875087453,-1.49544402229061,1.94896028872024,-1.28999227066209,-0.752860123338134,0.468205073281019,0.639037869476136,-2.78472276769924,-0.391860778598811,0.152813019743344,-1.0358393928679,-0.136950759258675,0.0907310978217548,2.15799982621122,-0.469655098540271,0.00906831423723265
11.36,-0.784606679446299,-1.05777010556743,1.39019822519197,3.17841179968614,-1.47213924139124,-1.03060980804436,-1.01467785022591,-0.247307792540686,-0.177232145560206,-1.37053949580867,1.85032350593655,-1.16501263465753,-0.817830308818728,0.556905029086475,0.72138401667083,-3.1133045142208,-0.453074296202737,0.0680683189653668,-1.03206404380662,-0.115430303834589,0.115870695393173,2.1510362595213,-0.586566811002302,0.0230947531871972
11.365,-0.853151045391629,-1.09211707656849,1.41737826999008,2.77268383228177,-1.52259834995919,-1.08579497027489,-1.01606089104099,-0.244740952458527,-0.169287333862694,-1.26042821466888,1.747566960785,-1.04847790761986,-0.865282139953379,0.639765972198735,0.772172204854197,-3.3556046965255,-0.505665042181059,-0.00472312103386369,-1.01987292663437,-0.0878854568473135,0.149293015556762,2.11784244597647,-0.670167310710798,0.0374255100448717
11.37,-0.898813930051647,-1.14688753104189,1.31664910478023,2.22885841766923,-1.60783071183444,-1.19867542057527,-1.016695448733,-0.242414882695258,-0.163024409903833,-1.16651208481589,1.64099490101817,-0.940623915702685,-0.894826947605174,0.708290927379055,0.808500901943204,-3.45032866263797,-0.548757270032943,-0.0564188967592251,-1.00987784284132,-0.062649206159823,0.186131625010492,2.06065347171367,-0.673196600547014,0.0526873745992822
11.375,-0.900862094842331,-1.1316588988636,1.10566700183857,1.67265125222494,-1.66446064134779,-1.38800351179194,-1.01675268104777,-0.240449133680894,-0.158784019888612,-1.08938510728677,1.53104816518947,-0.841352515113531,-0.909473112197372,0.782035595108823,0.827481577281909,-3.47939564485052,-0.61063083624283,-0.0954521288525763,-1.00278870612168,-0.0416160454576971,0.203050279230252,1.98417363800344,-0.624936665629107,0.077011589323886
11.38,-0.948851296596549,-0.932885318984377,0.706906258622715,1.02884546342207,-1.69936808371935,-1.56623280267232,-1.01647760583714,-0.238902931761482,-0.156722010992366,-1.02882080522184,1.41830080608436,-0.75026821473357,-0.917699476187646,0.84782877349169,0.805863937056931,-3.43670992677532,-0.69771291710635,-0.116013530038146,-1.00888400023865,-0.0151949939601674,0.195047179049029,1.89966397449156,-0.519881546431804,0.122852274952144
11.385,-0.893709132317344,-0.722287747528025,0.341351697355388,0.268051794337219,-1.53950044214999,-1.87951371377598,-1.01617459932962,-0.23776899543423,-0.156804953379068,-0.983814917909253,1.30344723639647,-0.666730546215409,-0.902911277297762,0.883856628438697,0.765703571049744,-3.36669636455952,-0.768662910325441,-0.165545701678209,-1.01655090106752,0.000220778833352274,0.163398559594121,1.87595489947944,-0.400059633060389,0.180794330917541
11.39,-0.936682121661942,-0.934617221212836,0.249667006201931,0.0467836938476507,-1.30030061315157,-2.06690757612685,-1.01618829543268,-0.236974628875936,-0.158824481680962,-0.952681544060968,1.18728016953652,-0.589917750283888,-0.889353588364302,0.908586066637293,0.722521288676822,-3.26127425934426,-0.839314570110883,-0.246365904021621,-1.03074139305019,0.0035630725710174,0.130472739808996,1.91160419582806,-0.273678844032144,0.25885223827036
11.395,-0.931795205850939,-1.00189231253387,0.25522219174851,0.533328564632347,-0.955725152902855,-2.22585019013501,-1.01688244947562,-0.236387579429542,-0.162428757912414,-0.933192804500554,1.07066117757649,-0.518896032378257,-0.864625978501325,0.896285481171043,0.627915355948406,-3.04597951037262,-0.918106992081799,-0.377449194760861,-1.06290230045702,0.0274116716758177,0.0801107776442298,2.00653248103627,-0.151948139747638,0.368172885879065
11.4,-0.889455121085306,-0.777017320093901,0.271873417447564,1.13907648707096,-0.667078274755086,-2.31320674304725,-1.01862005376064,-0.235825549044865,-0.167164686797086,-0.922746489988085,0.954486943545275,-0.452688399457263,-0.862493613313944,0.846956073535357,0.522163103227522,-2.74974607275339,-0.956149685788658,-0.497218799327833,-1.07668940985203,0.0520343621687008,0.0336527417307325,2.04100733166073,-0.111039129882301,0.453583955214206
11.405,-0.918950794214038,-0.45886466127952,0.330420302143432,1.40440989043429,-0.428090259999259,-2.37977302485887,-1.02174326638443,-0.235069881899048,-0.172519179858183,-0.918547245118061,0.839654174707063,-0.390338664413871,-0.89086487330975,0.746664211387156,0.380978782896605,-2.27975039081627,-0.970507318332958,-0.563913310820263,-1.07782296907065,0.0799348060241416,0.00403133591187294,2.01788078311475,-0.122883107205272,0.534714745130608
11.41,-0.91989420141073,-0.276555119009296,0.375667979851196,1.36856015156706,-0.167799435336234,-2.43150577958813,-1.02655616253755,-0.233883427405763,-0.177954004020176,-0.917791344410447,0.727025269244856,-0.330968388226998,-0.91841660490309,0.635868739884173,0.235271893866647,-1.74521953670834,-0.944540345963502,-0.569931059304606,-1.07901552115872,0.100513724036793,-0.000942896182331211,1.9168572281668,-0.222201487011202,0.624354494711706
11.415,-0.877839333364773,-0.279308362321389,0.357918083587147,1.1842852058124,0.0358596720624766,-2.46103883180964,-1.03331747411705,-0.232030589972198,-0.182937650689645,-0.917846439220276,0.617396524362171,-0.273825383940461,-0.914291467164153,0.525720406709781,0.0602286644128121,-1.08876231911319,-0.854346833013432,-0.572956694962274,-1.07357940072556,0.103191190502027,0.0151635950813391,1.81600833521951,-0.366946257296025,0.696582586937831
11.42,-0.781726176363907,-0.361958220709931,0.27533060188585,1.08098967646236,0.272697593125103,-2.4439190700586,-1.04223499383553,-0.229296499440173,-0.186972869001993,-0.916414736632508,0.511471148935862,-0.218321713548765,-0.846419918253065,0.47069714345086,-0.0954149370883937,-0.420728656629847,-0.666863009219953,-0.614890151265057,-1.0737455392994,0.0937077029072997,0.0425030320385504,1.69125917240443,-0.516793099374074,0.771718196037722
11.425,-0.769264901760153,-0.43449405511549,0.289926499057349,1.15896927894768,0.561831138886189,-2.3787292806959,-1.05345482660632,-0.225502638906383,-0.189618898655638,-0.911665956038991,0.409839568157374,-0.164058471870172,-0.716607608102574,0.462013446676708,-0.269713619565016,0.412407582518141,-0.387042030887919,-0.669466482512136,-1.0769336044799,0.0684590445389291,0.0582536078685682,1.59998747229127,-0.612437965020887,0.824259353824025
11.43,-0.905221333839455,-0.446292123110964,0.428199310224431,1.45037222293172,0.781273362214949,-2.24175064328116,-1.0670488513428,-0.220516824914628,-0.190509779219739,-0.902328905043656,0.312968582362586,-0.110835373879692,-0.610324313831041,0.433962095951455,-0.396198082160575,0.906402310648952,-0.117991983128996,-0.715223847395753,-1.08456149605414,0.0410321259644354,0.0713725547485555,1.48577291906409,-0.675846474163837,0.866657425565124
11.435,-1.07993766308186,-0.278379195973721,0.581445384913769,1.83790382651709,0.879722024339721,-2.01111603860408,-1.08300087194322,-0.21425547739684,-0.189366557284058,-0.887736073027381,0.221199099914728,-0.0586449809221625,-0.51257997398257,0.322215558573609,-0.575660652189702,1.2662500548009,0.291753193127605,-0.724208707317682,-1.07379103194772,0.0132303765586064,0.093569010629055,1.3343716832082,-0.686413320787588,0.899357219622151
11.44,-1.12895382703256,0.363100668141832,0.671666698244539,1.75795014378401,0.90564112491924,-1.78851851347139,-1.10119195964629,-0.206677212168926,-0.186003587916103,-0.867820144405157,0.13475065634707,-0.00765306947777275,-0.486479312623785,0.260619510139782,-0.683912298356533,1.22882209988372,0.654443017610402,-0.63131715270602,-1.06686802521458,-0.0257206615785811,0.11790718715934,1.21552342462106,-0.684789549686003,0.909651516420158
11.445,-1.32113969915456,1.49450218899675,0.948444810269023,-0.529065104679133,1.06034858804001,-1.70829073616631,-1.12138735736836,-0.197770565759473,-0.180334316712245,-0.843063748342954,0.0537308681946179,0.041832532488596,-0.480898934633304,0.236373041776509,-0.68746538015512,0.939932587367532,0.962587192687281,-0.342325481681,-1.05757397290921,-0.0630189303721862,0.141751277906273,1.14324214680268,-0.671314679237366,0.924542200680311
11.45,-1.38921862077235,-0.123785721059148,1.50436647375075,-4.07808703521416,0.847641876314609,-1.88819123285878,-1.14322781089532,-0.187542584927057,-0.172382037464159,-0.814407624479682,-0.021850974813592,0.0894016882458959,-0.51591021921187,0.224581383895594,-0.581461490828607,0.56432496332176,1.13932798510804,0.0635547402224342,-1.04193851442635,-0.0959849870559753,0.166408213824606,1.12707387124487,-0.652512707276057,0.938259061512201
11.455,-1.15536804338498,-1.39033942815342,1.62892841268608,-4.27006463876535,0.370506621748039,-1.8728726337854,-1.1662277768598,-0.176014160278921,-0.162294542553387,-0.783129510699625,-0.0920662917745077,0.134586203048549,-0.59921849917827,0.230368084973951,-0.424901564757577,0.271093724222707,1.13493686428699,0.412475663297891,-1.02854606662298,-0.108154463751536,0.17693084344111,1.12258173471605,-0.629526088273877,0.946993531738227
11.46,-0.839339645719153,-1.2849345953187,1.2842296028183,-3.33399341733244,-0.102693846869739,-1.89897489256062,-1.18978217041343,-0.163223022473188,-0.150355090744796,-0.750711918729703,-0.157046269890996,0.176903605617807,-0.735228633791639,0.240977850122855,-0.211892338714383,-0.0936913242462622,0.981473483344712,0.684346598163823,-1.02290953258651,-0.10798368050166,0.186902027889941,1.07992478651036,-0.607655201692013,0.94917791810905
11.465,-0.654204305171969,-0.766439224004766,1.1847349858284,-2.83135198803124,-0.188449812995556,-1.96920308566251,-1.21318316427863,-0.149232175853065,-0.136982763882881,-0.718716203933839,-0.216959452560727,0.215895915246504,-0.855970210329482,0.242355677547836,-0.0723516116507526,-0.423419057357505,0.821454765363126,0.671900603699337,-1.02138085176275,-0.115511140714211,0.20279222935472,1.0161713165072,-0.609715391808178,0.935082990605321
11.47,-0.68012094689444,0.403805515007706,1.43240709842902,-2.76422204329562,-0.257164136327772,-1.95996027328254,-1.235647291149,-0.134141285776828,-0.122720433037378,-0.688673794110669,-0.271990168039715,0.251160625671627,-0.991854317854709,0.25908824487437,0.0699819287950855,-0.88861846878696,0.605729792737716,0.399281621314695,-1.01942190124377,-0.124932275271586,0.222374378765932,0.968190612542868,-0.629815607195974,0.90731021769331
11.475,-0.923894691430782,1.05907762484495,1.73209118177371,-3.31211929270888,-0.563003623088161,-1.58271586786445,-1.25634896700017,-0.118096520547176,-0.108212045217947,-0.661998510975412,-0.322319755205143,0.282373278274833,-1.09594239514268,0.323869861590926,0.107071768206175,-1.26935198197333,0.418188851854983,0.0832559670335732,-1.02461129644386,-0.129004149744733,0.237515609431085,0.945647499321277,-0.667190872086872,0.866234831188431
11.48,-0.714482395318717,0.775672925341429,1.30307963963165,-3.82807601182652,-1.00379130760242,-0.995999581697001,-1.2744538853876,-0.101290896530234,-0.094172578311193,-0.639919766858472,-0.368112036510793,0.309302536685251,-1.19774442100392,0.412834891965931,0.053856917036618,-1.66962372839142,0.23562845267944,-0.22557424159279,-1.03485672104396,-0.136019617318731,0.233801962530902,0.981582837738888,-0.729483567870494,0.80254479308047
11.485,-1.05075523480627,0.106055764477191,1.40419553991844,-3.82135882602025,-1.28729388564571,-0.496189580729446,-1.28915015167306,-0.083949174413652,-0.0813549201248774,-0.623434098010461,-0.409503913342937,0.331819128426468,-1.27161669958205,0.484089792387821,-0.04915672006776,-1.99945105187796,0.0794407490236038,-0.502094820527147,-1.03644801484298,-0.138810136687714,0.211671047923411,1.05125994951251,-0.775985121072003,0.761293667552155
11.49,-1.22364796363041,-0.582523141312203,1.24478273389534,-3.54060594656001,-1.60526926196735,-0.319242015757098,-1.29968267719155,-0.0663005869235462,-0.0705158142195443,-0.613271450504386,-0.446601088070569,0.349899457650768,-1.30888617417394,0.510901054997943,-0.162717485420696,-2.20289651363871,-0.0174264746554857,-0.729693202003128,-1.03770396344962,-0.143851897408559,0.181941719850288,1.12913274646579,-0.807908107154806,0.747895923016759
11.495,-1.12004984944567,-0.893215428471797,0.962138957944901,-2.46110321000345,-1.81356621716193,-0.311774803027418,-1.30539742534555,-0.0485508258725117,-0.0623787272458762,-0.609874072934317,-0.479478168963738,0.363623838117852,-1.32583432410187,0.490321637871297,-0.288887488917756,-2.35374701358666,-0.0658635613416302,-1.03269194443368,-1.02877011260661,-0.138019058689994,0.184912357079562,1.19700687234878,-0.818797047409801,0.795637066846512
11.5,-1.09519753644416,-0.334850145956318,0.875957558879531,-1.58048240491393,-1.87787346740356,-0.264705280035672,-1.30579469528666,-0.0308640685285882,-0.0575908971680463,-0.613388617446236,-0.508182293872766,0.373169148692512,-1.30826191586976,0.410366323098077,-0.336242560303641,-2.37738277267457,-0.0608730478921056,-1.24451535239111,-1.02476063460579,-0.130277227722693,0.0857045275256918,1.16675052936765,-0.775393027499686,0.874578444717143
11.505,-0.785154314783819,0.285510762000354,0.734911773546313,-1.21978816667032,-1.76857416876736,-0.133660280115319,-1.30058239135537,-0.0133591216336518,-0.0566769211194458,-0.62367240898161,-0.532739549305057,0.378796667640677,-1.26822635642885,0.300702444285287,-0.332937230457119,-2.33564265672987,-0.0295841939532047,-1.40002717277437,-1.0202100843409,-0.122041759480406,0.0673398097054939,1.11118404140344,-0.724150234380288,0.949894304242909
11.51,-0.529248229408276,0.817569970716276,1.11520634339729,-1.05003462286735,-1.2810612127771,-0.193512144010878,-1.28971757889029,0.00388172907900611,-0.0599962226623955,-0.640312139954764,-0.553163211512891,0.380837238701873,-1.25671356880525,0.214186316501074,-0.322836432721992,-2.28635076368853,-0.000307738561552704,-1.44429618440436,-1.01141414745827,-0.105909383929193,0.0621681037628314,1.01858809369052,-0.634484755321802,0.989480851467526
11.515,-0.173505758555021,0.842835877395584,1.31293413411205,-1.11776947836647,-0.879391534725027,-0.320933207439323,-1.27342751013515,0.0207954269336127,-0.0677110764362043,-0.66265142496286,-0.56946249333978,0.379676473951846,-1.34195868951593,0.181434358338453,-0.268985648888687,-2.23872738730949,0.0321650816386676,-1.34132771765947,-1.02022505549617,-0.0796788642192533,0.0561799882976112,0.936880133152853,-0.515458777358752,0.988938619291537
11.52,0.182637363025231,0.107728060351689,1.71100179123377,-1.14056689528114,-0.590645914492873,-0.419830729701183,-1.25220616610988,0.0373188023917336,-0.0797684122602827,-0.689825354146722,-0.581650830153177,0.375741711781716,-1.56365400824372,0.307227563043532,-0.195949062710495,-2.10286715985987,0.0873353801129562,-1.07714078224879,-1.03849605248653,-0.055197514006418,0.0501313032941409,0.863151428999323,-0.37748451990854,0.958278961441249
11.525,0.182170151904643,-0.722849080861741,1.54330233403992,-0.748324192280311,-0.427216777382974,-0.374917014300341,-1.22678605145603,0.0533739086543463,-0.0958982679028741,-0.720802669586862,-0.589753443809753,0.369490826268208,-1.87073121558813,0.53429938634566,-0.0520243167544321,-1.78351848598414,0.176457400307113,-0.659973613392441,-1.07874215137366,-0.0337331351425044,0.0149532669733045,0.752376352531612,-0.156049410673936,0.91149323444111
11.53,-0.136173717731299,-0.605305180797064,1.22530766483473,-0.123688498133464,-0.318174918756592,-0.310230468396885,-1.19808796414675,0.0688626423462618,-0.115632587376881,-0.754435867428318,-0.593813956248685,0.361402103631295,-1.99361441975894,0.729029586422184,0.172057903162879,-1.35340035666153,0.262138004389616,-0.209595824214586,-1.13853061892363,-0.0363827644214566,-0.0458653629657277,0.621836694330645,0.113747539982084,0.863091063951511
11.535,-0.480935125196964,-0.0795215098254705,0.944126195438894,0.224413169401705,-0.293537259607456,-0.260923272187914,-1.16715613805392,0.0836723393636003,-0.138343932781019,-0.789516990717372,-0.593899404643186,0.35196428390715,-2.00155033135652,0.74232717110357,0.42943999981385,-0.923086163837257,0.345888067152232,0.23104391654087,-1.18093131920651,-0.0600998351563156,-0.11482153127089,0.502265362483118,0.359936771941243,0.793244446947042
11.54,-0.585607207764699,0.359626766827186,0.711841642216848,0.13322693191335,-0.246759658527769,-0.182532251033595,-1.13509012127109,0.0976897751699796,-0.163296357495805,-0.824834628166539,-0.590103163395728,0.341665900522284,-1.98456646182105,0.503025325903624,0.611556584894758,-0.790306156590004,0.357882697490551,0.401215772035272,-1.20322683517373,-0.0861530934947527,-0.184175725931635,0.397389725940089,0.57292756496718,0.691301716880881
11.545,-0.698889407374264,0.201166030753421,0.719501526359326,-0.00269862086908944,-0.220821797939434,-0.139517385615484,-1.10298239479479,0.110815736146832,-0.189697549411176,-0.859227145896417,-0.582545890920262,0.330983401043489,-1.7945362551897,0.245136780781349,0.523445809033271,-0.773417082429244,0.354866404830941,0.386970589412698,-1.19353158606499,-0.118186758346813,-0.263011680613255,0.358974050704525,0.671750532340011,0.566019539495822
11.55,-0.685900743387549,0.199910867711019,0.743146199963644,0.00869356210250311,-0.25177567249288,-0.134754385509258,-1.07186338194432,0.122971916593264,-0.216744318020396,-0.891629488377886,-0.571374903061391,0.320368242797518,-1.31149285215912,0.0290351303912349,0.211104976836645,-0.798769966824826,0.375589906675565,0.148220961071133,-1.13902278967742,-0.135467863827945,-0.327151039117685,0.411843584685256,0.589956781190884,0.45895331417687
11.555,-0.56179255037856,0.314153129012737,0.716860070584408,-0.00475337620249583,-0.270702228032326,-0.150812318755468,-1.04265132385977,0.134098940865103,-0.243658773769843,-0.921114983697275,-0.556762352583599,0.310233552204467,-0.860913625673273,-0.0392177095262235,-0.0301447606068743,-0.975819391352611,0.452970787177224,-0.107208068970806,-1.0627987631172,-0.117364770698675,-0.349434489231589,0.570302036918099,0.309860581898526,0.384257123270646
11.56,-0.444034267694336,0.273609708740048,0.825015182205405,-0.0660290056143905,-0.270188293085466,-0.177258888282072,-1.0161072870569,0.144151425952788,-0.269716406792983,-0.94693530667625,-0.538902669775603,0.300940918402057,-0.614508325317909,-0.12772408321161,-0.149784367922621,-1.30213324050371,0.510545598253882,-0.147304531076707,-0.976688799951045,-0.0875945935122326,-0.317163852517654,0.761235764634145,-0.0237121391783207,0.36865347109671
11.565,-0.396640452759693,0.182487670504262,0.880103593701797,-0.0523094481076634,-0.272202114276355,-0.201204851650656,-0.992800674253037,0.153096196752116,-0.294267981317967,-0.96855909852728,-0.518009948486154,0.29278800790994,-0.361709270547374,-0.305683559898111,-0.316802201068991,-1.84389599566021,0.596612119778712,-0.0715874993557384,-0.909107782525113,-0.0612303731197268,-0.264421189195384,0.950181930301372,-0.330776569511957,0.38566226479676
11.57,-0.430699313079985,0.124378843073761,0.925926974911174,0.00771112322234357,-0.254714322230096,-0.208873694814032,-0.973091772425692,0.160915479114686,-0.31675604336451,-0.985705725502537,-0.494316245540893,0.285997951558576,-0.21497860810068,-0.422736851375381,-0.419723076083637,-2.28386771900885,0.654320249545435,-0.000409922784078473,-0.857338942131192,-0.0277698493047985,-0.173898008808101,1.12951512662502,-0.546430071337252,0.425908593088611
11.575,-0.45645103844043,0.0689967936220252,0.837879594272326,0.0657124532877189,-0.205092032194527,-0.190948378185026,-0.957133766808604,0.167613362093674,-0.33672686416107,-0.998367839935452,-0.468071691370737,0.280711676680101,-0.132625544304376,-0.350581635863083,-0.379642453006326,-2.52480780393794,0.701852559373105,0.0028852380236956,-0.835655670403424,0.010951270764826,-0.0845741023386096,1.22486843944874,-0.578992364726985,0.474293224131475
11.58,-0.483595674610762,0.184954823826407,0.992088684906862,0.0194774037865337,-0.178065868370495,-0.171379879167972,-0.944891115332103,0.17322196387417,-0.353839419604449,-1.00681475709501,-0.439546338380637,0.276984683555443,-0.190367734417339,-0.17430502485353,-0.173155010512542,-2.3072054437863,0.701622811537655,-0.0490729768287064,-0.835581707665548,0.0578314833488808,-0.0119048508991876,1.18614630383483,-0.419535060182833,0.513906712469012
11.585,-0.396868220920056,0.271832554165963,0.915334179683091,0.0581230448085202,-0.116533714760687,-0.151751701519405,-0.936168444374764,0.177803324410628,-0.367871900877534,-1.01156990658893,-0.409032220898503,0.274789826489339,-0.426547541932708,0.0377650941757305,0.111772347137839,-1.82391450905159,0.657863727261158,-0.145224677880379,-0.858390691567292,0.103392601798241,0.0201635702687002,1.0814757556592,-0.0978327407482923,0.5099116792119
11.59,-0.374267001397794,0.0771998624059751,0.902133957447888,0.0259510600846579,-0.060074507598119,-0.133129152207332,-0.930644639367687,0.181445334242593,-0.378723944219001,-1.0133619341775,-0.37684342403014,0.274026659311874,-0.714916735773497,0.172695167765685,0.327315947350199,-1.38421108392558,0.613247666699622,-0.274770639195597,-0.891888678509372,0.12710095574921,0.0190614330180309,0.980695751263709,0.208996038841227,0.462825052854215
11.595,-0.515412882412341,0.168810378630189,0.867238855626187,0.111959011768695,-0.0527335255130456,-0.106205808565984,-0.927908652965497,0.184253613650899,-0.38641126558336,-1.01305748785633,-0.343312707336865,0.274536038007057,-1.00360174433672,0.183786338292819,0.477483761104078,-1.04407540882722,0.54672017539842,-0.417980328064771,-0.947797239506816,0.127427788994864,-0.0236859132998312,0.881211862627296,0.479168952927423,0.387142581652541
11.6,-0.461551855086369,0.252244190004611,0.909780903751271,0.0986640693130227,-0.0410843950138299,-0.100322100277018,-0.927495227373255,0.186341758037501,-0.391049470505882,-1.01158938692324,-0.308785134646597,0.276116977770374,-1.2439044053893,0.0909180659616694,0.601090674174091,-0.872911799567604,0.465976584067897,-0.530423742279376,-0.987966533462762,0.117049155456891,-0.0591206122578657,0.845551104394676,0.549517128569901,0.350303513246817
11.605,-0.427307006065221,0.245115286090756,0.864700534454902,0.0938097409641984,-0.0208005681565738,-0.0854976790641561,-0.928918781509187,0.187819554188182,-0.392828815270325,-1.00989538183345,-0.273611156886608,0.278542029813946,-1.43360511584201,-0.0116586607935721,0.70057853704302,-0.82555750216405,0.353534548235778,-0.613194995100586,-1.05821139414396,0.10841721442812,-0.110631073046389,0.847553473832512,0.51977697325629,0.319333526938374
11.61,-0.424705669218029,0.210550796912527,0.860706847972196,0.0645155030213296,-0.0038463019636717,-0.0843890694588303,-0.931702252968403,0.188778263218244,-0.39199156547391,-1.0088785296096,-0.238141562772111,0.281568501370759,-1.53042729723057,-0.0636748027372132,0.742810659094779,-0.855140938969485,0.259284995688979,-0.643365538723372,-1.12816627987394,0.104363552629368,-0.150966046119936,0.905454652130355,0.369334051809562,0.317302153989891
11.615,-0.422403035130054,0.198920147706548,0.84210595592408,0.0944881386322031,-0.00799384975281703,-0.094919105599442,-0.935398137832528,0.189276430161631,-0.388825505258467,-1.00938792667033,-0.20272372857807,0.284946015001833,-1.53525279038591,-0.099717207123316,0.762556772054787,-0.975030906496118,0.209590037853291,-0.63309818235452,-1.16756261727704,0.0995030481425427,-0.176919932619824,0.97633904713621,0.190164814889901,0.327870664512065
11.62,-0.449642368831867,0.239906730425442,0.887174487803218,0.0841380001410074,-0.0173921494957209,-0.10024118863062,-0.939602744389148,0.18933355902772,-0.383671891948432,-1.01220450787872,-0.167695694452514,0.288424046861191,-1.45539351482119,-0.151683706061995,0.739195881466909,-1.13156335843416,0.171393272385571,-0.58785435502814,-1.1992991762378,0.0935927888152984,-0.187485834498639,1.0536271782977,-0.0187313306316654,0.336851745198387
11.625,-0.444507586525539,0.260652728886274,0.883581144061471,0.0580577518191992,-0.0265944806720112,-0.111622903204821,-0.943967232460789,0.188936309506761,-0.376928918956945,-1.01801455742597,-0.133375638952492,0.291762964846167,-1.32892911064058,-0.188805039121064,0.652145276287297,-1.29866786238276,0.164704107345644,-0.523767434142354,-1.2104895884075,0.0932018161658083,-0.169208390232638,1.12033352554314,-0.166949183285085,0.334358629831321
11.63,-0.418260172493384,0.283804659285177,0.870510106574562,0.032485791318407,-0.0308539625257254,-0.114066076585766,-0.948207006422056,0.188054451096918,-0.369033781990138,-1.02736676649648,-0.100048437146044,0.294748684905838,-1.18972782120825,-0.176180579483754,0.52069643500892,-1.51122113616125,0.17755408042721,-0.436250573157931,-1.20610834943414,0.0971137751041363,-0.134427264302039,1.1893148914642,-0.279383654891473,0.318353898372324
11.635,-0.408024661605314,0.244204511520195,0.876923335016967,-0.0023806116252057,-0.0390507892195715,-0.12274274483607,-0.952107843686682,0.18665913102273,-0.360424270786531,-1.04062401494891,-0.0679537150726439,0.29720779306188,-1.07703767171581,-0.099960392906195,0.393914957924101,-1.71661355276896,0.213226896129585,-0.322244728290246,-1.19297982519269,0.104713049243926,-0.0950436812136523,1.23827583733813,-0.302315416751577,0.288726518630983
11.64,-0.395412026769555,0.258523572433761,0.877927264227766,-0.00458848493317956,-0.0449952832426166,-0.126604709355628,-0.955526786117905,0.184737470654434,-0.351494012377054,-1.05792564629053,-0.0372790100015985,0.299019346337881,-0.998196074593569,-0.00217982245021641,0.29591305974108,-1.8630868760324,0.255835679888559,-0.194841115979142,-1.17997519524402,0.113290231864265,-0.0529658260673497,1.26543955069657,-0.246458377384587,0.270205308535094
11.645,-0.400664817443116,0.18908506186319,0.870593201033892,-0.0488999496097552,-0.0491101431736051,-0.115557666892884,-0.958387521377406,0.182301392404753,-0.342555006913277,-1.07917058025375,-0.00815905676475381,0.300120969884063,-0.960283046484858,0.0692198038134834,0.24684615621632,-1.9058651704027,0.309459371608883,-0.115732113790992,-1.16375111672873,0.122193790984009,-0.0272196599796477,1.28601648803762,-0.122040575459892,0.251093508879065
11.65,-0.406915847874488,0.233240563234747,0.878381669353962,-0.0230919918668236,-0.048450739906687,-0.11853291898386,-0.960671495800847,0.179390608201171,-0.333813767776544,-1.10402451483238,0.0193197760108836,0.300508560200737,-0.942146834145768,0.124666503442881,0.201655381638674,-1.84010703764923,0.371337125224659,-0.0793317166765593,-1.14713589747618,0.119368137990221,-0.0324640046718455,1.31271135744978,0.00277586738485058,0.233123205421159
11.655,-0.410228526434298,0.213873317972735,0.871940337489237,-0.0372530601194623,-0.0445912910223307,-0.10742241487497,-0.962406884049124,0.176069677542196,-0.325361466749095,-1.13195056623312,0.0451114644609439,0.300230019165428,-0.944860574875493,0.145552877432783,0.162734535974039,-1.78618850981081,0.415121768118212,-0.0859131592337308,-1.12541805202017,0.112315171888906,-0.0454085826056592,1.3491314115121,0.0920929748361495,0.212329651506194
11.66,-0.414703554923958,0.203860668388957,0.873224057737993,-0.0262466339113571,-0.0469674580873652,-0.103330234400007,-0.963657529354683,0.172419130910407,-0.317176909317959,-1.1622611307267,0.0691998610375329,0.299374081615358,-0.949580714515537,0.151040469419488,0.126379855054917,-1.69856161285988,0.460909404669972,-0.114661420911557,-1.10326534542745,0.0964820159557201,-0.0739204065453557,1.46929722733165,0.144822048145656,0.169900659447543
11.665,-0.42260333336623,0.169916900147116,0.880093780038464,-0.0174295440257047,-0.0442926064133644,-0.104742766028233,-0.964512306714968,0.168522699845929,-0.309143198262799,-1.1941859896292,0.0915865064471055,0.298055967774617,-0.95644839713088,0.133163370812503,0.0981083325327473,-1.58120221876131,0.500155019518328,-0.147183024957236,-1.08257730506439,0.0996194050364553,-0.0985229682592034,1.58587767861149,0.128483485229768,0.137917440590728
11.67,-0.417223496458424,0.183745189898049,0.87668906776229,0.00349511673979064,-0.0505757726067303,-0.0998170232234895,-0.965073202199992,0.164456479138053,-0.301079977241356,-1.22694495345637,0.112278147471462,0.296402669459272,-0.950770267418038,0.108918313535065,0.0668779010836596,-1.51030011462893,0.529275981282705,-0.174159884947194,-1.05695517765974,0.107501726186187,-0.110208682979328,1.68869116671611,0.0797087290763397,0.10962487306504
11.675,-0.409798646241963,0.190893311944897,0.88033534772968,0.0279533265309832,-0.0533382223783959,-0.10141755623231,-0.965440922133635,0.160287613838242,-0.292787169045972,-1.25980556384308,0.131276893058406,0.294541592559132,-0.944222502139307,0.0853929260972537,0.0420238383441094,-1.49831022732001,0.550910221630675,-0.201123304193747,-1.03937052209929,0.11822163666102,-0.103695175085101,1.76599300050213,0.0316978759137785,0.102409824728966
11.68,-0.408777443121054,0.175624888237666,0.88214137042004,0.038487569160193,-0.0544901108620871,-0.101911313831806,-0.965700686727394,0.156085205896134,-0.284085483003135,-1.29210730147079,0.148576092953602,0.292595428642458,-0.943900230725884,0.0711645607528082,0.00902962333322821,-1.51709986790678,0.567191413142585,-0.231137214628292,-1.01696529248309,0.13272031430407,-0.086956583411413,1.8293644003169,-0.00678259343888248,0.104628425146099
11.685,-0.407552679512399,0.158653586229454,0.87811564022223,0.0760667219228329,-0.0595374562113316,-0.109348119655793,-0.965913713200512,0.151936021720385,-0.274836243985405,-1.32324985563885,0.164162367938655,0.290682793155881,-0.943093092121567,0.0787291506250701,-0.016349908052639,-1.56202187004819,0.567893507618028,-0.249856296567795,-0.993241432012032,0.150772316007986,-0.0547841450240029,1.86042652426173,-0.0242482736032405,0.125601151106005
11.69,-0.411373280828551,0.171857280289226,0.880569400845263,0.0957272812833638,-0.054435408684798,-0.105277826570441,-0.966117717205122,0.147951309233816,-0.264935628762719,-1.35266580580794,0.178020576633074,0.288920341983947,-0.953520890627509,0.100353223661822,-0.0309403097318339,-1.63324252782082,0.5625931580914,-0.260455215162974,-0.981978586789473,0.158803539963586,-0.0253060135549679,1.86364889777098,-0.0239695043259428,0.159679825516811
11.695,-0.409176479203342,0.165528412799739,0.890761189762576,0.135644364791594,-0.0559274568610536,-0.108716901973828,-0.966334290127843,0.144256431101103,-0.254296474115905,-1.37980826177362,0.190137198754015,0.287421259575099,-0.960657155897503,0.10692635624193,-0.042029141424724,-1.72078912857782,0.550178065341141,-0.257144061311964,-0.964901701570439,0.167197162448703,-0.0122951852675978,1.85032428680215,-0.00220848445977693,0.196874540202805
11.7,-0.400498393571243,0.174864046354098,0.890049187446285,0.16657155078613,-0.0518541875707506,-0.10423899351421,-0.966577424214367,0.140968951628964,-0.24283764549144,-1.40416964839798,0.20049971400647,0.286288644483267,-0.973207863452121,0.0987431079744878,-0.0457950426100222,-1.80536110881143,0.532253071136068,-0.247703849650146,-0.95601440805809,0.158052572859367,0.00311585749105239,1.86875950047308,0.0312771281337277,0.223150336207822
11.705,-0.409777392483194,0.191762454450786,0.878918149301557,0.205393732221208,-0.0438803371702319,-0.109109092956471,-0.966858734977747,0.138179860235531,-0.230490691531248,-1.42531957386876,0.209093013356841,0.2856073814491,-0.983976116640927,0.0976749268183821,-0.0404778202624054,-1.90051162600762,0.51057420844033,-0.247657228496139,-0.934506770052134,0.134680338552986,0.0217901357733024,1.92927357399965,0.0855610553093906,0.225131175121733
11.71,-0.413035290043484,0.196033627785853,0.874772351745499,0.226158916687249,-0.0385197777644848,-0.113792605973527,-0.967189396588329,0.135946976419765,-0.217216891265653,-1.44293481860705,0.215895769530217,0.285439426010743,-0.988916787047526,0.098644669143734,-0.014579010121422,-1.96941744592626,0.497625438869792,-0.255056504442662,-0.917395771160641,0.120420379998782,0.0351693418042071,1.95760596542206,0.102814481866244,0.204257052134203
11.715,-0.394578399944116,0.242314773105574,0.869777805361186,0.22994489967823,-0.0346527519419293,-0.110797435689593,-0.967581836221539,0.134296207117208,-0.203020647788916,-1.45680696501881,0.220878903243138,0.285823793182713,-0.993823882431822,0.103525902536264,0.0426869164168995,-2.02401657562343,0.482964597308556,-0.264303781295358,-0.900618802193733,0.106476757978248,0.045045822544819,1.93119239736502,0.0851067815406699,0.183405000807608
11.72,-0.40042480909691,0.235273919029528,0.872219915564878,0.230906577923595,-0.0376035547830148,-0.11785388468049,-0.968052960434685,0.133220785084411,-0.18795188603071,-1.46683649174065,0.224006299879776,0.286778332306657,-0.994657755081302,0.0939945237302974,0.0931106236578988,-2.04877670016681,0.470368060151575,-0.270219496717096,-0.887811613513736,0.0957120217647991,0.040580272472563,1.93095848895878,0.0538411167402249,0.167214545350966
11.725,-0.408973596198371,0.250363706574681,0.865713653870404,0.226108520373024,-0.0375304592510852,-0.120208183782683,-0.968627097622404,0.132675347357529,-0.172101175726793,-1.47303108464943,0.225236860416769,0.28829997427057,-0.99567939192198,0.0767600674098148,0.143729392911583,-2.09830590845623,0.44821126214701,-0.277410800496548,-0.877254323551776,0.0903230675094427,0.0264772138295295,1.94376247359771,0.0143505660136551,0.13896462110452
11.73,-0.41958278444903,0.249639427548132,0.857871815362552,0.221010768824462,-0.0460463391713584,-0.124511355018341,-0.969335274521687,0.132571229847273,-0.15559600679843,-1.47551482886727,0.224527295615071,0.290363239568123,-0.996186979443602,0.0611763876762869,0.188008454087785,-2.1815371534973,0.436350347897593,-0.282706423636902,-0.872536335790972,0.0917710264363062,0.0050780708238557,1.96302824160683,-0.036086550860823,0.107446309908371
11.735,-0.416954523472875,0.244450138617723,0.85657941430476,0.218838847739416,-0.0570868652471231,-0.137095537680717,-0.9702097135826,0.132781585339286,-0.138602530289983,-1.47453758966964,0.221835841791048,0.292919879164234,-0.996726189736443,0.0479656578673866,0.22684828677375,-2.27465772750523,0.43003423411403,-0.283181414292679,-0.858135511593501,0.10121125340478,-0.0171400732310485,1.97709760325721,-0.107733238097462,0.0587578829630766
11.74,-0.414627651844335,0.253945946922252,0.85828022692705,0.221448107580673,-0.068836628867239,-0.144203970016129,-0.971276195722133,0.133158358794193,-0.121329024817432,-1.47046734189229,0.217127311704534,0.295902600366999,-0.992315019275129,0.0415555099316806,0.257064943238108,-2.36107845826407,0.425716354748643,-0.279690409840822,-0.856279422866235,0.102117093997624,-0.0401027921487968,1.98039570265981,-0.163464888228072,0.0207462602076925
11.745,-0.41911858937485,0.234612088460333,0.861758780083674,0.212962368671117,-0.0750308249810495,-0.150462033513063,-0.972548689164493,0.133553846551068,-0.104023143753971,-1.46375909590233,0.210379254195351,0.299232797399997,-0.983089346133607,0.0394837355440105,0.289175930326451,-2.441358753404,0.425977086594282,-0.265023241182451,-0.854809031826716,0.108263910829509,-0.0555465508976095,1.99184787121601,-0.238387150862393,-0.0231751411320178
11.75,-0.41540736440608,0.249521389370876,0.867564544292581,0.210397779941559,-0.0884086921311178,-0.155369526102471,-0.974029034080712,0.133835717162219,-0.0869594704820299,-1.45491212446235,0.201587921213062,0.302828988919542,-0.977673453111004,0.0498716876154696,0.316970237774294,-2.47408044306634,0.422486839789647,-0.234043229213346,-0.851562387997615,0.11714648214659,-0.0621969347304643,1.99550344398549,-0.272618677322329,-0.0493132597786811
11.755,-0.420091461025658,0.227274598253656,0.86514702376636,0.207302922076327,-0.0985591432863267,-0.162996038794518,-0.975710346677348,0.133890696723061,-0.0704231584714045,-1.44443286380451,0.19077240903121,0.306612745170871,-0.975359906599313,0.055807938703469,0.325206456069519,-2.49792337405623,0.417587490420235,-0.212170950475308,-0.850718653812838,0.116528065292894,-0.0585104511772953,1.99900084546318,-0.252395909784062,-0.0584931395993523
11.76,-0.40411591332515,0.266632136122691,0.857206560481298,0.205405596200612,-0.101509057548667,-0.161468282116613,-0.977579265534421,0.133623985266316,-0.0546990649450398,-1.4328063036976,0.177976604801992,0.310512436978162,-0.969173153937639,0.07294464757259,0.323742732021795,-2.47442115175146,0.414959322287698,-0.182396012635063,-0.848836461325161,0.124715488093798,-0.0529221804220167,1.98904776229008,-0.170776350135491,-0.0593964452036755
11.765,-0.405389102466069,0.230136371286053,0.871703946092238,0.189767268810453,-0.104697340471654,-0.164621151541523,-0.979613546104801,0.132965026778026,-0.0400687735032008,-1.42046187353942,0.16327045260005,0.31446785540079,-0.964423349865359,0.0984026910740473,0.312854511240698,-2.41787270548392,0.414917094381674,-0.143926992103566,-0.846942250256763,0.138402496698077,-0.0598115551986185,1.97100820226849,-0.0451154860137154,-0.0460406903018297
11.77,-0.406520973373588,0.218375430188079,0.878834874870712,0.190411236883564,-0.114395111955477,-0.171670996996031,-0.981777468912524,0.131879005649254,-0.0268083661387876,-1.40772599535229,0.14675235203171,0.318436747403492,-0.96306779192303,0.129119307722991,0.292285288145931,-2.35364099183286,0.416379881564296,-0.107629392161177,-0.843197697032759,0.142033669754364,-0.0707620895067691,1.9488194529648,0.039778815444742,-0.0337619709742155
11.775,-0.395385317181011,0.237524016746309,0.878998701515746,0.199041711078357,-0.1187128792498,-0.169259157418737,-0.984021220311788,0.130371514979469,-0.0151793119014044,-1.39477775269926,0.128552575092851,0.322400043138185,-0.954438557407702,0.151527127010301,0.273710607877233,-2.31466335714703,0.41694712638855,-0.0441602917908538,-0.846929418432947,0.142994547216145,-0.0766693845756289,1.93292734097502,0.11534669687267,-0.027430647494075
11.78,-0.390821339749444,0.229926373017068,0.87195362088066,0.196959137916565,-0.122536643005587,-0.179757384889695,-0.986287330642869,0.12847753276749,-0.00541262560450042,-1.38163325675353,0.108835450368547,0.326362031336231,-0.951075701314945,0.175183658195592,0.248195013433979,-2.31408791749635,0.424410028346124,0.023108974365419,-0.853275567064512,0.145004883571387,-0.0876817408816234,1.91803734373246,0.145915529220296,-0.0262080412365091
11.785,-0.391052308675089,0.234679292018028,0.87383427015548,0.196528184963573,-0.11457366339698,-0.168456118595586,-0.988521132619165,0.126239751941202,0.00230802053294764,-1.36816504652714,0.0877979397012066,0.3303457101287,-0.949582961467287,0.186921768726206,0.233742878277664,-2.3313831722052,0.427036287133183,0.0575070781517841,-0.860587001924153,0.14468429239369,-0.0830129103686692,1.93201228997588,0.147023916244507,-0.0288034940186533
11.79,-0.39415206842495,0.258085876020464,0.863273372473949,0.190543750342024,-0.119234988958349,-0.169446800404518,-0.990679116961073,0.123688847240297,0.00785912241321399,-1.35414126763699,0.0656640360462982,0.334386517730796,-0.955178721404133,0.186809149468028,0.219684581217182,-2.33938883747042,0.43279675036437,0.102518802738206,-0.871415224660006,0.139585261932142,-0.0805154830998566,1.9533630419709,0.144685183740216,-0.0300132163160072
11.795,-0.396780283225557,0.249075725478221,0.868192277239409,0.179636692503897,-0.118180356976879,-0.1708627419397,-0.992730793062513,0.120834615770102,0.0111826296147559,-1.33926852504685,0.0426764725228243,0.338526548067303,-0.952485489989658,0.202599274723385,0.209768001060957,-2.35012745567396,0.434417084918942,0.146897132135398,-0.881689002639657,0.131032141747054,-0.0816952174395742,1.97357479392949,0.137127351465507,-0.0365381232040542
11.8,-0.405388032770391,0.220275398885488,0.882625859019592,0.185073344456558,-0.114109822762335,-0.182723769567356,-0.994653944657062,0.117668980928517,0.0122814849898813,-1.32323207362908,0.0190883350499867,0.342809268190385,-0.950322499579565,0.224237535256404,0.225379732488719,-2.30449125676006,0.438885457083783,0.170446734332947,-0.886689244447902,0.124895608137779,-0.0819906506930476,1.97702794726745,0.139557617485112,-0.0416480396535886
11.805,-0.403090648283593,0.225890655593224,0.878013923290786,0.199860709622087,-0.119019534568545,-0.191833169706882,-0.996426596423955,0.114176250814285,0.0112070474785852,-1.30573029366839,-0.0048430646250604,0.347274757818198,-0.947235369940085,0.241657286941209,0.251758799265688,-2.22795478396946,0.437480048887213,0.166537703324381,-0.892926455341454,0.116149473176791,-0.0738854920223575,1.97411793710956,0.157534998028949,-0.0675581596051266
11.81,-0.404408168223171,0.240116255890725,0.87343323073208,0.204417879265285,-0.113125492455602,-0.199518298226857,-0.998019591742653,0.110344780899085,0.00804387684625728,-1.28649907968982,-0.0288591490360226,0.351956463724498,-0.93928417634541,0.2641186098516,0.25408081605348,-2.15037496862411,0.43507074022293,0.150437614440917,-0.900942787246761,0.1137773755542,-0.0730873968020321,1.98072661195658,0.198191900311165,-0.0832519485400382
11.815,-0.406102788465052,0.247612706603222,0.871743843415992,0.199845238563265,-0.111928506728853,-0.21053570288477,-0.999392254968347,0.106175708792137,0.0028964069230928,-1.2653239213168,-0.0527007238364952,0.356880389137752,-0.938337616178118,0.283169514638217,0.268162492638107,-2.1003948662972,0.436399359206854,0.147283113235706,-0.908556692326259,0.110083883179812,-0.0790577976464369,2.00636214156041,0.237952765285285,-0.0907765683789462
11.82,-0.41684191869413,0.233505107903421,0.869652004653433,0.18785183553971,-0.101082777024476,-0.196018570951561,-1.0004919445789,0.101686762848537,-0.00412150041694276,-1.24204218093262,-0.0761079907544968,0.362066585632008,-0.941692614323247,0.284168123296813,0.292734043360735,-2.06409161176886,0.43893763422966,0.133722339813625,-0.916646924687331,0.109584045363727,-0.0907980168454616,2.03782356360879,0.261124783898675,-0.0907961023390208
11.825,-0.411640377218612,0.247077496956467,0.871075862013996,0.195737451314926,-0.110698422551282,-0.223999514676258,-1.00125689908213,0.0969121699573146,-0.0128943471183004,-1.21654045887355,-0.0988211598353546,0.367531892870482,-0.946350535469288,0.281829312676686,0.312524702093907,-2.04185324474014,0.438347303574894,0.115556593379161,-0.917771065395952,0.120763672867556,-0.0925938088873893,2.07880712865529,0.289619806848995,-0.0861746732709887
11.83,-0.413536927173302,0.233844069052472,0.874256681964178,0.198180810409664,-0.111485838097454,-0.217239231226347,-1.00162109710958,0.0919021898790901,-0.0233091169978819,-1.18875066756247,-0.120582010321013,0.37329268821795,-0.954591751843748,0.282876550015188,0.330230704947144,-2.01237254763812,0.431179165052421,0.10052530166097,-0.92840273865675,0.13088387327925,-0.104195522156614,2.10810126701829,0.326994105349248,-0.0694631118244676
11.835,-0.404894907117135,0.24858891764606,0.871307417468971,0.202674267904912,-0.10367899477872,-0.215838965743799,-1.0015208875183,0.0867245143511837,-0.035253073267605,-1.15864664933183,-0.141136311287501,0.379366626246739,-0.965308606131948,0.287954003760249,0.341114249849496,-2.00032692900264,0.425085476897993,0.104275026989818,-0.93491802027777,0.149007807384396,-0.111295954328705,2.1187105178833,0.345206310263988,-0.0544355779749394
11.84,-0.40263792296172,0.240697427260658,0.862646331642504,0.192883279190412,-0.10476754891117,-0.220214546582752,-1.00090471617429,0.0814645879707296,-0.0486025179881809,-1.12624474851145,-0.160237299520153,0.385772290066296,-0.970480827610839,0.288174423252557,0.348632900567465,-1.98177526988195,0.412114987710919,0.112893449958041,-0.938878041578769,0.17041196217053,-0.119182882881459,2.11966404870461,0.352417756409265,-0.0438952041809219
11.845,-0.405336390606661,0.248224598995727,0.878194935269516,0.194570042286613,-0.10192941034237,-0.220252804839317,-0.999745926005936,0.0762186840083341,-0.0632042524050079,-1.09161519917482,-0.177650979974998,0.392525623005274,-0.974451026465508,0.281220483340267,0.356331403220918,-1.93075427413374,0.392752418525613,0.144507529630363,-0.926998511431757,0.194496854923019,-0.127072550205415,2.11282062613982,0.325044156681665,-0.0393796179502514
11.85,-0.377594903333028,0.258253252448978,0.878598347326516,0.19136766173961,-0.105038382106868,-0.214877826664079,-0.998053918707718,0.0710783586375638,-0.0788594926096575,-1.0549089368542,-0.193163794236679,0.399633162422449,-0.965711932138297,0.269933997252606,0.35647419549502,-1.87912190688433,0.378860670790948,0.161244534520551,-0.914879901510866,0.218121183784869,-0.136154094456719,2.09505039857367,0.289249713047044,-0.0398768026246777
11.855,-0.376742353435366,0.27368090529358,0.875986905655316,0.176181915223019,-0.102942359626873,-0.205497535759734,-0.995876562032715,0.0661147564218576,-0.0953223283694736,-1.01639317296061,-0.206591665854483,0.407084420995017,-0.958494977345921,0.254097247464889,0.346128806608359,-1.82134129585238,0.356662209312563,0.197886632055771,-0.911407658192118,0.233321826028094,-0.132107798397586,2.0887442821449,0.250198809354573,-0.052953076778137
11.86,-0.377184002981789,0.285591267631656,0.871241233698253,0.166005967291188,-0.106599017977715,-0.20083219998346,-0.993291617957036,0.0613743213026426,-0.112315437379013,-0.976478722396059,-0.217788046373732,0.414846954192543,-0.95359948251204,0.236655890436615,0.338000654123477,-1.77462499512754,0.338006796491728,0.216664423256968,-0.910225153273496,0.239851461100049,-0.127059704982776,2.07171325934768,0.209458824694839,-0.0657164062677482
11.865,-0.376958907614021,0.27473224758111,0.871699019031719,0.14656207775487,-0.11244380466992,-0.200420325766672,-0.990393104556945,0.0568878260691178,-0.129554236058157,-0.935724918736859,-0.226649302669986,0.422865980445218,-0.945663839097836,0.204802825693189,0.321545988149535,-1.75743329920194,0.323289468780596,0.228778439247748,-0.906144768392745,0.244042927336937,-0.113041447311522,2.04841381641083,0.179607471513522,-0.0744551346344574
11.87,-0.371864734924462,0.283352347188499,0.867531199969345,0.127093906210069,-0.110312244085637,-0.197107214156454,-0.987280832335339,0.0526824539673212,-0.146769353100683,-0.894819808384178,-0.233117735329074,0.431067657176953,-0.931636493259221,0.164717008606574,0.30717238697448,-1.78206356641612,0.308935420367319,0.239507716283009,-0.897716262667677,0.255677150882122,-0.109038981645338,2.03828313308783,0.159040928392886,-0.0817595132697068
11.875,-0.397293491711462,0.277427086009137,0.857614512296853,0.102119324088034,-0.115071242558634,-0.186394591882711,-0.984055934750994,0.0487857273989746,-0.163722868477482,-0.854539698377538,-0.237182933741914,0.439364352202428,-0.927046884677029,0.154742807766091,0.305887485925968,-1.78467887463494,0.306986268329729,0.235298285451728,-0.896324574267616,0.252912334443875,-0.102600683740517,2.0344557451785,0.15922680081593,-0.0784431370147399
11.88,-0.405681318818694,0.272370513168769,0.859964767320825,0.0735680088400841,-0.117687238001702,-0.170796296448732,-0.980818968199768,0.0452199907626061,-0.180216334997478,-0.815691127629698,-0.238880812001404,0.447661558467296,-0.922213529118983,0.134328799718044,0.312012615611584,-1.75147118714738,0.299456365645672,0.214333168796866,-0.901509493551009,0.246307395181476,-0.11314246035781,2.02968406601804,0.177053230883415,-0.0750116447663341
11.885,-0.40248144776886,0.284191024335154,0.859979810071452,0.0573912819490484,-0.12974096388246,-0.167906241116837,-0.977666042231748,0.0419952014366005,-0.196088949766899,-0.779039853445908,-0.238289063536864,0.455866917019638,-0.918163677959133,0.107572725721652,0.299685755245868,-1.68213283222815,0.286899647214408,0.195061976413378,-0.901403224154693,0.233467382064592,-0.109965171112435,2.03177182787003,0.193713705423506,-0.0754292124160203
11.89,-0.402368910668761,0.284601153946133,0.85919082882859,0.0344786871921297,-0.130763608008308,-0.165982950761023,-0.97468178035497,0.0391079655432075,-0.211207396586912,-0.745237616300013,-0.235519185525921,0.463900824912208,-0.926543096729388,0.0902199569147042,0.290089663436681,-1.61543302681113,0.279870672498762,0.165062075375119,-0.91430713342468,0.219115380624884,-0.111111455146279,2.03878802581974,0.211820035466868,-0.0765857917756171
11.895,-0.397338084189938,0.277597564170563,0.860689622408868,0.0152170266164762,-0.134506576700224,-0.162058257912482,-0.971931916212085,0.036547716639134,-0.225453074703738,-0.714760843487942,-0.230707187155656,0.471706491383229,-0.93746096234578,0.0710777831132972,0.277801875393492,-1.55536505606689,0.276360264692861,0.134145468722332,-0.940978444464867,0.211092767742536,-0.118350629626979,2.07197140895697,0.215133995073006,-0.0822172121358195
11.9,-0.41507328749398,0.248044790540073,0.865816582433896,-0.00106760027902985,-0.134944549492623,-0.159454222920127,-0.969460373491398,0.0343036649794945,-0.238713274764903,-0.687872187714711,-0.224005657964481,0.479256759667379,-0.951272854831319,0.0562435332673026,0.257023013967144,-1.50973743303603,0.277673959732056,0.0907075399212285,-0.965026454100375,0.203604501291089,-0.131572237248721,2.10735761887038,0.211126709016474,-0.0803888927886589
11.905,-0.407576633222242,0.229569391365696,0.877305091382885,0.00101439662041486,-0.132350725478952,-0.166290571702117,-0.967294501794851,0.0323645891270833,-0.250879703744125,-0.664608817955192,-0.215578633531063,0.48655600695024,-0.969660930880753,0.0445485170097061,0.238802308472575,-1.46932528097089,0.287906734643371,0.0674635962027689,-0.994732504221131,0.197607709806257,-0.140743174633956,2.1346874355737,0.188792572324502,-0.0901427555260281
11.91,-0.399220022184402,0.239465421337756,0.874952959885563,0.00498754876803315,-0.12641539927062,-0.160366164620691,-0.965457107621291,0.0307085577106127,-0.26185340838887,-0.64479509342251,-0.20559875234296,0.493637246246527,-0.983051137696387,0.0362972640646259,0.222826602935312,-1.43898831856348,0.301593240371708,0.0666656242842702,-1.01633341858373,0.189838096784464,-0.149722187266719,2.15569563355368,0.157878143052886,-0.0975878637393121
11.915,-0.395900087751322,0.220603357063289,0.876122087459754,0.00586409218671004,-0.119466873084607,-0.167091722582671,-0.963977279398816,0.0292876973402484,-0.271553066031757,-0.628073754623431,-0.194244928096298,0.500556237530321,-0.99611701362659,0.0231076530051858,0.19486312399135,-1.41115156902683,0.326210710043972,0.0868265077315313,-1.03510265548097,0.184408476961947,-0.160584827513296,2.17603023691372,0.101132525304325,-0.113730173447196
11.92,-0.393088095094772,0.222322062940748,0.876526341718249,0.0236136847033812,-0.115422261588372,-0.174601609338979,-0.962890346190151,0.0280188632711627,-0.279924494849065,-0.613947916236888,-0.181698937940306,0.5073852960161,-1.00128984951303,-0.00396654011822056,0.165523737446252,-1.41341497867273,0.35464937447044,0.127570956359034,-1.05536490559759,0.179018385289587,-0.164406252557251,2.19023694588569,0.0108434225876785,-0.131048315796452
11.925,-0.402916582572354,0.208055828615299,0.881559951831537,0.0422674041642418,-0.107104508385003,-0.171927021838082,-0.962224866909614,0.0267896744609585,-0.286950078139167,-0.601824175313253,-0.168140659354991,0.514209023248398,-1.00292521144107,-0.0319812271382026,0.141575637559633,-1.41682735845575,0.375848472553355,0.158966386114219,-1.06440518192572,0.179053268428686,-0.165499378485399,2.19323396682739,-0.0808443764612447,-0.150641148118275
11.93,-0.406411935382148,0.211883666215423,0.881833334936836,0.0586888858243072,-0.106487584157399,-0.174325595535199,-0.961985403474001,0.0254804747775965,-0.292655021019577,-0.591046727785793,-0.15374290761443,0.521122393374896,-0.997899517973839,-0.0534143201153093,0.120777115813046,-1.42547980713838,0.39554534211655,0.188086387286728,-1.07074698334596,0.195367004056769,-0.155278128597444,2.20536211775645,-0.179591262343499,-0.160565615769859
11.935,-0.405473512940211,0.21107875159602,0.891739885681776,0.0738092505261678,-0.100249306030534,-0.178083705255566,-0.962143527580013,0.0239924777874981,-0.297105205099272,-0.58091749786803,-0.138666996149966,0.528229542207779,-0.982669044724961,-0.0511100299377902,0.115262432218766,-1.43894957923859,0.407827016786211,0.193523997562912,-1.07590424539276,0.213668521226552,-0.143846439096103,2.19265065636745,-0.237434813913916,-0.173449082863194
11.94,-0.394608442942357,0.220772658489907,0.895625421322755,0.0914849166519493,-0.08821134866074,-0.183262954360877,-0.962643506246649,0.0222679713475095,-0.300393690178686,-0.570707869759997,-0.123059723881105,0.535640614506461,-0.964694192665146,-0.0378224803033843,0.128144206609111,-1.48044916720329,0.417148087806334,0.173743528459493,-1.07145588295351,0.236907532870505,-0.130397686614499,2.1495568582265,-0.280208899203471,-0.189603350078206
11.945,-0.383781435437091,0.230860223524471,0.89195507289525,0.100102433322757,-0.0735264266335188,-0.177762668090056,-0.963419898265939,0.0202930062084222,-0.302619878993057,-0.559676007936984,-0.107052428179363,0.5434648107404,-0.951741078881332,-0.0174614455010552,0.152752767775302,-1.50825247382187,0.429585586760528,0.148994450084097,-1.06534602764325,0.262414433656871,-0.118201634308389,2.09626626074386,-0.285574076715926,-0.204426130288619
11.95,-0.387885380598815,0.247322893892673,0.884991521445069,0.109951899162855,-0.0604082069945039,-0.176367944334143,-0.964418821122117,0.0180840683526649,-0.303870624429641,-0.547100627040758,-0.0907629267691508,0.55179984954935,-0.95135313310787,0.0106035900058497,0.197537337411943,-1.53130022155161,0.438262969253357,0.123334319039834,-1.06472711632435,0.289780287832064,-0.111879094809791,2.03479359616509,-0.270503891287794,-0.213291845060801
11.955,-0.392507853390976,0.256844479771821,0.875946603449515,0.104121122015321,-0.0601746290922165,-0.177450960804061,-0.965614685512436,0.0156702159011457,-0.304210244699006,-0.532328135335183,-0.0743006026732712,0.560719972864387,-0.957120260194209,0.0302276867582876,0.254102796178301,-1.55211137753246,0.446560453817641,0.0890565844259324,-1.06572167654001,0.308855456451248,-0.109612508508844,1.98562587717654,-0.245896043463887,-0.214009076356888
11.96,-0.402840531746135,0.251526167072052,0.877184563392937,0.0944998124246372,-0.0465427297733656,-0.17660776617624,-0.967017133816871,0.0130833522734946,-0.303678784477112,-0.514817761704681,-0.0577733671633685,0.570265220099666,-0.965499654957099,0.0456516040555636,0.299975140099974,-1.55448005064857,0.453724782134469,0.0400761743847631,-1.06200345895574,0.326926771039378,-0.108606472969003,1.92344449732523,-0.218397643108405,-0.214009076356888
11.965,-0.405393185777365,0.258623956520688,0.88058585837678,0.0944531060966653,-0.0360781125130841,-0.179989215953745,-0.968666910278686,0.0103620363481132,-0.302292595050905,-0.494169084221501,-0.0412941367728615,0.580434143869257,-0.983180787860981,0.0405475328170486,0.33296225283149,-1.53864624089218,0.45364101633392,-0.0333304581078872,-1.05639072875895,0.333238852742106,-0.115708949780177,1.8745563861607,-0.203651698644841,-0.203069264795734
11.97,-0.403910852187307,0.251482844669312,0.880509607769553,0.0829831811856012,-0.0250385988428369,-0.179594829068426,-0.970625034991329,0.00756497793355341,-0.300042164380468,-0.470126961241248,-0.0249851451989477,0.591180988775171,-0.996880061889052,0.0290798650530719,0.361704382305192,-1.51904948770043,0.454819679260254,-0.0711501843139418,-1.04674344014034,0.320960794567647,-0.112581757467433,1.83723230656013,-0.208855490266774,-0.19272728259205
11.975,-0.407017524731972,0.242254259627428,0.877833096625931,0.0815995953297911,-0.0182978951165186,-0.181321457028389,-0.972964030199625,0.00478415700958061,-0.296886762489228,-0.442571767940457,-0.0089804279321225,0.602416783895181,-0.998580934684128,0.0217374976191143,0.381067251046729,-1.4957252031865,0.455247762862951,-0.0970860265501933,-1.03927018153984,0.301466682252529,-0.118917260797173,1.82143581853015,-0.231304996930074,-0.180206133997474
11.98,-0.39621846719772,0.255557877041047,0.87779499243933,0.0801378253668596,-0.0108711919427265,-0.179040409031736,-0.97576710034154,0.00214735921745801,-0.292749758959381,-0.411509586792432,0.00657171979151333,0.614012416266782,-0.999044383605407,0.0159372003925552,0.388753374240506,-1.47934385579074,0.459410493976387,-0.10050002553338,-1.03471945606804,0.279478408380944,-0.10672938326913,1.83121542765695,-0.255427243114742,-0.174175578392458
11.985,-0.379153827897086,0.257865929818146,0.88954547290792,0.079676479101181,-0.00336768940884905,-0.17765636742115,-0.979132908290435,-0.000192943151952423,-0.287518724631284,-0.377073692050823,0.0215048011314874,0.625801472706266,-0.987432770077721,0.0145725429000385,0.393171629579595,-1.46742195784743,0.469140932488322,-0.0844233605310286,-1.03981895567979,0.249920086839695,-0.0883994783206789,1.84089880273816,-0.278862840887702,-0.168561072511238
11.99,-0.36853396772065,0.274965985079157,0.885854923552992,0.0765765378963051,0.00106160623218113,-0.170124186911393,-0.983178986436484,-0.00207799328703103,-0.281051291189811,-0.339540199054807,0.0356284668738941,0.63758139193237,-0.972271934279802,0.0137346002978415,0.398514668564294,-1.45378025559325,0.482782640181591,-0.0436278763375402,-1.04936459648804,0.219748231016121,-0.0722713742012429,1.85569345611068,-0.287771045565277,-0.173532812846426
11.995,-0.347197238285911,0.311619784590005,0.878030572836214,0.0582226746282903,0.00492277623144572,-0.164222833051441,-0.988038978323608,-0.00335889612942773,-0.273187448806789,-0.299354646564197,0.0487219376225507,0.649112607637397,-0.961785893693859,0.0206274624981803,0.394876802736256,-1.40170917465779,0.501744930754567,-0.0164433803091558,-1.07299572974596,0.197587360106432,-0.0600705832504517,1.86896268246988,-0.278547983482062,-0.177658036545463
12,-0.34990463039092,0.318479375045552,0.871028385249702,0.0307004949004024,0.0102091168595333,-0.157799146175102,-0.993853165978964,-0.00390568547821954,-0.26377125042435,-0.25716125828278,0.0605281420975251,0.660116754154667,-0.960699162783947,0.0256087521848705,0.394943944207492,-1.3700274769381,0.521926682812547,-0.0077556525168175,-1.09568980625377,0.175613220392706,-0.0706965064793131,1.88550757085086,-0.26341666781189,-0.184283034291378
12.005,-0.376653390485599,0.322989900485439,0.865557001533485,0.00707624974267387,0.00719617271059063,-0.160028807836458,-1.00075471739788,-0.00361008784953435,-0.252679786151123,-0.213819810745547,0.0707512615712135,0.670276219059873,-0.956744062414601,0.0283957188588133,0.383153794655287,-1.31275892110723,0.536632210342022,-0.0138549136578533,-1.11195277128817,0.153618244063238,-0.0871285937329458,1.91725504476763,-0.243538042614973,-0.198456083077347
12.01,-0.380797058201487,0.3224775773271,0.855062105868141,-0.0147241714455883,0.00934225327659914,-0.164300275127151,-1.00885500275649,-0.00238403959164593,-0.239846298759889,-0.170395508102636,0.0790601332857221,0.679237172638037,-0.951065089669322,0.0338611856852107,0.366133807895514,-1.26356669806536,0.552039370549816,-0.0262835882528095,-1.12531814747796,0.131544039824595,-0.107719269639886,1.95121245523342,-0.245098067418074,-0.216794404490569
12.015,-0.386967876549951,0.312401906205844,0.851993087028696,-0.0510846339290674,0.00248198263541812,-0.17132903398166,-1.01822962928001,-0.000155035674106594,-0.225265310659645,-0.128122496681377,0.0850972425023836,0.686616568834657,-0.946474597331944,0.0419323187871522,0.341006754758415,-1.21785657304408,0.561773540713554,-0.0741937553948843,-1.13647795872174,0.098927574451861,-0.135693092895978,2.0046386491808,-0.272072889261163,-0.227849061419541
12.02,-0.394924346714579,0.296403702536527,0.867098492496689,-0.0763253930381165,0.00124735581939675,-0.180774278120278,-1.0289051439106,0.00313996197224374,-0.208985296162057,-0.0883584195279501,0.0884899829673028,0.692011972251166,-0.935782499640605,0.0473113917299515,0.312644271943811,-1.23680455730042,0.569059205509037,-0.0931720647038715,-1.14756919455461,0.0719789706046257,-0.163003489168882,2.04826492254065,-0.322467685687111,-0.241591729078457
12.025,-0.3928304534232,0.277233995966202,0.872049246003734,-0.095564819680415,0.000330047114620275,-0.186146634740236,-1.04084826422396,0.0075579748565504,-0.191107990693267,-0.0525470337226266,0.0888609352995903,0.695012453664454,-0.930064453641074,0.0555263612139855,0.274618268080167,-1.26309653491655,0.574679418658279,-0.141245955849878,-1.13888090300819,0.0528234537293904,-0.178796162703768,2.07824646977558,-0.38449397318143,-0.248912968022144
12.03,-0.387648298359433,0.288084318187022,0.875384721274271,-0.10612417657709,0.00467826614437802,-0.194310144243664,-1.0539619987454,0.0131463614103569,-0.171804984360188,-0.0221898540673196,0.085837177478859,0.695209081043388,-0.928005781737704,0.0694845836194102,0.236112144755642,-1.31188518126436,0.573324024677277,-0.181632463536443,-1.13086134081943,0.0378692759800616,-0.191851269707688,2.08701123567927,-0.443992783359998,-0.245837867106096
12.035,-0.379414164924704,0.289226647572794,0.88598761902711,-0.129313267122061,0.0241565680168035,-0.191209268399942,-1.06809045376473,0.0199316796746996,-0.151340581139592,0.00118534941525182,0.0790614256349239,0.69220423944746,-0.92719960499271,0.0895338559893161,0.204581498211845,-1.35068120234496,0.569862719167218,-0.204876574554285,-1.11567333809248,0.0330422629261562,-0.198228112814845,2.07781137154616,-0.485977304084575,-0.245681910426599
12.04,-0.379097043064414,0.282923878564103,0.887640114256353,-0.145089202376961,0.0315572058439811,-0.201191421786262,-1.08302867566937,0.0279056285359005,-0.130079463180348,0.0160674358517934,0.0682069221586609,0.685619425309487,-0.957287977353889,0.111444969998909,0.170789925738477,-1.39983949290842,0.561085789166039,-0.256666646630345,-1.09696068030253,0.0312419513716206,-0.191947344501349,2.03769309932713,-0.513815128110284,-0.240636556184805
12.045,-0.370529385044418,0.28308584723121,0.889984095938694,-0.170557662830217,0.0496883445401973,-0.199378283123981,-1.09853203242396,0.0370134055412867,-0.108470601573604,0.0210088083953121,0.0529944541654649,0.675100934842264,-0.980674348660961,0.117936914287896,0.138759698945442,-1.44172898311392,0.537896380548905,-0.309841101959631,-1.07574582167667,0.0372390187862978,-0.186006785398918,1.96758887504776,-0.521697437869424,-0.238727086628611
12.05,-0.361583768666229,0.293513899345978,0.886240068175543,-0.168388158695432,0.0626146521012931,-0.212982204625326,-1.11432214797694,0.0471475683979021,-0.0870210887802856,0.0146619607228041,0.0332078065978782,0.660322947630871,-0.998588371352233,0.142170535045502,0.118566688595299,-1.521349569893,0.507600880448047,-0.327957563438622,-1.05355292284019,0.042673893344667,-0.189335265522919,1.88730689323838,-0.505417268577774,-0.242522650617702
12.055,-0.375959246262552,0.302070720363176,0.895058471324893,-0.189355640544114,0.0800876668778017,-0.226540197793657,-1.13008978369575,0.0581493752356461,-0.0662809140772861,-0.0041958034123005,0.00870570262774512,0.640988785013693,-1.03793155304592,0.152214245933999,0.0973910137120149,-1.59261927678991,0.479807529873719,-0.383268456220125,-1.03162160210687,0.0516362963637963,-0.192557964006109,1.79136782800821,-0.468844260597039,-0.251933459020495
12.06,-0.364952295210177,0.319125337298729,0.898541771285092,-0.212264976028999,0.104705133821405,-0.227751289661003,-1.14549741790266,0.0698187901934253,-0.046844693846437,-0.036630619756294,-0.0205681189583448,0.616832609647466,-1.08049310007761,0.181409181941764,0.0773755099262477,-1.70397564710574,0.451617136694662,-0.473323498326688,-1.00934473408803,0.0469580244200477,-0.186561840892565,1.69048093297284,-0.421136773622499,-0.265442569981612
12.065,-0.353432801814654,0.359514908249784,0.903583936127089,-0.248062875717307,0.142976340326491,-0.225975901861408,-1.16018465163789,0.0819305867957274,-0.0293546291036308,-0.0834904544804165,-0.0545734489361671,0.587623629259026,-1.10663352458275,0.168089609328648,0.0680751797122894,-1.84254322148035,0.41440158384076,-0.494122294142361,-1.00178601335679,0.0402853918686491,-0.182998986434186,1.62095132709501,-0.384779683866903,-0.279831254887965
12.07,-0.353815113023876,0.367566042849944,0.897946851740669,-0.294197786223521,0.177237786268453,-0.243390931009265,-1.17377735766433,0.0942491168881913,-0.0144824586098714,-0.145312671258114,-0.0931597337703682,0.55317259728836,-1.1329173384597,0.19115757034117,0.0521612307458916,-1.97542386202979,0.379949637759831,-0.526024886511864,-0.970504331220067,0.0330372470598733,-0.155710353628175,1.5447349097826,-0.352482337408444,-0.297251086778262
12.075,-0.370086087675604,0.384877126715386,0.889069445150148,-0.311449414301827,0.223832767803191,-0.28036896430762,-1.18589844905447,0.106534349475741,-0.00288424780515369,-0.222230364859087,-0.136052764155091,0.513337968092042,-1.15592728615236,0.186463697408314,0.0502581175137079,-2.08195234839667,0.345018845451022,-0.524863765331059,-0.947192670682446,0.0225803172852648,-0.127183263373131,1.49288585900092,-0.34532572760647,-0.304812670640399
12.08,-0.395066258675753,0.426307663866823,0.88592268643717,-0.360528797834632,0.2760146985443,-0.346524967313841,-1.19617683373946,0.11853865980313,0.00485512453615903,-0.313916647728621,-0.182846741446936,0.468028926528754,-1.19208022331771,0.190986289915085,0.031820106101754,-2.18511824414522,0.285678818342327,-0.519452851466197,-0.924997902272902,0.00956126392243149,-0.0988850903857095,1.44403582408078,-0.342201354950246,-0.312124864275138
12.085,-0.403781683544933,0.430255632272931,0.878266571614548,-0.404046393050903,0.320654313441246,-0.434856109448619,-1.20425248218529,0.130001593218022,0.00826472663940836,-0.419583975536216,-0.233004384314786,0.417205139824568,-1.17186316156433,0.210227878704671,-0.0153830705477791,-2.24049931732821,0.216366040466919,-0.462079669894991,-0.903181548829263,-0.010207705806984,-0.0757324115851728,1.4139204293911,-0.339767669457055,-0.327670179964451
12.09,-0.419272431220335,0.428121374011118,0.881238665676287,-0.429815703583625,0.388841024880874,-0.532474757292301,-1.20977917595165,0.140650521994574,0.00701063328936502,-0.538023513986041,-0.285864303462772,0.360876153883813,-1.15463201073509,0.195173924690741,-0.0526282947654383,-2.26490883244543,0.180343601080126,-0.337741807424098,-0.891468253848676,-0.0228056027304991,-0.0596806278323734,1.3987722224939,-0.326543330257716,-0.337203088583883
12.095,-0.382289602923436,0.411608405997543,0.90455763362028,-0.43343523144722,0.482951302126421,-0.709957234783705,-1.21242981106889,0.150208518753587,0.000911079322921961,-0.667658389990243,-0.340653983531494,0.299103843459795,-1.15072282071131,0.13252739269706,-0.0889612809443873,-2.19201581456679,0.145644207124566,-0.0752400672928656,-0.880916954491582,-0.0542833265800266,-0.0397292742463623,1.3798203982534,-0.267692042588318,-0.352465684987771
12.1,-0.391602249098708,0.399139259860172,0.900174833581836,-0.377436886564659,0.63415099169821,-0.993123961860707,-1.21190805789715,0.158405189644049,-0.0100442954623163,-0.806600117696734,-0.396508471958527,0.232008789883414,-1.16718647000037,0.0627447097593723,-0.0954918899410303,-1.98182671190736,0.123615964144719,0.168424506889345,-0.878544575714753,-0.0907315673946519,-0.0269462427313136,1.37591780421115,-0.195154921802524,-0.367921220349347
12.105,-0.391217019568466,0.456662058499377,0.894322933001855,-0.348775151073776,0.806595985070852,-1.22513664976142,-1.20796514132536,0.164987119540223,-0.0256744712166035,-0.952715120591478,-0.452496019833155,0.159778814339307,-1.18042128956967,-0.0124060636042239,-0.079790528657837,-1.67813692588346,0.112054231809902,0.416877310723772,-0.894307487311702,-0.141214955058626,-0.0197464483975867,1.35671208740036,-0.0896851296503218,-0.382468374937378
12.11,-0.402320581322597,0.420587635136751,0.890287074707454,-0.29316312297284,0.947963138154026,-1.44486673743139,-1.20041718607944,0.169727810329121,-0.0456000009960654,-1.10370747058806,-0.507650496092396,0.0826775797327524,-1.20158099244424,-0.0803655116385753,-0.0553101320595428,-1.33526278579192,0.0995795757179292,0.671396181943856,-0.920950128738407,-0.201793288341894,-0.0177490126762948,1.35579945892682,-0.0138989830653259,-0.398272628024795
12.115,-0.463031510367179,0.431084778897667,0.816559745807356,-0.157962989515441,1.11210615589896,-1.68891361709381,-1.18915979541077,0.172437657905346,-0.0692584242567218,-1.2572131018257,-0.561007943130855,0.00105204105496098,-1.23403002086487,-0.132866395340225,-0.0192834550596291,-1.02780244877703,0.0872997804741076,0.895721909458697,-0.966455937089359,-0.256821401998517,-0.0385453334848148,1.3857704920165,0.0693279624194718,-0.423993394890236
12.12,-0.664498187407653,0.497059645980637,0.856402917418924,-0.050205345613841,1.27301774464736,-1.8438561005861,-1.17417905900935,0.172973828121559,-0.0959422977353264,-1.41089560626116,-0.611643364160598,-0.0846623074617793,-1.26390630220317,-0.147995301029441,0.0119978629854346,-0.753049279098299,0.0713550837586497,1.11711445961421,-1.01547464479782,-0.305191966273358,-0.0881552822734936,1.45644636936028,0.157310801993406,-0.464252940520878
12.125,-0.601932928188481,0.809507343545342,0.819225721618562,0.0351667281603381,1.3001249821736,-1.98382829725714,-1.15555918744445,0.171249364295137,-0.124853442793292,-1.56253370645298,-0.658704010969778,-0.173939488028167,-1.29135385861173,-0.129423048747576,0.0310855786736735,-0.579859577658519,0.0607712004605414,1.30281037260385,-1.04880640811118,-0.326187051508384,-0.150014011610718,1.53691219721655,0.224194116849996,-0.494930843038217
12.13,-0.510737916092034,0.88760206876447,0.795183385566442,-0.0253656026633993,1.38074589871411,-2.32465379524441,-1.13348723721506,0.167239978828319,-0.155162529818151,-1.71009091410051,-0.70143647952798,-0.266164971032881,-1.33860096256684,-0.0824960874396094,0.0396196327328963,-0.448043428658302,0.0580590280048033,1.47518854069087,-1.09935466852034,-0.322686694440257,-0.253579284660222,1.66116429438877,0.330173264444172,-0.52660996233593
12.135,-0.538397176775426,0.635385397746628,0.797118467381749,-0.112139527293098,1.42616789553378,-2.68092750095707,-1.10825549710563,0.160986617263999,-0.186061249037729,-1.85176056540261,-0.739206473506594,-0.360641469227704,-1.38440822983416,-0.0303538948822247,0.0491163982235656,-0.36867749113067,0.0577689558267593,1.59082656867414,-1.12485852059338,-0.300263707447314,-0.334377946612942,1.7721155400078,0.424025408664513,-0.536536395549774
12.14,-0.602692779524656,0.262931017672589,0.69684944183738,-0.114163641165794,1.44347533436479,-3.04412418837935,-1.08026132794323,0.152592455921146,-0.216797655321945,-1.98598492205801,-0.771511587619967,-0.456598234612116,-1.40628664678292,0.01979118232235,0.0528496628068352,-0.345760754412342,0.0601847013552656,1.65432711114894,-1.12149281326552,-0.284663238641105,-0.362607811125132,1.84106419746445,0.46502192787044,-0.532963904105278
12.145,-0.834551125584801,0.0128076200195216,0.894949806035338,0.129297216120578,1.35546370574146,-3.39709169232401,-1.05000307872614,0.142213717053849,-0.246692511020479,-2.11145379894296,-0.797988383614876,-0.553203409254626,-1.40782045004464,0.0894485956928591,0.0527730191710068,-0.353263114277274,0.0424875554509205,1.70897939278642,-1.09380700243154,-0.2603324516446,-0.341419316302233,1.87141498299159,0.489615739472921,-0.509098130524091
12.15,-0.807027652919668,0.379880149342755,0.851997870471777,0.574096060998195,1.15696236978659,-3.774329436796,-1.01807011192574,0.130045448914354,-0.275142378204879,-2.22709455513331,-0.818415310732271,-0.649579527569805,-1.37104622900696,0.151000016172794,0.0373868291275865,-0.387517660140445,0.0181705337482337,1.746464400341,-1.07645588899935,-0.243282852181034,-0.2983252850296,1.80071679934187,0.466752882488498,-0.486065507500092
12.155,-0.686169130140627,0.899124193197436,0.814409678633057,0.735276054753256,1.05123288233351,-3.94948473852125,-0.985124609932742,0.116306179318119,-0.301620519222273,-2.33206584526719,-0.832712412900673,-0.744822894441274,-1.31498560156506,0.197181978632656,0.00954371999709132,-0.464003642076181,-0.0186952620083601,1.77290084665363,-1.06161457200565,-0.222302464975175,-0.252659947951994,1.64575911541607,0.427881334062034,-0.477146597724834
12.16,-0.612739051852031,0.933412495753152,0.740982441096201,0.471198800220654,0.924071089517767,-4.02903533295929,-0.951872848813564,0.101225951328463,-0.3256851688479,-2.42575950739272,-0.840937275744725,-0.838026961032833,-1.245813348997,0.230425021924683,-0.021868245639738,-0.520885496845374,-0.0518748846699323,1.76782461364448,-1.04809588227562,-0.204289219330838,-0.193273994119923,1.47193150139815,0.441637870692447,-0.460091584203275
12.165,-0.510324877443447,0.436045299923373,0.712892985341778,0.327142787962752,0.76218524724442,-4.19283310390946,-0.919025877429305,0.0850394801949982,-0.346996247655851,-2.50780575202904,-0.843275482580322,-0.928308207048853,-1.17184696948011,0.247633748811223,-0.0534412998725486,-0.581426768931957,-0.0923823010235933,1.75005160272714,-1.03106833386291,-0.186502436119734,-0.140515254249317,1.34424365573213,0.516792088274643,-0.4369271845169
12.17,-0.698573909860375,0.106674934381555,0.74401657447265,0.817322868616569,0.643817206519606,-4.35113686473549,-0.887254542773881,0.067982890534363,-0.36533242084056,-2.57807432698988,-0.840024340290224,-1.01483194149194,-1.07816897593599,0.249577319720186,-0.0897195164607976,-0.651170825308267,-0.142568840640663,1.70109318710153,-1.00829504017683,-0.159633657298277,-0.138607730907981,1.24554556432416,0.614225067462676,-0.42632976852044
12.175,-0.804103707427872,0.0793011388874804,0.847249465937528,1.35174138565206,0.515670585522176,-4.47706662708499,-0.857148249074099,0.0502912518746912,-0.38059714223784,-2.63666721293004,-0.831570750916555,-1.09683547063035,-1.00999117892351,0.232168823561938,-0.11236847960682,-0.719729432270672,-0.162208364600324,1.65621199601688,-0.989101317121429,-0.151634544691074,-0.136903283888906,1.20989165699192,0.713309789686671,-0.41938841504768
12.18,-0.746338234471959,0.378813644632555,0.910675647227388,1.99424541287939,0.246648085039673,-4.64300766276177,-0.829186490755112,0.0321947280725062,-0.392806713046551,-2.68390180812076,-0.818366371808985,-1.17364676947564,-0.927392962153172,0.2011167688078,-0.136597968980646,-0.852196384200083,-0.185778599940407,1.60120105136817,-0.991044087524863,-0.141384408207228,-0.148224735899919,1.24273334772675,0.699490884388393,-0.397379003781234
12.185,-0.852883616837201,0.63811007765418,0.931285840464621,2.16525794979221,0.00240962699104131,-4.67140633832439,-0.803727891919754,0.0139125402265532,-0.402063576607595,-2.72028662281517,-0.800903983994044,-1.24469781954634,-0.862136610751073,0.151057739014479,-0.16191368641421,-1.04467559781588,-0.19806449183791,1.54253145827873,-1.00048602461844,-0.144069203461621,-0.139823044847487,1.32878785901367,0.591907103659366,-0.379252318547218
12.19,-0.894659851006424,0.740224055220679,0.940017787297941,2.14668774035097,-0.24609394318113,-4.56736761724224,-0.781010741750551,-0.00435388843779549,-0.408524738978846,-2.74649426706671,-0.779697611483241,-1.30953298532793,-0.800840235433527,0.0946596603309872,-0.177084576956378,-1.2609146330556,-0.193173149213181,1.47225008594194,-1.01001213315116,-0.134872897277295,-0.124253688104106,1.43009953713166,0.421311515873245,-0.344611638623697
12.195,-0.86488606253776,0.701373521552486,0.888015288255358,2.02619496801628,-0.485097368593015,-4.42763163588466,-0.761155939930695,-0.0224252104191653,-0.412376656528242,-2.76333455498501,-0.755266168934612,-1.36781317631395,-0.755377123446975,0.049887890824709,-0.18187913255957,-1.46310954606855,-0.187107526802241,1.39741601287925,-1.00512163582664,-0.10631782898777,-0.0759669826561596,1.41138687907246,0.219234840500331,-0.340689442881031
12.2,-0.781169129524774,0.665126922526709,0.767160587880529,2.06473274905453,-0.724215006565667,-4.22247450677987,-0.744179494395569,-0.0401445376122312,-0.413827509154039,-2.77172199907694,-0.728118302466004,-1.41931513641038,-0.719055640843813,0.00565464872582247,-0.182054508424827,-1.67167853866969,-0.17620605713768,1.31221108132691,-0.989128574995173,-0.105642603799578,-0.0509715460479498,1.4142472873213,0.149012707593094,-0.34538383675465
12.205,-0.607984685632325,0.749415353475543,0.585786337884335,2.15392726021681,-0.809862872279105,-4.03817447920269,-0.730015659193012,-0.0573789234180578,-0.413109758166576,-2.77262821332296,-0.698736705008585,-1.46392384194885,-0.695718737932643,-0.0226878491414642,-0.182896289332819,-1.87476990444014,-0.161285536837988,1.18763088496699,-0.980153753375769,-0.100274794717169,-0.0378654303230461,1.42879631760839,0.143752557699602,-0.341014834604283
12.21,-0.517467204631945,0.789688918463704,0.487064156883206,2.13779525078873,-0.773488044905393,-3.86876752475811,-0.71853813748759,-0.0740280975514632,-0.410474001105215,-2.7670218918436,-0.667563092789763,-1.50161782169361,-0.683139704398808,-0.0391906182532715,-0.173379649461612,-2.00747803989153,-0.153119883976419,1.12267315901549,-0.970394502860399,-0.0989861318231849,-0.037135468190216,1.4015833893126,0.187094662740575,-0.333444816401673
12.215,-0.508414886925265,0.641669222932014,0.505031472364436,2.08239692810572,-0.697403727657611,-3.65557275439127,-0.709578935739149,-0.0900374171674504,-0.406174402882395,-2.75581378201877,-0.634986708494299,-1.53245092877919,-0.689718846126609,-0.0441519849330842,-0.159827467678192,-2.17101051305975,-0.136989110847766,0.982768598749812,-0.965722575200798,-0.086256737270651,-0.0478242502444026,1.32941798248918,0.22410456510145,-0.316860175202702
12.22,-0.528439359257172,0.527282164034528,0.55475647014281,2.15451497535796,-0.668260920384611,-3.51800955775796,-0.702945813796539,-0.105404298945793,-0.40045769413466,-2.73981893527443,-0.601337479384421,-1.55653454557578,-0.711123654091719,-0.0415437477221517,-0.143246821798843,-2.2800870250523,-0.119737570147134,0.883332875544503,-0.974693002956323,-0.0803228163194796,-0.0436387646502555,1.2839506821665,0.211400453735859,-0.296087750041152
12.225,-0.52994088674551,0.4660463149258,0.602092575558055,2.28579381126157,-0.681482458518143,-3.37291230171259,-0.698436013601211,-0.120173202493065,-0.393559568302593,-2.71973070296879,-0.566882490819069,-1.57402094874236,-0.734631833702293,-0.0445464792873241,-0.119370672924878,-2.39035958154174,-0.0982301350561449,0.769851589197537,-0.983844533225795,-0.0715153678211643,-0.043413748323382,1.26800981086536,0.212460710723906,-0.26669423246906
12.23,-0.505520533884304,0.422718725945316,0.624228745381349,2.37178955797762,-0.713956584662207,-3.26082363294444,-0.695848038396876,-0.134424610360092,-0.385703482887679,-2.69609750375365,-0.531824554892854,-1.58508701210887,-0.769629070508762,-0.0537792663843336,-0.0824078457497938,-2.47667724882925,-0.066651312577621,0.630211404847816,-1.0011809279007,-0.048007103080635,-0.0582653010953523,1.20735485246184,0.153898158108164,-0.246264642162529
12.235,-0.450404630990556,0.339403651269942,0.631579846123699,2.38280623718003,-0.747956753309381,-3.15951172716735,-0.694991843699401,-0.148263634306792,-0.377097037224667,-2.66930546238166,-0.496303088634946,-1.58991941510487,-0.794848073368025,-0.0666004280605483,-0.0577559897079211,-2.48018302926926,-0.0393759988189341,0.524578265581436,-1.01048514194807,-0.0490359146859645,-0.0494148465014768,1.22129767323572,0.116119476600752,-0.236282205181093
12.24,-0.423990854446291,0.255919721648493,0.637915178864522,2.373856741203,-0.74979314997607,-3.11785423898344,-0.695696754704076,-0.161807803973281,-0.367927539319056,-2.63957523409072,-0.460397559839083,-1.58870394425522,-0.814374247919353,-0.0758507486007375,-0.0352067115596549,-2.41751571104518,-0.0178028401107817,0.434939878503782,-1.04012981904356,-0.0914244137391218,-0.0389195929869696,1.55581290229141,0.12496953556893,-0.159527821415991
12.245,-0.387578938002748,0.137930282646628,0.642295085276785,2.40584365383856,-0.761323902889112,-3.07731787435178,-0.697817586253626,-0.175172827574824,-0.358359442354928,-2.60697455692244,-0.424133020964757,-1.58162030808833,-0.829907671434558,-0.0802437869352733,-0.0154634302080397,-2.24408089071234,0.00488547945743309,0.335816599683798,-1.04746623851771,-0.092526086291648,-0.0223480540199525,1.86726627345503,0.108330289968121,-0.072052406438432
12.25,-0.364749807750307,0.0722335231192986,0.640101867568901,2.45077189910329,-0.75916715179894,-3.06293240656519,-0.701238894332124,-0.188458202780138,-0.348533312502933,-2.57144261673417,-0.387487300291635,-1.56884236799621,-0.8362268073379,-0.0726937199093292,-0.00509632501667815,-2.0455137362363,0.0231418043666779,0.25838111420547,-1.04265971270679,-0.0550118216283423,-5.35548871803057e-05,1.87290164647134,0.0957352269732308,-0.0240608597015044
12.255,-0.341449747223104,0.0459823629193944,0.629288441392334,2.51781065526757,-0.756953874982211,-3.08036556693864,-0.705874575882725,-0.201734964555313,-0.338565401291017,-2.53282288499597,-0.350399694341078,-1.55054314008,-0.830373772626071,-0.0640035837357295,0.00224626117054184,-1.76250371766248,0.0496844989828056,0.17963719232206,-1.0223229821179,-0.000790824725854906,0.0168216935542267,1.4116805069714,0.0986430318209051,-0.0595775453312403
12.26,-0.338917708075994,0.0435253346630065,0.616625649567356,2.55175369731825,-0.746251277982182,-3.08706982145327,-0.711659708624042,-0.215036476373724,-0.328547910640591,-2.49090343918335,-0.312780778442168,-1.52690384027185,-0.824034808585339,-0.0561581565065727,-0.0100008462990787,-1.54005262817937,0.0654676371081706,0.139310814115571,-1.00113951609805,0.0098760910269179,0.035770195790734,0.905484361813757,0.135011598932918,-0.132484723220285
12.265,-0.345063957076841,0.0793463272006681,0.610832007889657,2.56010077270151,-0.727332327695845,-3.06627345594513,-0.718535160873278,-0.228352104522345,-0.318550648077937,-2.44546503172338,-0.274522674864835,-1.49812621733347,-0.807454439072555,-0.0497638094145781,0.0095773310044878,-1.31447588027702,0.0853899801089241,0.0987878396408017,-1.00055870286801,-0.0183528744072757,0.0350489433879085,0.495454646915049,0.168267089599822,-0.18366546690188
12.27,-0.346591428358378,0.126471054057615,0.617189407524218,2.54102426449724,-0.683157308303998,-2.98650516014236,-0.726430296128881,-0.241622752712975,-0.308625934196748,-2.39633430241687,-0.235508905042479,-1.46444677469561,-0.788726267165025,-0.045007053127438,0.0116706107734485,-1.09330960101923,0.110365938223386,0.0631455306262421,-0.985530358203891,-0.047647198057381,0.0187191638711941,0.21670438701724,0.192327248431185,-0.206118368793
12.275,-0.319152907998133,0.174356105721591,0.635981006910872,2.51112324720414,-0.642988438743346,-2.87652123158832,-0.735251773753574,-0.254738683982774,-0.298818544272697,-2.34343311712485,-0.195622667408145,-1.42614997306272,-0.775787203133702,-0.03317332718456,0.0126241792627846,-0.936372994927006,0.135196033644266,0.0271078381268818,-0.977274908900175,-0.0659234044668706,-0.00594846490435792,0.0928111043370093,0.202268433432133,-0.201404228617499
