Header,foot_Accel_X,foot_Accel_Y,foot_Accel_Z,foot_Gyro_X,foot_Gyro_Y,foot_Gyro_Z,shank_Accel_X,shank_Accel_Y,shank_Accel_Z,shank_Gyro_X,shank_Gyro_Y,shank_Gyro_Z,thigh_Accel_X,thigh_Accel_Y,thigh_Accel_Z,thigh_Gyro_X,thigh_Gyro_Y,thigh_Gyro_Z,trunk_Accel_X,trunk_Accel_Y,trunk_Accel_Z,trunk_Gyro_X,trunk_Gyro_Y,trunk_Gyro_Z
0,2.38923839544384,7.48002472610239,9.93573896964585,-0.0509209934312505,-0.024075456601174,-0.0142625188672721,-0.458203745650508,0.952905072964995,-10.837554764364,-0.058623502064197,0.00594374363750101,-0.0113951731295663,-4.72230393328414,3.05219903207092,-0.832903628636299,-0.0527733049305641,-0.0232042107374591,0.0222867823809336,-9.46550261547236,-5.4883499286592,5.75882308276232,-0.0166872480631937,0.026673582354025,0.0113451927228437
0.005,2.38653027062787,7.47323342127461,9.92729357665189,-0.0555616900129558,-0.0264747430795341,-0.018166699389111,-0.458690378558913,0.951989671373738,-10.8275741105744,-0.0637200936900944,0.0061084017705796,-0.0118780730805967,-4.71879935122365,3.0490873617016,-0.83213853951175,-0.0576970660297795,-0.024630282708092,0.0225459903599044,-9.45761587437369,-5.48331569391361,5.75376267616343,-0.0172548906000227,0.0273947322405663,0.010999880379233
0.01,2.38382214581191,7.46644211644681,9.91884818365816,-0.0652232767427135,-0.0314998547462391,-0.0265855301224389,-0.459177011467773,0.951074269782488,-10.8175934567848,-0.0742938321609707,0.00640578928661848,-0.0128294377735114,-4.71529476916317,3.04597569133227,-0.831373450387201,-0.0679491704790704,-0.0275311384199823,0.0228780410989987,-9.44972913327501,-5.478281459168,5.74870226956449,-0.0183621310428886,0.0286661073622768,0.0101281588944121
0.015,2.38111402099582,7.45965081161901,9.91040279066419,-0.0755571501998476,-0.0368969880131994,-0.0361223979438018,-0.459663644376178,0.950158868191231,-10.8076128029952,-0.0855209156426148,0.00662928467017845,-0.0137598913156196,-4.71179018710268,3.04286402096295,-0.830608361262653,-0.0789089224710488,-0.0305106529676917,0.02280936508416,-9.44184239217634,-5.47324722442241,5.7436418629656,-0.0194306010641613,0.0295317843411053,0.00892841649319271
0.02,2.37840589617974,7.45285950679124,9.90195739767046,-0.0863219730642177,-0.0424877863867442,-0.0464956825765717,-0.460150277285038,0.949243466599974,-10.7976321492056,-0.0971193748157876,0.00676122977781467,-0.0146767832549855,-4.70828560504197,3.03975235059363,-0.829843272138104,-0.0902995521185657,-0.0335229559198574,0.0223058294221836,-9.43395565107744,-5.46821298967681,5.73858145636672,-0.0204851042454366,0.0298821200574022,0.00748859222395919
0.025,2.37569777136378,7.44606820196344,9.89351200467672,-0.0971369495500042,-0.0480372186722595,-0.0572936988702039,-0.460636910193443,0.948328065008717,-10.787651495416,-0.108652532080101,0.00679053521758429,-0.015580416298555,-4.70478102298148,3.03664068022425,-0.829078183013555,-0.101689618627483,-0.0364879243329357,0.0213560639628855,-9.42606890997877,-5.46317875493122,5.73352104976783,-0.0215427553439129,0.0296305962578246,0.00592522007560498
0.03,2.37298964654781,7.43927689713567,9.88506661168299,-0.107440755264787,-0.0532399197771995,-0.0679541188440587,-0.461123543102303,0.947412663417467,-10.7776708416263,-0.119486700647494,0.00671035432137217,-0.0164539604871347,-4.70127644092122,3.03352900985493,-0.828313093889006,-0.11245383277111,-0.0392730741378276,0.0199657037576565,-9.41818216888009,-5.45814452018561,5.72846064316889,-0.0226063990976333,0.0287089085047738,0.00436768072262188
0.035,2.37028152173184,7.43248559230787,9.87662121868902,-0.116462961046155,-0.0577109471571279,-0.0777456538497433,-0.461610176010709,0.946497261826202,-10.7676901878367,-0.128763709614475,0.00651217833614968,-0.0172559840966369,-4.69777185886051,3.03041733948561,-0.827548004764457,-0.121748379922375,-0.0416805500889789,0.0181472399209133,-9.41029542778142,-5.45311028544002,5.72340023657,-0.0236643558084764,0.0270695153233584,0.00295005017249138
0.04,2.36757339691576,7.42569428748004,9.86817582569529,-0.123218467709134,-0.0609892375994132,-0.0857568459782052,-0.462096808919569,0.945581860234952,-10.7577095340471,-0.13539815565671,0.00618870330485138,-0.0179201944087748,-4.69426727680002,3.02730566911623,-0.826782915639908,-0.128507678633049,-0.0434463521260021,0.0159258806198895,-9.40240868668275,-5.44807605069443,5.71833982997111,-0.0246984586014742,0.0247171556328179,0.00181345495026219
0.045,2.36486527209968,7.4189029826523,9.85973043270155,-0.126604473613105,-0.0625705669908495,-0.0909733904931845,-0.462583441827974,0.944666458643695,-10.7477288802575,-0.138184532286988,0.00574067811669885,-0.0183645514127739,-4.69076269473931,3.02419399874691,-0.826017826515361,-0.131548403832422,-0.044268946422535,0.0133456721724689,-9.39452194558407,-5.44304181594883,5.71327942337223,-0.0256884833629164,0.0217127934686812,0.00109640256324108
0.05,2.36215714728371,7.41211167782447,9.85128503970759,-0.125823154083092,-0.0620897122822593,-0.0926529979825529,-0.463070074736606,0.943751057052445,-10.7377482264679,-0.13625930689462,0.00517816111960722,-0.0185257460082273,-4.68725811267882,3.02108232837753,-0.825252737390812,-0.130019882494988,-0.0439285485085003,0.0104699217386565,-9.3866352044854,-5.43800758120322,5.70821901677334,-0.0266114664239394,0.0181532638994749,0.000893564477786571
0.055,2.35944902246763,7.40532037299667,9.84283964671363,-0.120937104035231,-0.0595856000392545,-0.0908145337158326,-0.463556707645239,0.942835655461181,-10.7277675726783,-0.129709879141486,0.00452001346889313,-0.0184065636604969,-4.68375353061833,3.01797065800821,-0.824487648266263,-0.123995854975113,-0.0424471967154986,0.00738809998865621,-9.37874846338673,-5.43297334645763,5.7031586101744,-0.027446644888076,0.0141786685863892,0.00121243088633648
0.06,2.35674089765178,7.3985290681689,9.83439425371989,-0.112866088787352,-0.0555040684359508,-0.0862226943704156,-0.464043340553872,0.941920253869931,-10.7177869188887,-0.119572443394325,0.00379250138540661,-0.0180778373657842,-4.68024894855785,3.01485898763883,-0.823722559141714,-0.114472009467138,-0.0400908356097021,0.00421363512055065,-9.37086172228783,-5.42793911171204,5.69809820357551,-0.0281757682598877,0.00997158515604064,0.00197702526637618
0.065,2.35403277283569,7.39173776334113,9.82594886072616,-0.102806923315877,-0.0504151576560822,-0.0798662139022476,-0.464529973462504,0.941004852278674,-10.7078062650991,-0.107195930574456,0.00302366456831948,-0.017630334905353,-4.67674436649713,3.01174731726951,-0.822957470017165,-0.102748706282036,-0.0372036679682737,0.00106471570372678,-9.36297498118915,-5.42290487696644,5.69303779697663,-0.0287684227506257,0.00571929824247143,0.00307000157278129
0.07,2.35132464801973,7.38494645851335,9.81750346773219,-0.0917819589997986,-0.0447901756941665,-0.0725539217266741,-0.465016606371137,0.940089450687417,-10.6978256113095,-0.0937468831541678,0.0022395185629429,-0.0171366912976339,-4.67323978443665,3.00863564690013,-0.822192380892616,-0.0899504357014299,-0.0340783905316793,-0.00194875680604955,-9.35508824009048,-5.41787064222083,5.68797739037774,-0.0291711558948023,0.00158566610444121,0.00436422804055344
0.075,2.34861652320365,7.37815515368553,9.80905807473846,-0.0805542443076872,-0.0389641276430823,-0.064841147748113,-0.465503239279769,0.93917404909616,-10.6878449575198,-0.0801156713808646,0.00146465676185088,-0.0166451064245715,-4.66973520237616,3.00552397653081,-0.821427291768069,-0.0769347183152077,-0.03093237093352,-0.00472710170171355,-9.34720149899181,-5.41283640747524,5.6829169837788,-0.0293155210607835,-0.00228824152945209,0.00573412602095993
0.08,2.34590839838756,7.37136384885773,9.80061268174472,-0.0696639655241805,-0.0331798454407162,-0.0570940084169166,-0.465989872188402,0.93825864750491,-10.6778643037302,-0.066948616409872,0.000719693759935414,-0.0161837017554188,-4.66623062031567,3.00241230616155,-0.82066220264352,-0.0643241179502494,-0.0279173586100411,-0.00718898211930488,-9.33931475789313,-5.40780217272965,5.67785657717991,-0.0291415574975304,-0.00577747017543734,0.0070697739062907
0.085,2.34320027357171,7.36457254402995,9.79216728875099,-0.0594668002864,-0.0276379972857779,-0.0495715087113003,-0.466476505097035,0.937343245913652,-10.6678836499406,-0.054677412079923,1.62287041598746e-05,-0.0157651003410209,-4.66272603825519,2.99930063579217,-0.819897113518971,-0.0525363560566304,-0.0251286115941368,-0.0092862095303342,-9.33142801679446,-5.40276793798404,5.67279617058102,-0.028625942027204,-0.00877558402938475,0.0082966969224737
0.09,2.34049214875563,7.35778123920215,9.78372189575703,-0.050177856364208,-0.0225118879240773,-0.0424795391964679,-0.466963138005667,0.936427844322395,-10.657902996151,-0.0435599922231212,-0.000643611815831989,-0.0153915347532366,-4.65922145619447,2.99618896542285,-0.819132024394422,-0.0418248132106916,-0.022617015026211,-0.0110104670178756,-9.32354127569579,-5.39773370323844,5.66773576398214,-0.0277939606251437,-0.0112097790841012,0.00938396635753303
0.095,2.33778402393966,7.35098993437438,9.77527650276329,-0.0419112026958738,-0.0179310111354838,-0.0359841401248088,-0.467449770914527,0.935512442731138,-10.6479223423614,-0.0337252240593958,-0.00126415758087397,-0.0150588405264071,-4.65571687413399,2.99307729505347,-0.818366935269873,-0.0323211277963817,-0.020401544872154,-0.0123861476231417,-9.31565453459712,-5.39269946849285,5.66267535738325,-0.0267043451372401,-0.0130543802172302,0.010332556540344
0.1,2.33507589912358,7.34419862954658,9.76683110976956,-0.0347048795845927,-0.013968737959484,-0.0301953847943224,-0.467936403822932,0.934597041139888,-10.6379416885718,-0.0252097871551634,-0.00185119803258366,-0.0147583656229289,-4.6522122920735,2.98996562468415,-0.817601846145324,-0.0240686097709062,-0.018478936681209,-0.0134505416424698,-9.30776779349821,-5.38766523374726,5.65761495078431,-0.0254218349971379,-0.0143176713460883,0.0111498137770789
0.105,2.3323677743075,7.33740732471878,9.75838571677582,-0.0285387646741867,-0.0106423741944974,-0.0251378177289031,-0.468423036731792,0.933681639548624,-10.6279610347822,-0.0179917982944036,-0.00240421837939621,-0.0144785618914369,-4.64870771001301,2.98685395431477,-0.816836757020777,-0.0170519837064216,-0.0168326641669127,-0.0142290442047069,-9.29988105239954,-5.38263099900165,5.65255454418542,-0.0239990234364776,-0.0150083163505445,0.0118240390307206
0.11,2.32965964949153,7.33061601989104,9.74994032378163,-0.0233535940152731,-0.00792138339912318,-0.0207467445574616,-0.468909669640198,0.932766237957374,-10.6179803809926,-0.012017646405734,-0.00291313120078276,-0.0142074052742254,-4.6452031279523,2.98374228394545,-0.816071667896228,-0.0112224031177559,-0.0154406896452984,-0.0147265068812804,-9.29199431130087,-5.37759676425605,5.64749413758653,-0.0224761825366974,-0.0151209399909426,0.0123199656419444
0.115,2.32695152467556,7.32382471506321,9.74149493078789,-0.0190654384445909,-0.00574654563370868,-0.0169203986393127,-0.469396302549058,0.931850836366117,-10.607999727203,-0.00720533038940821,-0.00336814592104602,-0.0139344621611375,-4.64169854589181,2.98063061357612,-0.815306578771679,-0.00650302109123737,-0.0142770758620737,-0.0149501619465933,-9.2841075702022,-5.37256252951046,5.64243373098765,-0.020890799856236,-0.0146667196207454,0.0126062454888329
0.12,2.3242433998596,7.31703341023544,9.73304953779416,-0.0155736748017063,-0.00405177716291175,-0.0135890572313659,-0.469882935457463,0.930935434774867,-10.5980190734133,-0.00343446064511403,-0.00377413411118672,-0.0136517806237473,-4.63819396383133,2.97751894320675,-0.81454148964713,-0.00278271903304078,-0.0133095237858331,-0.0149424061474627,-9.27622082910352,-5.36752829476487,5.6373733243887,-0.0192847937051801,-0.0137182634107605,0.0126902644738185
0.125,2.32153527504352,7.31024210540764,9.72460414480042,-0.0127710739041455,-0.00277245372994439,-0.0107260301264662,-0.470369568366323,0.930020033183602,-10.5880384196237,-0.000557994906035213,-0.00415014996441414,-0.0133539718371506,-4.63468938177084,2.97440727283742,-0.813776400522581,7.23244072179771e-05,-0.0125016359683936,-0.0147803892272359,-9.26833408800485,-5.36249406001926,5.63231291778976,-0.0177040547805094,-0.0124068047596683,0.0126158454173257
0.13,2.31882715022743,7.30345080057987,9.71615875180646,-0.0105553888343984,-0.00184173470121545,-0.00830423623143913,-0.470856201274728,0.929104631592352,-10.5780577658341,0.00156612563818672,-0.00451510503470515,-0.0130374010220614,-4.63118479971013,2.9712956024681,-0.813011311398032,0.00219116547314864,-0.0118195447302443,-0.0145421943643422,-9.26044734690618,-5.35745982527366,5.62725251119087,-0.016190256284624,-0.0108731068881124,0.0124245466002502
0.135,2.31611902541147,7.29665949575207,9.70771335881273,-0.00883254799225368,-0.00119150249152265,-0.00627183932115187,-0.471342834183588,0.928189230001095,-10.5680771120445,0.00306043063997747,-0.00487992646305045,-0.0126987899958953,-4.62768021764964,2.96818393209873,-0.812246222273483,0.00368665045292917,-0.0112344707826681,-0.0142820065057985,-9.2525606058075,-5.35242559052807,5.62219210459199,-0.0147704360120097,-0.00923078713081634,0.012128482847063
0.14,2.3134109005955,7.28986819092427,9.69926796581899,-0.00751180590540316,-0.000764701307219162,-0.00457051992905285,-0.471829467091993,0.927273828409838,-10.5580964582549,0.00403962381007583,-0.00525542258268358,-0.0123356031138066,-4.62417563558915,2.9650722617294,-0.811481133148936,0.00466705667735619,-0.0107208751858685,-0.0140354375294622,-9.2446738647086,-5.34739135578246,5.6171316979931,-0.0134543339277435,-0.00756035426094446,0.0117234864111123
0.145,2.31070277577953,7.2830768860965,9.69082257282525,-0.00650397459501683,-0.00052650933360747,-0.00315932815656202,-0.472316100000853,0.926358426818581,-10.5481158044653,0.00462251091468808,-0.00566262542525134,-0.0119487313815105,-4.62067105352867,2.96196059136003,-0.810716044024387,0.00524674754111048,-0.0102562083737271,-0.0138366161528736,-9.23678712360993,-5.34235712103687,5.61207129139416,-0.0122430269466549,-0.0059143032329689,0.0112201401652744
0.15,2.30799465096345,7.2762855812687,9.68237717983129,-0.00572869914685456,-0.000457424852689599,-0.00201441046906439,-0.472802732909258,0.925443025227331,-10.5381351506757,0.00492367739243225,-0.00612670833737188,-0.011543546145493,-4.61716647146818,2.9588489209907,-0.809950954899838,0.00553731515824891,-0.009823241573243,-0.0137191923189786,-9.22890038251126,-5.33732288629128,5.60701088479527,-0.0111392524578972,-0.00432557628234619,0.0106485484216338
0.155,2.30528652614748,7.26949427644089,9.67393178683756,-0.00512378355600837,-0.000534796208217451,-0.00111316663187129,-0.473289365818118,0.924527623636074,-10.5281544968861,0.00503479645158742,-0.00665843810351869,-0.0111274791383359,-4.61366188940747,2.95573725062133,-0.809185865775289,0.00562929765146303,-0.00941155121356605,-0.013699783269629,-9.22101364141258,-5.33228865154568,5.60195047819644,-0.0101495031083244,-0.00281741807399704,0.0100324592668367
0.16,2.3025784013314,7.26270297161312,9.66548639384359,-0.0046458250868051,-0.000725934025998764,-0.000428184341484261,-0.473775998726524,0.923612222044817,-10.5181738430965,0.00501966957927086,-0.0072465046617548,-0.0107073036242112,-4.61015730734698,2.952625580252,-0.80842077665074,0.00558750828088179,-0.00901611131111597,-0.0137681660798235,-9.21312690031391,-5.32725441680007,5.5968900715975,-0.00927903150144835,-0.00140848285066551,0.00937064924715169
0.165,2.29987027651532,7.25591166678532,9.65704100084963,-0.0042631187599702,-0.00099520474188256,6.74450853210304e-05,-0.474262631635384,0.922696820453559,-10.5081931893069,0.00492585659976744,-0.00786947256108734,-0.0102897051253011,-4.60665272528649,2.94951390988268,-0.807655687526191,0.00546198303108898,-0.00863537231352396,-0.0138993642037226,-9.20524015921524,-5.32222018205448,5.59182966499856,-0.00853088687892506,-0.000112896097752589,0.00864976601088606
0.17,2.29716215169947,7.24912036195755,9.6485956078559,-0.00394987253542685,-0.00131002170128629,0.000396516299326899,-0.474749264543789,0.921781418862309,-10.4982125355172,0.00479631286991,-0.00851082687288515,-0.00988390480080527,-4.60314814322601,2.9464022395133,-0.806890598401644,0.00529845352757987,-0.00827100906986232,-0.0140732042120925,-9.19735341811656,-5.31718594730889,5.58676925839967,-0.00791236395150338,0.00105932541857828,0.00787033574432574
0.175,2.29445402688339,7.24232905712975,9.64015021486216,-0.00368407310264099,-0.00164076098722361,0.000574780693400218,-0.475235897452649,0.920866017271045,-10.4882318817276,0.00467231431431263,-0.0091573488509665,-0.00950068264072616,-4.59964356116529,2.94329056914404,-0.806125509277095,0.00514087704097044,-0.00792635870468905,-0.014274276526764,-9.18946667701789,-5.31215171256329,5.58170885180078,-0.00743396696156221,0.00209952762053691,0.00704819074901064
0.18,2.29174590206742,7.23553775230195,9.63170482186842,-0.00344664786072966,-0.00196040811518696,0.00060765322012871,-0.475722530361054,0.919950615679795,-10.478251227938,0.00459079830216847,-0.00978762039730643,-0.00914795345929889,-4.59613897910481,2.94017889877466,-0.805360420152546,0.00502920377796332,-0.00760309838832045,-0.0144765122621239,-9.18157993591899,-5.30711747781768,5.5766484452019,-0.00709838484343722,0.00299917716208639,0.00619352330909358
0.185,2.28903777725134,7.22874644747418,9.62325942887446,-0.00322179552471825,-0.00224911644532981,0.000495741275437773,-0.476209163269914,0.919035214088538,-10.4682705741484,0.00458045043629897,-0.0103758676923001,-0.00882982199656632,-4.59263439704409,2.93706722840534,-0.804595331027997,0.00499556356515913,-0.00730111458620339,-0.0146443185693893,-9.17369319482009,-5.30208324307209,5.57158803860301,-0.0068976671710076,0.00375510173030245,0.00530715112460207
0.19,2.28632965243526,7.22195514264638,9.61481403588073,-0.00299837881278792,-0.00249998320559059,0.000245862623416463,-0.476695796178319,0.918119812497288,-10.4582899203588,0.00465889502172,-0.0109073539609649,-0.00854970863877515,-4.58912981498383,2.93395555803596,-0.803830241903446,0.00506104649892433,-0.0070216258410608,-0.0147493919348179,-9.16580645372142,-5.29704900832648,5.56652763200407,-0.00682036275180119,0.00437695288970825,0.00439659278857052
0.195,2.28362152761929,7.21516383781861,9.60636864288699,-0.00277052351799778,-0.0027171181132066,-0.000127086144067235,-0.477182429087179,0.917204410906024,-10.4483092665692,0.00483294081323157,-0.0113791621501925,-0.00831166732332941,-4.58562523292335,2.93084388766664,-0.803065152778897,0.00523573738460827,-0.00676826199509179,-0.0147741009681952,-9.15791971262274,-5.29201477358089,5.56146722540518,-0.00685401021568081,0.00488645186710853,0.00348057259999462
0.2,2.28091340280332,7.20837253299081,9.59792324989326,-0.00253596722357508,-0.00290775466323727,-0.00060415875517193,-0.477669061995584,0.916289009314774,-10.4383286127796,0.0051018467449558,-0.0117925807233296,-0.00811904791478583,-4.58212065086263,2.92773221729732,-0.80230006365435,0.00552181731070354,-0.00654523829316707,-0.0147055304225228,-9.15003297152407,-5.28698053883528,5.55640681880629,-0.00698369828600749,0.00531170806318203,0.00258185157497222
0.205,2.27820527798735,7.20158122816301,9.58947785689907,-0.00229401171384811,-0.00307733269218694,-0.0011614498896075,-0.478155694904444,0.915373607723517,-10.42834795899,0.00546009443985467,-0.0121544886624319,-0.00797392895720535,-4.57861606880215,2.92462054692794,-0.801534974529801,0.00591602417100858,-0.00635620965819517,-0.0145374488465806,-9.1421462304254,-5.28194630408969,5.55134641220741,-0.00719391388436703,0.00568516629581334,0.00172623861126545
0.21,2.27549715317127,7.19478992333524,9.58103246390533,-0.00204669290696865,-0.0032282232338137,-0.00177103158299261,-0.478642327813077,0.914458206132267,-10.4183673052003,0.00589668177785837,-0.0124725459555691,-0.00787765256520957,-4.57511148674166,2.92150887655862,-0.800769885405252,0.00640930695995717,-0.00620505435334238,-0.0142655499356422,-9.13425948932672,-5.27691206934409,5.54628600560852,-0.00746689450238668,0.00603966020744531,0.000940654077596486
0.215,2.27278902835519,7.18799861850744,9.5725870709116,-0.00180167998842122,-0.00336056288640211,-0.00240735080577559,-0.47912896072171,0.913542804541002,-10.4083866514107,0.00639290760039071,-0.0127403863547475,-0.00783106994990006,-4.57160690468118,2.9183972061893,-0.800004796280703,0.00698543444925688,-0.00609690827419444,-0.0138728740222004,-9.12637274822805,-5.27187783459848,5.54122559900958,-0.00777624423193834,0.00640139543178637,0.000244608000372559
0.22,2.27008090353922,7.18120731367966,9.56414167791786,-0.00157127370197967,-0.00347872873435803,-0.00304720572628256,-0.479615593630342,0.912627402949752,-10.3984059976211,0.00692286948329985,-0.012940506438129,-0.00783454504147892,-4.56810232262046,2.91528553581992,-0.799239707156154,0.00762123254352201,-0.00603797080020644,-0.0133333102382616,-9.11848600712938,-5.26684359985289,5.53616519241069,-0.00808915376795079,0.00679187722909181,-0.000350731044736233
0.225,2.26737277872326,7.17441600885186,9.5556962849239,-0.00136876356923046,-0.00360007162153687,-0.00366243195772058,-0.480102226538975,0.911712001358495,-10.3884253438315,0.00745554838198171,-0.0130630129433242,-0.00788816332902565,-4.56459774055998,2.9121738654506,-0.798474618031605,0.00828761017043513,-0.00603480688229307,-0.0126308185403773,-9.11059926603048,-5.2618093651073,5.53110478581181,-0.00837606015208,0.00723639449669391,-0.000834887879687085
0.23,2.26466465390729,7.16762470402406,9.54725089193016,-0.00120962026711571,-0.00375509383198617,-0.00421826277179587,-0.480588859447607,0.910796599767238,-10.3784446900419,0.00795321179357063,-0.013105677134095,-0.00799235022365009,-4.56109315849926,2.90906219508122,-0.797709528907058,0.00894807204552763,-0.006095245542532,-0.0117596597502292,-9.1027125249318,-5.2567751303617,5.52604437921286,-0.00860999783797593,0.00776177683709046,-0.00119713529618559
0.235,2.26195652909121,7.16083339919629,9.53880549893643,-0.00111361864762324,-0.00397578221719625,-0.0046808664862647,-0.48107549235624,0.909881198175981,-10.3684640362523,0.00837205092448537,-0.0130566821182648,-0.00814767079292961,-4.557588576439,2.9059505247119,-0.796944439782509,0.00956019977794015,-0.00622850295018735,-0.0107073059329356,-9.09482578383313,-5.25174089561609,5.52098397261398,-0.00875866178912353,0.00838534282915709,-0.00143406365409267
0.24,2.25924840427513,7.15404209436849,9.53036010594246,-0.00109327994694457,-0.00427493769421401,-0.00502740861894662,-0.481562125264873,0.908965796584731,-10.3584833824627,0.00868111356591744,-0.0128961735428086,-0.00835111924180198,-4.55408399437852,2.90283885434258,-0.79617935065796,0.0100935644501841,-0.00643792313927415,-0.00945587568334176,-9.08693904273446,-5.2467066608705,5.51592356601509,-0.00879333231242121,0.00911466270728561,-0.00155464624877338
0.245,2.25654027945916,7.14725078954072,9.52191471294873,-0.00113526618020423,-0.00462674976189998,-0.00525233209168593,-0.482048758173505,0.908050394993474,-10.3485027286731,0.00888868877285741,-0.0126158569087531,-0.00859098653258504,-4.5505794123178,2.89972718397325,-0.795414261533411,0.0105537512945362,-0.006710425880513,-0.00800166641636056,-9.07905230163578,-5.24167242612491,5.5108631594162,-0.00871036740369304,0.00995675643286798,-0.00158013166969439
0.25,2.25383215464308,7.14045948471292,9.51346931995499,-0.00120170121931865,-0.00496774666399793,-0.00536514039560475,-0.482535391082138,0.907134993402217,-10.3385220748835,0.00903991533205778,-0.0122204476992272,-0.00884717729952837,-4.54707483025732,2.89661551360388,-0.794649172408862,0.0109797575709352,-0.00701713334050639,-0.00635793449664752,-9.07116556053711,-5.23663819137931,5.50580275281732,-0.00853192662215606,0.0109154951736575,-0.0015439288422206
0.255,2.25112402982722,7.13366817988515,9.50502392696103,-0.00125092163226114,-0.00522001781755822,-0.00538171492942102,-0.48302202399077,0.906219591810959,-10.3285414210938,0.00918709719561602,-0.0117108792816791,-0.00909733433672594,-4.54357024819683,2.89350384323456,-0.793884083284313,0.0114164468631648,-0.00732532231378306,-0.00453999395335764,-9.06327881943844,-5.23160395663371,5.50074234621843,-0.00828483868201184,0.0119796854263959,-0.00148985883336866
0.26,2.24841590501114,7.12687687505735,9.49657853396707,-0.0012507901078399,-0.00531974049306293,-0.00531631349586999,-0.483508656899403,0.905304190219709,-10.3185607673042,0.00937000631301762,-0.0110835195417345,-0.00932262168582488,-4.54006566613634,2.89039217286523,-0.793118994159766,0.0118963149761036,-0.00760787964384351,-0.00256414939744353,-9.05539207833976,-5.22656972188811,5.49568193961949,-0.00798952159409676,0.0131271355825056,-0.00146082207018692
0.265,2.24570778019506,7.12008557022955,9.48813314097333,-0.00117851494784613,-0.0052364597854257,-0.00517741643262427,-0.483995289808036,0.904388788628445,-10.3085801135146,0.00961486403641665,-0.0103463603981118,-0.009510192669971,-4.53656108407563,2.88728050249586,-0.792353905035217,0.0124383791158022,-0.00784560315184575,-0.000462268684114816,-9.04750533724086,-5.22153548714252,5.4906215330206,-0.0076649919172226,0.0143404569775806,-0.00148377680404287
0.27,2.24299965537909,7.11329426540178,9.4796877479796,-0.00102085381226008,-0.00497306475196398,-0.00496789288066155,-0.484481922716668,0.903473387037195,-10.298599459725,0.00993366268978866,-0.00952182081398884,-0.00965268067487964,-4.53305650201514,2.88416883212653,-0.791588815910668,0.0130471162612034,-0.00802670624679601,0.00171450162509405,-9.03961859614219,-5.21650125239692,5.48556112642171,-0.00732963259144877,0.0156019699849126,-0.0015701715133991
0.275,2.24029153056301,7.10650296057398,9.47124235498586,-0.000778784273811386,-0.00455172041043686,-0.00468824245414525,-0.484968555625301,0.902557985445938,-10.2886188059354,0.0103181559536918,-0.00863258569168535,-0.00974603774573798,-4.52955191995443,2.88105716175716,-0.790823726786119,0.0137062726181984,-0.00814599084081178,0.00390632113824486,-9.03173185504352,-5.21146701765132,5.48050071982283,-0.00699297011665736,0.0168662118971782,-0.0017314171040852
0.28,2.23758340574716,7.09971165574618,9.4627969619919,-0.000471041812255378,-0.00400163388081824,-0.00433945212437873,-0.485455188533933,0.901642583854688,-10.2786381521458,0.0107365080414805,-0.00769304442333927,-0.0097886228820372,-4.52604733789417,2.87794549138783,-0.79005863766157,0.0143756397555333,-0.00820474089514532,0.00605205173934507,-9.02384511394484,-5.20643278290572,5.47544031322388,-0.00665212923166854,0.0180469783584459,-0.00198518185591911
0.285,2.23487528093108,7.0929203509184,9.45435156899816,-0.000132399034946801,-0.00334964466760812,-0.00392599436470065,-0.485941821442566,0.900727182263424,-10.2686574983562,0.0111406389599314,-0.00671536631821457,-0.00978338954152154,-4.52254275583368,2.87483382101846,-0.789293548537021,0.014999546037176,-0.00821172780982657,0.00809006285469195,-9.01595837284617,-5.20139854816013,5.470379906625,-0.00630040313701842,0.0190455983026847,-0.00233743696298642
0.29,2.23216715611511,7.0861290460906,9.44590617600443,0.00019452818869335,-0.00261350530988791,-0.00346319523247029,-0.486428454351199,0.899811780672174,-10.2586768445666,0.0114838259133466,-0.00572104029613506,-0.00974002014997393,-4.51903817377297,2.87172215064913,-0.788528459412474,0.0155259611352662,-0.0081823582343128,0.00995834917792116,-9.0080716317475,-5.19636431341452,5.46531950002611,-0.00593575221464015,0.0197939627747085,-0.00275902938835384
0.295,2.22945903129903,7.07933774126283,9.43746078301069,0.000466990061751142,-0.00180793796569293,-0.00298547206710006,-0.486915087259831,0.898896379080917,-10.248696190777,0.011731416900688,-0.00474628608387351,-0.00967291884523814,-4.51553359171248,2.86861048027981,-0.787763370287925,0.0159168365301759,-0.00813468406132909,0.0115918131948178,-9.00018489064882,-5.19133007866893,5.46025909342723,-0.00555481947011319,0.0202535403848796,-0.0031890483226065
0.3,2.22675090648295,7.07254643643503,9.4290153900165,0.000637853114251096,-0.000958769156052345,-0.00254529961183186,-0.487401720168464,0.897980977489659,-10.2387155369873,0.011848733260058,-0.00383877284183891,-0.00959787797075063,-4.512029009652,2.86549880991043,-0.786998281163376,0.0161338593848934,-0.00808784274425227,0.0129145060576267,-8.99229814955015,-5.18629584392333,5.45519868682828,-0.00514226677595179,0.020367478244118,-0.00355988906479822
0.305,2.22404278166698,7.06575513160723,9.42056999702277,0.000650191128635847,-0.000105206831766973,-0.00220103568229689,-0.487888353077096,0.897065575898402,-10.2287348831977,0.0117874541857151,-0.00304866502563154,-0.00953082371600042,-4.50852442759151,2.86238713954111,-0.786233192038827,0.0161241081238383,-0.00806322472650028,0.0138417522652409,-8.98441140845125,-5.18126160917774,5.4501382802294,-0.00467266553976956,0.0200385217591896,-0.00381438717884664
0.31,2.22133465685101,7.05896382677943,9.41212460402903,0.000459377250393569,0.00072013058790431,-0.00199854687773308,-0.488374985985729,0.896150174307152,-10.2187542294081,0.0115104181122786,-0.00241074955623825,-0.00948528896494794,-4.5050198455308,2.85927546917179,-0.785468102914278,0.0158480566122007,-0.00807886221534569,0.0143166146123296,-8.97652466735258,-5.17622737443213,5.44507787363051,-0.00412366143814373,0.0191917297310855,-0.00391269259970384
0.315,2.21862653203505,7.05217252195166,9.40367921103507,7.03886094946517e-05,0.00151591528962258,-0.00195540600474433,-0.488861618894362,0.895234772715895,-10.2087735756185,0.0110373982258715,-0.00192501224228688,-0.00946801956537284,-4.50151526347031,2.85616379880241,-0.784703013789729,0.0153298317526678,-0.00813873312921176,0.014358968429199,-8.9686379262539,-5.17119313968654,5.44001746703162,-0.00348815805106849,0.0178676770351783,-0.00383817991686136
0.32,2.21591840721896,7.04538121712389,9.39523381804133,-0.000460474539506308,0.00230914646922706,-0.00206125550694766,-0.489348251802994,0.894319371124638,-10.1987929218289,0.0104464931584032,-0.00155928115064753,-0.00947823723721656,-4.4980106814096,2.85305212843309,-0.78393792466518,0.0146583606066632,-0.00823176076700053,0.0140631991267897,-8.96075118515523,-5.16615890494094,5.43495706043268,-0.00277505420976569,0.0162243790490518,-0.0035965522495286
0.325,2.21321028240288,7.03858991229609,9.3867884250476,-0.00106200902899328,0.00312620344368307,-0.00229249438070258,-0.489834884711627,0.893403969533381,-10.1888122680393,0.00982789975813598,-0.00127283809017041,-0.00951127111502455,-4.49450609934934,2.84994045806371,-0.783172835540633,0.013936272367593,-0.00834176363005593,0.0135447923975648,-8.95286444405656,-5.16112467019535,5.42989665383379,-0.00200066477694601,0.0144480486895674,-0.00320714241922543
0.33,2.21050215758692,7.03179860746829,9.37834303205386,-0.00167712126322531,0.00397025513926762,-0.0026237016085058,-0.490321517620259,0.892488567942131,-10.1788316142497,0.00924725824101672,-0.00103455229610415,-0.00956164793414684,-4.49100151728862,2.84682878769439,-0.782407746416084,0.0132395071776693,-0.00845556261983888,0.0128989069536016,-8.94497770295789,-5.15609043544974,5.42483624723491,-0.00118274358235595,0.0126842896410854,-0.00269613116549467
0.335,2.20779403277095,7.02500730264049,9.36989763906013,-0.0022689606490325,0.0048155543373663,-0.00302992077566531,-0.490808150528892,0.891573166350867,-10.1688509604601,0.00873769513713453,-0.000826931523748332,-0.00962371312762076,-4.48749693522814,2.84371711732501,-0.781642657291535,0.0126085354022343,-0.0085646740239436,0.0121912936127584,-8.93709096185921,-5.15105620070415,5.41977584063602,-0.00034077419189603,0.0110261205618866,-0.00209497052714216
0.34,2.20508590795498,7.01821599781269,9.36145224606616,-0.00281927054035704,0.0056077474873756,-0.00348572815126105,-0.491294783437525,0.890657764759617,-10.1588703066705,0.00830142665837994,-0.000645081589278001,-0.00969122377762537,-4.48399235316765,2.84060544695575,-0.780877568166986,0.0120500167556186,-0.00866465286974263,0.0114599492078362,-8.92920422076054,-5.14602196595855,5.41471543403713,0.00050169326055161,0.00952087765043566,-0.00144073845973087
0.345,2.2023777831389,7.01142469298492,9.35300685307243,-0.00332669652775511,0.00626468338276972,-0.00396417886918205,-0.491781416346157,0.889742363168359,-10.1488896528808,0.0079113184189419,-0.000495210869339858,-0.00975682093889143,-4.48048777110716,2.83749377658643,-0.780112479042437,0.011538350695033,-0.00875431656994534,0.010716818402509,-8.92131747966164,-5.14098773121296,5.40965502743819,0.00131473711951363,0.00817690588044766,-0.000776841023118276
0.35,2.19966965832282,7.00463338815712,9.34456146007869,-0.00380415946629108,0.00668668246150019,-0.00443805507643749,-0.49226804925479,0.888826961577109,-10.1389089990912,0.00751678316807962,-0.000391370816623314,-0.0098123231281186,-4.47698318904668,2.83438210621705,-0.779347389917888,0.0110222826172869,-0.00883519304517268,0.0099543951124171,-8.91343073856297,-5.13595349646735,5.4045946208393,0.00206381098673719,0.00697546685816398,-0.000149926416428681
0.355,2.19696153350685,6.99784208332935,9.33611606708473,-0.00427321734619546,0.00679390562213924,-0.00488784467928628,-0.492754682163422,0.887911559985845,-10.1289283453016,0.00706267613906996,-0.000347615239437848,-0.00985142422531349,-4.47347860698596,2.83127043584773,-0.778582300793341,0.0104466865486688,-0.00891159360593067,0.00916678069464127,-8.90554399746429,-5.13091926172176,5.39953421424042,0.00272331970654926,0.00589899447277428,0.000405087310281049
0.36,2.19425340869077,6.99105077850157,9.32767067409077,-0.00475722504134979,0.00657152547758605,-0.00531159899440166,-0.493241315072055,0.886996158394595,-10.118947691512,0.00651227344987739,-0.000368868000638634,-0.00987299393038074,-4.46997402492548,2.82815876547835,-0.777817211668792,0.00977905022596202,-0.00899072747249294,0.00837497818353404,-8.89765725636562,-5.12588502697616,5.39447380764153,0.00329372267675311,0.00496372950888656,0.000883032984908139
0.365,2.19154528387492,6.98425947367375,9.31922528109703,-0.00527928688769369,0.00606804705531873,-0.0057232443077928,-0.493727947980688,0.886080756803338,-10.1089670377224,0.00584836752125042,-0.000449795059254248,-0.00988021857521299,-4.46646944286476,2.82504709510903,-0.777052122544243,0.00901030578539312,-0.00908163851135135,0.00762715996349666,-8.88977051526695,-5.12085079223056,5.38941340104259,0.00379856644090464,0.00422223942680863,0.00130482282275921
0.37,2.18883715905883,6.97746816884597,9.31077988810307,-0.00586522813783741,0.00534852680672016,-0.00614014980754044,-0.49421458088932,0.885165355212088,-10.0989863839328,0.00505323557339661,-0.000581749126691177,-0.00987606869134305,-4.4629648608045,2.82193542473965,-0.776287033419694,0.00813100838700756,-0.00919334437201003,0.00697482353415808,-8.88188377416827,-5.11581655748496,5.3843529944437,0.004262409078573,0.00373651621944305,0.00169343507938973
0.375,2.18612903424275,6.97067686401817,9.30233449510933,-0.00654561875167392,0.00445881003606411,-0.00657388342763607,-0.494701213797953,0.884249953620824,-10.0890057301432,0.00409408033800026,-0.000758482976385397,-0.00986010951863112,-4.45946027874379,2.81882375437033,-0.775521944295145,0.00711398700250631,-0.00933355531060409,0.00645466014506673,-8.8739970330696,-5.11078232273937,5.37929258784482,0.00469390425059832,0.00355669039545888,0.0020553538333584
0.38,2.18342090942679,6.9638855591904,9.2938891021156,-0.00735462106521778,0.00341875698179391,-0.00702820044592397,-0.495187846706585,0.883334552029574,-10.0790250763536,0.00292240528108899,-0.000977278451398901,-0.00982794236325367,-4.4559556966833,2.81571208400101,-0.774756855170596,0.00591321980341458,-0.00950808643248834,0.00608535543258058,-8.86611029197093,-5.10574808799377,5.37423218124593,0.00508148351790341,0.00371669462701051,0.002375325491988
0.385,2.18071278461071,6.9570942543626,9.28544370912186,-0.00832751028978701,0.00222531440678061,-0.00749931468961295,-0.495674479615218,0.882419150438317,-10.0690444225639,0.00147835642180875,-0.00123848410503033,-0.00977149210910298,-4.45245111462259,2.81260041363163,-0.773991766046047,0.00446835488777377,-0.00972038633437313,0.00586895522844155,-8.85822355087203,-5.10071385324817,5.36917177464704,0.00539323410729574,0.00423495579088748,0.00261557584057494
0.39,2.17800465979485,6.9503029495348,9.27699831612802,-0.00949771198780692,0.000860172821806823,-0.00797868445096843,-0.496161112523851,0.881503748847059,-10.0590637687743,-0.000301583029846382,-0.00154366046558642,-0.00968041634998102,-4.44894653256233,2.80948874326231,-0.773226676921498,0.00271300235057014,-0.00997163608974874,0.00579463023489371,-8.85033680977335,-5.09567961850257,5.36411136804804,0.00558241637833221,0.00511518015075352,0.00272091485600897
0.395,2.17529653497877,6.94351164470703,9.26855292313428,-0.0108930831034987,-0.000689593172724394,-0.00846319473896891,-0.496647745432483,0.880588347255802,-10.0490831149847,-0.00246822224780135,-0.00188947894566932,-0.00954663946871434,-4.44544195050184,2.80637707289299,-0.772461587796949,0.000593054082110136,-0.0102626260115737,0.00585046198186013,-8.84245006867468,-5.09064538375698,5.35905096144916,0.00560939865022006,0.00634918803213544,0.00264089442991902
0.4,2.1725884101628,6.93672033987923,9.26010753014043,-0.0125314630151207,-0.00240696568782683,-0.008966985018895,-0.497134378341116,0.879672945664552,-10.0391024611951,-0.00504024088942402,-0.00226029853265586,-0.0093697584077636,-4.44193736844113,2.80326540252361,-0.7716964986724,-0.00191160359923532,-0.0105960030178566,0.00603739664128469,-8.83456332757601,-5.08561114901138,5.35399055485027,0.00546880441479549,0.00791952189467728,0.00235761447975586
0.405,2.16988028534672,6.92992903505143,9.25166213714658,-0.0144156085856783,-0.0042424134449548,-0.00951920444071368,-0.497621011249748,0.878757544073288,-10.0291218074055,-0.00799769900677369,-0.0026281783425835,-0.009156784625279,-4.43843278638064,2.80015373215429,-0.770931409547851,-0.00478086468105249,-0.0109747514326745,0.00636840970734759,-8.82667658647733,-5.08057691426576,5.34893014825144,0.00518941118349631,0.00979550700628166,0.00188593023293111
0.41,2.16717216053064,6.92313773022366,9.24321674415262,-0.0165270862090944,-0.00613239679318299,-0.0101482596988495,-0.498107644158381,0.877842142482038,-10.0191411536159,-0.011287801861681,-0.00296030880453975,-0.00891598231763572,-4.43492820431993,2.79704206178496,-0.770166320423302,-0.00796296169049527,-0.0113965685635615,0.00685337795556536,-8.81878984537866,-5.07554267952018,5.3438697416525,0.00480766009042176,0.0119230427238911,0.00124698516551931
0.415,2.16446403571467,6.91634642539586,9.23477135115877,-0.0188188259390249,-0.00801235052423892,-0.0108687166988012,-0.498594277067014,0.876926740890781,-10.0091604998263,-0.014826431091183,-0.00322507118265631,-0.00865133445357034,-4.43142362225967,2.79393039141564,-0.769401231298755,-0.0113783788138919,-0.0118481884372401,0.00748693543862476,-8.81090310427999,-5.07050844477459,5.33880933505355,0.00434782615758937,0.014214828621141,0.00044892320563419
0.42,2.16175591089871,6.90955512056809,9.22632595816503,-0.0212091702504873,-0.00981701319269478,-0.0116754065357898,-0.499080909975646,0.876011339299531,-9.99917984603667,-0.0184928432553755,-0.003395743716268,-0.00836144110206978,-4.42791904019896,2.79081872104626,-0.768636142174206,-0.01491512950536,-0.0123031620826084,0.00824412840559458,-8.80301636318109,-5.06547421002898,5.33374892845467,0.00382057424561199,0.0165481751261346,-0.000510473876362697
0.425,2.15904778608274,6.90276381574029,9.2178805651713,-0.02358251698348,-0.0114798795155672,-0.0125393445723085,-0.499567542884279,0.875095937708267,-9.98919919224706,-0.022127729108094,-0.0034585734486888,-0.00804321190632242,-4.42441445813847,2.78770705067694,-0.767871053049657,-0.0184256861063326,-0.0127252222334283,0.00907759299434108,-8.79512962208219,-5.06043997528337,5.32868852185578,0.00323242791597863,0.0187782639153842,-0.00162290513258797
0.43,2.15633966126666,6.89597251091251,9.20943517217745,-0.0257981953352111,-0.0129361237219914,-0.0134072259755992,-0.500054175793139,0.874180536117017,-9.97921853845746,-0.0255398484568,-0.00342177483710067,-0.00769775197433778,-4.42090987607776,2.78459538030756,-0.767105963925108,-0.0217311771486128,-0.0130756975118157,0.00991884866511278,-8.78724288098351,-5.05540574053778,5.32362811525689,0.00260025852387721,0.0207639533347595,-0.00284482677958055
0.435,2.15363153645058,6.88918120608471,9.20098977918371,-0.0277071407029373,-0.0141247524384257,-0.0142063621387059,-0.500540808701544,0.873265134525759,-9.96923788466783,-0.0285247307654065,-0.00331222153947188,-0.00733370325671556,-4.41740529401727,2.78148370993824,-0.766340874800559,-0.0246374263181244,-0.013320989440876,0.0106914275944414,-8.77935613988484,-5.05037150579219,5.31856770865795,0.00195926432870496,0.0223905538819528,-0.00409308086928901
0.44,2.15092341163461,6.88238990125691,9.19254438618987,-0.0291739557140123,-0.0149900022172737,-0.0148501399913868,-0.501027441610404,0.872349732934509,-9.95925723087822,-0.0308952340945172,-0.00316138426647813,-0.0069665399974885,-4.41390071195701,2.77837203956886,-0.76557578567601,-0.0269638236246569,-0.0134382560885794,0.0113293000666251,-8.77146939878617,-5.04533727104658,5.31350730205907,0.0013539031374487,0.0235814199851413,-0.00526543535388031
0.445,2.14821528681853,6.87559859642914,9.1840989931959,-0.0300974530850851,-0.0154891430753399,-0.0152474426173882,-0.501514074518809,0.871434331343245,-9.94927657708861,-0.0325129720972702,-0.0029962854430011,-0.00661455016297518,-4.4103961298963,2.77526036919954,-0.764810696551462,-0.0285746328827848,-0.0134176265597295,0.0117862386658424,-8.76358265768749,-5.04030303630098,5.30844689546018,0.000817395890212498,0.0243024369884835,-0.00627289174982121
0.45,2.14550716200267,6.86880729160134,9.17565360020217,-0.0304155080192831,-0.0156019553404688,-0.015316457943852,-0.502000707427669,0.870518929751995,-9.93929592329901,-0.033298067265937,-0.00283983157558725,-0.00629304732032195,-4.40689154783581,2.77214869883022,-0.764045607426914,-0.029390219127374,-0.0132581753754623,0.0120327934950884,-8.75569591658882,-5.03526880155539,5.30338648886129,0.000357125469815025,0.0245568403064032,-0.00706623873312992
0.455,2.14279903718659,6.86201598677354,9.16720820720832,-0.0300915485530162,-0.0153271131831548,-0.01499544349163,-0.502487340336074,0.869603528160738,-9.92931526950939,-0.0332093306892353,-0.00271118142854343,-0.00601121122777056,-4.4033869657751,2.76903702846084,-0.763280518302365,-0.0293690026935206,-0.0129607515707258,0.0120504082649827,-8.74780917549015,-5.0302345668098,5.29832608226235,-4.16877846834164e-05,0.0243670246114717,-0.00763603443225167
0.46,2.14009091237051,6.85522468194577,9.15876281421447,-0.0291266665076913,-0.01467669270669,-0.0142716605669722,-0.502973973244934,0.868688126569481,-9.91933461571978,-0.0322474034179563,-0.00261708069754808,-0.00577548001209661,-4.39988238371484,2.76592535809152,-0.762515429177816,-0.0285089414726618,-0.0125323070233546,0.0118431363100307,-8.73992243439147,-5.02520033206419,5.29326567566346,-0.000400269177368931,0.0237740706943487,-0.00799477857524815
0.465,2.13738278755454,6.84843337711797,9.15031742122073,-0.0276058073544014,-0.0136833627491056,-0.0132262747190996,-0.50346060615334,0.867772724978224,-9.90935396193017,-0.0304992276017737,-0.0025394033227204,-0.00559601595143375,-4.39637780165413,2.76281368772214,-0.761750340053267,-0.026887442338197,-0.0120016929568788,0.011462997978113,-8.73203569329257,-5.02016609731859,5.28820526906458,-0.00073492939534,0.0228647106390314,-0.00816738655717307
0.47,2.13467466273846,6.8416420722902,9.14187202822689,-0.0256923468101553,-0.0123987452228576,-0.0120285291903474,-0.5039472390622,0.866857323386974,-9.89937330814057,-0.0281315201181188,-0.00243621452094916,-0.00548721281099702,-4.39287321959364,2.75970201735282,-0.760985250928718,-0.0246552270447547,-0.0114187635567269,0.011006764829832,-8.7241489521939,-5.015131862573,5.28314486246569,-0.00105586519944313,0.0217647185481646,-0.00818524528383137
0.475,2.13196653792261,6.8348507674624,9.13342663523304,-0.0235556092356932,-0.0108759965177301,-0.0108678999655028,-0.504433871970605,0.865941921795716,-9.88939265435094,-0.0253144511225209,-0.00225944576593584,-0.00546202452658762,-4.38936863753293,2.7565903469835,-0.76022016180417,-0.0219664468133819,-0.01083272879084,0.0105770083846975,-8.71626221109523,-5.01009762782741,5.2780844558668,-0.00137021696813494,0.0205878402762296,-0.00807342681508007
0.48,2.12925841310653,6.8280594626346,9.12498124223919,-0.0213243520116901,-0.00916612163900961,-0.00988973335651122,-0.504920504879465,0.865026520204459,-9.87941200056133,-0.0221793546570192,-0.00197702718810136,-0.0055294613603189,-4.38586405547244,2.75347867661412,-0.759455072679621,-0.0189407656662268,-0.0102803806439959,0.0102464827614023,-8.70837546999655,-5.0050633930818,5.27302404926786,-0.00168392199313822,0.0194113137517309,-0.00784085937680495
0.485,2.12655028829056,6.82126815780683,9.11653584924545,-0.0190925191946893,-0.00733115223149767,-0.00916730258286876,-0.50540713778787,0.864111118613202,-9.86943134677172,-0.018835198267216,-0.00158811916492976,-0.0056971175361481,-4.38235947341195,2.7503670062448,-0.758689983555072,-0.0156797308976295,-0.00979137518720484,0.0100442264749161,-8.70048872889788,-5.0000291583362,5.26796364266897,-0.00200195313217125,0.0182908645871304,-0.00747870699280455
0.49,2.12384216347448,6.81447685297903,9.1080904562516,-0.0169276901344098,-0.00544649548046384,-0.00870590066306206,-0.50589377069673,0.863195717021952,-9.85945069298212,-0.0153784367055521,-0.00112167037478514,-0.00597220708269055,-4.37885489135147,2.74725533587542,-0.757924894430523,-0.0122760845707856,-0.00939120329038597,0.00995788675924016,-8.69260198779921,-4.99499492359061,5.26290323607009,-0.00232839330419693,0.0172637942293293,-0.00696225426958665
0.495,2.1211340386584,6.80768554815126,9.09964506325787,-0.0148655575566619,-0.00358855671629048,-0.00846481216400298,-0.506380403605135,0.862280315430688,-9.8494700391925,-0.0118786715828304,-0.000622124156077371,-0.00635937805232105,-4.37535030929098,2.7441436655061,-0.757159805305974,-0.00879995164831568,-0.00909646543531819,0.00994377964849831,-8.68471524670053,-4.989960688845,5.2578428294712,-0.00266667645532495,0.0163292799227645,-0.0062535162272683
0.5,2.11842591384243,6.80089424332346,9.0911996702639,-0.0129070612280425,-0.00182659143265426,-0.00837432071141109,-0.506867036513995,0.861364913839438,-9.83948938540289,-0.00836985158384802,-0.000138772063551392,-0.00685889476833267,-4.37184572723027,2.74103199513684,-0.756394716181426,-0.00529047428756773,-0.0089115049019375,0.00993423188387359,-8.67682850560186,-4.98492645409941,5.25278242287226,-0.00301976092763516,0.0154338038746777,-0.00530416154880888
0.505,2.11571778902646,6.79410293849566,9.08275427727017,-0.0110238439203958,-0.000224424683902911,-0.00834071730014553,-0.5073536694224,0.860449512248181,-9.82950873161329,-0.00485666055453443,0.000276272064569845,-0.00746654539768287,-4.36834114517001,2.73792032476746,-0.755629627056877,-0.00176208011083551,-0.00882954676300205,0.00983932853665667,-8.66894176450296,-4.97989221935381,5.24772201627337,-0.00339032374176267,0.0144704676037909,-0.00405885963017958
0.51,2.11300966421049,6.78731163366788,9.07430888427632,-0.00916713547619994,0.00116021255217847,-0.00825463034515888,-0.50784030233126,0.859534110656931,-9.81952807782368,-0.00132397543927501,0.00057048520274671,-0.00817380028129424,-4.36483656310929,2.73480865439814,-0.754864537932329,0.00178728103905338,-0.00883502858983385,0.00955510875657298,-8.66105502340429,-4.97485798460822,5.24266160967449,-0.00377944391092891,0.013295940004996,-0.0024611633750203
0.515,2.11030153939441,6.78052032884008,9.06586349128247,-0.00727855183674452,0.00229229565184515,-0.00802136985736995,-0.508326935239666,0.858618709065667,-9.80954742403405,0.00225967882065253,0.000702576993942344,-0.00896707961090285,-4.36133198104881,2.73169698402876,-0.75409944880778,0.00537666010318207,-0.00890507248504746,0.00899628904459463,-8.65316828230561,-4.96982374986261,5.2376012030756,-0.00418032648494726,0.0117866852517439,-0.000465812145167182
0.52,2.10759341457833,6.77372902401231,9.05741809828862,-0.00530122611843648,0.00318044019131382,-0.00759857004292575,-0.508813568148526,0.857703307474416,-9.79956677024445,0.00594083310988881,0.000656621981098122,-0.00982660932028388,-4.35782739898809,2.72858531365944,-0.753334359683231,0.0090457633278628,-0.00901055551612622,0.00813725433121158,-8.64528154120694,-4.96478951511702,5.23254079647671,-0.0045700103172726,0.00990791754479549,0.00194599335625255
0.525,2.10488528976236,6.76693771918451,9.04897270529489,-0.00318857063426093,0.00387130910792969,-0.00699573585325949,-0.509300201056931,0.856787905883159,-9.78958611645484,0.00976807604783381,0.000441142338662151,-0.0107266994834652,-4.35432281692761,2.72547364329006,-0.752569270558682,0.012842418311303,-0.00911890877114652,0.00701301237844473,-8.63739480010827,-4.95975528037143,5.22748038987777,-0.00491075149475784,0.00771710907488318,0.00476002119459578
0.53,2.1021771649464,6.76014641435671,9.04052731230104,-0.00091382862835017,0.00442087556361606,-0.00623387021777458,-0.509786833965791,0.855872504291902,-9.77960546266523,0.013763708715958,7.58112317790025e-05,-0.0116383563125056,-4.35081823486712,2.72236197292074,-0.751804181434133,0.0167902858408055,-0.00920018553305415,0.00568105002236451,-8.62950805900959,-4.95472104562583,5.22241998327888,-0.00516505758284249,0.00530392689130051,0.00793258053320664
0.535,2.09946904013043,6.75335510952894,9.0320819193073,0.00151825280198889,0.00487317097703635,-0.00531327694858918,-0.510273466874196,0.854957102700645,-9.76962480887561,0.0178963533053401,-0.000417283266433418,-0.0125320397937732,-4.34731365280663,2.71925030255142,-0.751039092309584,0.0208586218413632,-0.00923350662742277,0.0041928565557853,-8.62162131791092,-4.94968681088022,5.21735957668,-0.00531049441961181,0.00274541258441399,0.0113917465158284
0.54,2.09676091531435,6.74656380470114,9.02363652631345,0.00406448253197262,0.00525137325333899,-0.00421246348255858,-0.510760099783056,0.854041701109395,-9.75964415508601,0.0220696588199969,-0.00101705201058345,-0.0133777745294449,-4.34380907074592,2.71613863218204,-0.750274003185037,0.0249508569941207,-0.00920915219419022,0.00258993050185365,-8.61373457681225,-4.94465257613463,5.21229917008111,-0.00533965407938216,0.000100135773785288,0.015028537000966
0.545,2.09405279049827,6.73977249987337,9.0151911333196,0.00664377351852441,0.00555331298738393,-0.00290838850502102,-0.511246732691689,0.853126299518138,-9.7496635012964,0.0261284624353599,-0.00170650457237085,-0.0141443802787202,-4.34030448868543,2.71302696181272,-0.749508914060488,0.028911586745154,-0.00912699936200141,0.000908107572898585,-8.60584783571358,-4.93961834138904,5.20723876348217,-0.00525062378848822,-0.00258269527229983,0.0186913393987782
0.55,2.0913446656823,6.73298119504557,9.00674574032575,0.00914207893371377,0.00575588181877583,-0.00141393652142375,-0.511733365600321,0.852210897926881,-9.73968284750677,0.0298819567610549,-0.0024723389085889,-0.0148022845175698,-4.33679990662517,2.70991529144334,-0.748743824935939,0.0325511267084744,-0.0089953486238882,-0.000815372336792717,-8.59796109461467,-4.93458410664344,5.20217835688328,-0.00504335001048192,-0.00524485017465753,0.0222079250399465
0.555,2.08863654086622,6.7261898902178,8.99830034733202,0.0114185367925733,0.00582657614378765,0.000182026007061168,-0.512219998508954,0.851295496335624,-9.72970219371716,0.0331334693323815,-0.00330053524569811,-0.0153292627250275,-4.33329532456446,2.70680362107402,-0.74797873581139,0.0356770908396021,-0.00883140162918269,-0.0025325981930125,-8.590074353516,-4.92954987189783,5.19711795028439,-0.00472381267245742,-0.00779801735182134,0.0254263283950752
0.56,2.08592841605036,6.71939858539,8.98985495433817,0.0133085701121193,0.00573124479068512,0.00170477447035121,-0.512706631417586,0.850380094744374,-9.71972153992756,0.0356932503845422,-0.00417120447434358,-0.0157143579320751,-4.32979074250397,2.70369195070464,-0.747213646686841,0.0381083122217633,-0.00866296592611561,-0.00417832637061137,-8.58218761241733,-4.92451563715224,5.19205754368551,-0.0043077520317244,-0.0101200406685305,0.0282359981551355
0.565,2.08322029123428,6.7126072805622,8.98140956134432,0.0146195095772513,0.00543393276951069,0.00291478867724244,-0.513193264326219,0.849464693153109,-9.70974088613795,0.0373648912843769,-0.00505419466685118,-0.0159577726401554,-4.32628616044326,2.70058028033532,-0.746448557562292,0.0396612745007954,-0.00853090628620571,-0.00566776614742533,-8.57430087131866,-4.91948140240665,5.18699713708656,-0.00382091973525938,-0.0120667259044005,0.0305530252969514
0.57,2.0805121664182,6.70581597573442,8.97296416835047,0.0151401828192154,0.00489447312876515,0.00355159940696126,-0.513679897234852,0.848549291561859,-9.69976023234832,0.0379393467618271,-0.00591003915138536,-0.0160667771146128,-4.32278157838277,2.69746860996599,-0.745683468437745,0.0401421514450435,-0.008485809437473,-0.00690489517771267,-8.56641413021998,-4.91444716766104,5.18193673048768,-0.00329525350073801,-0.0134917868179215,0.0322902400504288
0.575,2.07780404160223,6.69902467090662,8.96451877535662,0.0147207911460315,0.00407832207211233,0.00343239614128727,-0.514166530143484,0.847633889970602,-9.68977957855871,0.0372693666896674,-0.00670182281543192,-0.0160494688927406,-4.31927699632229,2.69435693959662,-0.744918379313196,0.0394148987740057,-0.00856631194176759,-0.00781648460547415,-8.55852738912131,-4.90941293291544,5.17687632388879,-0.0027582859553739,-0.0142988627073302,0.0333625088558769
0.58,2.07509591678615,6.69223336607882,8.95607338236289,0.0133870702065219,0.00298174041564269,0.00256391356389788,-0.514653163052117,0.846718488379352,-9.67979892476912,0.0353928098050075,-0.00740900160864057,-0.0159110082766122,-4.3157724142618,2.6912452692273,-0.744153290188645,0.0375172775814802,-0.00877036318642964,-0.00839270309383497,-8.55064064802264,-4.90437869816985,5.1718159172899,-0.00222134046499195,-0.0145059629588841,0.0337355073821128
0.585,2.0723877919703,6.68544206125105,8.94762798936904,0.0113404910741997,0.00165203176555636,0.00113483047416169,-0.515139795960749,0.845803086788088,-9.6698182709795,0.0325405440550396,-0.00802530687552432,-0.0156553723997938,-4.31226783220109,2.68813359885797,-0.743388201064096,0.0346698634091904,-0.00905577124740882,-0.00868045110889367,-8.54275390692396,-4.89934446342426,5.16675551069102,-0.00167917842300144,-0.0142374654919171,0.0334456003030957
0.59,2.06967966715422,6.67865075642325,8.9391825963753,0.00883886940820108,0.000185413491134534,-0.000605994137679758,-0.515626428869155,0.844887685196838,-9.65983761718989,0.0290132353945028,-0.00854518517604759,-0.0152895171243189,-4.3087632501406,2.68502192848865,-0.742623111939547,0.0311615183755927,-0.0093697575181778,-0.00873489173712286,-8.53486716582506,-4.89431022867865,5.16169510409208,-0.00112002904948629,-0.0136429852163417,0.0325653456089518
0.595,2.06697154233825,6.67185945159548,8.93073720338145,0.00610752422629371,-0.00130119977436606,-0.00244345184353306,-0.516113061778015,0.843972283605581,-9.64985696340028,0.025084559220779,-0.00896138367822697,-0.0148243334339687,-4.30525866808034,2.68191025811933,-0.741858022814998,0.0272581228315583,-0.00966953903491273,-0.00859212902515101,-8.52698042472639,-4.88927599393305,5.15663469749319,-0.000532610993653516,-0.0128329540222879,0.0311686666983206
0.6,2.06426341752217,6.66506814676768,8.92229181038761,0.0033267735949184,-0.00270789044821415,-0.0042149079418664,-0.51659969468642,0.843056882014324,-9.63987630961067,0.0209825202912675,-0.0092747256777707,-0.0142728970038804,-4.30175408601963,2.67879858774995,-0.741092933690451,0.0231835861569088,-0.00992395494892303,-0.00827693588274252,-8.51909368362772,-4.88424175918746,5.1515742908943,9.24125190174619e-05,-0.0118637668058044,0.0293215704553783
0.605,2.06155529270609,6.65827684193988,8.91384641739376,0.000635836711401138,-0.00396664553183499,-0.0057994340314898,-0.51708632759528,0.842141480423066,-9.62989565582106,0.0168895821590562,-0.00949738272362256,-0.0136509054577166,-4.29824950395914,2.67568691738063,-0.740327844565902,0.0191188860759688,-0.0101134109002161,-0.00781212985134631,-8.51120694252904,-4.87920752444187,5.14651388429542,0.000759199842872901,-0.0107472301445332,0.0270879820637757
0.61,2.05884716789012,6.65148553711211,8.90540102440002,-0.00186861216149966,-0.00503039983959144,-0.00710314327507443,-0.517572960503685,0.841226078831816,-9.61991500203143,0.012938606196192,-0.00964519334796591,-0.0129780532691981,-4.29474492189843,2.67257524701125,-0.739562755441353,0.0151977986346409,-0.01023184777998,-0.00721660046225923,-8.50332020143037,-4.87417328969626,5.14145347769647,0.00146160291536252,-0.00946577813858356,0.0245343537069695
0.615,2.05613904307415,6.64469423228431,8.89695563140617,-0.00412709029022419,-0.00586263032400443,-0.00805238111730208,-0.518059593412545,0.840310677240559,-9.60993434824184,0.00921695074463722,-0.00972915010023287,-0.0122756844805127,-4.29124033983794,2.66946357664193,-0.738797666316804,0.0115102471504266,-0.01028363633311,-0.00650108155828387,-8.4954334603317,-4.86913905495067,5.13639307109759,0.00218315086581587,-0.00798820033570689,0.0217205607175
0.62,2.05343091825819,6.63790292745654,8.88851023841244,-0.00610816457393891,-0.00644120646559339,-0.00861184338139054,-0.51854622632095,0.839395275649302,-9.59995369445222,0.00578215604005505,-0.00975292095982805,-0.0115643527101823,-4.28773575777745,2.66635190627255,-0.738032577192255,0.00811636694362423,-0.0102779127972198,-0.00567236163262777,-8.48754671923302,-4.86410482020507,5.1313326644987,0.00290471970048482,-0.00629504930576656,0.0187017513461787
0.625,2.05072279344211,6.63111162262871,8.88006484541847,-0.00780318331332774,-0.00676685382570412,-0.00881367113392093,-0.51903285922981,0.838479874058045,-9.58997304066261,0.0026795426376517,-0.00971453943664893,-0.0108654247932549,-4.28423117571697,2.66324023590323,-0.737267488067706,0.00506256199230882,-0.0102262537863176,-0.00474448838361418,-8.47965997813435,-4.85907058545946,5.12627225789981,0.00361247253521088,-0.00440856116116577,0.0155546829783837
0.63,2.04801466862602,6.62432031780094,8.87161945242474,-0.00921818050429018,-0.00686057380920664,-0.00875250628611114,-0.519519492138215,0.837564472466795,-9.57999238687299,-4.83509210002691e-05,-0.00960521721071445,-0.0102004720465786,-4.28072659365625,2.66012856553391,-0.736502398943159,0.00239035191870608,-0.0101401881083131,-0.00374018245391108,-8.47177323703545,-4.85403635071387,5.12121185130087,0.00429658534148978,-0.00239608291219088,0.0123797873613016
0.635,2.04530654381006,6.61752901297314,8.86317405943089,-0.010362165001375,-0.00675143359551666,-0.0085439622535715,-0.520006125047075,0.836649070875531,-9.57001173308339,-0.00236258514162704,-0.00940696517683125,-0.00958637720082247,-4.27722201159577,2.65701689516453,-0.73573730981861,0.000136079499212827,-0.0100270910113161,-0.00268027793902159,-8.46388649593678,-4.84900211596828,5.11615144470198,0.00494420335875925,-0.000344378564571076,0.00926732135260625
0.64,2.04259841899409,6.61073770814536,8.85472866643715,-0.0112457863640788,-0.00646862795903473,-0.00828803214283739,-0.520492757955481,0.835733669284281,-9.56003107929378,-0.00423782814476018,-0.00909936587502705,-0.00903435922933021,-4.27371742953528,2.65390522479521,-0.734972220694061,-0.001677739331422,-0.00989158619616398,-0.00157956222846778,-8.4559997548381,-4.84396788122268,5.1110910381031,0.00553843575474866,0.00166616770697129,0.00628369225566999
0.645,2.03989029417812,6.60394640331756,8.84628327344319,-0.011887894443077,-0.0060410233669764,-0.00805615655568551,-0.520979390864341,0.834818267693031,-9.55005042550417,-0.00567193850928008,-0.0086719363234779,-0.00855334046484518,-4.2702128474748,2.65079355442583,-0.734207131569512,-0.00305084335961006,-0.00974072521252123,-0.000452775215172768,-8.44811301373943,-4.83893364647707,5.10603063150415,0.00606422389852702,0.00357289250324282,0.00348862348566595
0.65,2.03718216936204,6.59715509848976,8.83783788044946,-0.0123088701872099,-0.00549963045931597,-0.0078979710967805,-0.521466023772746,0.833902866101774,-9.54006977171454,-0.00667543562861045,-0.0081268666526578,-0.00814918037465906,-4.26670826541431,2.64768188405651,-0.733442042444963,-0.00399517540587461,-0.00958117288092357,0.000682275716815514,-8.44022627264076,-4.83389941173147,5.10097022490527,0.00651333507683787,0.00532764747086874,0.00094236843095126
0.655,2.03447404454596,6.59036379366199,8.82939248745561,-0.0125111260544323,-0.00488023666640675,-0.00785647104965257,-0.521952656681606,0.832987464510509,-9.53008911792494,-0.00724490383319138,-0.00747092377478061,-0.00781968354241148,-4.26320368335359,2.64457021368713,-0.732676953320414,-0.00451000696448426,-0.00940920304460317,0.00180754137947797,-8.43233953154208,-4.82886517698587,5.09590981830638,0.00688392480849366,0.00688377554258397,-0.00130533239726155
0.66,2.03176591972999,6.58357248883419,8.82094709446187,-0.0124752280839908,-0.00422129960714934,-0.00796989009375775,-0.522439289590238,0.832072062919259,-9.52010846413533,-0.00735734392864504,-0.00670879946133511,-0.00755406921148227,-4.25969910129311,2.64145854331787,-0.731911864195865,-0.00457678575831664,-0.0092090450588815,0.00290725129235468,-8.42445279044341,-4.82383094224028,5.0908494117075,0.0071749846984634,0.00818962600252006,-0.00322244149676204
0.665,2.02905779491391,6.57678118400639,8.81250170146802,-0.0121900248900935,-0.0035536961747465,-0.00825170471449718,-0.522925922498871,0.831156661328002,-9.51012781034572,-0.0070095684143456,-0.00584628689997261,-0.00734056055799943,-4.25619451923262,2.63834687294855,-0.731146775071318,-0.00419595903113174,-0.00896796518843168,0.00396959517528447,-8.41656604934451,-4.81879670749468,5.08578900510861,0.00738410816239163,0.00920659446975304,-0.00479328194572933
0.67,2.02634967009806,6.56998987917862,8.80405630847406,-0.0116912211848481,-0.00289062086688747,-0.00866915727321964,-0.523412555407504,0.830241259736752,-9.50014715655611,-0.00626837596005942,-0.00489893563509624,-0.00717533847497051,-4.25268993717214,2.63523520257917,-0.730381685946769,-0.00343363754493444,-0.00869488049881531,0.004988006186416,-8.40867930824561,-4.81376247274908,5.08072859850972,0.0075121120147735,0.00993717352192267,-0.00601648534639239
0.675,2.02364154528198,6.56319857435082,8.79561091548032,-0.0110604826388998,-0.00223181270373567,-0.00914800347886465,-0.523899188316136,0.829325858145495,-9.4901665027665,-0.0052675519906514,-0.0038941709523115,-0.0070632217130621,-4.24918535511142,2.63212353220985,-0.72961659682222,-0.00241884754591572,-0.00842032522263017,0.00595758972803124,-8.40079256714694,-4.80872823800349,5.07566819191084,0.00756380787203968,0.0104219221107829,-0.00690172751141222
0.68,2.02093342046589,6.55640726952305,8.78716552248648,-0.0103853450017345,-0.00158255739872914,-0.00960408677429694,-0.524385821224769,0.828410456554238,-9.48018584897689,-0.00415173616240338,-0.00286677095786283,-0.00701029476497786,-4.24568077305094,2.62901186184052,-0.728851507697671,-0.00129132202428989,-0.00817800652588089,0.0068670723690482,-8.39290582604826,-4.8036940032579,5.07060778531184,0.00754477621064677,0.0107060306854922,-0.00746529902192977
0.685,2.01822529564993,6.54961596469528,8.77872012949263,-0.00972764632484597,-0.000970658637046587,-0.00997104821770566,-0.524872454133401,0.827495054962981,-9.47020519518728,-0.00303140069117004,-0.00185692629593995,-0.00701824049861665,-4.24217619099022,2.62590019147115,-0.728086418573122,-0.000159429141710208,-0.0079902892489186,0.00769212667715037,-8.38501908494959,-4.79865976851229,5.06554737871301,0.0074610852976276,0.0108143682564833,-0.0077278597869451
0.69,2.01551717083385,6.54282465986745,8.77027473649889,-0.00912193478978891,-0.000447936168232594,-0.010199669868011,-0.525359087042034,0.826579653371724,-9.46022454139766,-0.00198021514445886,-0.000909977221628498,-0.0070851641172453,-4.23867160892996,2.62278852110182,-0.727321329448573,0.00090190702710551,-0.0078682543478446,0.00839138053126772,-8.37713234385092,-4.79362553376669,5.06048697211406,0.00731387280956549,0.0107440594672818,-0.00771218321192475
0.695,2.01280904601799,6.53603335503968,8.76182934350504,-0.00858884560578698,-7.8417588880433e-05,-0.0102459327225417,-0.525845719950667,0.825664251780466,-9.45024388760805,-0.00105283895797004,-7.24942096324926e-05,-0.00720874645917077,-4.23516702686948,2.61967685073245,-0.726556240324026,0.00183414413918994,-0.00781813089026171,0.00890848844781474,-8.36924560275224,-4.78859129902109,5.05542656551523,0.00709107313409406,0.0104678001481578,-0.00743958820464122
0.7,2.01010092120191,6.52924205021188,8.75338395051119,-0.00815248152885441,8.03245425524644e-05,-0.0100849621221898,-0.526332352859299,0.824748850189216,-9.44026323381844,-0.000300099134750713,0.00061584896085824,-0.00738809145446225,-4.23166244480876,2.61656518036312,-0.725791151199477,0.00258266034094915,-0.00784680340395683,0.00919089749206107,-8.36135886165357,-4.78355706427548,5.05036615891623,0.0067769131693563,0.00995874040965855,-0.0069295737757752
0.705,2.00739279638594,6.52245074538408,8.74493855751746,-0.00785579248316766,-6.8757526451536e-06,-0.00974239064350151,-0.526818985767932,0.823833448597959,-9.43028258002883,0.000223011402941164,0.00112959339383659,-0.0076245414464048,-4.22815786274828,2.61345350999375,-0.725026062074928,0.00309230419787328,-0.00796535469633412,0.0092148902384209,-8.3534721205549,-4.77852282952989,5.04530575231735,0.00637323789599663,0.00922434800932628,-0.00620308474269746
0.71,2.00468467156986,6.51565944055631,8.73649316452361,-0.00776147456120905,-0.00035456104515442,-0.00929508525040877,-0.527305618676564,0.822918047006702,-9.42030192623922,0.000455802219127938,0.00145491684387695,-0.00792137254542598,-4.22465328068779,2.61034183962443,-0.724260972950379,0.00330593210017691,-0.00818907604766134,0.00898452444345307,-8.345585379456,-4.7734885947843,5.04024534571852,0.00590116350848422,0.00830734810535603,-0.00528406528405362
0.715,2.00197654675378,6.50886813572851,8.72804777152987,-0.00794159613978487,-0.000972569568591618,-0.00884151873084437,-0.527792251585197,0.822002645415445,-9.41032127244961,0.000332916651514188,0.00158166532382983,-0.00828246074006094,-4.2211486986273,2.6072301692551,-0.72349588382583,0.00316239772484185,-0.00853490802941038,0.00850935442855954,-8.33769863835732,-4.7684543600387,5.03518493911957,0.00538356850887127,0.00725511212971466,-0.00419716125751356
0.72,1.99926842193781,6.50207683090073,8.71960237853602,-0.0084773715095249,-0.00187494300267753,-0.00848951994814809,-0.52827888449383,0.821087243824195,-9.40034061866,-0.000220866060296808,0.00150796596672094,-0.00871236669037742,-4.21764411656659,2.60411849888573,-0.722730794701281,0.0025905987691144,-0.0090222323231274,0.00780244856330259,-8.32981189725865,-4.76342012529309,5.03012453252069,0.00483918132291925,0.00610141919038602,-0.00296324458083509
0.725,1.99656029712185,6.49528552607293,8.71115698554217,-0.00946968649535311,-0.00307764432004346,-0.00836797773311323,-0.528765517402462,0.820171842232931,-9.39035996487038,-0.00129965390662416,0.00125437928230646,-0.00921814187615736,-4.21413953450622,2.6010068285164,-0.721965705576734,0.00150246607369732,-0.00967700376259072,0.00689941579050497,-8.32192515615998,-4.7583858905475,5.02506412592174,0.00429154436489439,0.00487085561002965,-0.00159641574585659
0.73,1.99385217230588,6.48849422124513,8.70271159254833,-0.0110383098576172,-0.0045964677226975,-0.00862793791558703,-0.529252150311095,0.819256440641681,-9.38037931108077,-0.00301490301160508,0.000863832146203038,-0.00980909224789196,-4.2106349524455,2.59789515814703,-0.721200616452185,-0.000205360112410329,-0.010531310750996,0.00585958005183113,-8.3140384150613,-4.75335165580191,5.02000371932286,0.00376978879278023,0.0035825990484183,-0.000107692029266005
0.735,1.9911440474898,6.48170291641736,8.69426619955448,-0.0133056684926471,-0.00644783017315744,-0.00942548664168129,-0.529738783219727,0.818341039050424,-9.37039865729116,-0.00548196520674821,0.000385410432077699,-0.0104930409153232,-4.20713037038502,2.5947834877777,-0.720435527327636,-0.00264063715987168,-0.0116164762453516,0.00474480113484781,-8.30615167396263,-4.74831742105631,5.01494331272397,0.00329755278770851,0.0022464570373032,0.00148566797218153
0.74,1.98843592267372,6.47491161158956,8.68582080656074,-0.0163809057553281,-0.0086474237614753,-0.0109063712183702,-0.53022541612836,0.817425637459174,-9.36041800350156,-0.00880681385050717,-0.000138125875425496,-0.0112720268338857,-4.20362578832442,2.59167181740833,-0.719670438203087,-0.00590434696834932,-0.0129558708999187,0.0036042427459549,-8.29826493286396,-4.74328318631071,5.00988290612509,0.00288475039007567,0.000860489477457934,0.00315198410121059
0.745,1.98572779785775,6.46812030676179,8.67737541356689,-0.0203521267933665,-0.0112082343056522,-0.0131999395471659,-0.530712049036993,0.816510235867909,-9.35043734971194,-0.0130784827291116,-0.000673360137212563,-0.0121406830050423,-4.20012120626393,2.588560147039,-0.718905349078538,-0.0100834269831271,-0.0145619392357908,0.00247297601364901,-8.29037819176529,-4.73824895156511,5.00482249952614,0.00252795856512126,-0.000583808318268591,0.0048437955673255
0.75,1.98301967304178,6.46132900193399,8.66893002057304,-0.0252852992556767,-0.0141453428964679,-0.0164167566722493,-0.531198681945625,0.815594834276659,-9.34045669592233,-0.0183661344738639,-0.0011982029506613,-0.0130889272041437,-4.19661662420344,2.58544847666968,-0.718140259953989,-0.0152469164119007,-0.0164384581583962,0.00137324734842291,-8.28249145066661,-4.73321471681952,4.99976209292726,0.00221690607642919,-0.00208666071766527,0.00650840775589342
0.755,1.98031154822581,6.45453769710619,8.66048462757919,-0.031222572407327,-0.0174821771124229,-0.020644304599829,-0.531685314854258,0.814679432685409,-9.33047604213272,-0.0247151004894255,-0.00170446783311661,-0.0141056530757679,-4.19311204214284,2.58233680630036,-0.717375170829442,-0.0214408906203585,-0.0185835814798957,0.00031535792284027,-8.27460470956771,-4.72818048207392,4.99470168632837,0.00194185489477076,-0.00362310704380631,0.00810159517858725
0.76,1.97760342340973,6.44774639227842,8.65203923458546,-0.0381682282689428,-0.0212405837782374,-0.0259360127210415,-0.53217194776289,0.813764031094145,-9.32049538834312,-0.0321316474880157,-0.00219580623654534,-0.0151765237285976,-4.18960746008236,2.57922513593104,-0.716610081704893,-0.0286733225778679,-0.0209850265992152,-0.000697835293926541,-8.26671796846904,-4.72314624732832,4.98964127972948,0.00169380650649548,-0.0051404291878285,0.00958188704308875
0.765,1.97489529859365,6.44095508745062,8.64359384159161,-0.0460690095239667,-0.0254173421472901,-0.0322944582502924,-0.532658580671523,0.812848629502895,-9.31051473455349,-0.0405629317035579,-0.00268002781543583,-0.0162788674489842,-4.18610287802176,2.57611346556166,-0.715844992580344,-0.0368949051744815,-0.0236114822095367,-0.00166353371698314,-8.25883122737037,-4.71811201258272,4.9845808731306,0.0014603837873467,-0.00657210158782657,0.010894512084051
0.77,1.97218717377768,6.43416378262285,8.63514844859776,-0.0548132158834229,-0.0299699109719692,-0.0396547171423516,-0.533145213580156,0.811933227911638,-9.30053408076388,-0.0498952215794687,-0.00315930108915678,-0.0173856177675554,-4.18259829596138,2.57300179519234,-0.715079903455793,-0.0459966543972074,-0.0264161595892326,-0.00257309845837419,-8.25094448627169,-4.71307777783713,4.97952046653165,0.00123104620599002,-0.00785759653400274,0.0119849675715924
0.775,1.9694790489616,6.42737247779505,8.62670305560403,-0.064238608965165,-0.034812994221909,-0.0478677992179385,-0.533631846489016,0.811017826320381,-9.29055342697427,-0.0599602753281935,-0.00362260282693893,-0.0184747699770927,-4.17909371390078,2.56989012482296,-0.714314814331244,-0.0558146491156645,-0.029347207916992,-0.00340855169278207,-8.24305774517302,-4.70804354309152,4.97446005993277,0.0010088316797243,-0.00895691880777154,0.0128325611855844
0.78,1.96677092414575,6.42058117296725,8.61825766261018,-0.0741058800709277,-0.0398055676577081,-0.0566781131436361,-0.534118479397421,0.810102424729124,-9.28057277318467,-0.070507117773346,-0.00404502010514465,-0.0195261280735942,-4.17558913184018,2.56677845445364,-0.713549725206695,-0.0661024395134136,-0.0323392801662264,-0.00413993316844362,-8.23517100407435,-4.70300930834593,4.96939965333388,0.000809617911861877,-0.00984711881505416,0.0134460819389632
0.785,1.96406279932967,6.41378986813947,8.60981226961633,-0.0840416247082385,-0.0447312726518485,-0.0657011684463578,-0.534605112306281,0.809187023137873,-9.27059211939505,-0.0811420677184398,-0.00439502190624442,-0.0205063327688942,-4.1720845497797,2.56366678408432,-0.712784636082148,-0.0764742363234534,-0.0352875499086027,-0.00472715845722313,-8.22728426297567,-4.69797507360033,4.96433924673499,0.000649293178330155,-0.0105056828980333,0.0138269921992868
0.79,1.96135467451359,6.40699856331167,8.60136687662259,-0.0935012454836009,-0.0492996265309084,-0.0744205531545045,-0.535091745214686,0.808271621546616,-9.26061146560544,-0.0912847600906748,-0.00464804880164408,-0.0213621277132206,-4.1685799677191,2.56055511371494,-0.712019546957599,-0.0863637047234879,-0.0380322130613397,-0.00513454204223789,-8.219397521877,-4.69294083885474,4.95927884013605,0.000538278707529631,-0.01090418864573,0.013966638160638
0.795,1.95864654969762,6.4002072584839,8.59292148362863,-0.101757003813101,-0.053160042433245,-0.0821938577870023,-0.535578378123546,0.807356219955359,-9.25063081181584,-0.100147520876893,-0.00479888874422498,-0.0220242177904706,-4.16507538565861,2.55744344334562,-0.71125445783305,-0.0950045996904467,-0.040357448356749,-0.00534947015594123,-8.2115107807781,-4.68790660410913,4.95421843353716,0.00048607518049352,-0.0110147475551448,0.0138768417127975
0.8,1.95593842488154,6.3934159536561,8.58447609063489,-0.107871267745064,-0.0558849609728686,-0.0882271568856758,-0.536065011031951,0.806440818364102,-9.24065015802621,-0.106705805386488,-0.00485952528373444,-0.0224058734403347,-4.16157080359801,2.55433177297624,-0.710489368708501,-0.101401871797486,-0.0419842203054994,-0.00538072529296032,-8.20362403967943,-4.68287236936354,4.94915802693828,0.000501829691740396,-0.0108097746197662,0.0135887789259855
0.805,1.95323030006568,6.38662464882833,8.57603069764104,-0.11076432754627,-0.0569767428414884,-0.0916152576898061,-0.536551643940811,0.805525416772852,-9.2306695042366,-0.109779076213389,-0.00484458967086933,-0.0224054117922424,-4.15806622153752,2.55122010260692,-0.709724279583952,-0.10440964514918,-0.0425883376626208,-0.00523931246035036,-8.19573729858075,-4.67783813461794,4.94409762033939,0.000589061738087929,-0.0102584412778265,0.0131193961876742
0.81,1.9505221752496,6.37983334400053,8.5675853046472,-0.109635610603482,-0.0560512062067113,-0.0916826086804654,-0.537038276849216,0.804610015181595,-9.22068885044699,-0.108492579106665,-0.00476106234802802,-0.0219473978695929,-4.15456163947692,2.54810843223754,-0.708959190459403,-0.103179358759843,-0.0419281250443392,-0.00493101082412165,-8.18785055748208,-4.67280389987234,4.93903721374045,0.000745153976541333,-0.0093473592687619,0.0124661042158134
0.815,1.94781405043352,6.37304203917273,8.55913991165346,-0.104520725932672,-0.0531049932690592,-0.0884475241419332,-0.537524909758076,0.803694613590338,-9.21070819665739,-0.102881983809185,-0.00460712770788863,-0.0210413052883554,-4.15105705741644,2.54499676186822,-0.708194101334856,-0.0977468958851247,-0.0400163416886614,-0.00446406936925101,-8.17996381638341,-4.66776966512674,4.93397680714156,0.000966391567363224,-0.00811541969352135,0.011631866828158
0.82,1.94510592561755,6.36625073434493,8.55069451865961,-0.0962913858455744,-0.0485274940364454,-0.0826218884262952,-0.538011542666482,0.802779211999081,-9.20072754286777,-0.0938941555722071,-0.00437590930944943,-0.0197815447556667,-4.14755247535595,2.54188509149895,-0.707429012210307,-0.0890331326451972,-0.0371213667344166,-0.00385258544010123,-8.17207707528462,-4.66273543038114,4.92891640054268,0.0012496873083001,-0.00665223509478714,0.01063129964752
0.825,1.94239780080147,6.35945942951716,8.54224912566576,-0.086096739354455,-0.0428512449660028,-0.0751435077878827,-0.538498175575342,0.801863810407831,-9.19074688907816,-0.0827815075114955,-0.00406473131017348,-0.0182900293422141,-4.14404789329535,2.53877342112958,-0.706663923085758,-0.0782553656663167,-0.0335973650525431,-0.00311535771774631,-8.16419033418595,-4.65770119563555,4.92385599394379,0.00159068681397055,-0.00505434712163539,0.00947963845520701
0.83,1.93968967598551,6.35266812468939,8.53380373267203,-0.0749307465222166,-0.0365600506683482,-0.0668149385238528,-0.53898480848386,0.800948408816573,-9.18076623528856,-0.0706309933662699,-0.00368553985476412,-0.0166739802187532,-4.14054331123486,2.53566175076026,-0.705898833961209,-0.066469598800294,-0.0297538946838753,-0.00227903379229934,-8.15630359308727,-4.65266696088995,4.9187955873449,0.00198327158766161,-0.00338848291244683,0.00819344866913931
0.835,1.93698155116954,6.34587681986159,8.52535833967818,-0.0635475579418187,-0.0300481967746629,-0.0582306979320079,-0.539471441392493,0.800033007225309,-9.17078558149895,-0.0582725560874807,-0.00326451574936207,-0.0150177819023114,-4.13703872917426,2.53255008039088,-0.70513374483666,-0.0544818768261037,-0.0258302008133065,-0.00137830114975852,-8.1484168519886,-4.64763272614434,4.91373518074596,0.00241829014583898,-0.00168900171265019,0.00678867703282196
0.84,1.93427342635357,6.33908551503379,8.51691294668444,-0.0524923305120464,-0.0236216963533177,-0.0498024386905057,-0.539958074301126,0.799117605634059,-9.16080492770932,-0.0463136515517451,-0.00283196981113804,-0.0133838998760453,-4.13353414711378,2.52943841002156,-0.704368655712111,-0.0428822527790921,-0.0220023820794026,-0.000448576997498052,-8.14053011088993,-4.64259849139875,4.90867477414707,0.00288220959037616,2.74931210265464e-05,0.00526868237564413
0.845,1.93156530153749,6.33229421020602,8.50846755369059,-0.0421341738318156,-0.0175016804334875,-0.0418010351106772,-0.540444707209758,0.798202204042809,-9.15082427391971,-0.0351681622222796,-0.00241578556634104,-0.0118165609791107,-4.13002956505318,2.52632673965223,-0.703603566587562,-0.0320723793427957,-0.0183923638993669,0.000480537903773813,-8.13264336979103,-4.63756425665316,4.90361436754819,0.00336442541355911,0.00175313202458028,0.00363215527305182
0.85,1.92885717672141,6.32550290537822,8.50002216069674,-0.0327004388523755,-0.0118357106610683,-0.0344058756718951,-0.540931340118391,0.797286802451545,-9.14084362013011,-0.0250825476215888,-0.00204138959307622,-0.0103484634976579,-4.12652498299269,2.52321506928286,-0.702838477463015,-0.022289879867955,-0.0150793278442422,0.0013865694765651,-8.12475662869235,-4.63253002190755,4.8985539609493,0.00386862857321149,0.00348712564994815,0.00189896039059206
0.855,1.92614905190544,6.31871160055042,8.4915767677029,-0.0243083189899054,-0.00671488645489817,-0.0277276248980758,-0.541417973027023,0.796371400860288,-9.1308629663405,-0.0161714619731375,-0.0017319781514448,-0.00900436454839251,-4.12302040093209,2.52010339891353,-0.702073388338466,-0.0136433147853066,-0.0121097146832846,0.00225129839194985,-8.11686988759368,-4.62749578716195,4.89349355435036,0.00441025180704087,0.00523078038913667,0.00011525942389066
0.86,1.92344092708936,6.31192029572264,8.48313137470905,-0.0169917885195688,-0.00219362495884776,-0.0218043584457364,-0.541904605935656,0.795455999269038,-9.12088231255088,-0.00846060933306758,-0.00150725827453003,-0.00780066782962319,-4.11951581887149,2.51699172854416,-0.701308299213917,-0.00615561440831261,-0.00950454817093582,0.00305552713793103,-8.10898314649501,-4.62246155241636,4.88843314775147,0.00500052389111124,0.00697742360870867,-0.00166598818599166
0.865,1.92073280227351,6.30512899089484,8.47468598171531,-0.0107248645648786,0.00169258214710919,-0.0166025957523132,-0.542391238844289,0.794540597677781,-9.11090165876126,-0.00192192339044836,-0.00138274140949223,-0.00674547902014384,-4.116011236811,2.51388005817483,-0.700543210089368,0.000200322539312811,-0.00726585608833659,0.00377436065863348,-8.10109640539622,-4.61742731767077,4.88337274115258,0.00563467043902633,0.0087037793596051,-0.00339934901665564
0.87,1.91802467745742,6.29833768606707,8.46624058872146,-0.00544109749463361,0.00491917451941222,-0.0120371592800582,-0.542877871752921,0.793625196086523,-9.10092100497167,0.00350613094890784,-0.0013688028054679,-0.00584008779976834,-4.1125066547504,2.51076838780546,-0.699778120964819,0.00548180234940296,-0.00538197938525875,0.00437743267605786,-8.09320966429755,-4.61239308292516,4.8783123345537,0.0062919235602076,0.0103683937916632,-0.00504738712523968
0.875,1.91531655264134,6.29154638123927,8.45779519572761,-0.00104789601204548,0.00748452620595316,-0.00800722747110935,-0.543364504661554,0.792709794495273,-9.09094035118204,0.00791359044580673,-0.00146628423320027,-0.0050797393102902,-4.10900207269003,2.50765671743613,-0.69901303184027,0.00977287453190859,-0.00382979651225552,0.00483971139561365,-8.08532292319887,-4.60735884817957,4.87325192795481,0.00694576092166045,0.0119219070255908,-0.00657931947963755
0.88,1.91260842782538,6.28475507641147,8.44934980273376,0.00256322361319559,0.0094283146863019,-0.00443472569234426,-0.543851137570186,0.791794392904016,-9.08095969739244,0.01142099008653,-0.00166141959634739,-0.00445383803074234,-4.10549749062943,2.50454504706681,-0.698247942715723,0.0131880875566963,-0.00257524136588631,0.00515549396425952,-8.0774361821002,-4.60232461343397,4.86819152135587,0.0075772753506833,0.013321551668404,-0.0079712121819789
0.885,1.90990030300929,6.2779637715837,8.44090440974003,0.00550730361345265,0.010823422423081,-0.00127773508249867,-0.544337770478819,0.790878991312759,-9.07097904360283,0.0141711177857527,-0.00192896289809085,-0.00394739717487739,-4.10199290856895,2.50143337669743,-0.697482853591174,0.0158648448806968,-0.00157638081482628,0.00533754059194302,-8.06954944100141,-4.59729037868838,4.86313111475698,0.00818024109555675,0.0145353062853541,-0.00920394428359461
0.89,1.90719217819344,6.2711724667559,8.43245901674618,0.00789472003537035,0.0117507213694976,0.0014878538552081,-0.544824403387452,0.789963589721502,-9.06099838981322,0.0163060841887026,-0.0022424775509809,-0.00354395075402429,-4.09848832650835,2.49832170632811,-0.696717764466625,0.0179405817435865,-0.00079031123895193,0.00540552338263252,-8.06166269990274,-4.59225614394277,4.8580707081581,0.0087564595828825,0.0155444630445463,-0.0102612289191495
0.895,1.90448405337736,6.2643811619281,8.42401362375233,0.00981889561882861,0.0122881697418576,0.00388963336698088,-0.545311036296084,0.789048188130252,-9.0510177360236,0.01794412443883,-0.00258037134397829,-0.00322837845810918,-4.09498374444786,2.49521003595879,-0.695952675342076,0.0195301969823747,-0.000180231105313346,0.00538064836682952,-8.05377595880407,-4.58722190919718,4.85301030155921,0.00930870166093436,0.0163514453441498,-0.0111295614062823
0.9,1.90177592856139,6.25758985710033,8.41556823075859,0.0113500726274432,0.0125025539251121,0.0059536975135004,-0.545797669204717,0.788132786538995,-9.04103708223398,0.0191721909696725,-0.00292520918493826,-0.00298788850575809,-4.09147916238726,2.49209836558941,-0.695187586217527,0.0207183255235256,0.000282397748722699,0.00528242250582912,-8.04588921770539,-4.58218767445158,4.84794989496027,0.00983688211895586,0.016970904657807,-0.0117949667089675
0.905,1.89906780374531,6.25079855227253,8.40712283776463,0.0125409460542043,0.0124388545610411,0.00768932191754477,-0.546284302113349,0.787217384947738,-9.03105642844439,0.0200560272710096,-0.00326169657691919,-0.00281089717760842,-4.08797458032666,2.48898669522009,-0.694422497092978,0.0215681786973645,0.000621168777822144,0.00512457095397133,-8.03800247660661,-4.57715343970597,4.84288948836138,0.0103400429183902,0.0174086703760071,-0.0122397942077646
0.91,1.89635967892923,6.24400724744473,8.3986774447709,0.0134435059135064,0.0121436441965796,0.00910969805446844,-0.546770935021982,0.786301983356481,-9.02107577465476,0.0206582934264397,-0.0035734216949555,-0.00268491508023463,-4.08446999826617,2.48587502485071,-0.693657407968431,0.0221402729652607,0.000859771761459044,0.00492477679485885,-8.03011573550793,-4.57211920496038,4.83782908176249,0.0108229489148031,0.0176683846538487,-0.0124527585260785
0.915,1.89365155411326,6.23721594261696,8.39023205177705,0.0141243214744174,0.0117107936478503,0.0102762322864072,-0.547257567930615,0.785386581765231,-9.01109512086515,0.0210511228274422,-0.00383787245394559,-0.0025953354990098,-4.08096541620557,2.48276335448145,-0.692892318843882,0.0225070451796625,0.00102463813515447,0.00472296979118188,-8.02222899440926,-4.56708497021479,4.83276867516361,0.0113001409288778,0.0177792074899925,-0.0124454015552687
0.92,1.89094342929729,6.23042463778916,8.3817866587832,0.0146589589635854,0.0112802039190318,0.0112965200819832,-0.547744200839247,0.784471180173973,-9.00111446707555,0.0213102657907497,-0.00402533563864604,-0.00252689496835029,-4.07746083414509,2.47965168411207,-0.692127229719333,0.0227469084744165,0.00114254460033673,0.00457935207319874,-8.01434225331059,-4.56205073546919,4.82770826856466,0.0117894706317296,0.0177948643679033,-0.0122504014303425
0.925,1.88823530448133,6.22363333296138,8.37334126578935,0.0151150775179518,0.0109809937930412,0.0122687431921924,-0.54823083374788,0.783555778582716,-8.99113381328593,0.0215028637985409,-0.0041068374320247,-0.00246540573123744,-4.07395625208449,2.47654001374275,-0.691362140594784,0.0229292820442823,0.00123781859430994,0.0045493249513387,-8.0064555122118,-4.55701650072358,4.82264786196578,0.0123025658052046,0.0177640542448543,-0.0119043401290419
0.93,1.88552717966525,6.21684202813358,8.36489587279561,0.0155454174409668,0.0108829497605827,0.0132348963273073,-0.548717466656512,0.782640376991459,-8.98115315949633,0.0216853025115511,-0.00406451695652566,-0.00239734615795806,-4.07045167002411,2.47342834337337,-0.690597051470235,0.0231100972058323,0.00133323979730643,0.00466250403739928,-7.99856877111313,-4.55198226597799,4.81758745536689,0.012842010113355,0.0177108388907116,-0.0114372939538602
0.935,1.88281905484916,6.21005072330581,8.35645047980177,0.0159821682296698,0.0109903201193358,0.0141742742737103,-0.549204099565145,0.781724975400202,-8.97117250570672,0.0218972349104405,-0.00389339046903101,-0.00231046051045351,-4.06694708796351,2.47031667300405,-0.689831962345687,0.0233255568622037,0.001448502742305,0.00491876836792188,-7.99068203001445,-4.54694803123239,4.812527048768,0.0133976018109319,0.0176317744825404,-0.0108713666722174
0.94,1.8801109300332,6.20325941847798,8.34800508680803,0.0164298024233303,0.0112566445232606,0.0150202718769742,-0.549690732473891,0.780809573808945,-8.96119185191711,0.0221501124697511,-0.00360068223133541,-0.00219543982769909,-4.06344250590303,2.46720500263473,-0.689066873221138,0.023581440231184,0.00159628680724017,0.00529058391693912,-7.98279528891578,-4.5419137964868,4.80746664216912,0.0139425799985947,0.0175043191539093,-0.0102235053303687
0.945,1.87740280521712,6.19646811365021,8.33955969381418,0.0168660912278001,0.0115950341828179,0.0156758154765162,-0.550177365382524,0.779894172217695,-8.95121119812748,0.0224248887972641,-0.00321081977968415,-0.00204557827919838,-4.05993792384243,2.46409333226535,-0.688301784096589,0.0238513569829459,0.00178198907717713,0.0057232366299012,-7.97490854781699,-4.53687956174119,4.80240623557017,0.0144367227211204,0.0173014982307301,-0.0095116916017802
0.95,1.87469468040126,6.18967680882241,8.33111430082033,0.0172443787532604,0.0118908565587311,0.0160259602377826,-0.550663998291157,0.778978770626438,-8.94123054433788,0.0226730937782178,-0.00276287273368683,-0.00185687383723458,-4.05643334178183,2.46098166189603,-0.687536694972041,0.0240787731535771,0.00200348032631478,0.00614233766432468,-7.96702180671832,-4.53184532699559,4.79734582897129,0.0148305905206316,0.016996008445117,-0.00875550049584532
0.955,1.87198655558518,6.18288550399464,8.32266890782648,0.0175027857112608,0.0120424002183596,0.0159761795657838,-0.551150631199789,0.778063369035181,-8.93124989054827,0.0228254515973097,-0.00229285927818178,-0.00163038903463188,-4.05292875972134,2.45786999152665,-0.686771605847492,0.0241885734245188,0.00224936718877736,0.00648155771208964,-7.95913506561965,-4.52681109225,4.7922854223724,0.0150804171428409,0.016563774043263,-0.00797066284568647
0.96,1.8692784307691,6.17609419916684,8.31422351483275,0.0175868388366074,0.0120075637501603,0.0155034385534867,-0.551637264108422,0.777147967443923,-8.92126923675866,0.022814591034413,-0.0018191475236256,-0.0013732837217595,-4.04942417766074,2.45475832115733,-0.686006516722943,0.0241130565498504,0.00250095653700485,0.00671296747148214,-7.95124832452098,-4.52177685750441,4.78722501577352,0.0151745749048272,0.0160019303182519,-0.00716773742081453
0.965,1.86657030595313,6.16930289433904,8.3057781218389,0.0174645275312116,0.0117978672854064,0.0146545635591764,-0.552123897017054,0.776232565852666,-8.91128858296905,0.0225929404701457,-0.0013469654237587,-0.00109612908608744,-4.04591959560025,2.45164665078795,-0.685241427598393,0.0238093188194042,0.00273821668938023,0.00684539746580616,-7.94336158342219,-4.5167426227588,4.78216460917457,0.0151385773619246,0.0153381512510898,-0.00635509824356863
0.97,1.86386218113705,6.16251158951127,8.29733272884516,0.0171318643678474,0.0114398228612672,0.0135032594352886,-0.552610529925687,0.775317164261416,-8.90130792917942,0.0221443507211398,-0.000880053083027271,-0.00080846150727969,-4.04241501353965,2.44853498041863,-0.684476338473844,0.0232676105805706,0.0029472297328027,0.00690280238124143,-7.9354748423234,-4.5117083880132,4.77710420257563,0.015018761399895,0.0146227947613206,-0.00554161481372814
0.975,1.8611540563212,6.15572028468347,8.2888873358512,0.0166156588264839,0.010967238917788,0.0121328963663825,-0.55309716283432,0.774401762670159,-8.89132727538983,0.0214906643854263,-0.000420385144256973,-0.000516989137325237,-4.03891043147928,2.44542331004931,-0.683711249349295,0.0225163806824887,0.00312357924407837,0.00691775483913681,-7.92758810122473,-4.50667415326761,4.77204379597674,0.0148718157942937,0.0139188460209695,-0.00473717932363411
0.98,1.85844593150512,6.1489289798557,8.28044194285735,0.0159540139368977,0.0104258795027359,0.0106338714865395,-0.553583795742952,0.773486361078902,-8.88134662160022,0.02066859075458,3.81511719656516e-05,-0.000228133050083321,-4.03540584941868,2.44231163967999,-0.682946160224747,0.0215989976813192,0.00326576806384483,0.00693004323678479,-7.91970136012606,-4.501639918522,4.76698338937791,0.014751458830753,0.013285858389557,-0.00394973961860645
0.985,1.85573780668904,6.1421376750279,8.27199654986362,0.015162847868366,0.00985336570091856,0.00908149510416152,-0.554070428651585,0.772570959487645,-8.8713659678106,0.0196900363072203,0.000507633763050695,4.91872395650377e-05,-4.03190126735808,2.43919996931066,-0.682181071100198,0.0205330306040278,0.00336575402606914,0.00697262093425065,-7.91181461902727,-4.49660568377641,4.76192298277897,0.0146877897774068,0.0127599924381939,-0.00318264829837439
0.99,1.85302968187307,6.1353463702001,8.26355115686977,0.014225981714322,0.00925475776854338,0.00751151980386463,-0.554557061560104,0.771655557896388,-8.86138531402098,0.0185316356180472,0.000997317474907363,0.000304630169926408,-4.02839668529759,2.43608829894129,-0.681415981975649,0.0192985607710969,0.00340851278712638,0.00705877217125005,-7.9039278779286,-4.49157144903081,4.75686257618003,0.0146829363206881,0.0123474708723203,-0.00243822967227936
0.995,1.85032155705699,6.12855506537232,8.25510576387603,0.0131069306712308,0.00859430141967555,0.00591194049737506,-0.555043694468736,0.770740156305138,-8.85140466023138,0.0171495602008631,0.00150680306212761,0.000529591745329721,-4.02489210323699,2.43297662857196,-0.680650892851101,0.0178525205954975,0.00337787850485022,0.00717949270377296,-7.89604113683004,-4.48653721428523,4.7518021695812,0.0147212511613388,0.012029660416722,-0.00172439090459163
1,1.84761343224113,6.12176376054452,8.24666037088218,0.011754306414424,0.00780430809438057,0.00423212384694229,-0.555530327377369,0.769824754713881,-8.84142400644176,0.0154843422056474,0.00202677616364977,0.000718243815984272,-4.02138752117651,2.42986495820264,-0.679885803726552,0.0161339091288172,0.00325824168870139,0.00730797690129076,-7.88815439573125,-4.48150297953962,4.74674176298225,0.0147734006269135,0.0117690872608212,-0.0010571877469797
1.005,1.84490530742505,6.11497245571672,8.23821497788833,0.0101016774090353,0.00681300008342797,0.00240401422247663,-0.556016960286001,0.768909353122631,-8.83144335265216,0.013458956751669,0.0025476328998164,0.000866454256458197,-4.01788293911591,2.42675328783326,-0.679120714602003,0.0140636324772444,0.0030325218545158,0.00741474457174224,-7.88026765463246,-4.47646874479402,4.74168135638337,0.0148023831875358,0.0115235344591104,-0.000462506622963739
1.01,1.84219718260897,6.10818115088895,8.2297695848946,0.0080753784423938,0.00557431570415308,0.000359673672891758,-0.556503593194634,0.767993951531373,-8.82146269886255,0.0109891597906842,0.00306750067043979,0.000971122195871191,-4.01437835705542,2.42364161746394,-0.678355625477455,0.0115569444734001,0.00268265062878864,0.00748583826293324,-7.87238091353379,-4.47143451004843,4.73662094978448,0.014780720095261,0.0112670775212618,1.89425233579101e-05
1.015,1.839489057793,6.10138984606115,8.22132419190075,0.00560351546161818,0.0040683938121307,-0.00196791207334963,-0.556990226103267,0.767078549940116,-8.81148204507294,0.00799549487186256,0.00358974291843806,0.00103060896692888,-4.01087377499482,2.42052994709456,-0.677590536352906,0.00853532139392591,0.0021922355115817,0.00752170490147715,-7.86449417243512,-4.46640027530282,4.73156054318559,0.0146969773630735,0.0109926335098372,0.000330893296822497
1.02,1.83678093297692,6.09459854123338,8.2128787989069,0.00261663931475245,0.00227818851174284,-0.00465237077665745,-0.557476859011899,0.766163148348859,-8.80150139128332,0.00440281096547646,0.0041137356861274,0.00104510961073204,-4.00736919293433,2.41741827672524,-0.676825447228357,0.00492422784700646,0.00154750008000711,0.00752067473629052,-7.85660743133644,-4.46136604055723,4.72650013658671,0.0145449205697547,0.0106961077759604,0.000411034541536288
1.025,1.83407280816095,6.08780723640558,8.20443340591316,-0.000959067167781485,0.000178655155338099,-0.00777173797915537,-0.557963491920532,0.765247746757609,-8.79152073749371,0.000130786210434049,0.00463258544664005,0.00101425722174145,-4.00386461087385,2.41430660635586,-0.676060358103808,0.000643999648669178,0.00073323355069352,0.00747606022163412,-7.84872069023766,-4.45633180581163,4.72143972998776,0.014318713774723,0.0103749965680961,0.00020756726307021
1.03,1.83136468334499,6.08101593157778,8.1959880129192,-0.00520723609635548,-0.00225495671165282,-0.0113968391122613,-0.558450124829164,0.764332345166352,-8.7815400837041,-0.00491218671018125,0.00513819321547868,0.000933104319711266,-4.00036002881336,2.41119493598654,-0.67529526897926,-0.00439410086574882,-0.000272828550304437,0.00738757607434683,-7.84083394913898,-4.45129757106604,4.71637932338888,0.014019213153211,0.010043411341652,-0.000306592774495951
1.035,1.82865655852902,6.07422462675001,8.18754261992547,-0.0102108477759145,-0.00504120040507041,-0.0155837205053636,-0.558936757737797,0.763416943575095,-8.77155942991449,-0.0108171391714138,0.00562110932065578,0.000793277295323463,-3.99685544675276,2.40808326561722,-0.674530179854711,-0.0102763923269041,-0.00149664698753718,0.00726120842244218,-7.83294720804031,-4.44626333632043,4.71131891678993,0.0136539577525346,0.009732515230252,-0.00113437120466078
1.04,1.82594843371294,6.06743332192221,8.17909722693162,-0.016027414610808,-0.00819269563159795,-0.0203692255703847,-0.55942339064643,0.762501541983838,-8.76157877612488,-0.0176480750986015,0.00606348737915412,0.000589604065252768,-3.99335086469216,2.40497159524784,-0.673765090730162,-0.0170636113326714,-0.00295574861124753,0.00709416082283914,-7.82506046694164,-4.44122910157483,4.70625851019111,0.0132259218030417,0.00947180536398262,-0.00226681396651422
1.045,1.82324030889686,6.06064201709444,8.17065183393777,-0.0226732828621762,-0.0117118964371866,-0.0257623878089232,-0.559910023555062,0.761586140392581,-8.75159812233527,-0.0254260790986541,0.00643815184121199,0.000323830144794834,-3.98984628263167,2.40185992487852,-0.673000001605613,-0.0247768982691661,-0.00465225508211642,0.00686828541173206,-7.81717372584296,-4.43619486682924,4.70119810359216,0.012725316418745,0.00927586498988748,-0.0036903693026794
1.05,1.82053218408089,6.05385071226664,8.16220644094392,-0.0301331342961283,-0.0155851870864822,-0.0317415702023984,-0.560396656463809,0.760670738801331,-8.74161746854566,-0.0341393239645511,0.00672351099260603,1.10352204034554e-06,-3.98634170057107,2.39874825450914,-0.672234912481064,-0.0334055529482741,-0.0065788737390097,0.00656893394276913,-7.80928698474418,-4.43116063208363,4.69613769699328,0.0121415782160089,0.00914918688928374,-0.00538510697117854
1.055,1.81782405926492,6.04705940743887,8.15376104795018,-0.0383735562809664,-0.0197792155817533,-0.0382573467479577,-0.560883289372441,0.759755337210073,-8.73163681475604,-0.0437553085427332,0.00692260953208768,-0.000375443025734472,-3.98283711851059,2.39563658413982,-0.671469823356517,-0.0429157297710648,-0.00872751887095546,0.00621207614641095,-7.8014002436455,-4.42612639733804,4.69107729039439,0.0114866264800839,0.00909779616990975,-0.00732035333731246
1.06,1.81511593444895,6.04026810261107,8.14531565495633,-0.0473197088387993,-0.0242305195724209,-0.0452159789849102,-0.561369922281074,0.758839935618816,-8.72165616096643,-0.0541930603509812,0.00706189769375448,-0.000803741662362691,-3.97933253644999,2.39252491377044,-0.670704734231967,-0.053223267390573,-0.0110831027953668,0.00584276584570447,-7.79351350254683,-4.42109216259244,4.6860168837955,0.0107971089114558,0.00913006381202972,-0.00945006709922714
1.065,1.81240780963287,6.03347679778327,8.1368702619626,-0.0567953444098978,-0.0288299646972662,-0.0524446098339883,-0.561856555189706,0.757924534027559,-8.71167550717682,-0.0652559536246735,0.0071691588588021,-0.00127508923317743,-3.9758279543895,2.38941324340118,-0.669939645107419,-0.0641312998985526,-0.0136022663227416,0.0055050042834548,-7.78562676144816,-4.41605792784684,4.68095647719662,0.0101162830349072,0.00924617551940793,-0.011708961267665
1.07,1.80969968481679,6.02668549295547,8.12842486896875,-0.0664667217277217,-0.0334093848377653,-0.0596618830549968,-0.562343188098339,0.757009132436302,-8.70169485338721,-0.0765680265116172,0.00725543272030424,-0.00176708498403151,-3.9723233723289,2.3863015730318,-0.669174555982869,-0.0752706374539844,-0.0161936008537843,0.00521778820582115,-7.77774002034937,-4.41102369310124,4.67589607059767,0.00948303826564962,0.00942966244784105,-0.0140092002088123
1.075,1.80699156000082,6.01989418812769,8.1199794759749,-0.0758091277593037,-0.0377221604485004,-0.0664507691046264,-0.562829821006972,0.756093730845045,-8.6917141995976,-0.0875355567648968,0.00731354006856179,-0.00224150455881014,-3.96881879026841,2.38318990266248,-0.66840946685832,-0.0860629492942191,-0.0187079748553939,0.00496974543909673,-7.7698532792507,-4.40598945835565,4.67083566399879,0.0089275236553462,0.00964495978671875,-0.0162341003939326
1.08,1.80428343518474,6.01310288329989,8.11153408298105,-0.0840876882117922,-0.041420404856945,-0.0722277141910226,-0.563316453915604,0.755178329253788,-8.68173354580799,-0.0973276884330994,0.00732559544176565,-0.00264403868408238,-3.96531420820793,2.3800782322931,-0.667644377733771,-0.0957019877921417,-0.020934435942805,0.0047225098279085,-7.76196653815202,-4.40095522361005,4.6657752573999,0.00846469639060939,0.00983514970233533,-0.0182372261775378
1.085,1.80157531036889,6.00631157847212,8.1030886899872,-0.0903497434121859,-0.0440503554710257,-0.0762222764770296,-0.563803086824237,0.754262927662538,-8.67175289201838,-0.104876013171264,0.00727233982289141,-0.00290101647049296,-3.96180962614733,2.37696656192378,-0.666879288609223,-0.103153560763009,-0.0225968833376145,0.00441889489074145,-7.75407979705335,-4.39592098886445,4.66071485080101,0.00809440685283904,0.00991636944288674,-0.0198670319320814
1.09,1.79886718555281,5.99952027364432,8.09464329699347,-0.0935299334237284,-0.0451131822122707,-0.0775625228965941,-0.564289719732869,0.753347526071281,-8.66177223822876,-0.1089984865175,0.00714247703568726,-0.00292391371842729,-3.95830504408684,2.37385489155446,-0.666114199484674,-0.107275592590023,-0.0233822258360973,0.00399878262737038,-7.74619305595445,-4.39088675411885,4.65565444420207,0.00780942240753268,0.00978488341135529,-0.0210090307056581
1.095,1.79615906073673,5.99272896881655,8.08619790399962,-0.0928647959734984,-0.0442668141060992,-0.0756394815783159,-0.564776352641502,0.752432124480023,-8.65179158443915,-0.108849857573616,0.00693926080270644,-0.00264648233482335,-3.95480046202624,2.37074322118508,-0.665349110360125,-0.107251959199444,-0.0230630681216018,0.00342827084418818,-7.73830631485578,-4.38585251937326,4.65059403760318,0.00760251455839467,0.00936880120013048,-0.0216119548336117
1.1,1.79345093592076,5.98593766398875,8.07775251100577,-0.088404191814378,-0.0415650900131245,-0.0705569411023597,-0.565262985550135,0.751516722888766,-8.64181093064956,-0.104470099521564,0.00668168716220114,-0.00207489706542843,-3.95129587996576,2.36763155081576,-0.664584021235577,-0.10312005279403,-0.0216521613841182,0.0027279999803769,-7.7304195737571,-4.38081828462766,4.64553363100424,0.00746859545928234,0.00869363811798578,-0.0216875361820639
1.105,1.79074281110468,5.97914635916095,8.06930711801192,-0.0809981844764255,-0.0374444852345122,-0.0631066245744309,-0.565749618458767,0.750601321297516,-8.63183027685993,-0.0967707395840485,0.00639950326976867,-0.00128818663589229,-3.94779129790516,2.36451988044638,-0.663818932111028,-0.0957578673516443,-0.0194004953781497,0.00196467170258417,-7.72253283265843,-4.37578404988206,4.64047322440541,0.00740195731137217,0.00786987013853427,-0.0212934460573346
1.11,1.78803468628871,5.97235505433318,8.06086172501819,-0.0717667228892424,-0.0324642870057356,-0.0542848915659222,-0.5662362513674,0.749685919706259,-8.62184962307032,-0.0869651947347063,0.00612485955798598,-0.000389393083881268,-3.94428671584467,2.36140821007712,-0.663053842986479,-0.0863363042936436,-0.0166402731351458,0.00121005174898617,-7.71464609155964,-4.37074981513646,4.63541281780647,0.00739080772838292,0.00701012346085538,-0.0205056784518292
1.115,1.78532656147274,5.96556374950538,8.05241633202434,-0.0616863491676895,-0.0271078532602752,-0.0449356903469418,-0.566722884276032,0.748770518115002,-8.61186896928071,-0.076118286999371,0.0058860063695808,0.000531554700745645,-3.94078213378407,2.35829653970774,-0.66228875386193,-0.0758850606079398,-0.0136621925588209,0.000513600332740464,-7.70675935046097,-4.36571558039086,4.63035241120758,0.00741478869642309,0.00618013314470841,-0.0193912686842625
1.12,1.78261843665678,5.95877244467761,8.0439709390306,-0.0515024806015394,-0.0217465909231879,-0.0356951530714066,-0.567209517184665,0.747855116523745,-8.60188831549111,-0.0650451457060637,0.00570384893210824,0.00140583963185887,-3.93727755172347,2.35518486933842,-0.661523664737382,-0.065194134726677,-0.010688434972959,-9.86131247335061e-05,-7.6988726093623,-4.36068134564527,4.6252920046087,0.0074507996446574,0.00540691977383595,-0.0180015973825112
1.125,1.77991031184069,5.95198113984981,8.03552554603675,-0.04175385943881,-0.0166578072252283,-0.0270235749464121,-0.567696150093298,0.746939714932488,-8.59190766170148,-0.0543374838001165,0.0055898578527234,0.00218544053079431,-3.93377296966298,2.35207319896909,-0.660758575612833,-0.0548387089371587,-0.00787812420410012,-0.000618783964184696,-7.69098586826362,-4.35564711089967,4.62023159800975,0.00748228347815862,0.00469379294734876,-0.0163856257826151
1.13,1.77720218702461,5.94518983502201,8.0270801530429,-0.0328026382877094,-0.0120394958511064,-0.0192375559572592,-0.56818278300193,0.746024313341238,-8.58192700791187,-0.0443944637991709,0.00554684893323259,0.00284028405628302,-3.9302683876025,2.34896152859972,-0.659993486488284,-0.0452086349190885,-0.00533598221575015,-0.00105379598019692,-7.68309912716484,-4.35061287615407,4.61517119141087,0.00749890428839966,0.00402715585735215,-0.0145886136283601
1.135,1.77449406220865,5.93839853019423,8.01863476004905,-0.024867129061729,-0.00802145103869933,-0.0125444210935777,-0.568669415910563,0.745108911749981,-8.57194635412226,-0.0354530461529774,0.00557280763492225,0.00335275950434802,-3.92676380554201,2.34584985823039,-0.659228397363736,-0.0365368985453035,-0.00312353359092072,-0.00141970590582311,-7.67521238606616,-4.34557864140847,4.61011078481198,0.00748946684958185,0.00338382982974387,-0.0126349266707937
1.14,1.77178593739268,5.93160722536643,8.01018936705532,-0.0180542996703633,-0.00467376946902682,-0.0070522638858881,-0.569156048819195,0.744193510158723,-8.56196570033265,-0.0276292565013317,0.00566572119546933,0.00371547451145801,-3.92325922348141,2.34273818786102,-0.658463308239187,-0.0289388853044011,-0.00126945221565152,-0.00173182967577312,-7.66732564496749,-4.34054440666288,4.60505037821304,0.0074467399670508,0.00273654699347402,-0.010540067159256
1.145,1.76907781257671,5.92481592053866,8.00174397406136,-0.012388894717565,-0.00201430334539181,-0.00276208474633444,-0.569642681727828,0.743278108567473,-8.55198504654304,-0.020964333457494,0.0058275455197518,0.00393252488531119,-3.91975464142092,2.33962651749164,-0.657698219114639,-0.0224570602898971,0.000222564015411313,-0.00199489536835483,-7.65943890386882,-4.33551017191728,4.59998997161415,0.00738154444494701,0.00205635282937656,-0.00834726292221459
1.15,1.76636968776063,5.91802461571086,7.99329858106762,-0.00783454725937669,-1.8704060886522e-05,0.000414331738474263,-0.570129314636461,0.742362706976216,-8.54200439275344,-0.0154486414606701,0.00606449675782625,0.00401837596814683,-3.91625005936032,2.33651484712232,-0.65693312999009,-0.0170843830384618,0.00136819101304595,-0.00220287410093414,-7.65155216277003,-4.33047593717168,4.59492956501526,0.00732266194459515,0.00131551211197003,-0.00613225726793477
1.155,1.76366156294455,5.91123331088306,7.98485318807377,-0.00430723493157626,0.00136679881600066,0.00260881572702344,-0.570615947545093,0.741447305384959,-8.53202373896382,-0.0110222406505931,0.00638343035590832,0.00399345389714308,-3.91274547729984,2.333403176753,-0.65616804086554,-0.012764955952453,0.00219840069599045,-0.0023472276539415,-7.64366542167136,-4.32544170242608,4.58986915841638,0.00730080977899993,0.000491433124584431,-0.00397195374009007
1.16,1.76095343812858,5.90444200605529,7.97640779507992,-0.00168636330079019,0.00221507324616899,0.00396187619675787,-0.571102580453726,0.740531903793702,-8.5220430851742,-0.00757648023316907,0.00678830754210482,0.00388078633686065,-3.90924089523924,2.33029150638367,-0.655402951740991,-0.00939555247732493,0.00275609270434065,-0.0024230534574089,-7.63577868057268,-4.32040746768048,4.58480875181743,0.00733601508960401,-0.000429950708171004,-0.00192167836618224
1.165,1.7582453133125,5.89765070122749,7.96796240208619,0.000174435194231493,0.00261251039016232,0.00461021584873368,-0.571589213362472,0.739616502202452,-8.51206243138459,-0.00496462715223663,0.00727875327993884,0.00370500114744139,-3.90573631317864,2.32717983601435,-0.654637862616443,-0.00683595926894679,0.00309311407731039,-0.00243031127434261,-7.62789193947401,-4.31537323293488,4.57974834521855,0.00743456965735096,-0.00145154120359666,-1.4909924073203e-05
1.17,1.75553718849665,5.89085939639972,7.95951700909234,0.00143799625566187,0.00265619065351845,0.00468309356263375,-0.572075846271105,0.738701100611195,-8.502081777595,-0.00301366604879467,0.00784928090280279,0.00349196104810735,-3.90223173111815,2.32406816564497,-0.653872773491894,-0.00492044381732025,0.00326762161864438,-0.00237364425650955,-7.62000519837522,-4.31033899818929,4.57468793861966,0.00758880956012335,-0.00256268719365869,0.00172993074390855
1.175,1.75282906368057,5.88406809157192,7.95107161609849,0.00227648973122102,0.00245243216649308,0.00430083822099018,-0.572562479179737,0.737785699019938,-8.49210112380538,-0.00153367130235633,0.00848819107237428,0.00326850284245962,-3.89872714905755,2.32095649527565,-0.653107684367345,-0.00346681947764849,0.00334199948789679,-0.00226227039888519,-7.61211845727655,-4.30530476344369,4.56962753202077,0.00777640568877503,-0.00373678520847551,0.0033033408689563
1.18,1.75012093886448,5.87727678674412,7.94262622310475,0.00286638989555611,0.00211658222961498,0.00357525673474027,-0.57304911208837,0.73687029742868,-8.48212047001576,-0.000325194588050448,0.00917625274049032,0.00306267550779983,-3.89522256699718,2.31784482490633,-0.652342595242797,-0.00228363758552765,0.00338164074489602,-0.0021099597180145,-7.60423171617788,-4.30027052869809,4.56456712542183,0.00795935756995199,-0.0049287030967039,0.00469951245809537
1.185,1.74741281404852,5.87048548191635,7.9341808301109,0.0033833392813377,0.00176934049120155,0.0026155571949258,-0.573535744997002,0.735954895837423,-8.47213981622615,0.000811097740127663,0.00988708895770985,0.00290351504066049,-3.89171798493658,2.31473315453695,-0.651577506118248,-0.00117946048108516,0.00345281988092677,-0.00193354468943197,-7.59634497507921,-4.29523629395249,4.55950671882295,0.00808893096832083,-0.00607698221898249,0.00591292690059459
1.19,1.74470468923244,5.86369417708852,7.92573543711717,0.00399273485831235,0.00152048577233294,0.00154718864497477,-0.574022377905635,0.735039494246173,-8.46215916243654,0.00205464128348323,0.0105929059463272,0.0028182195931957,-3.88821340287609,2.31162148416763,-0.650812416993699,1.84998804836237e-05,0.00361600675179477,-0.0017468982507398,-7.58845823398042,-4.29020205920689,4.55444631222406,0.00812857145548643,-0.00712065140804454,0.00693844773360199
1.195,1.74199656441658,5.85690287226075,7.91729004412332,0.00483886435365576,0.00144874003795183,0.000534528068495816,-0.574509010814268,0.734124092654916,-8.45217850864694,0.00354226663063356,0.0112720487109928,0.0028281919482348,-3.88470882081549,2.30850981379825,-0.650047327869151,0.00144305250338053,0.00391751646742635,-0.00155381300044476,-7.58057149288175,-4.2851678244613,4.54938590562517,0.00808247880779128,-0.00802050541288725,0.00777278902094038
1.2,1.7392884396005,5.85011156743298,7.90884465112936,0.00604245336619387,0.00160376976282664,-0.000217459357240248,-0.5749956437229,0.733208691063659,-8.44219785485731,0.00536455241585222,0.0119075815695578,0.00294909088362157,-3.881204238755,2.30539814342893,-0.649282238744602,0.00318338193064696,0.00438889359533686,-0.00134915726931072,-7.57268475178307,-4.2801335897157,4.54432549902629,0.00799375152801913,-0.00875547538350676,0.00841147040301839
1.205,1.73658031478442,5.84332026260518,7.90039925813562,0.007706299759453,0.00202949507285851,-0.000482395316287991,-0.575482276631533,0.732293289472402,-8.4322172010677,0.00758049415152569,0.0124769263026899,0.00319496775885128,-3.8776996566944,2.30228647305955,-0.648517149620053,0.00529843538444966,0.00505392534850272,-0.00112769184435014,-7.5647980106844,-4.2750993549701,4.53926509242734,0.00791281048228552,-0.00929505932130362,0.0088413704376528
1.21,1.73387218996845,5.8365289577774,7.89195386514177,0.00992057468845997,0.00278021770138245,-3.5356259438876e-05,-0.575968909540165,0.731377887881145,-8.42223654727809,0.0102325396920533,0.01294746579134,0.00358142811681621,-3.8741950746338,2.29917480269023,-0.647752060495505,0.00783088577657195,0.00593471602193989,-0.000888719345658956,-7.5569112695855,-4.2700651202245,4.53420468582846,0.00787464024522475,-0.00958450184056978,0.00903712653744275
1.215,1.73116406515237,5.8297376529496,7.88350847214804,0.0127683102308411,0.00391752291964948,0.00131394280017199,-0.576455542448798,0.730462486289888,-8.41225589348848,0.0133641884504094,0.0132894847370808,0.00412621460443664,-3.87069049257332,2.29606313232091,-0.646986971370956,0.01082400439932,0.00705563693088195,-0.000629806156102985,-7.54902452848683,-4.26503088547891,4.52914427922957,0.00790033109776375,-0.00956509563616662,0.00896785444024536
1.22,1.7284559403364,5.8229463481218,7.87506307915419,0.0163292755274009,0.00549991697178051,0.00368385740293707,-0.576942175357431,0.72954708469863,-8.40227523969887,0.0170368314137408,0.0134946321790509,0.00484832753063416,-3.86718591051272,2.29295146195153,-0.646221882246407,0.014337921745082,0.00844570635711691,-0.000337690240730116,-7.54113778738815,-4.25999665073331,4.52408387263068,0.00800636064939446,-0.00920584120843893,0.00860771437738773
1.225,1.72574781552044,5.816155043294,7.86661768616034,0.0206698741678127,0.0075790373571745,0.00711775394960917,-0.577428808266063,0.72863168310738,-8.39229458590927,0.0213190354590306,0.0135745988873834,0.00576520229160495,-3.86368132845223,2.28983979158221,-0.645456793121859,0.0184393968817519,0.0101338661953738,9.61212948738294e-06,-7.53325104628948,-4.25496241598771,4.51902346603174,0.00820383701154981,-0.00850259549632282,0.00793588885981093
1.23,1.72303969070447,5.80936373846623,7.85817229316649,0.0258245182195746,0.0101982220009063,0.0116113945581323,-0.577915441174696,0.727716281516123,-8.38231393211964,0.0262564705483352,0.0135437614512289,0.00688778812065612,-3.86017674639174,2.28672812121283,-0.64469170399731,0.0231730550069379,0.0121385938784197,0.000431022665094071,-7.52536430519069,-4.24992818124211,4.51396305943285,0.0084910382836496,-0.00745398792951235,0.0069320106734553
1.235,1.72033156588839,5.80257243363843,7.84972690017275,0.0317931783737409,0.0133758955412852,0.0171230597800002,-0.578402074083328,0.726800879924866,-8.37233327833003,0.0318679968356854,0.0134159946559433,0.00821488736514217,-3.85667216433126,2.28361645084351,-0.643926614872761,0.0285577536567595,0.0144619370131576,0.000934946158054924,-7.51747756409202,-4.24489394649652,4.50890265283397,0.00885724283910224,-0.00606973022441698,0.00559249399013983
1.24,1.71762344107231,5.79578112881066,7.84128150717891,0.0385497137548327,0.0170790507380768,0.0235572126315353,-0.578888706991961,0.725885478333613,-8.36235262454042,0.0381626725405265,0.0132166792504324,0.00972852129905623,-3.85316758227066,2.28050478047419,-0.643161525748214,0.0346028429994441,0.0170885987653041,0.00151856561990028,-7.50959082299335,-4.23985971175092,4.50384224623508,0.00929574837893438,-0.00440721922722487,0.00396061988872507
1.245,1.71491531625634,5.78898982398286,7.83283611418517,0.046025599149024,0.0212142425931788,0.0307487567329222,-0.579375339900594,0.724970076742355,-8.35237197075082,0.0451230516498466,0.0129824378321184,0.011391876122877,-3.84966300021017,2.27739311010481,-0.642396436623665,0.0412918012707356,0.019980870257338,0.00216612504998955,-7.50170408189467,-4.23482547700532,4.49878183963614,0.00980403490947421,-0.00257451582844243,0.00213086580312477
1.25,1.71220719144037,5.78219851915509,7.82439072119121,0.0540670816068957,0.0256372633818358,0.0384547467271519,-0.579861972809226,0.724054675151102,-8.34239131696121,0.05265010898368,0.0127448340073682,0.0131496331757986,-3.84615841814957,2.27428143973549,-0.641631347499116,0.048528831928925,0.0230683393900315,0.00284466383372523,-7.49381734079589,-4.22979124225972,4.49372143303725,0.0103692417814379,-0.000693864549816755,0.000225588038634733
1.255,1.7094990666244,5.77540721432726,7.81594532819747,0.0624010847412817,0.030160034053468,0.0463488123173939,-0.580348605717745,0.723139273559845,-8.3324106631716,0.0605169266944831,0.0125195938711945,0.0149299845682748,-3.84265383608897,2.27116976936617,-0.640866258374568,0.0560937219560654,0.0262409419084958,0.00350317703159651,-7.48593059969721,-4.22475700751412,4.48866102643831,0.0109594393895572,0.00112352554594474,-0.00162614479520289
1.26,1.70679094180821,5.76861590949949,7.80749993520362,0.070628280306169,0.0345527520662081,0.0540293837026016,-0.580835238626378,0.722223871968588,-8.32243000938197,0.0683512869222985,0.0123117781136499,0.0166493834023366,-3.83914925402848,2.26805809899679,-0.640101169250017,0.0636244011576282,0.0293501958372665,0.0040806169201324,-7.47804385859854,-4.21972277276853,4.48360061983942,0.0115309803164743,0.00277198338714219,-0.00330707704646043
1.265,1.70408281699224,5.76182460467169,7.79905454220989,0.0782354048028849,0.0385493521665528,0.0610448594278527,-0.58132187153501,0.721308470377334,-8.31244935559236,0.0756371169803453,0.0121280419072192,0.0182196983256714,-3.83564467196788,2.26494642862747,-0.639336080125468,0.0706179537794038,0.0322162229910016,0.0045204777061545,-7.47015711749987,-4.21468853802293,4.47854021324059,0.0120446128716146,0.00413844034102087,-0.00473595115969546
1.27,1.70137469217627,5.75503329984392,7.79060914921604,0.0846188279987274,0.0418540184665688,0.066921047532562,-0.581808504443643,0.72039306878608,-8.30246870180275,0.0817314888963925,0.0119841484860303,0.0195550940127498,-3.8321400899074,2.26183475825815,-0.638570991000921,0.076447602841839,0.0346372623071919,0.00478546936280334,-7.46227037640108,-4.20965430327733,4.47347980664165,0.0124808775696553,0.00510695969863708,-0.00588525843556579
1.275,1.69866656736019,5.74824199501612,7.78216375622219,0.089098562101204,0.0441397264963614,0.0711673592682523,-0.582295137352276,0.719477667194823,-8.29248804801315,0.0858789934867329,0.0119037912371687,0.0205745979465984,-3.8286355078468,2.25872308788882,-0.637805901876372,0.0803777251561821,0.0363945679604304,0.00486493529356549,-7.45438363530241,-4.20462006853172,4.46841940004276,0.012847029779907,0.00557630298210499,-0.00678045315667989
1.28,1.69595844254422,5.74145069018834,7.77371836322834,0.0909667893591863,0.0450664903926165,0.073289690865627,-0.582781770261022,0.71856226560357,-8.28250739422354,0.0872759845179665,0.0119113611441955,0.0212044841238722,-3.82513092578642,2.2556114175195,-0.637040812751823,0.0816266419337738,0.0372670017460382,0.00476857984842481,-7.44649689420373,-4.19958583378613,4.46335899344382,0.0131664357187718,0.00547112657817976,-0.00747477333464928
1.285,1.69325031772826,5.73465938536054,7.76527297023449,0.0897467975473066,0.0444040095574231,0.0729435560424046,-0.583268403169654,0.717646864012316,-8.27252674043393,0.0853775123050309,0.012026862179294,0.0214013107552054,-3.82162634372582,2.25249974715013,-0.636275723627274,0.0796646232045712,0.0371113223235169,0.00451717581337085,-7.43861015310506,-4.19455159904053,4.45829858684499,0.0134549933967211,0.00475415213820416,-0.00801238229595527
1.29,1.69054219291218,5.72786808053274,7.75682757724076,0.0855550783480313,0.0422049250177977,0.0701823930976107,-0.583755036078287,0.716731462421059,-8.26254608664431,0.0803111750144426,0.0122683725602484,0.0211878568410803,-3.81812176166534,2.2493880767808,-0.635510634502726,0.0746161390099881,0.0359742882304278,0.00414396854637544,-7.43072341200627,-4.18951736429494,4.45323818024605,0.0137063449362092,0.00344263350167324,-0.0084109747887013
1.295,1.68783406809621,5.72107677570497,7.74838218424691,0.0790878424787347,0.0388032340117888,0.065485016711275,-0.58424166898692,0.715816060829802,-8.25256543285469,0.0728508534795925,0.0126549485873593,0.0206513525749781,-3.81461717960474,2.24627640641143,-0.634745545378177,0.0672343080613378,0.0340853379399077,0.00369559438861333,-7.4228366709076,-4.18448312954933,4.44817777364716,0.0138986663237617,0.00159734802252996,-0.00867436636243945
1.3,1.68512594328013,5.71428547087717,7.73993679125306,0.0712149751959104,0.034626882019625,0.0595148393161392,-0.584728301895552,0.714900659238548,-8.2425847790651,0.0639448329251666,0.0132030239298283,0.0199001532933797,-3.81111259754414,2.2431647360421,-0.633980456253628,0.0584418031176318,0.0317260546687211,0.00322271087428686,-7.41494992980893,-4.17944889480374,4.44311736704822,0.0140125563699767,-0.000714777298741228,-0.00881346559626848
