Header,foot_Accel_X,foot_Accel_Y,foot_Accel_Z,foot_Gyro_X,foot_Gyro_Y,foot_Gyro_Z,shank_Accel_X,shank_Accel_Y,shank_Accel_Z,shank_Gyro_X,shank_Gyro_Y,shank_Gyro_Z,thigh_Accel_X,thigh_Accel_Y,thigh_Accel_Z,thigh_Gyro_X,thigh_Gyro_Y,thigh_Gyro_Z,trunk_Accel_X,trunk_Accel_Y,trunk_Accel_Z,trunk_Gyro_X,trunk_Gyro_Y,trunk_Gyro_Z
25.3,0.504300426402347,0.852611334522123,0.985863839907148,0.753726428443947,-0.807953674368983,-0.45215624392353,-0.866517653619329,0.00106049099841441,0.389079920952796,0.573266732523299,-1.24182472857995,0.66842117589169,-0.926125243989769,-0.289755702306765,0.0417669403130228,-0.664683819478792,-0.111562899416191,1.32898820454301,-1.04573716623177,0.102943139222924,0.381399279900785,-0.049035940467178,-0.443328616353293,0.11747171857144
25.305,0.447871902704568,0.826773891546307,0.991907829862211,0.825274338539482,-0.816052657904666,-0.267865973207626,-0.854372317571792,0.00155237378638604,0.366604265361851,0.547577627976747,-1.4294656872697,0.69488626086711,-0.90314763712969,-0.279233663768015,0.0477180623170598,-0.542506471518426,-0.0659607515749034,1.19950337732211,-0.992891668100734,0.0641823640571096,0.388471758476046,-0.139820466156768,-0.311347747812576,0.172484398379168
25.31,0.37683435364025,0.779955791895931,1.03090197241911,0.895095720724231,-0.834676743653561,-0.0826032535717181,-0.852597459068053,0.00965204581600508,0.337510898672104,0.514234643585667,-1.60250217667852,0.721690541828602,-0.875268758928667,-0.266675884595104,0.057819395342976,-0.416982253047379,-0.0339495124263999,1.05995987976621,-0.937780659155853,0.0316894333405187,0.39962563883252,-0.219837104228065,-0.232529074915088,0.210989778903923
25.315,0.279897694508062,0.704437961851299,1.05735118919723,0.999274807026354,-0.8733421974593,0.102768658694132,-0.863320746035115,0.0221362889656553,0.29206810512975,0.464859085153995,-1.79584022824045,0.768045985698864,-0.842787939202673,-0.242968521779674,0.05278307556103,-0.466758392990342,0.00323954581281461,0.908288555741313,-0.880524035065805,-0.00767137357520723,0.420786986559418,-0.320369938798289,-0.177657740730151,0.249989711498207
25.32,0.179089472298468,0.644685157265147,1.0920295522388,1.12648466891349,-0.915302354006741,0.246076777592193,-0.877815906829182,0.0338871815658368,0.251652334309375,0.416433426008624,-1.95986477386262,0.816042656995271,-0.809228489466959,-0.219404446197277,0.0685496055405179,-0.189279533618975,0.0354409036280284,0.811926957967071,-0.834259145673755,-0.0349080710276496,0.432898300740266,-0.393580438370337,-0.162631727133394,0.273143622043785
25.325,0.0552054413404502,0.61961013099026,1.11910158839398,1.29042324210506,-0.985409826751673,0.427367905244645,-0.885865687057833,0.0141275479302169,0.188769042991976,0.376033844127199,-2.10430273720038,0.842773598330813,-0.763967779337849,-0.202751324153687,0.0855744406747337,0.0581502173170328,0.0886117450220483,0.743607503754948,-0.776283657575047,-0.0757247388108851,0.438620631596758,-0.44571215796164,-0.174646690582327,0.289479353195812
25.33,-0.0257477456170288,0.611499348067948,1.13120603805231,1.37006715273917,-1.05485535760133,0.549694531619213,-0.89431314633886,0.0150502174229485,0.139924899154975,0.338987566271131,-2.23374457116095,0.862059967633733,-0.740435782858655,-0.19076087615352,0.0940892988858909,0.184465474101436,0.135983098676994,0.700390038152383,-0.78624159545663,-0.101493711369311,0.446995932674909,-0.446928806653989,-0.203848259386456,0.297229260666427
25.335,-0.114501076132379,0.591135654605298,1.14668846356599,1.41057257853364,-1.1282028042821,0.674551624021528,-0.904794102938973,0.0198356896810049,0.0983956756037432,0.299969561731835,-2.33267277713152,0.876736628401273,-0.704336876032537,-0.16606954949836,0.109809721450861,0.352544054150218,0.201509392990108,0.627822944465999,-0.707878931616342,-0.130166973086765,0.443265550100132,-0.418866046615475,-0.25126767737719,0.289786671846181
25.34,-0.200612774524237,0.555325421570061,1.15322126185227,1.40771340389836,-1.20578077078064,0.771201884216856,-0.917125106844878,0.0244779509266866,0.0583216288382857,0.258438262275408,-2.42787840146381,0.895818517176332,-0.687341139837088,-0.140759914039636,0.125363171759759,0.500270418308597,0.25519707698662,0.546428652667019,-0.686789325865003,-0.149521559289872,0.435154567501095,-0.38749061600797,-0.28833733616042,0.278780444670778
25.345,-0.279972656051494,0.499781863867756,1.13442194314553,1.36598694625891,-1.30113229106805,0.858773943020852,-0.941318325749771,0.0224984158941228,0.01483229608299,0.21382467286686,-2.5251437887484,0.92113045718378,-0.672226225605631,-0.123583364176462,0.143529206559241,0.702797273148091,0.297913316107555,0.41505386197279,-0.661341301976583,-0.17889227667221,0.42520146777822,-0.336159678945795,-0.314716938986432,0.248595530085231
25.35,-0.322132077305198,0.452626437807796,1.11316520483061,1.32377789982486,-1.36681129987989,0.90428453678085,-0.953863272382749,0.0171782273586708,-0.00665375654730967,0.167754128950938,-2.59498614671482,0.93729595235309,-0.660662070392674,-0.117212216966348,0.13185084390255,0.851414112662053,0.322488287411837,0.314653189913963,-0.64594010094757,-0.183754739901167,0.412343957142018,-0.280258716097467,-0.303171205042814,0.216687695065854
25.355,-0.359241535088918,0.391261585886481,1.08138983365035,1.29426812845955,-1.42653528883898,0.93960459355779,-0.97097321989983,0.00713192370220041,-0.0333753423871439,0.119233338138154,-2.66528333558194,0.95065892879653,-0.648818400129759,-0.118064505968457,0.117076394474324,0.951489361523619,0.332399059390147,0.227388228712218,-0.634903580112503,-0.208052659046733,0.400491584531074,-0.212870514099148,-0.253098152090622,0.17961132693069
25.36,-0.387868281102936,0.333143446085848,1.03957557548796,1.27764928965217,-1.47006235002619,0.961920628451607,-0.986326302469282,-0.00109525679525842,-0.0513358846407818,0.0839563119434005,-2.71577199485025,0.958325291587902,-0.642053632153354,-0.121530664560423,0.109831051363875,0.985942429192211,0.31687121267432,0.168672748608551,-0.624199858831314,-0.22479747018117,0.389280450176344,-0.142151780718932,-0.195134677494619,0.133192314054347
25.365,-0.402509192308597,0.286641853759979,0.979089602520025,1.25860701417103,-1.48525270920843,0.967071354389191,-1.01450818978289,-0.0246078555277694,-0.0785145735782824,0.0384980857875132,-2.77988788138317,0.971223149888035,-0.660192762190375,-0.120866380509886,0.110575799718235,1.02150002613197,0.295289341387492,0.0741470042386171,-0.618185298454987,-0.236289931849725,0.375336227604808,-0.0656284037962572,-0.10792509174226,0.0784263800405602
25.37,-0.426796753756569,0.257040245802898,0.918446388058258,1.22899517232454,-1.47408281211293,0.968848314468292,-1.02664379065755,-0.0394514903199517,-0.107090049238753,0.01678904064259,-2.81653046263485,0.986079401132029,-0.67702062349936,-0.120488216204783,0.0971905489551452,1.02970664465666,0.263798625910968,-0.00750855327152644,-0.632253873233305,-0.239711281276797,0.359965159334796,0.0173084763081158,-0.0163112945255951,0.0282738748281147
25.375,-0.446769833665679,0.239284616788411,0.885987368248939,1.19041756467144,-1.43775409702639,0.964441378398321,-1.04082123611065,-0.0570259296120403,-0.12231074613695,0.00898284082013499,-2.85635844191665,0.992592949818515,-0.692569419107539,-0.1227535152253,0.0903092393096774,1.01922425792546,0.210313787592306,-0.0838264433487701,-0.645410309152612,-0.247049169495049,0.348972877352183,0.0832217031466289,0.0563372499719914,-0.0158861377369618
25.38,-0.467229209468987,0.208014070984283,0.855503079705683,1.10998272100154,-1.36775506088439,0.954897639354119,-1.0605355876592,-0.0802218159537009,-0.141371640126206,-0.00519581027768451,-2.88611147564891,0.993622481822968,-0.722267280458245,-0.120935330131898,0.0708655874022407,0.997727383399781,0.154867657672838,-0.149578623417831,-0.658786647776938,-0.250459381490901,0.348601038608942,0.126915508377111,0.12826163972231,-0.0619021803962638
25.385,-0.455313211013942,0.189673719398696,0.797679324612126,1.01563723486108,-1.29017186617559,0.916715786900897,-1.07648514472417,-0.0961526401739708,-0.15008345959586,-0.0222131041017252,-2.90810577831935,0.99268269729569,-0.73820674546861,-0.10959437903143,0.0607356921042609,0.973917850766971,0.118881192760862,-0.199788045355091,-0.685981156159354,-0.247629387151844,0.351572291048803,0.197224818277312,0.197838212530618,-0.113091270335471
25.39,-0.440988603725275,0.164302940779267,0.75347086359387,0.915002793596437,-1.1872691273823,0.899661367622232,-1.09541164374841,-0.115460156726896,-0.164645525521067,-0.0412737797946668,-2.9360997633273,0.990747921215683,-0.757184154331351,-0.105251652401561,0.0506077498238667,0.924873605193189,0.105415038764477,-0.247030165294199,-0.710507688782606,-0.241484799336376,0.355552955366161,0.226920335780607,0.257093432514738,-0.154044305957221
25.395,-0.436813375228503,0.138739959147321,0.711951101072902,0.778190782603002,-1.02097582147354,0.859340530804126,-1.10118249246819,-0.138870015914932,-0.179220906568838,-0.0546929195550827,-2.96334249642245,0.972398171001764,-0.782235558845613,-0.0991909879679308,0.0444350398524963,0.868662782603245,0.104548720264019,-0.275639464271083,-0.737832903309482,-0.235677231497332,0.366177322037652,0.242779740375161,0.321686660194901,-0.195459905697076
25.4,-0.439831985630322,0.125164548201501,0.680911222655293,0.680460471585126,-0.904258819508556,0.844968486711802,-1.1053695669137,-0.151766348608804,-0.179154442007334,-0.0723033125349789,-2.97680309496875,0.939365406620395,-0.806079450113016,-0.0859103671339172,0.039249402016212,0.818008873464804,0.106531006887796,-0.281278170762772,-0.770673434144317,-0.220476996477013,0.387477355356035,0.242317530661937,0.369998005089463,-0.228592729243075
25.405,-0.487167942391867,0.122482047885172,0.737460963289701,0.545487599400646,-0.680619474542972,0.843359918427241,-1.12355063330219,-0.166492490645104,-0.153630692903054,-0.0960679012048978,-3.01803662635614,0.90801526746361,-0.827890842549882,-0.0679022497696964,0.0396177865240483,0.836040450504434,0.086485001186869,-0.252987159919775,-0.802998593329924,-0.208493450829375,0.395235120453708,0.223900157604968,0.414448948298954,-0.249488529744842
25.41,-0.615863229375658,0.103075849334651,0.925351313407656,0.571172886610828,-0.516677907532218,0.882280673372155,-1.11769334344699,-0.175254440475076,-0.180427175155049,-0.137620717510377,-3.06379454935443,0.888106872471395,-0.82522740311551,-0.0487366214847793,0.0246421871934624,0.922954192563208,0.0720912185053259,-0.233998143779219,-0.830066051706516,-0.191476634540943,0.405493224053304,0.195541527129647,0.441292789663419,-0.26584159918024
25.415,-0.804355012701423,0.0391025723894101,1.09355132664942,0.720614061440147,-0.50222514363482,1.00017681583278,-1.07716541501375,-0.197202037658552,-0.274863962827236,-0.15304121355141,-3.07031311153053,0.858412911411042,-0.812205969378454,-0.0121945083751149,0.00885714753069087,1.0199435263049,0.0516104897328935,-0.18970969434095,-0.867123133531807,-0.173807570677416,0.417033995649093,0.159624696387881,0.453846608085966,-0.276870526787152
25.42,-0.939330592160452,0.0278209267234994,1.1130371348116,0.920071477849281,-0.601795479343948,1.20991207145789,-1.06017851738648,-0.203052326467649,-0.323749199999319,-0.167675033026392,-3.04477530682787,0.805324245887608,-0.809645727582735,0.00576787543258744,-0.00635596904552332,1.09480989723572,0.012779097368559,-0.123732546025659,-0.894681142893183,-0.161024211149785,0.424106095489633,0.121666763536834,0.442243583487639,-0.272980095777996
25.425,-0.925749123918588,0.0981667599360884,1.06253887057817,0.981204378228085,-0.640937100342301,1.35553329186196,-1.04840272417925,-0.200821451877733,-0.331932089995778,-0.203837136562397,-3.04034619417876,0.749125129807986,-0.821568619101109,0.0483240170418947,0.0119643659493949,1.15514855201969,-0.0293612894451117,-0.0807184879912509,-0.924448491069721,-0.13876993237338,0.435551466604544,0.036417730601923,0.420123319334623,-0.259740334965211
25.43,-0.86300141801024,0.220684984723138,0.977182143222024,0.980886409993949,-0.674155058548963,1.54977327817104,-1.04860038793734,-0.180533438865666,-0.300312373448591,-0.270272951829804,-3.03273835192303,0.697521628291839,-0.820179993856675,0.0757864069143276,0.00819458430150319,1.16380723570797,-0.0874768009915537,-0.0521460833783036,-0.951764494471613,-0.132421025146214,0.431685961672191,-0.0258197517517508,0.375995621655975,-0.240604979534991
25.435,-0.858123072093551,0.252847285813728,0.920941429003952,0.893939761503181,-0.664679716597058,1.69682516828273,-1.04779581698451,-0.163429979139904,-0.295530359702359,-0.351644663607297,-3.01091482434438,0.657278830126391,-0.801868135549862,0.0856643186542602,0.00322900653693977,1.11285036855384,-0.157591937995552,-0.0477323203832945,-0.998158738109726,-0.132827489362353,0.44239724255889,-0.0336296029839077,0.293809611293435,-0.170861855789671
25.44,-0.893295303618511,0.228023049422891,0.887255194013336,0.821950876896181,-0.634739984816915,1.84143834449098,-1.04809535511102,-0.143513573105171,-0.301846760561344,-0.482472202313185,-2.96821902924582,0.593221131871754,-0.771171168826323,0.10335892388142,-0.00106826670915083,0.990136934528787,-0.246277992979168,-0.0469170094077519,-1.03347723020041,-0.116270766665677,0.440905466890236,-0.023912207836792,0.192771121472023,-0.102229659962089
25.445,-0.991805293236083,0.223863853853617,0.874888582134059,0.805109065617793,-0.602289698036611,2.02834415391394,-1.06145654923624,-0.129963830396182,-0.310512657578019,-0.575423482484967,-2.93373685102318,0.530973401692211,-0.75468829660707,0.117298639294229,-0.00311913251407643,0.871229070892679,-0.306433608185229,-0.0520769924646503,-1.04519775443788,-0.0930828967880278,0.442397265320305,-0.131859446221354,0.00168076057324119,-0.0487914539294136
25.45,-1.06891382251265,0.270146350426523,0.865941929907192,0.752466846343411,-0.615818404640949,2.16753485057678,-1.05788224521012,-0.120149514817513,-0.320894655562909,-0.653264329915748,-2.90291863496622,0.47658319187358,-0.73112788885959,0.134121892725603,-0.00662398886749647,0.667433927596969,-0.399485419260568,-0.103592836073323,-1.04393852491921,-0.0822843987564977,0.443022715252196,-0.246087815216825,-0.0939436089628506,-0.0230479958425951
25.455,-1.12162391259066,0.33403037732596,0.85680370810824,0.551125606137008,-0.650521433481319,2.31806435668686,-1.0499633080348,-0.0895496061788617,-0.345767504707605,-0.767338639270922,-2.86697620556795,0.418496003814887,-0.730724615466205,0.148378062266059,-0.0251694200887841,0.485592732221829,-0.472198396822177,-0.180620176420107,-1.0321777758159,-0.0742897860979824,0.440437958275115,-0.336766287050757,-0.136773381634273,0.0277572595911804
25.46,-1.16107549534195,0.35016051056489,0.855138889962982,0.307317779377907,-0.676972810939731,2.43967878341677,-1.04861019344772,-0.0474855758810948,-0.341068354218452,-0.912162333190562,-2.82731164955832,0.3784072049342,-0.759174496254268,0.154757570899974,-0.0673499094076397,0.261313185540065,-0.573091645435341,-0.26905007866697,-1.01808891928948,-0.0642178014493544,0.436076490115187,-0.371260652473559,-0.147120738682862,0.0829653742641106
25.465,-1.19065437749712,0.307305794769826,0.829646244355684,0.0152761000435887,-0.730098922774164,2.54356746600807,-1.06776600667853,-0.0126648301650275,-0.342203566270887,-1.09695965484935,-2.77810684285298,0.344976269406533,-0.790294180285738,0.155483169409442,-0.0750733322323467,0.069404141815605,-0.647332245846312,-0.300072346211645,-1.01074250480408,-0.0481080032738964,0.432954190854122,-0.374285737133116,-0.146182775497437,0.138707535341376
25.47,-1.18237687413819,0.252751610682623,0.776534831580598,-0.215548029734996,-0.760544169823474,2.61271205940544,-1.07554907518136,0.00605165914935828,-0.344926046258414,-1.32866391818089,-2.69524513367555,0.30600898926725,-0.829849509191653,0.153907335561512,-0.0842048165828068,-0.121319770232711,-0.71641738524389,-0.300824862768416,-1.00447828433983,-0.0363568680535261,0.422934976350954,-0.37604883626285,-0.144054651325271,0.193859690555788
25.475,-1.14756135350631,0.190444013648771,0.684993110801941,-0.452326882427461,-0.761308080302454,2.66558420339338,-1.08687576179055,0.0326933684543606,-0.33628169411602,-1.52555926486977,-2.62023466529035,0.264283719773766,-0.864528774697905,0.146421479914522,-0.0860993113725341,-0.286574484651219,-0.786322063840389,-0.300933337367578,-0.99600461480153,-0.029857730745978,0.414881756229876,-0.385094072950622,-0.133704347083089,0.24575432235371
25.48,-1.1495997093329,0.154550318025065,0.668673263206739,-0.572457369174823,-0.730985309280449,2.70056466405648,-1.09633135497032,0.0380019397632051,-0.323492007154863,-1.76420304146075,-2.55291920862006,0.200649384886491,-0.882532676793347,0.129666914048869,-0.0912365494407003,-0.444235167841255,-0.844411717811016,-0.304599669394369,-0.991324239522271,-0.0229016590125373,0.40763190607411,-0.392716762285864,-0.122276231265566,0.282709599507548
25.485,-1.21033251896561,0.10001011699327,0.674764978774697,-0.609861368843235,-0.705383771208262,2.73980788558285,-1.08742341825944,0.0313315990150769,-0.349382741146369,-1.91832484350019,-2.51005261635926,0.165320243705088,-0.92231844754797,0.113057419179257,-0.105622583878708,-0.680609038091845,-0.894285749977207,-0.336420895303621,-0.978752721284433,-0.0209229634394577,0.405155994601485,-0.40286274708701,-0.100971605009885,0.321596220217081
25.49,-1.28364638803593,0.069280191248834,0.634181137340012,-0.64032448662279,-0.744613330928944,2.78397582924245,-1.04531052969904,0.0107521916389389,-0.389545638209837,-2.11708387888733,-2.41316870117994,0.101054572056374,-0.956223813469249,0.077078690562205,-0.124770271711455,-0.893858229525593,-0.924292078395372,-0.390324990346635,-0.978236912865702,-0.0208849523168572,0.392490414010573,-0.397980213165283,-0.0901568719340414,0.346594004954457
25.495,-1.30578054707952,0.120997702955021,0.563636020491412,-0.719178122255979,-0.784078110873993,2.7999900421932,-1.02535393912447,0.00546219711518841,-0.402096335985818,-2.27771591812502,-2.29028175247389,0.0325888762139752,-0.956999229521156,0.0667444689962454,-0.14882753368702,-1.09599868134581,-0.94217931774171,-0.486676423766277,-0.967453928561217,-0.0297820256536572,0.389128648510574,-0.398808745278762,-0.0937343583447775,0.366029340058256
25.5,-1.23163725986922,0.201028650643269,0.432075876894718,-0.98125919557991,-0.8479993610864,2.74724856306301,-0.988624933066572,0.00799598657071711,-0.434383372099823,-2.4145192453729,-2.18755158844488,-0.00543624619183239,-0.995745069784441,0.0607017474634403,-0.173244958323649,-1.19153493997039,-0.936921614953603,-0.607028157335707,-0.959014585519955,-0.0294975559919482,0.389048863066466,-0.394530050530095,-0.0995971842600062,0.3722968429856
25.505,-1.14464806029686,0.165686549241265,0.310097654535746,-1.27050859998653,-0.833297987640718,2.65478819443246,-0.958836496195057,0.0128388641560508,-0.44362565655372,-2.52142660442581,-2.0787329448693,-0.0111665042172597,-1.02645169185953,0.0603991249439768,-0.205525800931269,-1.1980145080404,-0.910788532239758,-0.758784240878112,-0.947354078225964,-0.037603401015375,0.391607245242552,-0.392108994105045,-0.113908758224607,0.369249172870565
25.51,-1.09011479928851,-0.0121316066224456,0.19452410946508,-1.47823511396261,-0.732221752006903,2.5305892344871,-0.930472606217583,-0.0139855548236473,-0.412892615601042,-2.59516134894328,-1.94956988044043,-0.00378640978732829,-1.0462422452912,0.0690804379342584,-0.227360098009455,-1.13788936174713,-0.857722297767313,-0.884179324580822,-0.939002820007229,-0.0411928712270825,0.39174513814213,-0.395790314984766,-0.123334629245688,0.367374590264753
25.515,-1.07508420538638,-0.227875619031711,0.139091378851055,-1.47427916730578,-0.577074809395726,2.41649045528667,-0.92195529579656,-0.0616966306489063,-0.383772144796389,-2.58560550796645,-1.84352423248369,0.0304641674477523,-1.07568102366925,0.0874860516741896,-0.213374032142754,-1.06344849326437,-0.79112713661897,-0.942244086411634,-0.921229471663973,-0.0553254280855365,0.395905369608963,-0.414502235859085,-0.135772532165908,0.36108905984146
25.52,-1.12237491051995,-0.351957907605751,0.128893147054706,-1.24432122583358,-0.437592789010799,2.32874291650971,-0.899715622067383,-0.11926701381132,-0.387421429866855,-2.47383613456096,-1.72148327171031,0.0893880186213008,-1.07751452290123,0.145227453847567,-0.233858528107296,-1.00846510940809,-0.753425729642939,-0.863451097325028,-0.897156908340389,-0.067962000591489,0.401027591184213,-0.42694867557774,-0.138782157658459,0.345080166499799
25.525,-1.21103789843749,-0.373213979810991,0.14050845213845,-0.86056540364314,-0.282152190301484,2.24253611007078,-0.869555349591968,-0.145941051863089,-0.420846778635384,-2.33841518867858,-1.63755554638859,0.121621724628325,-1.18413449753539,0.194750363536352,-0.179346985845342,-0.671343821584349,-0.671355710786952,-0.840485012737136,-0.892382714982062,-0.0784134668768989,0.408742227658963,-0.435649160050096,-0.138808977266265,0.321173118044322
25.53,-1.23704361830712,-0.329796464528192,0.125626415081988,-0.625384075625963,-0.207652526690293,2.15917968072,-0.822008615902018,-0.181766693816372,-0.454423359162094,-2.09272865763902,-1.50726664805961,0.172315280619085,-1.1804993565379,0.209092065492661,-0.16227866708618,-0.438730658553655,-0.615031140097465,-0.815190739460561,-0.879440816156436,-0.0870032295272029,0.419349337119953,-0.474439990469568,-0.128930211376498,0.296838309014495
25.535,-1.21525497982509,-0.312663647963015,0.0934048511923946,-0.501557635664937,-0.115701560197923,2.02922789819205,-0.811015884438612,-0.189408706308368,-0.473669100221823,-1.85383349957227,-1.36801008264523,0.211328705964459,-1.19425412958073,0.247532583875478,-0.125640255363481,-0.243558303143506,-0.561095822076002,-0.69428076713212,-0.861597916451986,-0.101545857579907,0.427726592955979,-0.512572850336641,-0.113771256319702,0.278137287297891
25.54,-1.20109850167804,-0.339354116873469,0.0677951132542453,-0.458193372429909,-0.00389761785939574,1.89441291635169,-0.812771301758319,-0.175773100409421,-0.478757367895453,-1.58434137889625,-1.19068367938219,0.26798003776017,-1.18817020913832,0.296442345446208,-0.104093769705731,-0.122829050840257,-0.50365286634385,-0.566297287664414,-0.837429969287815,-0.11076438717281,0.430382073247992,-0.550131780968199,-0.0865830149368362,0.265489186490215
25.545,-1.22816697029456,-0.410244372106499,0.066411475968177,-0.431338627323138,0.118918110344208,1.76001390097194,-0.818122226843015,-0.176163856162541,-0.481754813990201,-1.38801405513213,-1.03891025369092,0.29925359890615,-1.18044202269186,0.353485603574409,-0.0713406012742616,0.035967524157484,-0.404548361476709,-0.496472126889698,-0.825540605320448,-0.129549638992458,0.440482659182356,-0.584561488740844,-0.0668210660322059,0.262692911533349
25.55,-1.24467698213942,-0.483229301123455,0.0537764879774189,-0.414193960580955,0.234981839823768,1.57768418314995,-0.80677013272989,-0.176063062896651,-0.474886505200274,-1.19215563403153,-0.852125857267255,0.306956971018615,-1.14147243685319,0.409646426819366,-0.0693866845484057,0.231050480271836,-0.266679824202018,-0.445240242835994,-0.816792102159837,-0.142295288676541,0.444982725844973,-0.62458983240886,-0.0484241424545118,0.265781030567233
25.555,-1.24192567716442,-0.521523915454474,0.0298366183531328,-0.409203273038132,0.309146416288675,1.43025656445198,-0.793710390768327,-0.167312358995427,-0.467656016857851,-0.974273449614144,-0.679434343938393,0.294979709836516,-1.12226336039521,0.448207030343821,-0.0923369658080654,0.365773123116175,-0.153313393797704,-0.418428578587233,-0.812182389840637,-0.149501351801967,0.455262806075496,-0.654205123288281,-0.0393459214671325,0.266874475555429
25.56,-1.24773650763774,-0.564722907672351,-0.005247301085592,-0.428497391358453,0.422091986993307,1.22661046042677,-0.777160590599308,-0.162990387487074,-0.483430487926383,-0.825020423120729,-0.520303276700021,0.273160755711887,-1.11089738019187,0.476191513536415,-0.0668346512106485,0.544258100237368,0.000143616662388363,-0.380121761436828,-0.823231156020233,-0.160058729419928,0.469233617021175,-0.666416087240927,-0.0201374428292693,0.266116887331009
25.565,-1.25954597356646,-0.596669701145062,-0.0209243307607487,-0.525869698020959,0.517364666339077,0.99247191704417,-0.749961243032914,-0.149947417750485,-0.487819345164039,-0.65298997361398,-0.358929744199929,0.251042344110057,-1.0835045137493,0.504377732996991,-0.0720875918322537,0.642940867437194,0.117570960464671,-0.342395708015512,-0.827227607906358,-0.164061669752776,0.474537738928751,-0.671098338861952,-0.0115189432454665,0.258698701111274
25.57,-1.24448668803215,-0.62993776566259,-0.0309363412137811,-0.621790322793169,0.580259378456741,0.803787751640842,-0.732516959685962,-0.136912920008484,-0.497677718014985,-0.503940320729272,-0.162018809075585,0.225691790149458,-1.08152524390148,0.508684832069763,-0.0691104237000197,0.690238287759027,0.219538384014906,-0.335327006714606,-0.840786213894717,-0.157526065204749,0.486512636998726,-0.665990304465584,0.00527629922693981,0.265292079992822
25.575,-1.22580528042194,-0.69709137458691,-0.0200112139830762,-0.728950490942046,0.685692048508089,0.51899190987057,-0.73883476661522,-0.122037060966035,-0.50143802838066,-0.40137954130406,-0.00807523133314759,0.208361841883974,-1.06523183752294,0.477656173194198,-0.0359188066259298,0.699958082528533,0.284345538320919,-0.382814607807434,-0.857015024097174,-0.160048142744922,0.493351495324917,-0.639049293022108,0.0180992116929611,0.266503155455443
25.58,-1.24009619873666,-0.741125045873743,0.00431254205728272,-0.742538571538485,0.757774177713619,0.339350334534638,-0.757739912805752,-0.0965495652528669,-0.506662682673689,-0.308989949868148,0.179749824721992,0.167466523409612,-1.04690916240237,0.440080944735367,-0.00171891641270543,0.636768035958554,0.301737966528863,-0.492122159366087,-0.870618913220554,-0.161136792861586,0.488333646339768,-0.597914043852766,0.0384703339980725,0.278789591214491
25.585,-1.3023671776769,-0.757580503887991,0.106429341447254,-0.604420356870943,0.823013054006981,0.0769287237090695,-0.749011982199333,-0.0674607565445193,-0.505943809885752,-0.243709224252247,0.327521526542661,0.135801960994607,-1.03972747522873,0.391724720177824,0.0312035560295794,0.558842121374392,0.293604527402927,-0.647675233605972,-0.881377463588628,-0.16288387230908,0.496322206451787,-0.547779852947823,0.0624697701120445,0.288096662696325
25.59,-1.36822512045931,-0.720515904250047,0.205462149392835,-0.407051775414522,0.815066960611923,-0.147183363018654,-0.727006614442888,-0.0641017789755075,-0.520083077862309,-0.189727697071842,0.491046429695608,0.106175238464012,-1.02968037448244,0.316625181690529,0.0463614512235454,0.540594868560001,0.276235494663633,-0.780175486070771,-0.898589260865918,-0.164794562051742,0.493734898714473,-0.49497610634225,0.0918372059502378,0.316233436515372
25.595,-1.38229315681757,-0.645529954103499,0.196669945842611,-0.233591825067894,0.750713458142751,-0.339700313969517,-0.719080312573484,-0.0666328798993142,-0.524795120288849,-0.143732921669241,0.664751267171289,0.0768926004720571,-1.01130520868667,0.261513300523383,0.0478169992612035,0.573305951437991,0.268968704740991,-0.834919161159237,-0.91602863593223,-0.169763672373956,0.492453498197997,-0.451660233951733,0.107864370087426,0.345023363255419
25.6,-1.24200051481868,-0.502011038607534,0.0626666858168837,-0.16246456431556,0.702399490878222,-0.596376037064579,-0.738663277645538,-0.0911604597073419,-0.499259662192731,-0.108699886745383,0.83517457834568,0.0437927686418638,-0.980174705742383,0.197700398738676,0.0517410586953264,0.639056711241101,0.253866382230199,-0.828108310659936,-0.923007406332824,-0.171041680770971,0.489193818140129,-0.397321354071813,0.112739384589475,0.36773714130863
25.605,-1.00278505474696,-0.382217409406671,0.0860349659241454,-0.355184572825271,0.797489626505282,-0.698959190642072,-0.818554887492478,-0.0955406404842724,-0.397513080125044,-0.126681708253106,1.02271713465855,0.00170511865955263,-0.956659066695389,0.161778617955902,0.0379983569854972,0.677900701418252,0.249073692263298,-0.814283163038343,-0.931250823633475,-0.170997480034426,0.484137093015275,-0.350893712085099,0.106839341439146,0.379965688614948
25.61,-0.586842192623512,-0.350188084733747,0.22971100295118,-0.513305140112278,1.00343804513945,-0.861043728601996,-0.965882636047851,-0.0447313708132174,-0.0689939376603098,-0.0838795763982633,1.10584013794082,-0.0285107966145753,-0.947585973998508,0.104805961200723,0.0342718319408294,0.700103429726193,0.24269904734975,-0.806651848645437,-0.933688912995478,-0.17157365242237,0.483419990601707,-0.315488814763232,0.0847725310058506,0.37989860994603
25.615,0.209511319449767,-0.411531796980293,0.458568395422086,-0.401136811456042,1.37880603603471,-1.06964741898033,-1.2083854075885,0.0952404278121051,0.64987430094803,0.0458388307070934,1.11153719484026,-0.0573474853912274,-0.943166401683628,0.00625544457808024,0.0097403648907193,0.667100227538458,0.226037737306144,-0.843689599712774,-0.940796672314294,-0.162562092452491,0.479997690261201,-0.281695977785466,0.0494436619770731,0.38019902304993
25.62,1.36720697654008,-0.369230630554865,0.849786411095231,0.0359047487664224,1.97068979307086,-1.41255222306673,-1.73420392379753,0.249723015606266,1.95801437211084,0.445171986337567,0.763397424357453,-0.058305532538175,-0.956499679356764,-0.112546254764282,0.00570241024078329,0.584534925932277,0.190920758173346,-0.95796877271507,-0.938868820794163,-0.155686503582736,0.478207432604099,-0.268729717896884,0.0129105349605661,0.375159108465707
25.625,2.28051411292077,0.635405613523895,1.74379060128523,0.813011959526431,2.89668169771076,-2.38425644966811,-2.1281386436962,0.0636518735349617,2.12532573950143,0.222478163009016,0.355684843238776,-0.0118658854121911,-1.06236492820829,-0.224079220024703,0.00918479327432767,0.351896697535862,0.114522347620165,-1.22400191154218,-0.935512605007505,-0.150220211425195,0.47686637244876,-0.275840619847438,-0.0110542193908145,0.372179468194492
25.63,0.8853036732017,1.28813984876309,2.35143986764433,1.09679475246598,3.09667297534379,-2.94100468335354,-2.20824111771738,-0.278295918574118,1.36961077292247,-0.688202732069097,0.0867892671647937,0.02381274071976,-1.20163069156573,-0.276899187928249,-0.00520822900423113,0.113890032930058,0.00431876597351448,-1.46505677239427,-0.941209000563208,-0.134977340289473,0.485927121814299,-0.299718239473784,-0.0342355006816852,0.372796651595616
25.635,-1.4826100400492,1.14924251249159,2.4168271118781,0.676985134619704,2.2631404475175,-2.70387264058648,-1.5142718398663,-0.347042906829775,0.602574269042643,-1.09448600715103,0.157042521356134,-0.0286453065133537,-1.29373200848738,-0.371682820733261,-0.137754996032389,0.0909020681508557,-0.133037914983134,-1.49374276747303,-0.947265111184339,-0.12368127670472,0.493747410345564,-0.338887158604347,-0.0632421534201029,0.383277506906096
25.64,-2.01162587233722,0.870737428214381,1.84920095123731,-0.0669358626122897,1.32464002942344,-2.11298935130356,-0.938805784982203,-0.187639492665449,0.371677192306802,-0.760812466863612,0.208578019602317,0.0273040908926084,-1.29560659949651,-0.453891675617748,-0.239349050594183,0.287426395741931,-0.228374412369337,-1.2827462737661,-0.952516246274607,-0.116273646180777,0.506511258851999,-0.385335786156728,-0.0942092927998934,0.391592552912225
25.645,-0.904801208310054,0.65777987192659,0.524558310961873,-0.728180895276267,1.03984643512141,-1.66424160047151,-0.726094931941596,-0.0364580139266754,0.232457438629833,-0.626242768073958,0.15966310230811,0.241208827252681,-1.36449019244461,-0.426014115303212,-0.369739664395123,0.369915614664404,-0.267115798372788,-0.865906139788378,-0.965271649393403,-0.0995936258368825,0.498973103279234,-0.454909885841389,-0.15501033290495,0.402180979921444
25.65,0.00392042594495367,0.3314699993939,-0.897864193145621,-1.19534689808168,1.69241259997405,-1.36941724397446,-0.584865925873671,-0.115831428330875,0.0418250443440981,-0.70489612737335,0.150088710558216,0.380216223404652,-1.40759360683749,-0.322765360701466,-0.377174910218698,0.237254892118424,-0.199871072528606,-0.428989538413535,-0.990464827307438,-0.0929021928529294,0.493618904985151,-0.513327340799205,-0.215758417453916,0.402009364394807
25.655,-0.208964216803407,0.0681665097160608,-1.31756747523641,-1.15692984121231,2.86121605320048,-1.14235652093426,-0.58775731295694,-0.21713609965515,-0.0946452844606693,-0.819834514796972,0.23866744515738,0.328537007325219,-1.40778760752254,-0.0908006070351301,-0.33380975754314,0.0336531072989324,-0.100340062220001,0.00905107600102695,-1.0419392325257,-0.0785052809164197,0.474885509713846,-0.573207158826067,-0.287027943045534,0.399281591176987
25.66,-1.1227605782161,0.596830929005974,-0.30508685323102,-0.831617239721407,3.97415598510298,-0.794579767835912,-0.61702436751792,-0.27632801368308,-0.215087148883082,-0.629408939282021,0.413268514438814,0.226474841127692,-1.34662063009901,0.263940083856424,-0.283482767401333,0.29985398238952,-0.00357043712269409,0.449743671994582,-1.10611353798529,-0.0687916438051242,0.452428450699814,-0.604447813243598,-0.337040741605823,0.390050480507738
25.665,-1.95344754164176,0.896403594343687,1.64129835412989,-2.27545920899576,3.62444139757051,-1.08831990522429,-0.679202212842861,-0.127489500904443,-0.333380264964743,-0.250491725035048,0.922037252478276,0.0962570679812377,-1.295255459163,0.433316921509392,-0.248390291457054,0.759234062013768,0.016108006226767,0.580631238162217,-1.20064587096817,-0.0469690818135924,0.411709583028862,-0.616166875979116,-0.353427501557684,0.375371036551897
25.67,-2.75584160358779,0.314266236272698,4.62649182663206,-4.54155706494829,1.51835019987051,-1.5804819502376,-0.751041348942786,0.175547834496764,-0.164306561931426,-0.0246118410725671,1.32195438689293,0.134134787674677,-1.22982296823038,0.536146922753306,-0.177379227600367,1.425385154797,0.0253420732934632,0.474543297683862,-1.25871749323414,-0.0348457823808247,0.37948158968924,-0.62237122276727,-0.30358037511082,0.359366480317676
25.675,-2.28908638773854,-1.65081646854897,3.19364436246157,-4.09397964937634,-0.599305542603587,-1.43803451888191,-0.965824188730666,0.50594788624203,0.0778891058478458,-0.333129824003145,1.55491609734478,0.317439387827251,-1.19571228159165,0.469932185239882,-0.101493002039008,1.5537919143433,0.0173277704691576,0.23335757652495,-1.27754545863495,-0.0305509549372207,0.356779985857146,-0.627290592146362,-0.209327300426434,0.351033127792226
25.68,-0.289873478539739,-0.597221553772706,0.599326561610359,0.992455077464167,-1.54559353434613,-1.0434621989885,-1.27809839646592,0.611358176555522,0.139172086178181,-0.740674414654254,1.53455474137934,0.366870873569627,-1.20238519704833,0.313273436092561,-0.0393298949042242,1.05041450600767,-0.0473657784173791,-0.155707777960547,-1.25182692759296,-0.0514416646108813,0.335904119692334,-0.62421287643927,-0.0969037691150064,0.353786721999106
25.685,-0.439228899444922,0.178301367650348,0.244589330918316,-0.0913436949203285,-0.900965251202671,-1.40103910510642,-1.53957929537586,0.460161547993155,-0.175528800577386,-0.983342366486058,1.4513359449665,0.133496036006461,-1.2516981107959,0.186230995028474,-0.0115144604432086,0.517144218170881,-0.143454052021251,-0.47013850607163,-1.20216592450364,-0.0615511473651254,0.340015726000774,-0.581090019435493,0.0501077133243809,0.374349338547224
25.69,-1.53420364731985,0.727208706196787,0.604299050825504,-0.622351558535238,-0.141936683724962,-1.23509017607634,-1.6671817428065,0.184441472131911,-0.531966430877375,-1.21896000077607,1.46671596567867,0.105093293763704,-1.312549744715,0.046703191643306,-0.00576357289460021,0.145594705254174,-0.267490829331831,-0.673140179360839,-1.13510712013325,-0.0781601219781174,0.348959042559072,-0.510556875628669,0.135037068663538,0.384884221967546
25.695,-1.56885215284848,1.31117477835859,0.751075072045715,-0.443155353687024,0.0537858096333654,-0.599359670002365,-1.66397416563791,-0.040314451304515,-0.536650403588905,-1.20799271172941,1.30547372991538,0.289309453232173,-1.36180988762905,-0.128812927402246,-0.0250018661454344,-0.0899075572765325,-0.392551570418708,-0.704433362918954,-1.08970439515463,-0.0840702674134948,0.363905707555495,-0.408178227713675,0.192336428633436,0.387560929861677
25.7,-0.858616811008415,1.21746943288668,0.645831979922242,-0.867977471469922,0.0436694025993347,-0.177293178324515,-1.56428024072129,-0.224987678279416,-0.329041273659856,-0.999349280361824,0.942822054815978,0.368547213277853,-1.39636890395179,-0.268217091727117,-0.0394326334394702,-0.327063925231418,-0.477466468358483,-0.664982213495889,-1.07668105004112,-0.0861651294170333,0.373406392858221,-0.310867325601691,0.170611743589052,0.382316758925225
25.705,-0.699595008642436,0.128987643624259,0.8890803321707,-1.23759994472357,0.182929900054599,-0.122331742174967,-1.27864374993459,-0.201973752082799,-0.112993850892962,-1.06652425442333,0.819548880515012,0.377697039026302,-1.38937747663508,-0.378210641146045,-3.55255624211546e-05,-0.68367122758307,-0.540937736795078,-0.675769219114433,-1.10500924717407,-0.0886165770626342,0.367727024688555,-0.189777096453521,0.0298709508931666,0.338317615323801
25.71,-0.673968191495897,-0.40581890715699,0.957383822681736,-0.920413947296291,0.0675911024781452,-0.147276513411706,-1.10553949239328,-0.0889018755152723,-0.0576321281480888,-1.25818510555368,1.01808285005737,0.403115665720883,-1.30340010663695,-0.41565343382477,0.0455632911155516,-0.79234774126677,-0.550634920597076,-0.728188127685115,-1.16404841363793,-0.0989411143451354,0.363693708949344,-0.0997141491098155,-0.128774038123154,0.281705644739851
25.715,-0.60891818676032,-0.396777815654601,0.904188050081381,-0.528535368264353,0.0365074880303281,-0.100652400798736,-0.997903064556333,-0.193558405566599,-0.0885626449959529,-1.23568692978076,1.24038179845023,0.313637591791584,-1.15429964958658,-0.432810247555274,0.0955544643111426,-0.576962783009134,-0.53505728993189,-0.84046924654589,-1.24021547509311,-0.102704345377057,0.358098243893117,-0.045062147506189,-0.25897719084583,0.217920623641048
25.72,-0.629771734938961,-0.130956773440684,0.847308072365898,-0.159585698061406,0.0521752048692935,-0.0239577660752608,-0.950860427430798,-0.312972366223822,-0.106791347674658,-0.978792896062352,1.314446001386,0.209098563434538,-0.988808509427961,-0.4676972679462,0.155380033608869,-0.167224600609065,-0.488469272466792,-0.944855899155372,-1.33121220545605,-0.120366563172545,0.347917492455992,-0.0200749239867245,-0.320261767524642,0.114907962543992
25.725,-0.604752320152047,0.0657553993940547,0.819382375989412,-0.0770342867394596,0.0426937806519059,0.00247762436336172,-0.872940591832178,-0.429542020606263,-0.0862998241655415,-0.504537189446422,1.22435581056526,0.189785909686491,-0.844138387208602,-0.514750741812128,0.186783665178142,0.0733646353695999,-0.413993915999012,-0.944441469051708,-1.37089249816291,-0.137224480653242,0.337154718316668,-0.0477799802375544,-0.287925858806311,0.0354765304332243
25.73,-0.576630995389527,0.170728355608402,0.825035071077022,-0.116989033507978,0.0730957900856519,0.0170810352788683,-0.85827187716187,-0.458561134010845,-0.0489690447890341,-0.0135227773980657,1.07606948954523,0.20546000333873,-0.74024015253134,-0.544082423291657,0.18369739780186,0.135070977909457,-0.318481258859958,-0.862174914702505,-1.37747686117493,-0.155504467346059,0.32246030767996,-0.100135560006799,-0.192658048962446,-0.0401538099046402
25.735,-0.547570619132193,0.172984224703703,0.845485053169587,-0.131780002863824,0.130508564896687,0.0326322977828293,-0.868845064007748,-0.32235734757735,-0.00275135165727719,0.42494269698139,0.938411447803138,0.245730120687709,-0.658854015513619,-0.534823867174937,0.145542312026299,0.103964141108924,-0.220827059070868,-0.686778430893522,-1.35669719538636,-0.162906601956605,0.310085112327071,-0.172844573220983,-0.0759074316803021,-0.0932971483119708
25.74,-0.552308020679963,0.122654883144926,0.821494455470944,-0.136563464999199,0.188624897580448,0.0240353720859482,-0.935288502196339,-0.131939054592608,0.0117198815484175,0.742443551678113,0.86012322251815,0.323865790958507,-0.607986697597065,-0.49218324360415,0.0441777091487506,0.079102386615819,-0.147485482053219,-0.484438480859907,-1.29924334299785,-0.164906983156303,0.301817112989759,-0.260682044937762,0.00213835660702907,-0.10730829530561
25.745,-0.570129117782061,0.097495157094889,0.815999078532521,-0.121083540461831,0.231769648223639,0.0242439175069837,-1.01396770243877,-0.0225628307372736,-0.0253611216710981,0.941815526472291,0.783588943703242,0.388639172042382,-0.551931043094103,-0.449762615921437,-0.0760231838091564,0.188613124712624,-0.0921853959654619,-0.314590213417913,-1.2248102320374,-0.162683005667395,0.29920593902131,-0.366156295755982,0.045873101676529,-0.0973934366625498
25.75,-0.580657995200919,0.112894571194586,0.813463747802478,-0.0946001353974741,0.236148002897074,0.0304573970357537,-1.05145926052614,0.00355912223965251,-0.0686493794761986,1.03542393497361,0.744566967588162,0.394099022688156,-0.527520032650453,-0.436004730168687,-0.144151272987602,0.272716589207205,-0.0722386978463802,-0.274765852967958,-1.13845159106837,-0.154470573234555,0.291097270623204,-0.465620034584804,0.0366286462972519,-0.0846557327994075
25.755,-0.573188229477639,0.147824754111353,0.803493014639417,-0.0480858928039796,0.195865654706968,0.0370857593417177,-1.06156182232069,0.0036272787810068,-0.0806929230192956,1.062861867289,0.694439040267712,0.371730542992136,-0.539666070793015,-0.438238607634649,-0.189873505653541,0.285957440718952,-0.0690612115274455,-0.259084326001709,-1.08565881304071,-0.144517693932875,0.282438718645,-0.521988125967545,-0.00602958029123919,-0.0832877457141876
25.76,-0.567171605181008,0.16304386690549,0.808204525557991,-0.0109060768411996,0.157473001502487,0.0349273300155834,-1.05494637585321,0.0182421881130304,-0.0836399034947427,0.0224871205151264,0.636667055196522,0.362093830983301,-0.575731194762382,-0.44554883977112,-0.179176969197643,0.164237968361856,-0.0905725948546578,-0.292492247615942,-1.02737447184243,-0.129855716340728,0.268310188828013,-0.526692267575225,-0.0754444246198037,-0.110872018514536
25.765,-0.573108522224132,0.177714606570696,0.794806877794514,0.0167292803927914,0.113063412036454,0.0300077560834474,-1.04284738666908,0.0967139407050986,-0.0805373329216687,0.910412505494637,0.627370072233922,0.362481495898565,-0.63081482347631,-0.445580157433121,-0.103909826168022,-0.107312508606093,-0.150679625493715,-0.343063549013675,-0.993527199911074,-0.111130349922776,0.253479725035565,-0.496400301702289,-0.12886617812291,-0.145423870409458
25.77,-0.571031597345605,0.164329781476295,0.806168228124872,0.0228943998613977,0.0846763262277866,0.0397838766116234,-1.02464377471565,0.15304226264983,-0.0612979316527239,0.77282629025033,0.609393028431319,0.367523952826725,-0.676522381884805,-0.424910003682615,0.0116814713914802,-0.407144580212924,-0.247816475635715,-0.422346926752069,-0.959504586617352,-0.0881972565014416,0.250353591840955,-0.454287860423183,-0.160732555365679,-0.179025141776939
25.775,-0.568309831829812,0.166054328373778,0.804212032774837,0.0535397655138906,0.0699643264098649,0.0367795074863915,-1.03306333938307,0.165469906323413,-0.0398515436308311,0.598113776611782,0.581230461203966,0.374931745849563,-0.715436789276966,-0.396765521696577,0.112154873923835,-0.518974398224075,-0.334894723214148,-0.498481378852118,-0.91930271263531,-0.0673633644087898,0.2576889923934,-0.396937290306516,-0.184707872351487,-0.217802265050197
25.78,-0.5655384355764,0.185852541347528,0.803858490237325,0.0566835507569043,0.0669129212889761,0.0468221774836482,-1.02698039717366,0.138952687742585,-0.0256035942098687,0.395168331173781,0.550872111602196,0.387292752626434,-0.777316216226671,-0.37789522270645,0.214028133819396,-0.526911297268695,-0.403675352871107,-0.632660837912862,-0.893136105403384,-0.0552433282253314,0.265900597408892,-0.337759890092131,-0.218670567694668,-0.259280321211809
25.785,-0.546959905944711,0.184157762205965,0.808495329772826,0.0403067271116608,0.0726348110621788,0.0443500631745347,-1.02549762691889,0.122768631658701,-0.00338959728161469,0.195969442783658,0.488136326966614,0.387095161372901,-0.807220921257729,-0.381140324675966,0.259219421075777,-0.508832664996819,-0.406161241584905,-0.79733879386362,-0.86917057199767,-0.0470539777831956,0.273589411986091,-0.271811176340084,-0.278148255336288,-0.314759336732157
25.79,-0.543409038146904,0.168336090859556,0.811243802055161,0.0138193073568747,0.0991764651204906,0.0581078030419019,-1.01244752585676,0.0886420454277312,0.00657240831669627,0.00376097575956819,0.427274993375372,0.386398652048648,-0.860584644944469,-0.398983370484395,0.305633444431393,-0.541760833587542,-0.362553222887682,-0.946789772968681,-0.834509965999309,-0.03990232276857,0.276962819577305,-0.204123514816704,-0.361338082214736,-0.383431872012596
25.795,-0.548745824754939,0.159593691169661,0.817694836969205,0.026633633955634,0.104730393648338,0.068230417169464,-1.01074488888798,0.0681710265426717,0.00882784643436335,-0.138074905590238,0.37231536582791,0.370557541781059,-0.892721808348267,-0.410753240248149,0.326550688746641,-0.595086455913332,-0.31045633948491,-1.0393765921074,-0.802983094478232,-0.0276844104584511,0.278336785846915,-0.139405407768621,-0.449411573935771,-0.446446290019539
25.8,-0.560472251483154,0.15647084394305,0.815157450743868,0.0480309335772817,0.09493419238723,0.0716105311646467,-1.00958377807908,0.0575752676109046,0.01115187567757,-0.204389426793642,0.348531380423124,0.355952092672654,-0.926881720557565,-0.407831813126134,0.339308579290646,-0.611667166072035,-0.241758688010228,-1.0928596836475,-0.771246700508381,-0.00479553256874454,0.273915174355568,-0.0707478510033938,-0.514293610479488,-0.500453883710253
25.805,-0.558527125002572,0.178959771046023,0.817961802245571,0.0772278937912751,0.0803358288287578,0.0825593653536607,-1.01629876618417,0.0310645530211284,0.0190111061124165,-0.258381239108933,0.319999194184636,0.343463896470125,-0.946794807143235,-0.383712938337431,0.328440178158329,-0.52951769513375,-0.201679088895805,-1.12597284469467,-0.749722758949903,0.01936585856185,0.269166483801035,-0.0234076250475392,-0.512933786927358,-0.517233282373053
25.81,-0.555632817196825,0.195473383819055,0.803797288191776,0.0899054036036256,0.061518720099089,0.0886315718592921,-1.00961278837335,0.0336348219495494,0.0176373001424843,-0.288818911130379,0.305759249559891,0.339959086545455,-0.966038088727335,-0.349498679690815,0.296864552615541,-0.3398962400894,-0.165499616081546,-1.16445863716133,-0.720492998217543,0.0543289337629639,0.249880875986588,0.00876221214518387,-0.433093993930142,-0.492421002895132
25.815,-0.543231764714362,0.116969865517125,0.814941714796112,0.0783455183160309,0.055258445643848,0.0938396471249223,-0.995026969688605,0.0144740845226938,0.0163347891416149,-0.331391208476481,0.300048950715899,0.345669385389448,-0.967966867399288,-0.335050758756742,0.250470762051315,-0.151142208738526,-0.130509632231025,-1.18655411352381,-0.706528432775908,0.083482251491672,0.238025417323705,0.0107509019934229,-0.307484692139457,-0.43901394020096
25.82,-0.637311495840076,-0.124970708165908,0.899206854346839,-0.0339114812922706,0.0314593501871111,0.0850107073964099,-0.99982137208955,0.00853370601611033,0.00240892071872505,-0.367853914640821,0.281570610355458,0.342545597804786,-0.959139447623157,-0.327728308194912,0.192556177549847,0.0375506166413328,-0.0754822155322207,-1.17968408896686,-0.697367754398002,0.115220082830245,0.226842380503079,-0.00850697533484272,-0.105447460759025,-0.35126619455099
25.825,-0.54413037573153,0.30274911042913,0.808363693901922,0.248351012470762,0.0106654939210705,0.114037816216133,-0.990389398831537,0.0804437006470415,0.107986743218114,-0.299302479876454,0.238958759518817,0.313459729447503,-0.941445689251511,-0.321721570484409,0.167492394291827,0.119066075717197,-0.0363335834841353,-1.17720918325068,-0.693712448721667,0.143004382605564,0.217503741220502,-0.0260256975386216,0.0608568854158878,-0.275668323112016
25.83,-0.578657418699058,0.273464789367853,0.794526005576188,0.139279324372878,0.0212233241147449,0.0916978962818082,-0.982446639735973,0.0681985591778913,0.0725356593217317,-0.281588286161423,0.217548576519581,0.300681893142748,-0.930391118783088,-0.280435457567448,0.152665373468823,0.128738067977261,0.00545029880504581,-1.17988514787641,-0.69311637244709,0.159916122554132,0.202803292983494,-0.0409695165198869,0.20550129891777,-0.195286609828435
25.835,-0.57546427751621,0.217924559623836,0.851596697730974,0.177412033081055,0.0111152361244758,0.106844797784078,-0.998766181357068,0.0832115193178834,0.0514300070116296,-0.255818163343039,0.208409190949343,0.30614152978627,-0.930642282438728,-0.256275255777713,0.161833204375759,0.115732665489689,0.0400931396456001,-1.18269569660358,-0.717237146032805,0.175389282774456,0.193631934729408,-0.0581556400507863,0.325386698615924,-0.133958896037191
25.84,-0.498187101948871,0.0736614942201061,0.77818985029176,0.0348408281420535,0.00338485588354137,0.058265565826571,-0.995650829450477,0.0807678978008848,0.0712807391930153,-0.217334031028512,0.203080087900162,0.319019968888104,-0.932966874777463,-0.252154116418391,0.193018105595539,0.117323263860161,0.0574726373920178,-1.17829224448909,-0.739658583941941,0.199291336342978,0.178977899606985,-0.073472976405228,0.389088213068123,-0.0760920766039876
25.845,-0.5355226221375,0.227795221819216,0.834530722654045,0.174905173109132,0.0336311491941027,0.082319026662188,-0.981041333703573,0.0829814324274905,0.0589667755878242,-0.143227374340383,0.16928773396114,0.308330151347719,-0.933983592978229,-0.274264649267275,0.214003099015084,0.0756312871939773,0.0619608568663387,-1.13150009014941,-0.752866047261822,0.213459636235825,0.159662843043463,-0.103244836787581,0.396119823356091,-0.0184967848555872
25.85,-0.541302036986415,0.225745164377656,0.791592396622523,0.115539979735825,0.00906200064340663,0.0677073944291562,-0.974281317278726,0.0771266807668069,0.0570699807881435,-0.0817573452088093,0.181544301537473,0.30458676815033,-0.932731528285105,-0.288019428436721,0.225481848887643,0.0612570121884346,0.065565812996681,-1.07201073369136,-0.76867249767418,0.233721915464923,0.150028658597287,-0.149416649958067,0.360969960009933,0.0453789037098471
25.855,-0.557760261137116,0.235405808649007,0.822097336400437,0.0385674116589097,0.00695794446304662,0.0546474540960621,-0.977061666527858,0.0729958756921622,0.0562544224116124,-0.0217306722175198,0.192778186905589,0.30280377398495,-0.92758792314326,-0.288344526332562,0.239091241514224,0.0709392729060672,0.068422720726881,-0.986022075583366,-0.772202321666001,0.25602612046494,0.135041090950454,-0.212037955112678,0.311920366782326,0.113306947668321
25.86,-0.498499328485102,0.213383327432955,0.743897722388931,0.113683486327473,-0.00883120852620276,0.0520135953935806,-0.981176461525209,0.0781315029433454,0.0525193392871643,0.0692402158923707,0.206610226224392,0.296109867214303,-0.930250987829223,-0.28134901711618,0.244365515358838,0.101944533951567,0.0592863363350831,-0.91219873782963,-0.774461176210133,0.275780468162416,0.133251434230982,-0.297347839452423,0.272766022933087,0.190311183657071
25.865,-0.560426686910153,0.196402418782287,0.842405005129019,0.0989089694765918,-0.00182689202572714,0.0401093652865392,-0.989308695656243,0.078640448721842,0.0649598491060967,0.149214031604818,0.208783413386939,0.280849193285107,-0.931450537579146,-0.259148356486263,0.244907577298217,0.221550050576558,0.056839979553076,-0.85883223014011,-0.771294333575457,0.298369814738562,0.132893361534608,-0.402397600033388,0.253908853453232,0.302090279753469
25.87,-0.541759407414933,0.202837182832797,0.802496859560137,0.0901982605386344,-0.00403163445139908,0.034368076249773,-0.988668822859065,0.0854462115883333,0.0558689024412044,0.211571691881944,0.212335103159187,0.266972723050347,-0.938024884399957,-0.246159031935306,0.249436186230379,0.359391694953466,0.0492170974612236,-0.827213286109468,-0.769805956041539,0.310054570526374,0.145861015221698,-0.483562011135978,0.279273405555069,0.397574084564047
25.875,-0.539213146349709,0.217787262020519,0.810149697580404,0.0702228396746039,0.00121841700066154,0.0193679631696317,-0.996894366549984,0.117435325891485,0.0644815530244343,0.252454708173164,0.211876107747155,0.253683132106444,-0.945586155163881,-0.228376643075804,0.24616146127196,0.471232184012462,0.050979219967622,-0.827052753247218,-0.779123666876665,0.31096434693883,0.167805572159973,-0.558409746895155,0.332006477816146,0.509144934096683
25.88,-0.559091006858477,0.195460466231549,0.81993105669699,0.0564965978930096,0.00456548293722177,0.00806381930893157,-0.995733263506268,0.144888031533556,0.0628395170291571,0.263176784024517,0.212853640317917,0.24361272184288,-0.951279854796648,-0.215068228275432,0.234800438416684,0.575567640611968,0.0765068580314124,-0.872532837199668,-0.79205361826737,0.304298654258893,0.185404321896835,-0.589056110814935,0.373954060665747,0.581235019643894
25.885,-0.544444969267283,0.23063467053905,0.818180066088722,0.0374894403043795,0.0213619069268348,0.0162760642429235,-1.00518739170291,0.171290537259881,0.0770940767979552,0.245099632249412,0.20391871710356,0.238745437688822,-0.967466672202222,-0.209327396844019,0.227846133036719,0.586075949253052,0.0969294231362583,-0.880456191200324,-0.818064460438996,0.275060952103146,0.213528504467455,-0.609095867773826,0.440494581120004,0.684709510222356
25.89,-0.570856316561049,0.19442867347667,0.819204124718566,0.0383034342491882,0.0313113953858306,0.0172391722745859,-1.00780357675141,0.182734410609602,0.0754538508358637,0.186434313220672,0.190863132476807,0.22719699752311,-0.983315588072663,-0.21777325140502,0.222938372178204,0.55929338486054,0.128969077703158,-0.877746061164139,-0.839437290707363,0.247811505201601,0.232385209554879,-0.620039491278597,0.476657419615516,0.760165989796141
25.895,-0.561033295849395,0.185888187242556,0.807354688080239,0.0495822098257818,0.0396914991587802,0.0180979837776436,-1.00201843835635,0.166375905718318,0.0736435708153615,0.129985963449928,0.187296677452197,0.21560033425067,-0.996004226226402,-0.233260644603353,0.215503786980126,0.517569262336617,0.159091571323582,-0.856554129993382,-0.875889424077882,0.225139939982045,0.26162354015159,-0.645299764486476,0.506172932563423,0.824432614312911
25.9,-0.558877401393244,0.194317411874491,0.814450071604403,0.0236325243078895,0.0606761652841103,0.00930852042701677,-0.9892377685413,0.142943339282675,0.0765564966552816,0.0818811943772423,0.194371668751987,0.194969744918224,-1.0139769746626,-0.253814498663673,0.211829925045321,0.446660420791097,0.209240620231988,-0.81278898269772,-0.911990547795049,0.213451341523837,0.268782710252511,-0.7263359509802,0.506590156965991,0.84956946184973
25.905,-0.545451906947576,0.188457043566033,0.810351433462686,0.0292887874984174,0.0668749418575231,0.0214842756290147,-0.995060708724735,0.128858265561949,0.0798802729443884,0.0129217464827517,0.200705207763096,0.179403910682531,-1.00816690138233,-0.262693042194867,0.211896841639772,0.391841354920135,0.249739522443332,-0.769586951703392,-0.973624981695623,0.170212392510403,0.29103116081431,-0.707382172420727,0.49431591322745,0.862117069965149
25.91,-0.552952413694699,0.178974980618923,0.819340024261581,0.0113680746225848,0.0778768509626389,0.0183510538369473,-0.993647583034678,0.119025805848852,0.0786723573292629,-0.038381687050418,0.214023464727149,0.154629565431202,-0.998894725532189,-0.25809049664735,0.205691453871405,0.363364248490671,0.304029499409896,-0.697639087212688,-1.03925369643572,0.137675258029409,0.30713291851904,-0.593021610160793,0.50882568772239,0.863347020371855
25.915,-0.542995166298106,0.18357080392785,0.813174417333832,0.0278354364934101,0.0860424860063175,0.0245161181178446,-0.989675652205603,0.127214313399995,0.0721025439759353,-0.0618024039770638,0.227752218461283,0.132753669507077,-1.0004136519823,-0.254201591312562,0.192225238534512,0.366904701968058,0.368820909810881,-0.598042336260134,-1.08913836659052,0.127780741280556,0.313483195673886,-0.575596388280553,0.469164974603515,0.814647076041999
25.92,-0.557655420658795,0.172675025195428,0.818701194509836,0.00271576517738717,0.0913608204985977,0.0251781672544937,-0.985706482120877,0.125918978888746,0.0680299409644156,-0.0592823401723985,0.240878323905951,0.114119165661392,-1.00767960976957,-0.248467664530097,0.170182336428905,0.390566054530292,0.425591459554024,-0.504467017452852,-1.12533568129586,0.116584658187828,0.321451262909989,-0.611415014023008,0.443201805466316,0.712329005517382
25.925,-0.546138235755571,0.195840759093532,0.817069383377272,0.0045484391845206,0.106315218979207,0.0343508697383943,-0.983702050071534,0.117681253849222,0.0615609741857059,-0.0436469925621682,0.251588223050594,0.0979053296869049,-1.00692382902075,-0.236059251774174,0.144245355781781,0.427653965031105,0.502452522286903,-0.37355857552995,-1.15277367416982,0.0902214006196476,0.338976247222555,-0.666028284299229,0.485143156496027,0.639562189740863
25.93,-0.54490244159965,0.1848611406023,0.808482811574486,0.0140994529655515,0.0950033468045193,0.0226787562978414,-0.987612033653276,0.109319949139806,0.0544680936565747,-0.0223037150552034,0.257297525537049,0.0891648360883003,-1.0036067237822,-0.223503872212296,0.126401583951681,0.454907756863604,0.57210110745465,-0.299125682540432,-1.15697388827197,0.0770145711230801,0.338311564007833,-0.657833086721469,0.553742228592801,0.595452190102061
25.935,-0.551587337696526,0.179652308077111,0.814823918239111,0.0122797638894067,0.0973967850955211,0.0221042718364853,-0.987015026933619,0.0986590337631668,0.0514107567869697,0.00702309543889484,0.262282284532551,0.0784428063119263,-1.00866508122076,-0.218638483314676,0.110672606249791,0.4992637618209,0.672707741625974,-0.248524766794515,-1.16754689202015,0.0568874838773897,0.345466421676453,-0.63460046462406,0.609892861492877,0.56766750753133
25.94,-0.550077518261658,0.188793220508552,0.807149056713284,0.0220816218156821,0.0997213422689361,0.0214506339525426,-0.986660869419315,0.0877433641183696,0.0469549959919795,0.0388946949435122,0.265493950004272,0.0674552646236682,-1.00499692131126,-0.217347921130684,0.100036817964317,0.533914651276828,0.770793453740415,-0.239883809714395,-1.16617732942331,0.0470938318215334,0.346283547666003,-0.61695284749636,0.630630886451857,0.540223501896296
25.945,-0.545596648441931,0.187782545077059,0.806522769312972,0.0171230289496889,0.0931313414216154,0.0208856739014274,-0.991240287872155,0.0891658599670223,0.0471265221873616,0.0819617759179341,0.27243809823688,0.0545039078746694,-1.00454581755276,-0.228072128999641,0.0889105051069372,0.488473029387143,0.853226233999847,-0.23779473937574,-1.17090239556083,0.0191877056831462,0.336857969365867,-0.583219857412725,0.601800039609078,0.524740358622122
25.95,-0.549936397859072,0.192681737606792,0.807532844581678,0.0179934824867803,0.0882682398276666,0.0196542840766051,-0.991258235316837,0.0817721499296343,0.0432006624639022,0.131025807504809,0.269022614087025,0.038998575265795,-0.992807645360149,-0.243400831543259,0.0629269331633263,0.365072497097552,0.889241370546481,-0.243782824253362,-1.17792518157921,0.00156474376717663,0.328568335609828,-0.554159522123272,0.517744201688513,0.501508732123395
25.955,-0.542845119058887,0.198417271412015,0.80706294421363,0.0152404256757634,0.0787736702978699,0.0101597117443676,-0.990816136557987,0.0762843826216343,0.0486971985686405,0.180067210244744,0.274796865162609,0.0324658749339079,-0.983546194796726,-0.261061014096843,0.0352347386326119,0.172026942687872,0.852060160088851,-0.239899158477783,-1.18481641083972,-0.0174475695768462,0.310894055841655,-0.536511849095054,0.407769478795097,0.477444085992235
25.96,-0.542736580988276,0.183721356814993,0.811437982827796,0.00279764784057738,0.0766111932637802,0.00559780932962894,-0.98911748654109,0.0832154863961333,0.0520873204755212,0.231348384353657,0.282462875879619,0.0333651258920721,-0.955703981450637,-0.266098915176999,0.0178960241023256,-0.0755121530459127,0.722853575793497,-0.235133050442989,-1.18365288937505,-0.0322674939818424,0.298965274710676,-0.519480243424789,0.293993619635302,0.450365125217984
25.965,-0.539503267031172,0.197945743223161,0.816755069368534,0.00941450533301879,0.070801236478051,0.00622319114927021,-0.98620524935181,0.102786793938227,0.0460980582610353,0.284914775332559,0.280343999483443,0.0211536474525928,-0.938637603392582,-0.264811283554892,0.0122656768412393,-0.360632706755977,0.462019714963643,-0.231846200865768,-1.16141357371393,-0.0422875253175842,0.268692164460602,-0.504173858484062,0.179947662926694,0.392766226356408
25.97,-0.545273981729014,0.203142453213917,0.810872016529861,0.000841825040189893,0.06259602607226,0.00374276887572414,-0.983008315137545,0.12510312939089,0.0478168594015021,0.292574901744708,0.278891584545405,0.0223421182661864,-0.939118072112205,-0.25437723528005,0.0175623781676752,-0.533699812473071,0.234544333479448,-0.232732488832346,-1.13379953196926,-0.0494842265175831,0.243520134272251,-0.478650583844552,0.116476332884205,0.348891099402944
25.975,-0.541797340440507,0.207162526663512,0.803383032011743,0.00149046307506013,0.0543570977711363,-0.00142723983032314,-0.980807152285648,0.140503253843919,0.0466460208085593,0.273099841397854,0.281789563315225,0.0190905187935068,-0.924400517048264,-0.251896441375353,0.0311680701110729,-0.696559310214396,-0.0135962794158798,-0.256056983872875,-1.09415326668698,-0.0571417746689816,0.2187667076223,-0.449100924307964,0.0850915576123834,0.293834961548091
25.98,-0.551533309035596,0.198421706232381,0.805280067659217,-0.0119072093934025,0.035164283857673,-0.00295071395199692,-0.980832124171804,0.154935650388658,0.0370974953311916,0.239475377256828,0.287292208349088,0.0127148432887275,-0.920935869633666,-0.243623410545111,0.0483272307831191,-0.793869063290915,-0.187567174683871,-0.30282352058499,-1.06003297650693,-0.0628421737853097,0.208744267220497,-0.426914556390326,0.0694137951712811,0.249462215811532
25.985,-0.548346257924309,0.206103790525397,0.805627445876562,-0.0168488089993044,0.0332764369163779,-0.00663055377746069,-0.990707295489134,0.155681810267333,0.0251841489971353,0.182593019426113,0.295462304985377,0.00992511172617321,-0.902980907469631,-0.22384630002686,0.0760221274569191,-0.787426433309657,-0.245337937181782,-0.399669738734462,-1.04160071094253,-0.0619676518176289,0.196118325128417,-0.384687340369003,0.0503379845089936,0.185056394774179
25.99,-0.545737552629592,0.188375321635762,0.805652405310781,-0.0235553731612909,0.0228898848954518,-0.014561490765403,-0.990898274952798,0.135672870987142,0.0263025767824087,0.123510681501462,0.283190828168892,0.00942188585695393,-0.927665928220078,-0.164713709926313,0.149492382084518,-0.431972214886278,-0.0374275053218269,-0.603036109073272,-1.0304947617127,-0.0599559924607772,0.204708221981618,-0.353246986924259,-0.0172619597635815,0.138025694485978
25.995,-0.553655457030105,0.178854425487568,0.809191380409418,-0.0201714256499148,0.0115401288817707,-0.0179454373474979,-0.987971150722891,0.113197306053692,0.0228276675398635,0.0610581242767933,0.27549797683298,0.00108669880998183,-0.9196929465009,-0.263396864191313,0.0656084215752891,-0.0284602968880403,0.0309240106802991,-0.733459933493025,-0.890423651192263,-0.0623680827129137,0.200468029358594,-0.339295697903344,-0.0843680472490604,0.119378426920487
26,-0.544347638106998,0.176933428465661,0.809319014420049,-0.0156322140925759,0.0143267126385365,-0.00789038113950584,-0.989670390178494,0.0994938070830386,0.0203142827469506,0.0326254683683386,0.287175388722927,-0.0201273692751708,-0.938761118501119,-0.334491191727914,0.109888848674616,-0.335532882050855,-0.126383002346254,-0.637076330825606,-0.822923076009952,-0.0862471096417201,0.181251768407909,-0.348408281901165,-0.0288837409781334,0.00368134864112293
26.005,-0.546008880052349,0.182058377896791,0.810055686544952,-0.0171773000087373,0.0214016919667181,-0.00752600304963622,-0.986094114070749,0.0860139774211038,0.0257686189886871,0.042676158472309,0.287525575175561,-0.0328889039470841,-0.922595270607226,-0.300986216057234,0.103751661385658,-0.491193417061813,-0.334400725024163,-0.524243826156008,-0.851343818331512,-0.0702265570500993,0.16206337099675,-0.329335283928927,0.198494936926983,-0.154287890917144
26.01,-0.545828498504227,0.189710631476628,0.80414104534325,-0.00922604287089198,0.00826207454793098,-0.0102842207998037,-0.984583974002408,0.079770857689504,0.0269579090448484,0.08040449195735,0.297501748829262,-0.0338226035237312,-0.876209498531796,-0.273325597393066,0.102610653590663,-0.578432361038231,-0.41882261222472,-0.591176833304443,-0.852145803079635,-0.064809035608489,0.196461350988026,-0.375436951696372,0.497788438574819,-0.293748986106355
26.015,-0.539809357624075,0.194168169893851,0.805650742617129,-0.00587875161550794,0.00299919847066432,-0.0128864477661409,-0.98301271466001,0.0734575907508275,0.036674442336858,0.135767054837341,0.305499019826923,-0.0296046973611071,-0.919034971255974,-0.253795618173904,0.142562863213249,-0.435340115902114,-0.367517934875801,-0.763840274427374,-0.868922466869562,-0.0160031860634658,0.266941476761155,-0.276835397113514,0.528938285207263,-0.319632666376513
26.02,-0.532500955824724,0.188736576883531,0.803957020312329,-0.0185130837890758,0.00335348397493362,-0.00929874100957525,-0.981237478863522,0.0659873974858251,0.0500148537062157,0.182883421948537,0.307003234129347,-0.025428997656376,-0.97218249869719,-0.250183913555214,0.118119427073645,-0.230708142605035,-0.158957837584764,-0.723681898367593,-0.877384487147677,0.0161096217785985,0.309798749112785,-0.257316287794254,0.39416881735542,-0.273683915860084
26.025,-0.535222043612865,0.194722078195702,0.817663089493962,-0.0218090795215518,-0.00153329409658909,-0.00931725509063915,-0.978750088468242,0.0819012750011113,0.0577125201052767,0.20304711199069,0.298502171617329,-0.0167188812047243,-0.967842623707591,-0.238423931336926,0.111400392806677,-0.235178349678565,0.00305892399225425,-0.651757304228478,-0.889454118383966,-0.00110802711674213,0.309573416701331,-0.282230720325634,0.312111083884496,-0.340264993436567
26.03,-0.541618739899747,0.190911223302058,0.811679970275198,-0.0215791453749563,-0.0029000133686578,-0.0140943276553725,-0.971683319223906,0.101651367708548,0.0557942133217741,0.219057143250418,0.301139765825432,-0.0180153853872978,-0.982253668621375,-0.277032779213347,0.118061259340506,-0.26930273985291,0.0404531034730899,-0.605471184798069,-0.861393591978701,0.0180706503504427,0.300289720292434,-0.206572769620092,-0.133031800239898,-0.371472811490842
26.035,-0.543521797941396,0.192163179599015,0.809775847193586,-0.00810494418327084,-0.0102485887319485,-0.0176143869757652,-0.969298639402261,0.122473889838955,0.0464715464767317,0.217273675380086,0.298307194042361,-0.0223516870740494,-0.974568714926528,-0.313620773812293,0.110008313911686,-0.362267119559323,0.017566015428883,-0.538053355143464,-0.800811052850034,0.0446819883380118,0.296613379159023,-0.148292624109414,-0.190053196420242,-0.373218161339968
26.04,-0.544468061776835,0.193098201644587,0.805971409680618,-0.0175214346974529,-0.0125285442918539,-0.0233685290667497,-0.967569895921778,0.122939165277764,0.047147438796442,0.208486804512314,0.291691087184297,-0.021979800732407,-0.957672371881324,-0.314314459826823,0.11484604563839,-0.441599677539534,-0.0123302769661618,-0.493848264969811,-0.7793489431836,0.0612385545110587,0.29639246614008,-0.0950944984263998,-0.135092172178901,-0.360481820339671
26.045,-0.549809800066462,0.188312128819782,0.805507468822612,-0.0385590933783709,-0.00623360925364881,-0.0280090828559173,-0.965359563096599,0.12692478716692,0.0439500046789818,0.195039357575597,0.288765473158666,-0.0275473380653564,-0.935874485177489,-0.304743027261291,0.116617933226738,-0.437997666225425,-0.00980376368154205,-0.459889991907846,-0.78128392932076,0.0820354043941159,0.296500054571291,-0.0254978214526362,-0.0147795634456817,-0.30597360594275
26.05,-0.551007267414117,0.185255620050748,0.804459308453958,-0.0187930386499196,-0.0127700746102245,-0.0325162522523347,-0.97740845454559,0.134198833189236,0.0259253848534529,0.184545544841315,0.281646508407727,-0.0363537350891356,-0.906833237088495,-0.309020868804406,0.11376952890626,-0.347592934472401,0.00253259259128914,-0.411716699109831,-0.778660796521239,0.0950463611023227,0.305030849076617,0.0238802404953784,0.098317144773785,-0.239651264724694
26.055,-0.552631702731471,0.187837134378988,0.809630883643359,-0.0157390117815958,-0.0211587994823938,-0.037038185430385,-0.985626181779905,0.134357379980608,0.0185347317438112,0.165210090654523,0.276267805409763,-0.0471992056111898,-0.903876040822796,-0.298246014809464,0.1242889171917,-0.267302011776399,0.0204089918248826,-0.379394484849982,-0.778009252505348,0.107832168794775,0.307885580330096,0.0682151603029281,0.166034893047357,-0.191106348148722
26.06,-0.548424012519608,0.192302295575189,0.798351013066186,-0.0153981849873251,-0.0187204020028196,-0.0444082829126258,-0.981950075286744,0.128797361429158,0.0174951017504263,0.138558533172326,0.265089927702084,-0.0499431681360693,-0.905431898686009,-0.283091898477098,0.1367143527506,-0.188835704969079,0.0511895629041014,-0.363478666155961,-0.78057009213341,0.118358135517057,0.300706825314284,0.100860780465191,0.22549768519867,-0.129712769582862
26.065,-0.552467486937248,0.191642314270716,0.80259606151305,-0.0207580972544351,-0.0222381951510606,-0.0461606985344187,-0.992070566127587,0.123040187317956,0.00874152286923939,0.128901064395905,0.258923810441721,-0.0571676301371295,-0.922727974762374,-0.275924258658607,0.14734279038853,-0.117088477920954,0.0956594826689023,-0.3608359526107,-0.793277272807277,0.129395244000197,0.301012683478597,0.112602434610125,0.285629052025129,-0.0620680468046905
26.07,-0.557181117837117,0.196556441721062,0.799087262599399,-0.0232958445182867,-0.0231738167554877,-0.0553119278319877,-0.984828889040488,0.1194850165542,0.00864700158972077,0.134487495103881,0.24950447678566,-0.0639586332020161,-0.939723761807107,-0.277044563287386,0.14585105831371,-0.0748634914355398,0.130439994773397,-0.337043645664637,-0.802151517647296,0.128113800867656,0.296932297328632,0.125341449835914,0.346272736827727,0.00482441160811129
26.075,-0.558486932466573,0.197426306345565,0.795526429415249,-0.0205024760216475,-0.0293122182229332,-0.059217385477511,-0.9849279046999,0.10982053331649,0.0182263723150154,0.148455397625216,0.248688806861021,-0.0659890861382434,-0.957392518037761,-0.276384205144002,0.150999464306706,-0.0219357807329705,0.158770148525816,-0.322236000595627,-0.821150157065637,0.129843401215973,0.301211839419647,0.141095740531988,0.386764003203077,0.0611394293624128
26.08,-0.552236402837379,0.190690964377405,0.804714484215776,-0.0250880878397145,-0.0262683524555109,-0.0592272911870515,-0.990024602716708,0.0942573569960504,0.0214074600650097,0.152017833392253,0.24828277528286,-0.0632387017065205,-0.973906729022728,-0.273450234074853,0.154484901034389,0.0628685825157547,0.184251964582139,-0.331551332622066,-0.841037383522022,0.129662821480381,0.293904526620546,0.143661466787263,0.406095489046292,0.0907685352311923
26.085,-0.547109984458027,0.186083328203952,0.806885331178865,-0.0419984803113998,-0.0231033426820643,-0.0501796886673917,-0.985983670834732,0.0977942102862658,0.0277876779186635,0.15746634413273,0.253416675989486,-0.0646260849425877,-0.989357026898411,-0.268380231174486,0.154180076527821,0.156841263459387,0.202881478641155,-0.347261392681022,-0.875217926179733,0.132016280860385,0.30235501335306,0.138289328190702,0.393362757744404,0.123649251889665
26.09,-0.550773784836838,0.18539290549283,0.806159847139687,-0.0319638855596701,-0.0236363974948386,-0.0539758443515141,-0.98278918897461,0.118045425907748,0.0339391673401503,0.146507941234064,0.254391252994537,-0.0758938980403388,-1.00132692557997,-0.263437000709921,0.153709782981414,0.244397209738164,0.233015758183515,-0.368251956260701,-0.895689603741242,0.132812842374188,0.299726725853023,0.124119520816281,0.372809721768077,0.14105047687289
26.095,-0.550462058326803,0.189647262717217,0.807923023404503,-0.0281770732684891,-0.0192098056326623,-0.0561358241935258,-0.98296834894729,0.146649997391437,0.038751453080531,0.135221289618569,0.258518962696559,-0.0904408303723853,-1.01201256291969,-0.258758783674353,0.155790625568151,0.295012399410658,0.264940790052964,-0.383002097388523,-0.914553180422389,0.122808442680419,0.299864902246559,0.122428485101649,0.331474248139685,0.146648416762793
26.1,-0.55122776802191,0.203412048048172,0.810739981024506,-0.0252550240053271,-0.0218994101713702,-0.059971003441076,-0.988000598602028,0.173595663486132,0.0469419066811048,0.104536461501011,0.267180439929697,-0.10566300250709,-1.01890762485887,-0.259504529956086,0.152249816398687,0.286128132024119,0.301495178458902,-0.398413083909855,-0.935749794214846,0.10199259421845,0.305641560930389,0.130198407583638,0.253116044926577,0.132954065760361
26.105,-0.540267980793532,0.203155051225678,0.807143174043256,-0.0370220622434201,-0.0189029601023518,-0.0537345092040248,-0.992304057029711,0.186764325238349,0.0527281638555172,0.0581654256255342,0.275160074234009,-0.125189868822471,-1.03760787460631,-0.249445768906508,0.144197447235139,0.243877163892761,0.306434673806496,-0.40800707846133,-0.952491313683109,0.0867257701245539,0.298835012221177,0.156894881371669,0.172524474750768,0.110033197947603
26.11,-0.546572641648041,0.196002178566818,0.803262166496894,-0.0400495864450932,-0.0250930196567037,-0.06500249779301,-0.987640019363934,0.171519301924738,0.0493245864102566,0.0273648296362715,0.279322777570201,-0.137693756225768,-1.03573607464365,-0.230805530961448,0.145003580874405,0.223348972600575,0.288876602887981,-0.402074080014104,-0.974566479214846,0.0673702924894657,0.281960502758606,0.212556167304863,0.0765542176530271,0.0706557175316145
26.115,-0.548234537735377,0.19130115123117,0.809355847333275,-0.0362772810005171,-0.0257871800544293,-0.0726978649652975,-0.987155088816558,0.143086503633446,0.0413967298686879,0.0174657041492545,0.283012538024923,-0.145929301380726,-1.04068508960863,-0.207913750567148,0.133112006044059,0.236012504373146,0.250178731222836,-0.390595293757668,-1.00201160265345,0.0515966456500678,0.271314255236448,0.274982029940551,0.0109441448348895,0.0389686309716844
26.12,-0.548681095197569,0.182750852511248,0.811637245791692,-0.028515350310732,-0.0369552546393251,-0.080459792346146,-0.995131795612253,0.114185160144569,0.0338677931857092,0.0507622391860354,0.281107295510804,-0.162609061744209,-1.03751450662689,-0.195646042053592,0.118587479231456,0.288101108428778,0.206448652751277,-0.371001932114725,-1.02165467277736,0.0333063186000628,0.259762807455949,0.32133956299336,-0.0169827576831823,0.0163772225032532
26.125,-0.545218004747136,0.186452879039189,0.805509662205841,-0.0465170889374891,-0.0210730578242614,-0.0790434438582317,-1.00320432479151,0.0983673474062331,0.0323478591875991,0.0884003978330158,0.301129108455963,-0.172312107367571,-1.03484871815952,-0.194790923767582,0.0909786173091147,0.317810172767869,0.162146429888377,-0.362068593502045,-1.05073450713469,0.00868096676391732,0.250128183411167,0.380589397065063,-0.00754611788703373,0.00253201658369748
26.13,-0.546576744506761,0.194698501573815,0.805210214120563,-0.0266109481453896,-0.0357407405972481,-0.0893389543480847,-1.00310221381726,0.0848257837715737,0.0380621645858942,0.139218253701311,0.304061958183333,-0.169797596083278,-1.03601369531517,-0.193799348377555,0.0606658072328417,0.288595709286891,0.119927233341574,-0.360946845691736,-1.05913750994607,-0.00949569448125803,0.240403118867057,0.439229150704211,0.0233226440797741,0.0048619091442476
26.135,-0.542173144003609,0.196564248858561,0.813166631518474,-0.0258432807505323,-0.0426497518326325,-0.0924513947009655,-0.999929136055877,0.0870349313395161,0.0351114725197531,0.204799362869168,0.304951575103418,-0.177791713008099,-1.02754798393672,-0.188856506672017,0.0391497921101072,0.197231864691351,0.0913336624512008,-0.353311899301975,-1.06548088092721,-0.0270316552031759,0.231485657825574,0.520955564883068,0.0844343475964127,0.007178166389525
26.14,-0.548634411520224,0.197431233757076,0.802620682282666,-0.0263640645292429,-0.0418619423374393,-0.0953090688878354,-0.994872353946295,0.101321017522351,0.0283651545820054,0.260025202783801,0.309265142810963,-0.187816212064848,-1.01733398881061,-0.18531551830826,0.031146891577712,0.0895894979541953,0.0532199193259582,-0.327198189204023,-1.07368492595485,-0.0441687075867049,0.231189726083006,0.602349677908213,0.13741396396517,0.0144295180478237
26.145,-0.564641525273163,0.210662892055527,0.802093977186466,-0.0305169975480856,-0.0413588545341627,-0.100199256004824,-0.999148466980785,0.121782015878195,0.0262419854410824,0.296825837229421,0.326724007721869,-0.194095047692618,-1.00011877250467,-0.177488627768437,0.0158191697121053,-0.0157618006916313,0.00685482463616663,-0.295695514396124,-1.0766383131026,-0.0585268075596335,0.227511291785427,0.710654653796636,0.164087132838519,0.0118041869478796
26.15,-0.556445694590405,0.223927905412467,0.803317002004954,-0.0413095726797336,-0.0451134507280831,-0.103953852198744,-1.00157127777459,0.111376415695318,0.0368814859895919,0.307074307928282,0.348096436354716,-0.192825542469468,-0.996352436178607,-0.18146317284726,0.0130226760981263,-0.0925009176738302,-0.0337750398270128,-0.266332127195504,-1.07387931555718,-0.0555112811384272,0.226298843464512,0.800895256825806,0.173822549377179,0.011728492604831
26.155,-0.538534672500488,0.203129587732211,0.808507566579848,-0.044700232304953,-0.0521742276294407,-0.110108256914829,-1.00576076091811,0.0997079862430129,0.0591025716023307,0.298493707334957,0.367122911541797,-0.180646012082333,-0.987351303957082,-0.198928765078624,0.0112443674950666,-0.234960226885042,-0.0974278957593644,-0.233327634453361,-1.06181444293633,-0.0399863274301276,0.226218559014672,0.902764238793105,0.152271119589869,0.00855962053238798
26.16,-0.541715053891602,0.190931666324968,0.829033503137849,-0.0511538430709637,-0.0540661588311195,-0.110602258562691,-0.988605463019743,0.0908428728960604,0.0739504384032778,0.283595056286791,0.382213636717449,-0.182259441422343,-0.975093416908863,-0.233764695133859,0.0128795013909215,-0.372269680232345,-0.131633025732562,-0.214575766699672,-1.05536863741125,-0.0123206767995681,0.222199917343316,0.986821676623511,0.121178847968184,0.000766088154691443
26.165,-0.531164990578132,0.207473341969743,0.813933813421501,-0.0558203473958502,-0.0436272582545231,-0.11146232789221,-0.969251341384949,0.102993938082238,0.0872477037878391,0.264183890903293,0.383947608262221,-0.189624593787266,-0.969770280037779,-0.254116485110865,0.0180585208120465,-0.536708710665244,-0.159661270571279,-0.205850414485358,-1.03244832638008,0.0355525533893437,0.224440044495241,1.05442640087721,0.0567772976018652,-0.0280145235600112
26.17,-0.535902393540832,0.206233541460941,0.821353916221019,-0.059753733302647,-0.0495156366059091,-0.108905224161455,-0.94821443863726,0.123719535755626,0.106775383792913,0.187883959706773,0.401294100369975,-0.212187381794305,-0.975674864962311,-0.246219153864892,0.0430810405117923,-0.644948499830892,-0.179587994483929,-0.206460138535329,-1.02537532527111,0.065569069953232,0.228153010432233,1.07793859769536,-0.0024728723143488,-0.0516368970982579
26.175,-0.529726609562874,0.208166084840105,0.829960941946726,-0.0678056941968823,-0.0406888867451808,-0.10503141936272,-0.95337106367689,0.139010688498955,0.0976892843562665,0.0903423137953706,0.413115445101526,-0.227989644391693,-0.976344721589826,-0.226152150778643,0.0580856683947651,-0.694721740346325,-0.191088776255938,-0.205647607725598,-1.0148564972846,0.0996087790450922,0.231682848406361,1.07527278070472,-0.0897603060878238,-0.085285919444003
26.18,-0.532937989705881,0.192009927058058,0.819192954130726,-0.080584857115704,-0.03221884872618,-0.106966668967121,-0.968173895132228,0.151447858464405,0.0781548467311975,0.0134219518803858,0.423137544003183,-0.242609984056063,-0.964992814450404,-0.21686599036766,0.0641445544123054,-0.674654210260361,-0.194146538074567,-0.204218382111447,-1.0072122382116,0.12356153101221,0.239754231469151,1.04542099900307,-0.163798510877742,-0.113314864052636
26.185,-0.534434363315609,0.194960858742155,0.81301509100512,-0.081832553560936,-0.0234471055767084,-0.110463172197342,-0.981133472354535,0.1342768516565,0.052731715111577,-0.0453807822532719,0.43354172545703,-0.249297627762745,-0.97024327713445,-0.216394223695734,0.0470829557336773,-0.642457352537636,-0.193530254674793,-0.168769145074048,-1.01469554106957,0.139234818322649,0.247921987950767,1.00015136592542,-0.228730433003393,-0.137143543672372
26.19,-0.533881588891235,0.206711879760342,0.835132028535021,-0.0905671486243724,-0.0324964921439468,-0.116309530051631,-0.986525513837822,0.107934549655601,0.0428356798846178,-0.0968039972090041,0.452610195344647,-0.258430951070995,-0.993139953398277,-0.195478772130141,0.0889797432890237,-0.514866152448505,-0.0755918772111626,-0.18746588613497,-1.02560601370789,0.141236873698305,0.246074938307577,0.903121656201486,-0.309499929340076,-0.144137426045072
26.195,-0.530152748503699,0.198106843874266,0.82355777095447,-0.0921442481503409,-0.0242845055407637,-0.11781612115393,-0.987418857334364,0.110155140143286,0.0318733982103668,-0.126084668165368,0.460381705904241,-0.263564939334281,-0.96323643250896,-0.238247380919275,0.0719979891448982,-0.386216878984759,0.0220061313604819,-0.250759882319001,-1.01097556978976,0.139733193286695,0.244807287883973,0.785641317200311,-0.348146498329505,-0.142603955923669
26.2,-0.5297761991181,0.202449803973584,0.820371935067187,-0.0868152128013833,-0.0289498004622434,-0.126741186917685,-0.988010087476613,0.109046295117387,-0.00177669366029752,-0.113677605926149,0.465008748206415,-0.270095688733377,-0.939703210153102,-0.313506049572947,0.0627216364260567,-0.509222219897614,-0.0506260531156222,-0.219854079835176,-1.01618373863259,0.122999781875318,0.236814407729337,0.650698280136085,-0.32593688765611,-0.165700103142055
26.205,-0.556252048205382,0.201530206123782,0.817302634165841,-0.104086191940508,-0.0262214336183533,-0.134028700402756,-0.992651237594441,0.087699460518822,-0.0269142622971199,-0.0817478336369877,0.460137392082739,-0.268137219052052,-0.909850234478109,-0.344785817344763,0.108330243975939,-0.600434283698701,-0.195290984429069,-0.0983323301787752,-1.045727996373,0.111379532003545,0.230518738588914,0.524643870974108,-0.217650942736993,-0.21327875300823
26.21,-0.541002092280267,0.199594427742964,0.795542152973868,-0.106396100223173,-0.0305639608716239,-0.146545662679632,-0.989063609945544,0.0704905228393732,-0.0490894136794829,-0.0510382918144966,0.45053706718825,-0.269576852455659,-0.893826440447629,-0.369373061548918,0.147860838681589,-0.540658728094251,-0.252264291251661,-0.0145530292156666,-1.09539776334674,0.113636063784157,0.244245888385025,0.417146607739723,-0.112674370486449,-0.231747688951862
26.215,-0.547185036166492,0.186392880838647,0.805651467160187,-0.108705883848535,-0.0389156779288583,-0.157363030877106,-0.985978729234257,0.0448272523376282,-0.0715025551009221,-0.000531475021770877,0.444075086844794,-0.259964154960794,-0.877519219298169,-0.431941861792924,0.163399519192479,-0.372427600485522,-0.208153075132184,0.000749701461002702,-1.14515407516276,0.113849112653098,0.266173616255158,0.307581171926939,-0.112168807412143,-0.220303829425558
26.22,-0.541212441988903,0.180773896138593,0.810719152579139,-0.111733077368097,-0.0373589188844394,-0.162797795468039,-0.982485901953147,0.0351961294460093,-0.0851410677110886,0.0318810594805005,0.430506338966182,-0.256390554550565,-0.857753739231487,-0.49606786348142,0.14768350308819,-0.226108259489476,-0.0670507362749133,-0.0344848111912483,-1.17816147059481,0.0958087477165291,0.276940098128043,0.20126094686405,-0.19575256665008,-0.203022934359019
26.225,-0.538849062431222,0.162654265427622,0.802977690304117,-0.108680191128415,-0.0402395113394664,-0.163067937107823,-0.985911471565746,0.0208758648092414,-0.0986620032843148,0.0525157878310218,0.413910506041361,-0.254814243544285,-0.861982301369323,-0.542067922514833,0.121309342038253,-0.166646700287433,0.0198195235448139,-0.00552606016163027,-1.17707418585795,0.0698825604396707,0.281010342623115,0.104336739505292,-0.318898899014247,-0.182973411803861
26.23,-0.544605573084332,0.153432179601615,0.806423808840987,-0.0959646008596838,-0.030056664610119,-0.156668953200086,-0.987822068812031,0.00867684379097801,-0.118580797136878,0.054307850687087,0.399170606798118,-0.24794203690978,-0.840463831346572,-0.554496131182143,0.108950908706458,-0.134760967587328,0.0387141298227431,0.0549304422162355,-1.15042849025602,0.0176274172713586,0.277270222796276,0.0393864177167416,-0.387838360193012,-0.178699882565619
26.235,-0.550396575166697,0.14825131213411,0.816828247829105,-0.0968380316530283,-0.0180058225339049,-0.144629919416629,-0.988535479796446,-0.00630650260195868,-0.140690463817723,0.0507126189768314,0.375521623159146,-0.247047434434471,-0.830976603206921,-0.546329208295522,0.0859235054190813,-0.0460650522618196,0.00860326076993783,0.0810600856057425,-1.13451389488971,-0.0231349026366756,0.269778799738144,0.060596000130328,-0.328563134080722,-0.192294345421493
26.24,-0.550684281794209,0.15976598218907,0.806401948262178,-0.0869897029616751,-0.0159873368861946,-0.133881656202408,-1.00387365312255,-0.011125267426698,-0.149315743025454,0.0518080822431254,0.361309825950328,-0.247366690497241,-0.836477259200981,-0.543146138924394,0.0631979010869037,0.0842372277496233,-0.0183392526986181,0.1264877936297,-1.13137525485788,-0.0482654405549621,0.275079882158932,0.126258673011456,-0.201273952870806,-0.197748178142465
26.245,-0.546271177775505,0.158544086641127,0.810251219765105,-0.0813603158900634,-0.0100327993782551,-0.120254184335398,-1.01543229175443,-0.00387545316518569,-0.141309329134649,0.0470481605308341,0.348463315756264,-0.241511458652712,-0.836808288188456,-0.534020675154223,0.0492326270247113,0.222841111707498,-0.00478009024848678,0.167540255866678,-1.12151141073459,-0.0615404447217071,0.28820438275518,0.253746568821953,-0.0886159346392007,-0.207561510627181
26.25,-0.545513970501775,0.153636768719411,0.816934389075391,-0.0688691776737209,-0.00370806840435087,-0.118294418405192,-1.02626347199947,-0.0017381365856824,-0.143257440948909,0.0426993887444924,0.314979486973525,-0.224593517912805,-0.831777732743407,-0.532102375469085,0.0306033202682148,0.320554979059734,0.0449910147414559,0.201630317754212,-1.09088417180434,-0.0414869062804782,0.295610390715338,0.373435339387525,-0.0633977125348249,-0.23939448640942
26.255,-0.538987451931238,0.146979583998616,0.815671666765924,-0.0700027397495496,0.00445533894790356,-0.109361317523816,-1.02684275957058,-0.000789516895028669,-0.143346338963273,0.0280251854961804,0.292649160348764,-0.216256855381529,-0.833075831560614,-0.531959813812166,0.0248106491052577,0.353741630940041,0.0708465685024597,0.20505875359258,-1.04183494668212,-0.0250469334183615,0.295806797739194,0.40289711912235,-0.0741027966141701,-0.28462981384089
26.26,-0.551167282930056,0.135375155177821,0.810471186491183,-0.0620801158288889,0.011865317087751,-0.0934695277242855,-1.02286580748436,-0.00463479748508726,-0.142331229180237,0.0110478456272441,0.263023722361537,-0.206537340548749,-0.826031047533941,-0.524316442095764,0.0237589238042409,0.367144077414559,0.0948050442865079,0.158824449076139,-0.976420641660338,-0.0178145663500216,0.296414518673932,0.405894786119461,-0.0710069633344961,-0.343628272202236
26.265,-0.541828443856835,0.156209747580908,0.804263677224931,-0.0554564796390276,0.0276685900986726,-0.083144609651497,-1.0124347461857,-0.00609364384107633,-0.134684029034827,-0.00848885751505073,0.239868395981444,-0.199868247332956,-0.822407440979856,-0.523847845611494,0.0121217370107756,0.313662190641634,0.10564057935512,0.0588113955431596,-0.920634788476557,-0.0128783869089034,0.285615445930682,0.404861548029534,-0.0676499064392305,-0.390736707861929
26.27,-0.5472193771196,0.152939271087835,0.814863667911108,-0.0506564424744898,0.0257888862745078,-0.0665386753480205,-0.9929797572029,0.00590259828256983,-0.125742732590185,-0.0299851409537749,0.213863133421404,-0.196600524235073,-0.811303720504465,-0.509783318662504,0.0104363202533847,0.240533413897832,0.0981304020069982,0.01011611340297,-0.89753536096801,-0.0170166440348835,0.282556518598258,0.38062366240383,-0.0654359604896548,-0.410317397185556
26.275,-0.541540743571682,0.156490622068173,0.819958542126258,-0.0542441878378049,0.0314906998116327,-0.0633019383177023,-0.990086134490424,0.0103941276804259,-0.116115993153531,-0.0394438526384037,0.203577932336267,-0.191421195864677,-0.808574340047499,-0.491619706719035,0.0215925794422546,0.191372284337366,0.115798762652029,-0.0853211474472977,-0.895176044083248,-0.0192862954487185,0.272241753337793,0.355255374706602,-0.090914792728552,-0.420475423336029
26.28,-0.540772177702672,0.157987901158784,0.818631863053941,-0.040862514795366,0.0312483634244494,-0.0567080357008026,-0.990287895820893,0.0137756334414328,-0.104635902061585,-0.0511711098578346,0.172092351231206,-0.183390134875265,-0.795855330288906,-0.485855945851012,0.0180015060823079,0.153704914050427,0.131139683086357,-0.142781181068357,-0.903998208603081,-0.0177077696082202,0.267280366673007,0.267172877218804,-0.142910975756787,-0.416622985921995
26.285,-0.535899627379889,0.159822578143009,0.820364186676594,-0.0376061983406544,0.0361806789223042,-0.0580420874908225,-0.987999058200518,0.0159307674608809,-0.106057798480366,-0.055005502353505,0.153927646776237,-0.176333892520829,-0.798729333395415,-0.467384497896666,0.0226198010931012,0.167585871820906,0.16622226703655,-0.18354174518568,-0.906837312368052,-0.0201134520451549,0.262101230523426,0.191934477418575,-0.193861219044378,-0.413343332065358
26.29,-0.538628199711626,0.168130167713105,0.814283127871276,-0.033357069532368,0.0319306943071935,-0.0521935639826079,-0.99536178570711,0.0236676136858154,-0.0986751160604928,-0.0414076025472333,0.137332694409088,-0.174126935288446,-0.800497763656163,-0.45153995603333,0.0237602541279329,0.165332038269931,0.188713844940719,-0.202257628299188,-0.89843942342608,-0.0184963676672242,0.25666534650053,0.115996276306164,-0.230334864724505,-0.416055713305159
26.295,-0.539708128725933,0.177978713452877,0.812555281286723,-0.0301602522018994,0.0285632435453625,-0.048058267375141,-0.994161903209099,0.0369671790785317,-0.0983625446134071,-0.0241237608572776,0.109938520603865,-0.174014577947753,-0.806767582559012,-0.450339138915857,0.0341482575092514,0.170466793513408,0.220267553049436,-0.227207662039537,-0.87458002651906,-0.00968369012195166,0.252922177693236,0.0594799493973325,-0.2481882057379,-0.411828847013772
26.3,-0.543355444982224,0.172343437692983,0.811053988565407,-0.0448722650795521,0.0375201405867131,-0.0517868709856966,-0.990562912219771,0.0533984612242759,-0.0973878767459499,0.000279236581940477,0.0921160427761701,-0.170690601465552,-0.818510703729548,-0.45969248123791,0.0390088680321761,0.13449278748071,0.241711365619736,-0.251493761738346,-0.847122405233826,0.0042692458237399,0.245513230805928,0.0153455651156115,-0.236320627482147,-0.40251699201351
26.305,-0.552018343218091,0.174137069960652,0.811477641728519,-0.0372244143103528,0.0234732725975186,-0.0510964753709875,-0.981110927830949,0.0537870036606642,-0.0897206075480319,0.0197738975376203,0.0809382225691429,-0.171532919324337,-0.839578704814555,-0.448408750925431,0.0577785178719963,0.0922181557783924,0.257822038252309,-0.27146745530372,-0.834048530884182,0.010646725305631,0.239852446299383,0.00874478541344412,-0.191868819471017,-0.388374664013652
26.31,-0.546717878678503,0.179237869983229,0.80822358075863,-0.0333041483719995,0.0209896968130222,-0.0617676918738862,-0.974953320659813,0.0663940914957543,-0.0874226708931151,0.0371330797631115,0.0696974679110772,-0.16770492921398,-0.846103516288446,-0.435745404210147,0.0710263021523911,0.0347586177381855,0.240615403329236,-0.297834565949279,-0.830884810407811,0.032147287997162,0.2356403325133,0.025286070733974,-0.114259936078532,-0.386968686428792
26.315,-0.545647548252399,0.17921128334696,0.813068026786282,-0.0338255732879124,0.00977562049071192,-0.0626189626539611,-0.970689903306331,0.0728068976171232,-0.0808238138148152,0.0527878133891465,0.0591042229941442,-0.165936320735987,-0.871925561401184,-0.41320761368076,0.0850267641167517,-0.0108619091122055,0.218150175275531,-0.287336676924357,-0.826623195474259,0.035781591960166,0.231733256664218,0.0808274121950525,-0.0378012121558944,-0.396206869108474
26.32,-0.547341053978178,0.179556277750003,0.816940253423415,-0.036384504288435,0.0072329042578156,-0.0666321828434652,-0.973219105466603,0.0665759960392692,-0.0777940875464117,0.0659904153733277,0.0564767345786095,-0.168974220395103,-0.894257006331074,-0.387809562385118,0.0933049949924004,-0.00726375208689961,0.189134217313709,-0.262749725605444,-0.827358475593065,0.0445299621443916,0.226429987997852,0.175568290472219,0.0521632134098885,-0.415868722798457
26.325,-0.547692783320206,0.183008783519808,0.804576249281894,-0.0417590944036975,-0.00133903728491885,-0.0752801034718484,-0.975669364855892,0.0648109349028095,-0.0625309957264985,0.0806848072556021,0.0479248762130737,-0.169300398319069,-0.909878933034602,-0.382069567547388,0.0825077317147866,-0.00413406357421651,0.165048699872991,-0.24103657589367,-0.841066741626001,0.0530351782467264,0.209624250808435,0.284111965270585,0.152176056902338,-0.431259069006665
26.33,-0.548796634762227,0.180126480934208,0.815269919287008,-0.0396547467499923,-0.00831842200193308,-0.0860292837023735,-0.979388095430343,0.0598529884560094,-0.0598647148978647,0.0882729397624507,0.0463264952294697,-0.167676211010004,-0.926943185197504,-0.38703607637688,0.0639407991294893,-0.00417302011402494,0.131295102944638,-0.212145750367776,-0.863195300779983,0.0712614954510903,0.201462801742643,0.334355690034392,0.259234883420001,-0.413026603807545
26.335,-0.542630910238972,0.179198130646299,0.815723631371275,-0.0406003449560166,-0.0154275829493677,-0.09692942593979,-0.974006537221421,0.0607392467880528,-0.052789260445771,0.0956152694175015,0.0503754315110538,-0.170045133547609,-0.936763665816694,-0.38499484897805,0.0509257554340645,-0.0124820842323768,0.108994711021262,-0.190423119576324,-0.884246405006916,0.0799539846012642,0.191443796187877,0.341647073611195,0.371327497725791,-0.359559619951477
26.34,-0.544064983206458,0.178268083503824,0.81439967515552,-0.0433083690131381,-0.0171704252653235,-0.0986525285313151,-0.985266294726548,0.0562045124576162,-0.049943040287216,0.101854394419067,0.0496637355001353,-0.171000163504689,-0.950626290542963,-0.384171644526956,0.0333445001198818,-0.00528806619703172,0.0895284613355906,-0.168173686329311,-0.893853806352592,0.0833477861397465,0.189681497310979,0.34454631630604,0.468888823016868,-0.30179376011742
26.345,-0.540036421842897,0.17909265116531,0.815256563111324,-0.0442064433060081,-0.0149719323962927,-0.0975163080454601,-0.986729383788511,0.0507668403268182,-0.0472238489334903,0.108039782299008,0.0515899583697319,-0.169430702924728,-0.958382273640932,-0.381884832463377,0.0102196362869051,0.00918662538200561,0.0683674693490177,-0.130871129895636,-0.899680122839634,0.039378225153818,0.186119292754032,0.330455365815631,0.546902580841677,-0.267558409915621
26.35,-0.535532400297589,0.170697104886601,0.818158406834213,-0.0395957425669658,-0.0186026848052095,-0.0988055773210142,-0.992338868815806,0.0403668845392712,-0.0405655724926375,0.11764009065432,0.056816358531337,-0.169430702924728,-0.97633213965234,-0.369220165793569,-0.0022592830502046,0.0331127714962415,0.0260640510202311,-0.125268718990569,-0.846326066647392,0.099150938409523,0.206900084345467,0.539808215406486,0.521449449986371,-0.223358416387948
26.355,-0.53622376843288,0.169531571473249,0.820947779570332,-0.0396057887821982,-0.0161886258847436,-0.104130302146281,-0.995379164698835,0.027382239588446,-0.0331086231853855,0.123840335137429,0.0670067712607512,-0.163378879187434,-0.98491395656337,-0.352924492307024,0.00120396138184535,0.0806516112648105,0.0257971628709376,-0.0968141732242661,-0.847792189225219,0.0918401894464198,0.220222574119991,0.410111116366398,0.446614718593597,-0.0153391544039818
26.36,-0.532943358118597,0.168022861941751,0.830022229411704,-0.0376330104612209,-0.0149317142154428,-0.103119601823742,-0.999090495566658,0.011337493350917,-0.0244781770478481,0.12881077672227,0.0722383808984733,-0.164423542539198,-0.987839778261932,-0.344367746637058,-0.00829203358967077,0.122702629541201,0.0280465746040309,-0.053135494650575,-0.887238686605411,0.0400735543451014,0.211850488699643,0.340715283169973,0.284258043196273,0.037879085934346
26.365,-0.527655477431422,0.164351368944194,0.826993975707511,-0.0335283791716882,-0.0044939690920313,-0.100260366621608,-1.00875666766824,0.0112376305843369,-0.0282828394776945,0.129481075966607,0.0820356553917211,-0.159367130410001,-0.984916319636453,-0.343879857891636,-0.00206194907109158,0.120187274299644,0.0254268708235679,-0.0137936666721227,-0.905710948098428,0.0295756151985131,0.207541893296213,0.344744459775178,0.172138763618732,0.0388817079365253
26.37,-0.529321413190005,0.148688334105847,0.82865591999714,-0.0274951817601607,0.00710827302155097,-0.0892372977090229,-1.00580378164253,0.011783592391083,-0.0338999303003835,0.13889617786445,0.0820527454668274,-0.157514887661715,-0.979378382104414,-0.342476939128334,-0.00682027982713232,0.0496368500797676,0.0057457361934389,0.0172298710758876,-0.92613419846118,0.00147251254125716,0.192633538112488,0.196003395433701,0.0667351778627558,0.0310058279237516
26.375,-0.528612445797121,0.153235156237223,0.828281495334268,-0.0187997145743884,0.00188174185891064,-0.0897038800346992,-0.999082000533177,0.00459801971051117,-0.0341955314850132,0.147606631028997,0.0895169058671017,-0.160172948677817,-0.973127897497152,-0.332833671410897,-0.00717129305200196,-0.0484525116369517,-0.0274682526804197,0.00404826394377586,-0.936600077719915,-0.0221932692558089,0.19654824059354,0.127190552216763,0.0210315133750385,-0.0156584769973619
26.38,-0.533776288226834,0.156768237751573,0.820675896850547,-0.00888214400602163,0.00832551359360723,-0.0892397889956176,-0.99740410584057,0.00420862924496617,-0.0371659754576409,0.159430187552003,0.0970317052240484,-0.156729046512868,-0.978238309874359,-0.316708491785985,-0.00817097921032003,-0.132818975153696,-0.0536005826299956,-0.0140397494539487,-0.97331582430775,-0.026924235140228,0.220643740097918,0.0566388106671846,-0.0448990355950987,-0.0501320349876969
26.385,-0.535130616685075,0.157104482161058,0.820578290211904,-0.00588524309388117,0.0134647895259427,-0.0802154540557037,-0.984754523348103,0.00860154667311027,-0.0345677017306325,0.174843016489961,0.0988547616791983,-0.156373342236411,-1.00000015737995,-0.28979109940526,-0.0106517574392563,-0.199608644867121,-0.0656221881508827,-0.000999527422486842,-1.00883289280826,-0.0358622506289754,0.238293525546647,-0.0315880120150472,-0.123553543268895,-0.0423228355772745
26.39,-0.535736108631623,0.162112279740318,0.820877174880091,-0.00217705755494535,0.0130597720394955,-0.0787663795128392,-0.982080034130469,0.0170894518686704,-0.0365001922768443,0.184910186049767,0.103417564390812,-0.151231169424171,-1.04173104346908,-0.268842334394314,-0.00799107486104854,-0.232969529262055,-0.0549243895025031,0.00622448472926382,-1.05450741572171,-0.059371396887851,0.247341834658759,-0.135703022431206,-0.225807203915847,-0.0131148823761703
26.395,-0.529890060576938,0.164192954271121,0.819142777229716,0.00142362595924168,0.0101694038824599,-0.0771558943694753,-0.983380013497617,0.0258393929547134,-0.0323564315131125,0.186993113231962,0.115084925828739,-0.147776400148977,-0.979332660181241,-0.243174233013155,-0.0305214032372373,-0.251069043001508,-0.0355075633317475,-0.0138241647248072,-1.06836542999101,-0.0789691241104163,0.253318884701778,-0.189667583910986,-0.289532069366524,-0.00349248556016133
26.4,-0.525346654689864,0.170553020036584,0.822973409857946,-0.0021354927958118,0.0215645991172271,-0.0653643892222901,-0.982995950157763,0.0274778164890246,-0.0264355535604231,0.1755412191247,0.119980881129997,-0.15103336264562,-0.93275742935101,-0.222659858979145,-0.0214281107921851,-0.230568765413739,0.0024206724065282,-0.0528203618708243,-1.06417421324801,-0.0986817585770346,0.258447924584075,-0.218586278652172,-0.30609641646308,-0.0200830974044465
26.405,-0.527676080849763,0.164736567891043,0.826243332006273,0.00389492276628064,0.0147180199885429,-0.0747742215160123,-0.983049604435031,0.0286249155254575,-0.0340996783830914,0.165080884307802,0.119440618990002,-0.14687596069779,-0.923427595837569,-0.255670172258812,-0.014418519627736,-0.262846611116855,-0.00183308261935929,-0.0542883025539905,-1.06899549707126,-0.109405278636906,0.249108914543198,-0.240620328806676,-0.240802128877623,-0.042325235363799
26.41,-0.535790903809028,0.157382298109574,0.821769637714432,0.00934405953753892,0.011152863424816,-0.0724773339651212,-0.981305426040131,0.0290871488278214,-0.0439261093670774,0.160010628932272,0.119263069963986,-0.146131211621543,-0.919397300077288,-0.268254018826431,-0.000313249948305106,-0.38603652359333,-0.0204450504788621,-0.0350545900559871,-1.05875094237633,-0.126245419576373,0.258378938767762,-0.220898335296858,-0.153705037950898,-0.0920330289242109
26.415,-0.534931987606376,0.163762462520287,0.816135574336044,0.0121617542936401,0.0161490793807724,-0.068732826348347,-0.981763736476531,0.0264003614537745,-0.0396374813528717,0.165086909473717,0.122110907191012,-0.147440195083618,-0.916260880109778,-0.265852827549989,0.00562021704974537,-0.467011495151805,-0.0130635174240931,-0.0241653162455951,-1.05846916553422,-0.129267442835181,0.262379889982803,-0.128549403414667,-0.0400975653452331,-0.162029326953751
26.42,-0.534327887525113,0.165969561426091,0.82645472694184,0.0124832764267921,0.0265079514907912,-0.0664821714162827,-0.987003155875642,0.0241920300881292,-0.0450402412063137,0.170376657177447,0.129654375300597,-0.14984223667539,-0.908424246918102,-0.259433750103317,0.0188633216576998,-0.484778603894143,0.0204071947174031,-0.0344071983421608,-1.06435410047878,-0.123429668462567,0.270387043928063,-0.0548851962616804,0.0592036605937856,-0.207021777886039
26.425,-0.529718072184039,0.161579657086447,0.821767320411402,0.00941612114357431,0.020431367851247,-0.0661573687293482,-0.983152208540519,0.0253944092284933,-0.0475589628624288,0.176176951585657,0.126964823661692,-0.149229560968609,-0.955559372772097,-0.258476662710706,0.0516405578654545,-0.463217081449115,0.0846714722622257,-0.0594364683387744,-1.07060859031358,-0.125549796236241,0.271213246575974,-0.0174975086524382,0.140254876867089,-0.248512977194994
26.43,-0.53545277271684,0.168847073214527,0.821873757105414,0.013052532369758,0.0187494398725956,-0.0665376268005979,-0.981760511984572,0.0230973989718449,-0.0501473065807276,0.181904933206048,0.133858562830935,-0.150522402361707,-0.959282284247104,-0.308044468018766,0.0401080367333315,-0.506990396526789,0.144258098425096,-0.0975203581429406,-1.08830803435733,-0.134172927688614,0.276855613390133,0.0424038114745926,0.210487767091619,-0.307453273620204
26.435,-0.537730228902058,0.176206408530555,0.816071452763734,0.0158291182996006,0.013127040117979,-0.0694534962063789,-0.986403233317493,0.0218846201227635,-0.0472717381619176,0.193980691777459,0.133889433673575,-0.151659918237098,-0.948081383074955,-0.368768523165203,0.0141258244928496,-0.704528929955219,0.0842854476332306,-0.0367930653490672,-1.06872270385442,-0.140685010454027,0.292761309822177,0.12268097180942,0.218645138349985,-0.355167092144755
26.44,-0.531586516572986,0.176715302676391,0.822533514423029,0.0149342738676842,0.013127040117979,-0.0665126050136054,-0.984195295941359,0.031346517975863,-0.0453360768012278,0.205727528534963,0.129818496000311,-0.148722018017652,-0.94712986250126,-0.345695210538684,0.0568657512135962,-0.775240934662069,0.0757315976707312,0.144639405286689,-1.03023597594603,-0.141461821551832,0.309978366599461,0.263724488907845,0.168161454812079,-0.399745687728325
26.445,-0.528862746227804,0.182623402030701,0.820806687763476,0.0143551039060815,0.00791519592248493,-0.0689255595207214,-0.983713703601126,0.0312195452343197,-0.044805914586789,0.209532901644707,0.14040660558642,-0.149313825543632,-0.93744978112819,-0.348402217976633,0.0783681222489117,-0.616574962289916,0.128560503984391,0.139691353293692,-1.01974888118547,-0.125767392371646,0.308340238951931,0.293200159149495,0.144355959745074,-0.40726136460719
26.45,-0.5293528616228,0.182438510418888,0.820135667392266,0.00346465522082106,0.011873325716491,-0.070710071508745,-0.989112522420453,0.0331334863301385,-0.0408556230209527,0.199064575170039,0.14205390329824,-0.148021771929333,-0.918526676656558,-0.377522482269924,0.123245985394236,-0.439406728100157,0.192449018994079,0.0120982041159244,-0.995899673650184,-0.113892131307943,0.297740212289261,0.274833071481206,0.168517797978066,-0.398440639428724
26.455,-0.521819630710022,0.186902019439276,0.826918775196209,-0.00759415054404767,0.0104184933653304,-0.0716877932186701,-0.989369071947529,0.0401167150632575,-0.0421498826074313,0.172435360441839,0.131887166959202,-0.139775398722586,-0.918902561600859,-0.386366410982542,0.146993615816112,-0.340537558534292,0.200047271583607,-0.0843785615672612,-0.963952661450965,-0.107889473397515,0.305936108140462,0.300813370023423,0.21958681401223,-0.383101494602211
26.46,-0.516388147299571,0.194847123914499,0.821588453478421,-0.0082908784367405,0.000947533672174644,-0.0738016386873088,-0.986830953654685,0.0634296674338517,-0.0563838961025054,0.135517325877188,0.126152385647407,-0.137647112401772,-0.921059968706299,-0.370228920356433,0.163033137124597,-0.308547936628352,0.172374459991999,-0.0344563600752572,-0.947696808991548,-0.0990410645709159,0.318246296851162,0.374196220245848,0.232470523388318,-0.372039611479684
26.465,-0.526852494429072,0.199657528044929,0.822862097041303,-0.0246822262214964,0.00515979463746341,-0.0744319263806404,-0.998068761453554,0.0645656275312055,-0.0712305856403541,0.0814385954492683,0.114646955633517,-0.134658982699577,-0.924793470910985,-0.379395685937764,0.174321215817182,-0.209365695943701,0.138696580646393,0.057602711979633,-0.939076051722202,-0.0800927294028246,0.313396029540146,0.41983698150386,0.166154576747317,-0.347634816066079
26.47,-0.542720925770835,0.185716646304954,0.813565077717003,-0.0425425761622828,0.00649451955222603,-0.0761813242655956,-1.00473003597569,0.0610497818333467,-0.100961873938151,0.0482475604313087,0.10374252593732,-0.129853709977661,-0.910454371700483,-0.393831451488946,0.165742322420902,-0.113426125431483,0.117736954798915,0.0691131785342245,-0.937986011939639,-0.0588148903534073,0.303750068776407,0.417926173029035,0.0653173599037933,-0.331680291420966
26.475,-0.549188504539784,0.178022781211304,0.817581422182956,-0.0418639285797971,-0.00331122956585614,-0.079920805990696,-1.00922897622418,0.0547463316449498,-0.123328404724764,0.00950695116861132,0.0926583636039258,-0.132027374403222,-0.893502215076599,-0.404410344325332,0.144784893241057,0.0119114164603677,0.0957048601181822,0.0151105911513724,-0.908458083775051,-0.0492240479833043,0.294921556421632,0.400286358240132,-0.00268760161252369,-0.310551359362612
26.48,-0.550684907482919,0.167210411201487,0.811799225407554,-0.043707394521045,-0.00519837625324726,-0.0835640621355606,-1.01921737494475,0.0416800538709387,-0.134524021031029,-0.0294148870564595,0.0942887453748554,-0.127993941676168,-0.882662481733848,-0.416636654771224,0.117957305426531,0.118176362264811,0.0895750687570874,-0.0346566418154171,-0.884830906516707,-0.0337779114162744,0.290945382074776,0.403117038801218,-0.0469092275373145,-0.282405898488755
26.485,-0.544085669235263,0.161991234651009,0.811161633978071,-0.0486448263841069,-0.00544957835432225,-0.0732231776275831,-1.01520516660472,0.0319842205828245,-0.139373640830438,-0.0593969433244424,0.0871199428387732,-0.131737541642027,-0.872388746803401,-0.447416872616768,0.0919101647211847,0.189596175757447,0.0767538969055056,-0.0189310496171754,-0.888686651287075,-0.013892050168493,0.29199704180795,0.398130905546021,-0.0565219366449169,-0.234365885985976
26.49,-0.542613604798161,0.159843856382317,0.820699820888305,-0.0461236601563634,-0.00474233238025709,-0.0725562414022627,-1.01380975009913,0.0205343862845014,-0.130279395939313,-0.0827148936272098,0.0833540186285973,-0.133548908689888,-0.861082264137839,-0.462514942222217,0.0653002651050354,0.195499925102378,0.0607464767018573,-0.0042456501851384,-0.889532590439546,-0.00516778843905971,0.285478162430703,0.374904706342719,-0.072571509047452,-0.190434887391077
26.495,-0.537402526802835,0.15952694043241,0.813768230899429,-0.0419589372243399,-0.00360725141250648,-0.0711019284773853,-0.999217072371616,-0.00334067097987422,-0.124217831056206,-0.0906711802318741,0.0771314894112507,-0.129447540185997,-0.851189509501018,-0.477048190686095,0.0505085284193493,0.1898775419125,0.061479173950933,-0.0072858559606917,-0.893064055639842,0.000938107970599108,0.274292873373185,0.361954815501416,-0.0753244981169701,-0.159155892914191
26.5,-0.538906895864812,0.161425610576785,0.819800299147983,-0.0279346504396706,-0.0100443528719274,-0.0653012806484459,-0.997843514280321,-0.0217396070800259,-0.120675123312627,-0.081422848739677,0.0652210621894836,-0.129114776849747,-0.843905390428365,-0.483661488568053,0.0296814344336468,0.189534932374954,0.0650529449677246,0.00393182164617884,-0.889459843443922,0.00716129566760773,0.270746015459651,0.348998929267516,-0.0729975099659669,-0.121451782286467
26.505,-0.536139327213367,0.155364992486624,0.825930418580674,-0.0333145327241798,0.000220565720536369,-0.0619244159204395,-0.989683734246351,-0.0299797983878387,-0.123472887082035,-0.0504800223875016,0.0417124039775085,-0.122440220288039,-0.843626493306386,-0.486173910382565,-0.00104552505018859,0.201219701632213,0.100153441147917,-0.00944316234617673,-0.893653854711151,0.00965783021897771,0.257836307170899,0.341052812694716,-0.0711338667059154,-0.0883314218975997
26.51,-0.541849438616651,0.153254218836329,0.81696016340618,-0.031053196522644,0.00652651811545216,-0.0609132619052612,-0.990487564396803,-0.0311066285977792,-0.128187321728098,-0.0198591604713475,0.0235425649822211,-0.115415988820448,-0.843424642155952,-0.48221070238631,-0.00481363524164835,0.196182365573831,0.127860699996638,-0.032767182008082,-0.903825176263401,0.0155803969354043,0.253290094199075,0.332986024208961,-0.0703067443820932,-0.0617996464002996
26.515,-0.541703514479842,0.151914695198189,0.818779001541148,-0.0239119489054342,0.00785181512708066,-0.0601180839407564,-0.990439943296594,-0.0270521899552627,-0.124040348662894,0.00901182629931407,0.0045304598215414,-0.106027542796541,-0.853436944211861,-0.45545903265498,0.00197362980871355,0.115156235814652,0.139791376325812,-0.0290789826252118,-0.909917053928864,0.0211359167614629,0.24658392510862,0.313306768564799,-0.0667263821946132,-0.0281033666822343
26.52,-0.535476860589836,0.146582719912438,0.823013711304141,-0.0229458641260862,0.0118992178554315,-0.0518402199560388,-0.992809701174144,-0.0208079594542923,-0.119961594586005,0.0237038160813722,-0.0081415425695489,-0.101065127143357,-0.857682573570747,-0.447646702269693,0.00513343105520168,0.027812117587522,0.149123685185703,-0.0356038226542304,-0.918031983210934,0.0194828544097249,0.236584966432653,0.294023648507444,-0.0573139372465976,0.000222015861419337
26.525,-0.542947256522407,0.144835867599368,0.820128649534374,-0.0171346203368673,0.016726561752717,-0.0445572306413401,-0.997685448937372,-0.0175270454296001,-0.12287520108056,0.0395288275225676,-0.0155089662245769,-0.0942493535961637,-0.873158634031253,-0.412245314417384,0.0093974280349467,-0.00200662296396268,0.167980150422956,-0.0458221874402875,-0.937688953714387,0.0161128093581959,0.235560472122945,0.267115440869879,-0.0458218589505026,0.0323313798475628
26.53,-0.543102095296446,0.147054706912574,0.82090147012243,-0.0139031311253024,0.0217474587957816,-0.0371614992618561,-1.00674327846807,-0.00798484782191032,-0.121709147592818,0.0481971365130972,-0.0181187173452504,-0.0972786316547267,-0.882739539338125,-0.401178312099549,0.0104946459090252,-0.0212474878087126,0.182381793856621,-0.056549857012348,-0.960167720498838,0.00497405328940252,0.238998952489037,0.236375208192227,-0.0355666146956773,0.0575917558166754
26.535,-0.543776101287277,0.159933089217479,0.823875400029883,-0.00769798110036,0.0219493782785771,-0.0389707423669445,-1.01111009233411,0.00699637472717921,-0.108970166812116,0.0530476995331871,-0.0230492918941074,-0.0976832244415376,-0.896838127318512,-0.382321256755791,0.00946581441661406,-0.0326256704804178,0.185859083133626,-0.0648212551213973,-0.970587025981873,-0.00351106017859899,0.238397384167809,0.211221434806955,-0.0241143445290846,0.0717664343314205
26.54,-0.545218063585995,0.162671693252552,0.821906398254807,-0.00584417565043387,0.0180219535660208,-0.0359459067397003,-1.00873610806778,0.0126429477540618,-0.0940228527784369,0.0567883779956882,-0.0314034870402026,-0.100966733821642,-0.906226159973622,-0.363737850586956,0.00603667963523368,-0.0482154266325647,0.187268570065498,-0.0747303610664587,-0.981890919786817,-0.0165243721967343,0.24392850316853,0.184634934532767,-0.000732033371524889,0.0882027800770943
26.545,-0.538084372568066,0.167679455926776,0.816568178886475,-0.00706383585929871,0.026900987132596,-0.0374285016667455,-0.996948038615069,0.0183393629978296,-0.084543622329632,0.056397084653479,-0.0304755705099286,-0.0999435827692569,-0.92006992903038,-0.347071024400696,0.00216390634686681,-0.0411769389538186,0.188109274548179,-0.0850855827680252,-0.987753820985402,-0.0303079569428447,0.254825096522329,0.163687380637633,0.02692500365776,0.0970681312939957
26.55,-0.533479116821055,0.167992660528107,0.821617866717111,-0.00527990085938487,0.0222411423632071,-0.041550846390659,-0.985377761798775,0.0152118482866157,-0.0640699263372721,0.0406642582710676,-0.0380518404311151,-0.0924639403820038,-0.927099211323626,-0.335527964271695,0.000693832103599061,-0.0173379083070073,0.185232789958173,-0.106816889223769,-0.987237623093662,-0.0463458801448803,0.268206034088036,0.154534155791596,0.0712667184464259,0.099966436624527
26.555,-0.534841874990388,0.157392738767173,0.824722202296567,-0.00701130607660739,0.0286379840658422,-0.0362583610621211,-0.985894440218247,0.00678493268268918,-0.0554874868139075,0.0300537964217178,-0.0457026927045968,-0.0942414943114512,-0.93874314178697,-0.329221025060454,-0.00530462263113434,0.000597194539293487,0.182340949327651,-0.129341890233424,-0.990679604063158,-0.0548729423124974,0.278027486383178,0.150560617446899,0.108394584951122,0.0950663476962867
26.56,-0.5276460277099,0.160533118481368,0.823383378347831,-0.00221699714664668,0.027803350175926,-0.033512392936398,-0.980952249263853,0.009682564566569,-0.0426855376162349,0.0275223796933077,-0.0461675599486864,-0.090108380498953,-0.954087022806393,-0.318802480738492,-0.0125685440037591,-0.00801433422893662,0.173995946621941,-0.14790682667226,-0.990885479288811,-0.0616665888956348,0.294082627353732,0.144796113298925,0.135065537100771,0.0788014647489359
26.565,-0.533002077931688,0.164347721483206,0.82571317952484,0.00123456239136773,0.0335731038957124,-0.0310761213686945,-0.982758044100123,0.000875288345392719,-0.0422338969808523,0.0429460100325187,-0.042268680118868,-0.0851337760686874,-0.963423716496389,-0.312097899501839,-0.02012737129354,-0.0265289083263114,0.165107427129936,-0.141731550588228,-0.991812476663415,-0.0643110524790191,0.303124410389571,0.128623593502677,0.153105643099661,0.0714429608489481
26.57,-0.52945067780914,0.167060929410174,0.822010533642901,-0.00527532142485607,0.035743065255086,-0.0291764576668717,-0.980132480136794,0.00641643340243208,-0.0342125575557525,0.0483252799260943,-0.0381765624096465,-0.0868822409006824,-0.965998549960973,-0.309212696537007,-0.0287489234778362,-0.0453468009567354,0.152176350419073,-0.123957323669813,-0.990991524802289,-0.0682746487106894,0.307862479003229,0.112806771522203,0.163464418582829,0.0525716772735488
26.575,-0.523764571700572,0.165785411781055,0.827230083884068,-0.00611064832855873,0.0369254732981455,-0.031053027138114,-0.982826222413514,0.00490547847701832,-0.0212348629558267,0.0550496271756582,-0.0361480704389063,-0.0870206163012538,-0.971845994497978,-0.31234592082707,-0.0336774360127639,-0.0633558332920074,0.143851836948751,-0.107505807107108,-0.988135288046279,-0.0674538920153063,0.306899863355716,0.0918609492866379,0.175297472890907,0.0319586351451701
26.58,-0.528021031526657,0.16582452334379,0.831109025804811,0.00624806928456332,0.0363507596465446,-0.0383140651333519,-0.97859647686359,0.00595436944035148,-0.0224452352173931,0.0592398610901724,-0.0291649714660617,-0.0803700997472353,-0.973977526860766,-0.310367725648929,-0.040888627144516,-0.0786219673987491,0.133845638418785,-0.0901992498779396,-0.991275213819312,-0.0669343874128028,0.312446914120517,0.0683734632541944,0.186866189658609,0.0127148845222035
26.585,-0.528922281250467,0.168074444688386,0.826605336431999,-0.00422370334650557,0.0377916367804232,-0.0356758902722374,-0.976950974811286,0.0101302437238548,-0.0289853555316352,0.0634073069091648,-0.022172419587054,-0.07959178505328,-0.971984968781886,-0.305619489755651,-0.0398133272890815,-0.098124281719251,0.121184873540011,-0.065436170765018,-0.992989135894496,-0.0684985360373192,0.304689677669737,0.0456991425166415,0.197688614642177,-0.0173686882993186
26.59,-0.52794393927493,0.168890149920968,0.830344100449947,-0.0102060934958224,0.0407283349937532,-0.0334461186661398,-0.977392846046397,0.0142083704218498,-0.0328274640115737,0.0713742986460342,-0.0103466441312922,-0.0814686939120293,-0.96611510638861,-0.308791820235943,-0.030418197401668,-0.132040730385219,0.114736362468878,-0.0394062497502501,-0.992169171782475,-0.0638061650173915,0.304341042117328,0.0158380436375816,0.203895951731077,-0.0498375664833945
26.595,-0.527687048018318,0.168597302437971,0.8136752774865,-0.00493771806391737,0.0405440815885596,-0.0332265360485319,-0.984818433212526,0.0114172386385622,-0.0368568577340872,0.0694713696400452,-0.00282661218963373,-0.0850314503009655,-0.959132151031694,-0.319900458512828,-0.0166319566777095,-0.166653417152177,0.108386413013809,-0.0238434265428212,-0.98754632995227,-0.0660455787650101,0.294959595738004,-0.0174037739649745,0.207472643130395,-0.0697988309102448
26.6,-0.548403705870531,0.17985515818259,0.827687722260352,0.00512115123079374,0.0461008064250736,-0.0322747230529785,-0.985406990917908,0.0137577487759874,-0.0618496214086589,0.0557682165166111,0.00626909118163868,-0.0815362209130922,-0.947519746240323,-0.328983876024491,-0.00016828640137738,-0.193670385996223,0.111415046376969,-0.00446464481482602,-0.98310099556193,-0.0649641098328333,0.28641849423087,-0.0443795843675707,0.208146556444861,-0.0924545314199635
26.605,-0.531982276370396,0.167865315723664,0.816648965267171,-0.00989117261699432,0.0317017941058765,-0.0338354933633817,-0.753055948148414,0.0210239743930878,-0.0521287418665801,0.0625011271535397,0.0134017625454809,-0.0580484572525818,-0.943292494461378,-0.33978248019449,0.0148403377815358,-0.197011611156769,0.11023893679349,0.00737421578608115,-0.981398571927562,-0.0720995681105076,0.278166322951999,-0.0548862147217173,0.181030462454171,-0.110570583995653
26.61,-0.541462252359382,0.170017473023016,0.822841266365763,-0.00690306869890958,0.0375073432715021,-0.0339732904922939,-0.454931029235785,0.0172208835550587,-0.0570929039407133,0.0534725701064385,0.0103751553760604,-0.00878347125342163,-0.930973952511546,-0.35055950216243,0.0322853064167815,-0.196335055235326,0.105285519795103,0.0127045762129546,-0.980227458866508,-0.0751124645283682,0.273243553348719,-0.0587988342716353,0.161361920301819,-0.119788693476931
