Header,foot_Accel_X,foot_Accel_Y,foot_Accel_Z,foot_Gyro_X,foot_Gyro_Y,foot_Gyro_Z,shank_Accel_X,shank_Accel_Y,shank_Accel_Z,shank_Gyro_X,shank_Gyro_Y,shank_Gyro_Z,thigh_Accel_X,thigh_Accel_Y,thigh_Accel_Z,thigh_Gyro_X,thigh_Gyro_Y,thigh_Gyro_Z,trunk_Accel_X,trunk_Accel_Y,trunk_Accel_Z,trunk_Gyro_X,trunk_Gyro_Y,trunk_Gyro_Z
54.085,-1.1951617332534,-0.785362406225561,0.921129328789522,2.37422357790919,-1.98074416219799,1.51068809312205,-1.45195794801651,-0.616544541583111,-0.689403688061354,0.628137731850419,-4.01350361702064,0.612816664360676,-1.09997364537359,0.518875212212017,-0.0387648974766156,-2.39641212234862,-0.982252981321099,-0.070194203550512,-0.91312571882362,-0.0824004744023728,0.486766130023319,0.771267664245269,0.0672282371205599,-0.0912968256297736
54.09,-1.22821006119225,-0.750246738784664,0.822429991801797,2.22378925524546,-1.82880325703259,1.54708838762015,-1.37444478730539,-0.572961841832845,-0.699022552320134,0.72551269704507,-3.91838208753063,0.488421433672803,-1.18067795566099,0.66315076181217,-0.0507690225193567,-3.15895601166097,-1.20901037616225,-0.0398094696277883,-0.944070437136831,-0.0975815893302454,0.495437377321147,0.694691406996238,0.0204786729338345,-0.0593990822108035
54.095,-1.29766028292854,-0.703497485204403,0.696494873423668,2.10559323027796,-1.60593475982187,1.61331095796842,-1.26119103647584,-0.488546482074548,-0.702533741300021,0.764748425925392,-3.77773909214664,0.373641725096296,-1.2336130266116,0.78364671197396,-0.05364677631383,-3.70532009135863,-1.44629658286979,-0.162141617943171,-0.982254371694164,-0.10903568888841,0.503668873545038,0.601860122448978,-0.0334231896114085,-0.0147702427248299
54.1,-1.36465321118629,-0.642615154344724,0.593263955371587,2.0859204371498,-1.42827617356069,1.67406620191757,-1.18808513313942,-0.418028814822983,-0.705359748813075,0.733845067327907,-3.65814094365439,0.315075126882403,-1.27502894068183,0.855980193924157,-0.0417106146935781,-4.02889076754487,-1.63507614020463,-0.296362170354911,-1.00596207131793,-0.118129736451572,0.49919342960437,0.549099291893329,-0.0764441420816128,0.00841149009182907
54.105,-1.46737433399338,-0.481582179598557,0.462047130216983,1.9520599286374,-1.20410309171378,1.7501160220837,-1.12644365853104,-0.313373861498892,-0.700381328208291,0.607766927450379,-3.48212991763677,0.252555992708885,-1.32601379024977,0.909147046119098,-0.0380242468209043,-4.29830277839304,-1.74756814606202,-0.321111304398308,-1.0176168573894,-0.115276290831805,0.495261273627027,0.527926244935633,-0.120197258535719,0.0259209410430389
54.11,-1.52500524843517,-0.310172389536157,0.364476414970346,1.65055692427701,-0.980903225467723,1.79136694463639,-1.07749512525777,-0.206211058132572,-0.692921964732255,0.411374848461554,-3.30043276011723,0.213528964691804,-1.36651244447554,0.932692172575804,-0.0319670680110355,-4.49805472968113,-1.78390635031551,-0.378709126235561,-1.02241016316316,-0.110555665264109,0.486737861682999,0.531921109473838,-0.142709528926599,0.0328371766618847
54.115,-1.5339125653243,-0.281170391593932,0.288884533826348,1.22405359388578,-0.810587965252049,1.80070255449981,-1.05942642316858,-0.129032917496704,-0.682621606742682,0.195991064442523,-3.13407447717863,0.201204842764503,-1.36935562650628,0.943752154874214,-0.0256425229334775,-4.69118942530777,-1.75215735865669,-0.544469101066422,-1.01909919628491,-0.109913909475483,0.484175653057304,0.559650010015095,-0.153428833144859,0.0361118640646227
54.12,-1.56506916895076,-0.375762902263921,0.272840732391163,0.690176653402865,-0.579133086650818,1.79822623226342,-1.04579625160835,-0.0696224711656399,-0.709583495142492,-0.137254891832186,-2.92985103729481,0.173661446748606,-1.35146842164838,0.943658880821914,-0.0259722116418156,-4.74067526006414,-1.6612145037685,-0.78560430752538,-1.00980774721501,-0.105385478192954,0.480536821745463,0.613338199574092,-0.154988863619874,0.0377039895097124
54.125,-1.58394926178272,-0.452351366444734,0.268376474782137,0.377884961586278,-0.45675427683441,1.78106194670388,-1.0078518995219,-0.056868059225206,-0.789313729297178,-0.428412930530934,-2.76885817699511,0.144739144466289,-1.31510082493581,0.924753849882674,-0.0565797791904718,-4.60366321090735,-1.51600394041546,-1.02060322105477,-1.0015575006905,-0.0945094829414963,0.476045488392541,0.686275110376857,-0.125566309220776,0.0385623684233955
54.13,-1.59933906127968,-0.617087397727063,0.176369187355333,0.158299462040192,-0.361308057188843,1.74397422481352,-0.934812041862697,-0.0844021491778914,-0.830733496468702,-0.717310007232023,-2.54655138289263,0.0716045275019959,-1.27436412593223,0.872125595790131,-0.116226760917361,-4.2999942854046,-1.34324803969456,-1.20449905615464,-0.993492633435869,-0.0895898785634549,0.472397095736175,0.747992487792055,-0.102691128699367,0.0389549411537285
54.135,-1.72615019395088,-0.863857280718576,0.0979352786828852,0.00937454514662579,-0.190672039970899,1.669433802783,-0.880420937365794,-0.17871113993786,-0.821588224441827,-0.846548007126343,-2.33557889569798,-6.69279266016457e-05,-1.22744655459175,0.84758729410248,-0.143959377162972,-3.91283419093603,-1.20214822848905,-1.24683227877817,-0.984094590139356,-0.0819327729691224,0.472773973124394,0.811515637746929,-0.0648069387685256,0.0420589255897649
54.14,-1.78994179256846,-1.07161942632327,-0.0108161031013492,0.025316837279046,-0.086475219719948,1.57899758358274,-0.827654929841903,-0.297946362826327,-0.790805922579183,-0.959335738205077,-1.99979513859149,-0.074578064049204,-1.16492350752549,0.832002449922179,-0.168560160822525,-3.33279571197631,-1.05768253154086,-1.21848731722947,-0.970252271311068,-0.0757766813643124,0.474958621992373,0.864101812958088,-0.0475212563137263,0.0354137796874174
54.145,-1.84862494265967,-1.18431969132767,-0.0408625003776621,0.0882298411296176,0.00860500939752981,1.42602670150723,-0.779916783075793,-0.334916996492156,-0.823755279166216,-0.923555983382494,-1.68617214002097,-0.100415889638621,-1.13310018976764,0.779493304439139,-0.200068970640917,-2.84259620220808,-0.927464356696483,-1.26178846940854,-0.957319165234078,-0.0652459617528996,0.475710562689418,0.904597177316361,-0.0438458722340943,0.0326932774018769
54.15,-1.88988331456431,-1.25590620590456,-0.108614555834235,0.0981276503277016,0.0454578994229744,1.21994881488303,-0.690262752601722,-0.308466770815445,-0.832289820450454,-0.76554696469812,-1.3060479435811,-0.143559186455108,-1.11814101815352,0.722736126536595,-0.2479424995139,-2.26749040594608,-0.754757815250562,-1.4023040933057,-0.946019084327185,-0.0531724467091644,0.481779647215149,0.935448320751142,-0.0435095367602641,0.0351657248372266
54.155,-1.8763792517275,-1.28221990205629,-0.201845867176471,0.000207130887632679,0.0651460993674153,0.99986661075108,-0.604199261414314,-0.271738825023147,-0.836264000413396,-0.60097190858457,-0.915613193510117,-0.195606766965303,-1.10912857419609,0.684845606744046,-0.296344279631969,-1.78375168208664,-0.610253088265004,-1.5262498945513,-0.925883052545332,-0.0383086002853114,0.490402274749513,0.966949855170713,-0.0403784432311925,0.0398758103634378
54.16,-1.80288197917506,-1.2934132194169,-0.271948043045094,-0.212178721130997,0.133195894730215,0.708854174678971,-0.627068435695793,-0.265545275809753,-0.821486336967415,-0.4918392201338,-0.538940822034102,-0.281989009610766,-1.18151477616385,0.64334882354418,-0.364054883261296,-1.0182741254167,-0.427450603327682,-1.57033907972154,-0.909427159067601,-0.0257524471693812,0.486926575919161,0.975201184458009,-0.0179238324650077,0.0474282965246244
54.165,-1.66264345630731,-1.29262569320314,-0.389432594300829,-0.358298041935283,0.242015681843966,0.377625550319936,-0.662015019237132,-0.211644175616913,-0.756986327419917,-0.404130231194903,-0.0790716409121537,-0.370816636552208,-1.21030977983831,0.640736163195804,-0.441492579317718,-0.138449040094743,-0.250221171815913,-1.30411477691572,-0.896819512539201,-0.0114469010685975,0.499470979313574,0.994655386442834,-0.013114203371844,0.0526017362462715
54.17,-1.58750657558383,-1.25827207822849,-0.403661519412675,-0.384990912035093,0.405786214635959,0.0723481426806215,-0.71499973384655,-0.176764121154543,-0.701614639325168,-0.36350595133476,0.253338030363488,-0.444225878036835,-1.22227918070669,0.654681380289263,-0.53791664793187,1.08540920619,-0.120043447036375,-0.846781221545683,-0.893686559576672,-0.0027889625251709,0.505715753747682,1.01312011007146,0.00904804619165437,0.0590666709645034
54.175,-1.52445099639139,-1.1841149194322,-0.328740688299644,-0.41754649005784,0.555068079748732,-0.189741928085818,-0.724604716120629,-0.190646345274285,-0.642877973358768,-0.277999228270133,0.599495271819553,-0.447673418887,-1.17267280504111,0.592899237011621,-0.610795397868799,2.60093532647722,0.116571706466403,-0.302546153644052,-0.892285313802992,0.0115801014395063,0.515988931879958,1.02862782086673,0.025280017286571,0.0698496288359484
54.18,-1.44520976794925,-1.03991356680067,-0.196011034328976,-0.444304462709121,0.684625474489559,-0.532280970931941,-0.741972162960906,-0.211962581236261,-0.624536958560461,-0.2045450103606,0.858092035669902,-0.450419261894532,-1.10238878847266,0.40940362195135,-0.695071872505268,3.68414953317361,0.260988876893063,9.77760204891242e-05,-0.885944128984358,0.027700777180266,0.525248898245149,1.04208152092704,0.0344172837550249,0.0766137545346333
54.185,-1.35656236811627,-0.923654916004602,-0.0845879360978772,-0.545783080700569,0.743808153883298,-0.860347809281089,-0.764863527718765,-0.205285008718968,-0.553264110994063,-0.097410401406558,1.09262674845762,-0.444333575574481,-1.12227087454035,0.343990496572754,-0.744314428240126,3.53403887944207,0.35612369337045,0.359812620158107,-0.900377133063663,0.0396765266888784,0.537905480657287,1.03666890793873,0.0576278165798263,0.0782282590563496
54.19,-1.19389075298176,-0.663597425181412,0.0987733467095396,-0.698805036167176,0.791563569805722,-1.25557315244971,-0.757373753356454,-0.196315357061647,-0.438356192246271,0.0600706899725299,1.28250652642094,-0.411377909678754,-1.12490831166334,0.407342978513618,-0.796714318216517,2.67267519961646,0.408057284000448,0.756862167025653,-0.909483645348186,0.053949569139499,0.545811615531852,1.01773906018868,0.0842526667303076,0.0809964707423034
54.195,-1.00219042460696,-0.394502082977327,0.359605625488976,-0.951644517544115,0.831127969856845,-1.60366095608853,-0.867011055207427,-0.255694562688679,-0.291885479337031,0.248215957465145,1.41261157381413,-0.395219472504919,-1.09470099959289,0.637852973712201,-0.715400266416919,1.08760014998208,0.40617825943099,1.04191348945039,-0.927256741125918,0.0639185714177352,0.552298833920952,0.957392713216408,0.10816566839932,0.0791976302862167
54.2,-0.680322819889393,-0.360254634728844,0.688530948183674,-1.37598149956594,0.850744203917593,-1.86538162661126,-0.999979897304351,-0.343705914755843,0.00483120693282672,0.233268212342257,1.47643533392452,-0.421224735332897,-1.10074392291349,0.803167062967021,-0.52208315487445,-0.225273098145504,0.389628571587729,1.00473230942233,-0.940643092295195,0.0789859231075145,0.548888348736467,0.902064199104901,0.135682217157393,0.0857306996107306
54.205,0.222314023887634,-0.631790662713026,1.37768764489625,-1.6230262203348,0.908363337937625,-2.27750431373635,-1.39560394041164,-0.19893013193145,0.711413685586495,0.435724914431117,1.20556673833844,-0.392062585124192,-1.0690921095065,0.786588254487273,-0.109925160821699,-1.50790199924746,0.397178353183042,0.573699310921841,-0.960951360474813,0.093657878165842,0.552097546319878,0.819923249348387,0.172458612884766,0.115242784336123
54.21,1.27875772772633,-0.516825171328921,1.96086644964185,-1.0177922174975,1.04632516436869,-2.93996745732067,-1.83098611585451,0.270141129305941,1.97473732863625,0.894325143183428,0.626162236362772,-0.379318751779836,-0.986629529874763,0.463557606942121,0.25599452860413,-2.45268102906615,0.402788663679304,-0.0281066392989183,-0.988662490726236,0.103133970020043,0.54566163600214,0.706535661373469,0.210703582252165,0.161022786424436
54.215,2.19091532155473,0.325973068025232,2.60241552002037,-0.108169558242479,1.36480204252322,-4.43321390108841,-2.2249448374343,0.471121069162204,2.41670621022426,1.21985074775168,0.0413075557544587,-0.28446276384516,-0.936275870597411,-0.0282537114806372,0.525442008250934,-3.27611035789592,0.342815834681712,-0.721224078240501,-1.01933293231219,0.103638382297617,0.543867342621857,0.605368419760261,0.223086080691222,0.207148254797974
54.22,1.42662099338634,0.919489187137941,2.64201382239331,-0.0656770468551426,1.47548443249386,-5.48208010716244,-2.30972139215924,0.0312262750887746,1.56660690932281,0.408756320691872,-0.0377639950477756,-0.242987762478441,-0.942763934486152,-0.676935315799552,0.655221813320619,-3.99682526219227,0.211907546407332,-1.71275439930698,-1.04554289244901,0.101344620591959,0.550392072974989,0.53045418735827,0.198630288849559,0.233269330522459
54.225,-1.00840784767128,0.0662013482812622,2.0554484613857,-1.16361746469157,1.11576601603873,-4.95363562485472,-1.73553986569257,-0.615618360834481,0.726834894366187,0.0248358462052098,0.12047008153851,-0.317513787899121,-1.03660036423977,-1.01493472120276,0.566424747618648,-3.82392296271035,0.144183197055538,-2.3057715096867,-1.09341778624427,0.100734846452035,0.580497140307151,0.454275479854121,0.0693024808338382,0.242986313090351
54.23,-1.88073884377047,-0.255578327080025,1.21625206745035,-0.874074918422284,0.883321098182297,-4.55674660412359,-1.12223517497704,-0.598562770381983,0.0712435118376296,0.162692251464488,0.285616358477678,-0.376395792564917,-1.12266616444517,-0.996415661775301,0.355019472270099,-3.08863955077097,0.0727387691312788,-2.18216260636001,-1.12900537467862,0.0962798325648942,0.602593060754682,0.392313347374028,-0.0800658310892001,0.235883650049994
54.235,-1.53561242707511,0.501655635381155,-0.233484605202225,-0.867603729418407,0.899096329166036,-4.09932957719343,-0.784222587223262,-0.329058715831072,-0.416684308631132,0.364858086409249,0.437012622568835,-0.49334975193855,-1.39703815964105,-0.72033131284994,0.144607626863818,-2.3684001781424,-0.103599882503114,-1.44393610518073,-1.16659393486093,0.0771385669466687,0.615043700083299,0.309339802407228,-0.284253643033127,0.205957783814117
54.24,-1.43328867848148,1.12169696127325,-0.742739265720687,-1.54178510556661,1.46240170395742,-3.78577255407924,-0.5662541149295,0.0362519158635625,-0.732707653339687,0.654119268829429,0.513433809733371,-0.67342248573796,-1.46876458821131,-0.429736204151898,0.154560623103366,-2.24024049595702,-0.354470266968436,-0.779199575634588,-1.1963514698989,0.0457268401831982,0.61388268963286,0.211360605257445,-0.496918786123705,0.163503258316001
54.245,-2.2716956447992,2.88642120216278,0.966904319954609,-3.62635691176658,1.59135256210499,-2.80838770426953,-0.776813671402436,0.420410331340896,-0.918055576467195,0.93687229997669,0.491027460288871,-0.868032498849614,-1.52640537013793,0.202791488226065,0.22474449857778,-1.75083927282826,-0.542747666414194,-0.222687860378399,-1.2418931410928,0.024595209679403,0.585852708661037,0.149749074932917,-0.627910403819477,0.157223764967319
54.25,-2.88524809427948,2.29229282090445,2.20106210483807,-7.41277095668566,0.265827814254508,-1.80805446429225,-0.963620929146223,0.797762524977934,-1.01274841658602,1.00915980728889,0.680628713634644,-0.77998055926873,-1.5707942287272,0.702725538574887,0.26015652033046,-0.724989969551109,-0.443940795670943,-0.454388199295313,-1.31562816290448,-0.00782533008571194,0.550653248393079,0.121749220778905,-0.685452379267306,0.158308605887875
54.255,-2.25018324580992,0.706052610344906,1.24618089372469,-6.66210939271797,-0.412736921012863,-0.991051119047414,-1.10863645138767,1.28033503504882,-0.72470974389065,0.564594960144559,1.01621327888002,-0.558533175437761,-1.65658370390337,0.889532983206378,0.324271885072463,0.166253568759669,-0.262434556319074,-0.816105139879236,-1.37838180432561,-0.0590332971875776,0.51680959435019,0.100283755819923,-0.69429426260398,0.168475012064205
54.26,-0.811931363677183,0.184038650683797,0.784248785393444,-5.11029904724263,-0.768603894776184,-0.554828651016997,-1.22187823433616,1.44151329029062,-0.274602750710188,-0.745136386189765,1.4432157578267,0.162002616144901,-1.83562177451387,0.78007914231084,0.503053356265908,0.467002186107637,-0.17442624807166,-0.928035614039075,-1.4129244163094,-0.119247120329359,0.482049387887538,0.102201536026963,-0.639739654220191,0.191805475739852
54.265,-0.859782050901297,-0.770852993263663,0.968155576597411,-4.9383088175668,-0.692027139927188,-0.567789424497043,-1.62209663299951,0.871467904508219,-0.158473308630721,-2.56959273744833,2.15729010661016,0.229755317709013,-1.86456747147208,0.529034167079791,0.657806762234311,0.416564985164792,-0.246843260863872,-0.890216488324733,-1.40221130837731,-0.176904667327298,0.472917241616734,0.141385513108357,-0.537990967613988,0.209832925315475
54.27,-0.99066576519103,-1.21334763826506,1.12339138897313,-3.81963194140222,-0.595112516066098,-0.518027153912533,-1.77540132580499,0.278709704330445,-0.206414101828225,-3.31410387269369,2.22796582811841,-0.0507536923613559,-1.76220716132895,0.180166175029946,0.784459938945977,0.364094136593584,-0.398571887662545,-0.889983744981046,-1.36012736610588,-0.240955710525078,0.467789018113868,0.18976609447595,-0.426058796084216,0.231154826504127
54.275,-0.738368520378534,-1.11224015228913,1.20216289921587,-2.38472033941159,-0.570262505807817,-0.435725430523736,-1.45961597378469,-0.223033125036151,-0.217841131013139,-3.66141543513406,1.79507180631593,-0.355922222128678,-1.55507576741191,-0.188457690772896,0.760250604849604,0.409072820605702,-0.557693823483361,-0.948769517717554,-1.32244431424173,-0.294837786460365,0.463347438872767,0.267088356810419,-0.342930448776773,0.239761234247585
54.28,-0.404167583513319,-0.624853986487204,1.05060376476173,-1.50288520392544,-0.416354082418539,-0.359966059144995,-1.24391987477712,-0.604979509809596,-0.167030207180393,-3.71275778703349,1.42141726007592,-0.553396050054187,-1.44799247222359,-0.356171854643016,0.693788083933929,0.511233815115108,-0.597564657203442,-0.993213129358062,-1.2962866407544,-0.33104932060776,0.443168756192766,0.344655481966915,-0.230132390656518,0.24158414179546
54.285,-0.472135585182996,-0.218698726977552,0.883911423108362,-1.28673487540578,-0.029832136761267,-0.286656657875642,-1.11178347754621,-0.629797822106555,-0.171909455572751,-3.57662205730685,1.21824391123224,-0.631091572145272,-1.27217096371809,-0.527144031908278,0.481446077503104,0.754271081400416,-0.539501485873853,-0.895971208483336,-1.32324965024653,-0.351263880599494,0.406241374077101,0.384230575781455,-0.116858347290487,0.211106503715973
54.29,-0.617692332941797,-0.050310932756225,0.88477881120563,-1.0864261794679,0.175229157181896,-0.21161403480348,-1.00487464738253,-0.397752743603153,-0.228799908098009,-3.07570872731819,1.07573983935341,-0.724769725537561,-1.16794692412101,-0.613032986339413,0.188820414922019,0.998827771843924,-0.456061726151575,-0.731550119683693,-1.36903482372011,-0.357071088408585,0.35731024294472,0.399388178698722,0.0022168118256135,0.160882056492994
54.295,-0.6551998197843,-0.0244528223099694,0.834803304069159,-0.95944111557171,0.206711800584116,-0.185265056102961,-0.935687113470688,-0.261710811438938,-0.238034775904726,-2.54637158258512,1.01195942884564,-0.767221580326799,-0.909325740300691,-0.691341859813568,-0.141898922550324,1.24946618095676,-0.34360809606658,-0.648668412634853,-1.42722687648306,-0.348014612426437,0.299809310366387,0.413675120294034,0.130563893020458,0.0856914304534958
54.3,-0.624649092761143,-0.0328980774663063,0.815202800592867,-0.898006580260005,0.137032821287431,-0.195888217298862,-0.880876036134143,-0.209289066250734,-0.259317158615364,-1.96287891434325,1.01284322353412,-0.495047282007958,-0.714368824257576,-0.730184875843344,-0.342052920729635,1.36204474108682,-0.176450539613677,-0.620524119741513,-1.46878474698945,-0.332368148352182,0.253205091358376,0.431980321081635,0.216180495642967,-0.0178179496551765
54.305,-0.653043192543725,-0.152907745755478,0.817602572075963,-0.80324918508934,0.0151031724669593,-0.166756959602066,-0.83666644168331,-0.245274800100116,-0.259250949819872,-1.45614346765383,1.09176323129623,-0.151594532821439,-0.566020368792956,-0.760344621749772,-0.55686577838982,1.19175582004686,0.120026802957449,-0.710422986644365,-1.45822138650293,-0.313978774277584,0.219605597418283,0.487179128749651,0.241094380617142,-0.20389352830058
54.31,-0.634920454736171,-0.195813226499427,0.800026041574605,-0.592302811305174,-0.129417103325824,-0.184490691411621,-0.855832338444053,-0.290069530121127,-0.205089746935392,-0.806159117047898,1.14230319210257,0.104701605125036,-0.405496795866378,-0.748055585474793,-0.759670062179173,0.793188606578807,0.512282425457743,-0.860254041566158,-1.40146857660816,-0.302062796196489,0.20064035074185,0.530231584414635,0.224711400082124,-0.431377769947349
54.315,-0.61867215764372,-0.122925287556023,0.825388699420219,-0.414763255453626,-0.184641100810576,-0.197409915650341,-0.908485065369405,-0.309148256255042,-0.174175945308567,-0.266733161828821,1.12255410955113,0.207313178919143,-0.352442066588968,-0.689471728054304,-0.973202502014178,0.371819499550296,0.872583037219909,-1.00719326051814,-1.28815952543218,-0.260900950727853,0.196850611470624,0.599925756701738,0.128357173924182,-0.68662210408628
54.32,-0.559113482048262,-0.0427721218028787,0.823357497447463,-0.27201847862248,-0.160524403578599,-0.174988527983575,-0.984284165287868,-0.307418776378758,-0.151063308181674,0.398793510563156,1.00323819794357,0.186356218114148,-0.374133647350249,-0.594292729441276,-0.994111044277174,-0.0833194063004792,1.21839571598855,-1.12011794130939,-1.1769922379382,-0.189587830258233,0.189192299393993,0.657765913016804,-0.00368741858951576,-0.860043505418009
54.325,-0.550726298398178,-0.0298360332369257,0.835868853177397,-0.207761943329972,-0.0498310577489667,-0.164615388425986,-1.06258763677394,-0.237413335939964,-0.130442567041822,0.938000844783386,0.829136108292413,0.0757036668103358,-0.419265005061346,-0.465065642368234,-0.891672708672082,-0.507565632966443,1.36388264465968,-1.10583593201932,-1.0607699106213,-0.110034084749146,0.181730544483633,0.702307570523361,-0.192299084026344,-0.968045171227962
54.33,-0.548790363769173,-0.0488534747273096,0.842954903743866,-0.16645012061766,0.0335629534498161,-0.15209553642205,-1.13257033073463,-0.133593057801374,-0.120996193925311,1.16670233946238,0.704450231307513,0.0454397744619157,-0.483688589630055,-0.2712915291012,-0.70948510444116,-0.814200597341199,1.26920946400733,-1.02610549971036,-0.945135769604576,-0.0192155735759678,0.160130625045573,0.763154906528006,-0.40101334342373,-1.0323174682383
54.335,-0.566613601536424,-0.0397236638298572,0.844831986265067,-0.102466542346715,0.145916727283199,-0.127985310231623,-1.16080109325843,-0.0127918614683287,-0.118237492522648,1.30655341135114,0.554213633757374,0.0524315702138786,-0.50446117238575,-0.146288233699019,-0.509059724635256,-1.02234549975202,0.9452407533603,-0.933617143280594,-0.851499349786618,0.0466298454542932,0.13992897560184,0.817112595308796,-0.544567166865897,-1.05704996200234
54.34,-0.582159304344277,0.00542742545352476,0.842240468925979,-0.0533104901141183,0.169875827085747,-0.103610929760775,-1.14231490128072,0.101086570332037,-0.125876852559503,1.33991743169901,0.468865866712899,0.0473518062735803,-0.505160022190333,-0.119382366621037,-0.185703336720297,-1.2489735496971,0.520092785673255,-0.911699407577704,-0.763659609118911,0.11152392814139,0.124243040956656,0.877037399254815,-0.614939149459258,-1.07149301557277
54.345,-0.592978290255756,0.0899803914271914,0.824198347694516,-0.0212886154893185,0.157775615980134,-0.0920049422262135,-1.08647055901309,0.215225293308621,-0.119320965204263,1.34795556857276,0.431217173866195,0.0184807042186345,-0.568833039389298,-0.238502556407739,0.059670789223325,-1.77586817841771,0.0122743184250457,-1.09552626126789,-0.664420248386187,0.165848247513968,0.10859836144509,0.939637354946427,-0.584557278912678,-1.06393503942641
54.35,-0.614155570172944,0.131010710524951,0.797387790487974,-0.00588052112300191,0.0817293503869229,-0.0835362139475176,-1.0600374243521,0.296472650667672,-0.124476525539198,1.27659368976402,0.433687669175972,-0.00943974827330586,-0.639604840116411,-0.425473579306763,0.205907574339416,-2.41906816877267,-0.313754877120094,-1.4092063238716,-0.603945382738371,0.204444549330307,0.115546771627683,1.03031478793041,-0.535469889666458,-1.06924939122216
54.355,-0.597279848708915,0.143642783919752,0.799516028823556,0.0260944436735615,-0.00453652039343942,-0.0772168782613271,-1.08314479035033,0.357980253328613,-0.115838878497369,1.13440176132928,0.44929566265386,-0.0292953013572756,-0.72730719622928,-0.621753018511873,0.329028254120747,-3.0872115923379,-0.526437664148692,-1.728382308095,-0.563065673130894,0.238703057574398,0.143084604862669,1.10999053016253,-0.462976720446415,-1.07913048838123
54.36,-0.585069850522517,0.163952980170306,0.810210169906353,0.0429895159689223,-0.0627384344446542,-0.0786750299789929,-1.04254196071786,0.410004738294669,-0.0896366412305344,1.01868214402881,0.410946169623312,-0.0423273431137189,-0.804447764078251,-0.75846129561678,0.448181618013621,-3.65408643600257,-0.672491859695079,-1.90691545977322,-0.532571636022739,0.261730761053003,0.167047657509871,1.17126699975304,-0.437316426075218,-1.09434149515194
54.365,-0.580534573067718,0.191728622609752,0.81741227547776,0.0300188313069529,-0.0730555896693969,-0.0784799432090789,-1.02126933906049,0.386867410025232,-0.0371037276215539,0.908726204036854,0.393012027261832,-0.0560432998005232,-0.94675218779318,-0.778379776648649,0.637295356274477,-3.982511917439,-0.845216561244764,-1.76305132788647,-0.525549454841949,0.292851726004119,0.192481028350728,1.20894753452603,-0.477311258880548,-1.1113657425725
54.37,-0.560594626540141,0.191853433239587,0.811728465080579,-0.0134677490063065,-0.0493850494063903,-0.0867705837017529,-1.00413076362938,0.35199255850148,-0.0327611352151493,0.685845635332203,0.370686289318554,-0.0888442469410339,-1.03236920891616,-0.713991021767313,0.754941753576241,-3.80182318544946,-0.953149224720213,-1.48403569804839,-0.521489815310272,0.326444119996555,0.213044891433117,1.23079248971947,-0.558559922385646,-1.12294983863831
54.375,-0.560507833547364,0.153798083297006,0.827474051461164,-0.0497645761865777,-0.0153248506691479,-0.0864708055847982,-0.991219391120566,0.336055982742694,-0.0224250633512647,0.409463319162417,0.338376206888016,-0.101598814018476,-1.12414913293527,-0.598477316027513,0.853866495632669,-3.15387528431618,-1.02395797887903,-1.08022679282385,-0.525653042740208,0.358840099247158,0.236448529216747,1.19006111406282,-0.615647182319874,-1.10863387088896
54.38,-0.543123989133901,0.129733745408274,0.826817259685987,-0.0611768867955419,-0.0240417146690957,-0.0893490855622377,-1.00636401944224,0.260178139122288,5.04003397346916e-05,0.230427440284277,0.290168450560959,-0.117278653242504,-1.19247978869167,-0.520069751114574,0.852333069015742,-2.53104260256684,-1.01134299046579,-0.854352733038632,-0.531142025700112,0.376448992181546,0.240580512669466,1.11213311250968,-0.617823991261489,-1.05787352757459
54.385,-0.551274613016408,0.11304977829133,0.829912254892445,-0.0379156955348212,-0.0418644165197892,-0.0819775957994997,-1.01127423225719,0.201800392696581,-0.0206255702247914,-0.00202867175814236,0.231172422287733,-0.141741169767265,-1.15166827292371,-0.472027970665406,0.846875787060933,-1.69773999391099,-0.800221347021317,-0.719627607534622,-0.542439111884373,0.38617307021712,0.250307375969859,0.941244520767904,-0.481408980321424,-0.917526092604609
54.39,-0.551914678789577,0.0880526822947558,0.827369280379265,-0.0147260611734219,-0.0610634915694633,-0.0724786590979322,-1.01588718045376,0.170507580333032,-0.0431892187226882,-0.144737979001874,0.189504052771413,-0.159509493534058,-1.10688582661896,-0.435186024621011,0.757803450210492,-1.15487128358165,-0.513539829458335,-0.732658286525266,-0.56949824643886,0.389159707608555,0.249727552721912,0.810925091329894,-0.270731229550034,-0.794395038576311
54.395,-0.553139426718762,0.0667928462317257,0.823508281206415,0.0254667350704419,-0.0676347326758736,-0.06146545760161,-1.02533748673763,0.151777773842123,-0.061263627321376,-0.227598679826042,0.130886267117393,-0.188394898008229,-1.02201839236497,-0.405924831285808,0.650662493550562,-0.62917540302742,-0.0955541731546426,-0.837821510978703,-0.608356474810676,0.370543336677678,0.252791412752188,0.687121447913357,0.0113556484913853,-0.664289236870922
54.4,-0.557409364151946,0.0634220372865618,0.815940821570042,0.0534530752017318,-0.0600438531259124,-0.0481305979891504,-1.04196637682301,0.13262205822429,-0.0621297124247672,-0.244735628466874,0.0711052041565556,-0.201205385285236,-0.982266694095066,-0.38785548714916,0.576464296979291,-0.275833318158645,0.245983586343076,-0.934391662920647,-0.65490470698208,0.330288722941558,0.266074603892919,0.590187508313803,0.386455019675606,-0.537257422465585
54.405,-0.551598601191355,0.0828041029260621,0.825041500853429,0.0942207076689094,-0.054791434963648,-0.041858123438028,-1.03254373440081,0.137885988247622,-0.0515268143228322,-0.20477096051788,0.0678110743111081,-0.20309462140912,-0.956635391313846,-0.35383757567593,0.475546003258265,-0.0789062679041687,0.433155379762221,-1.00708859079737,-0.706975805218443,0.285703534783707,0.289491157025354,0.586625926035848,0.608516952926697,-0.471572452283853
54.41,-0.548781748581225,0.0990318360847016,0.827558192231294,0.138040242536741,-0.0592861420269947,-0.0333020727168851,-1.01366748265946,0.133958400214928,-0.0351084291165953,-0.113776923740811,0.077523059341848,-0.209614119611631,-0.934924034296436,-0.291069404200532,0.35461935786019,0.0586448509261752,0.494888673616394,-1.0567449897186,-0.736872362823325,0.258875885469292,0.306282825860174,0.598740130517547,0.692264378361574,-0.391166684307782
54.415,-0.543075247016715,0.104983811762204,0.822226469580961,0.171258849753035,-0.0691972902826839,-0.0281388425485531,-0.996438571403661,0.109513931298976,-0.00841136647309611,0.0473077860387403,0.0930708494130642,-0.221906840438035,-0.964134232112997,-0.226121869727971,0.242710126268242,0.158839288830376,0.484100416751984,-1.13494505154676,-0.742831632098207,0.265294840363628,0.314167064163342,0.54545290149653,0.691225525554348,-0.258461830353938
54.42,-0.5354181576115,0.109321648246889,0.830042912695952,0.213099461215785,-0.0773752132371515,-0.0284320625409784,-0.987059471295631,0.0865906390360722,0.00916848093783682,0.203672713418627,0.10036993889227,-0.226806443771792,-1.00603691527036,-0.172842453692172,0.168131750166962,0.222912221148265,0.533031385483953,-1.14320493529283,-0.801385004646755,0.241198530459141,0.297119480859861,0.321557862809667,0.616781939078825,-0.135492451372551
54.425,-0.538900845564097,0.098921817380233,0.828268967247095,0.240994257863943,-0.0828873310215108,-0.0181830897118739,-0.997269763214352,0.0816750913481866,0.0121805980094187,0.381628663459449,0.111012154129776,-0.248551233139072,-1.05165290465571,-0.154616068569888,0.108582099480332,0.215035321594847,0.636496976605277,-1.09937814259764,-0.867329858019853,0.201271271632373,0.288622114725851,0.172241794856971,0.49572374483918,-0.0737853541333049
54.43,-0.536885092015744,0.100753193697622,0.826438656469146,0.278474720178363,-0.0810750322567087,-0.0216929347887855,-0.998613756139802,0.0966391492879863,0.0181351555625981,0.541811461870051,0.101926005123855,-0.267651971529222,-1.05295547400062,-0.17299459526519,0.06836106253512,0.125507624320638,0.772347555748223,-1.0580520663708,-0.970336669541602,0.147665586116339,0.269522021564085,0.135249046406346,0.359812594060062,-0.0746598541123112
54.435,-0.534674815606886,0.102586275519781,0.820633751973218,0.305947362921148,-0.0781527440736169,-0.0150422919856622,-0.992119587728722,0.128107528848773,0.0303907326522308,0.676493484383826,0.0987537941270678,-0.28430212877922,-1.00123647639447,-0.211565554781933,0.0522650558071646,-0.0756861028783258,0.805700750759359,-1.03171377539985,-1.09743583224964,0.103248043714079,0.250824819022647,0.193412867622795,0.229737757894252,-0.123300834500744
54.44,-0.535577955559893,0.114517514625382,0.826564338071865,0.323323847335346,-0.0711698830127716,-0.0166308891728431,-0.986564587301355,0.15087466356781,0.0244341599473686,0.822504783753444,0.0867545204194079,-0.309762191044613,-0.848497121901375,-0.260533399349839,0.0414184533319448,-0.508818265102732,0.650349711291699,-1.01334049084316,-1.15881183027062,0.0527313607473131,0.223797051729412,0.35255858056146,0.0911867970993992,-0.175999762739809
54.445,-0.538556412943153,0.121805780013645,0.827745785735129,0.333563324701627,-0.0733940532194846,-0.0327259543277712,-0.989995578398178,0.170890099886718,0.039644376115069,0.900619142637793,0.0793733405298621,-0.318910960722978,-0.825359753619476,-0.246690088419441,0.00978897125033648,-0.863526799313293,0.381520897356282,-1.02488546379845,-1.18907089185951,0.0445218649766574,0.181443153616469,0.18127283844455,0.00953557212493281,-0.261857606964059
54.45,-0.529615319086461,0.12923047238762,0.82843109616317,0.324847775040529,-0.0772783532738686,-0.0373181766107074,-0.98974397607884,0.161857185275734,0.0511536486717215,0.953585043333492,0.0745593526080934,-0.331640782894031,-0.830262467658109,-0.186052220442821,0.00319084930054628,-1.16172444771275,0.0638369170540814,-1.06163388731754,-1.24117651978543,-0.0357793182669552,0.189909879068191,0.568563814033811,0.0639157903897323,0.00688385714686762
54.455,-0.523854968331329,0.122934980918044,0.836587654068658,-0.00871982744837434,-0.0666196075285028,-0.0441551687599322,-0.982105691419096,0.163321067091951,0.0628538247305919,0.980349294723973,0.0851501337597297,-0.348372515232317,-0.880843531782568,-0.128711432664595,0.039991351175776,-1.33080261911425,-0.166124593267138,-1.07461278527076,-1.24008376477493,-0.023023684718695,0.181713180105929,0.742935802588743,0.129220575620916,0.19373305820485
54.46,-0.528546188071677,0.127660317077708,0.833539158712733,0.323162076341454,-0.0542638909995921,-0.0435259639793758,-0.988012467806389,0.197565182036311,0.0630852782698238,1.00156226496569,0.102033774411121,-0.359431155229344,-0.941024287451402,-0.115857956196699,0.0980868355627635,-1.36442695908713,-0.227333171126342,-1.07049493347056,-1.2152468605532,0.0269374577415514,0.17170702315055,0.353137315812938,0.287613411734098,0.254905199378067
54.465,-0.534553229826621,0.143971995221478,0.823674721474823,0.308859348704982,-0.0330699053848462,-0.0431562493741881,-0.996232628854081,0.21175744412154,0.059681967202583,0.978797118712744,0.109823178647344,-0.375080300502518,-0.896690818537839,-0.12229763161967,0.206843905992816,-1.39225780030228,-0.155928866489375,-1.02463765114112,-1.21239296214171,0.00166036402781195,0.194310368057627,-0.144938719430014,0.642310625332405,0.196291938898047
54.47,-0.535422230991905,0.148554767801181,0.825778106459847,0.295273460879198,-0.0133216183633176,-0.0412552051245603,-0.982575753887645,0.207449047619343,0.0590676171449054,0.939438303101611,0.100904422304368,-0.396064193018893,-0.966058855389205,-0.11666831305886,0.276083897901061,-1.35615793741155,-0.0479823423163357,-1.03823298003197,-1.25259858043891,-0.0499405256637493,0.236692114160897,-0.284920653097993,1.05199968197217,0.166420469631351
54.475,-0.536307075721946,0.161352899278834,0.8229083544932,0.282991013742875,0.00139445777860314,-0.0466459019824753,-0.965851054104793,0.206486787652058,0.0693585671540654,0.882067916005506,0.105042249197702,-0.415298760307839,-1.0264699779344,-0.106771256026293,0.300049784588055,-1.25574755427054,0.0648025713169725,-1.15676009936849,-1.29958146679253,-0.0898840712722677,0.270910500425643,-0.223590878151991,1.32876439993415,0.135957404317735
54.48,-0.528378464208289,0.166468973513614,0.827150026339637,0.258971777365109,0.0191049647552517,-0.0387469088667997,-0.960237949358271,0.201919962486426,0.0916869738753192,0.805603407123708,0.135653191537449,-0.42607637581627,-0.996609147788183,-0.0760847676650113,0.221482636746138,-1.09342077159788,0.157430513740223,-1.27609415777353,-1.33861775876544,-0.0818611381199578,0.311548444696601,0.0236038342765661,1.29133043704135,0.0901519281341281
54.485,-0.524604349862546,0.17868470366279,0.822910457921421,0.226533973583175,0.0447796190559288,-0.0405969701299244,-0.954848767303204,0.224259624410939,0.115226123307126,0.726437665144374,0.169813878006303,-0.42652115002493,-0.997486646371745,-0.0714592824363882,0.169744434037827,-0.946838292111935,0.202437195812647,-1.27826079759286,-1.32556819236818,-0.053321740249547,0.316734216903908,0.0424926833978435,1.14172607575903,0.0752820491175828
54.49,-0.526413605647424,0.189713059694517,0.819658483074929,0.208449194827911,0.0531314307634271,-0.041968851851256,-0.94858635106755,0.231084924372387,0.12188864471037,0.666869673698055,0.204952325400562,-0.423040736307595,-1.0135394291183,-0.0862131954637731,0.167968403953396,-0.848830305316788,0.246577275959434,-1.18667264756957,-1.29893125620948,-0.024583407324451,0.333923033053395,0.0284526466313254,0.803328855555358,0.0577616173432082
54.495,-0.527921924942753,0.163374360491294,0.825784752742787,0.171379534231946,0.0478282274336438,-0.0493911098765384,-0.940764568126806,0.238283675325378,0.125535801617953,0.60220099883456,0.264274578269638,-0.432447615382961,-1.03227298257236,-0.139186799077646,0.179815559021505,-0.761532459204537,0.361303847598798,-0.938174430277207,-1.26908092850087,-0.0248183413288481,0.324712295797337,0.0346387234086982,0.613237592294092,0.0708735627982468
54.5,-0.532688629793838,0.150925392394203,0.828440126749978,0.15438106214491,0.0581258620934674,-0.0601471643213493,-0.928522622541531,0.23683138821002,0.122838619288473,0.56582665408275,0.297740319785508,-0.448752671551464,-1.04279306158258,-0.182955508281588,0.157805718166541,-0.667187713494447,0.490947106268719,-0.710778787911177,-1.21279975232988,-0.0457686601148862,0.320141084050383,0.205039005094644,0.534044260778898,0.00911298207477101
54.505,-0.533538017115013,0.158597827516112,0.822830794419964,0.140369735678724,0.0571080446243286,-0.0566140033752232,-0.92942898031874,0.209334672671227,0.119260003517592,0.554110120832208,0.34457028012537,-0.47660336046976,-1.02602635584392,-0.211648506208979,0.117530619419467,-0.594695033561774,0.663884037637011,-0.477589869773138,-1.14721056077501,-0.053157230700565,0.328006640473337,0.453704436050062,0.517447804188693,-0.130102326031902
54.51,-0.53211807693851,0.178030428242938,0.823361436547509,0.128543981378445,0.0490446557678388,-0.0623284227010089,-0.935511511483223,0.195601225798824,0.109310461443586,0.542357592678749,0.387376698908066,-0.489687559107463,-1.03663161298551,-0.214845551879775,0.136002418057523,-0.665788316730936,0.783592605595071,-0.35623837636018,-1.07393333137378,-0.0436192460484331,0.320578182071156,0.692278578642362,0.528165884040926,-0.260853985394467
54.515,-0.531082138960413,0.175390219794033,0.82217058364027,0.109361634386378,0.0436694025993347,-0.0707187220778525,-0.94393253325167,0.189847452713363,0.0914596912959871,0.560267263493953,0.426219317545177,-0.496341805157209,-1.03403859340996,-0.197141135004526,0.131017369306017,-0.836318543441268,0.903021706367381,-0.245065989134339,-0.992212730557495,-0.0346026379669098,0.315557056826218,0.910786657639616,0.55702194400121,-0.396678978102693
54.52,-0.54565073703618,0.152388389934721,0.819458999027911,0.100291287004474,0.0384746292856301,-0.0837398940329521,-0.955379002875026,0.169687677759162,0.0769462246944314,0.620025916748549,0.454042364910588,-0.488871006763066,-0.989360243975905,-0.181136442922842,0.112062904102706,-1.02862830480543,0.925938941664706,-0.152659465126886,-0.919000303419025,-0.0241253664578336,0.304518945403038,1.0340557768216,0.558409551582997,-0.50725230313977
54.525,-0.545185000920057,0.144558216781901,0.817426127797304,0.0989566106917014,0.0326228948288923,-0.0885751859867706,-0.952464417916796,0.141606688347141,0.0563679244344541,0.520569295409505,0.466092033050615,-0.476413902467975,-0.940128417590423,-0.187299862483332,0.101134942680609,-1.23446279962607,0.801687143511489,-0.0543110476768369,-0.852266936896323,-0.00339251537794607,0.294363866512394,1.12892092982228,0.523151440182851,-0.587207197793581
54.53,-0.552214903392699,0.135264651946677,0.819865225569087,0.101666979491711,0.0255057401052101,-0.0958028361201286,-0.950956126549219,0.119210564218014,0.0367289119287677,0.432282155134537,0.482765007175197,-0.473632633686066,-0.910182263376178,-0.201544440814703,0.0742662165112554,-1.44324218423954,0.53384744717042,0.0167600893116508,-0.772864130625837,0.0129786523004119,0.297445065796515,1.18728485545075,0.427217132614937,-0.627097046974624
54.535,-0.553818399845832,0.130904927836573,0.816396580150901,0.104550105893672,0.0219395541270372,-0.0996470105170555,-0.964321907254068,0.109614000333708,0.0272813670541643,0.786609166757347,0.513488875494454,-0.480237479629116,-0.898757577018338,-0.215839899627658,0.0602709263986713,-1.6055626079248,0.278207415047794,-0.00696416126560178,-0.715366596976829,0.0308802658675427,0.289559506050803,1.19708470415339,0.341783402458995,-0.616810525100335
54.54,-0.548145195400538,0.13717937066453,0.812266128580253,0.107943652623076,0.018730905041381,-0.092558260369797,-0.98505384892182,0.115686302894755,0.0207638287202351,0.799677449656719,0.539508880036995,-0.503878949551418,-0.900195578734347,-0.226540664272527,0.0337140702927684,-1.81488738331791,-0.052429360929372,-0.110979909882595,-0.672497419482531,0.0479080532821034,0.287588046084432,1.18872015428072,0.206835631080283,-0.58241788654399
54.545,-0.551109468250981,0.132265071474463,0.818245196719466,0.110554104238627,0.0129111231137337,-0.0928820846931551,-0.98890001461021,0.118379068131563,0.0249278063366018,0.796418113413166,0.548859360765477,-0.520687722893281,-0.889528383736568,-0.222302901894449,0.0294935007341983,-1.91417311734173,-0.258937076798824,-0.214719759418603,-0.74293038019252,-0.0468410862571993,0.331285146644174,1.27263889974668,0.100245316254691,-0.682971751155273
54.55,-0.544693152016965,0.133860402857759,0.822152273790122,0.116532128319251,0.00684198705653793,-0.0859728148875382,-0.989677865714457,0.130063372523029,0.0388030494370217,0.775314856497757,0.553887120552781,-0.523201614888208,-0.90875085900974,-0.154773051384381,0.084925686934953,-1.90176854819759,-0.402362056908183,-0.442661370380124,-0.603607363164726,0.224525034478698,0.31775203008541,1.89581749060279,-0.122055049298629,-0.481323079354067
54.555,-0.542931494792223,0.146049079964191,0.826196675259714,0.11901881900998,-6.34847077522576e-05,-0.0879953237644452,-0.987038754682915,0.127773522260265,0.0450455616423066,0.756629286044542,0.545359084413704,-0.518937622212498,-1.06070108415334,-0.0168194980476497,0.192914724423708,-1.24349336561776,-0.0613707918275206,-0.828261003904968,-0.588311338339347,0.248968344763408,0.365169770515539,1.07037345312616,-0.482030935633649,0.372432148117805
54.56,-0.531471422519824,0.130504242843691,0.827526227109747,0.110356094597956,-0.0134757397638157,-0.0855489107684108,-0.976292583355143,0.126463780082308,0.0479160147831902,0.72288113047446,0.545993113855703,-0.509407777632312,-1.01413685208994,-0.246878818751945,0.0265470477123476,-0.761611199716292,-0.0509919313647062,-0.933232929207438,-0.494976311174051,0.0560572147828108,0.354885761752451,1.24377328831555,-0.907929192133315,0.314605462544803
54.565,-0.529767484830232,0.132246060559255,0.824998050955644,0.111263882245203,-0.0106113984290482,-0.0778270051450277,-0.979005486563305,0.110042586027214,0.0437333274837266,0.6961982767478,0.538492332127197,-0.491738283178004,-0.940579351642561,-0.334744971524406,0.0685490841114446,-1.34858515235926,-0.440324530992821,-0.775619626485121,-0.555631825563057,0.0428960640271359,0.323215926165109,1.50820819347418,-1.19076898211648,0.0211432746089353
54.57,-0.534420683203216,0.140897892366155,0.821994544764136,0.10706056765493,-0.0221207577348255,-0.0751247014490876,-0.975639713704586,0.0987219689334074,0.0434706395338955,0.663333344633478,0.53411536964086,-0.491667030815756,-0.99858555903948,-0.29936057094274,0.12978176978731,-1.26439648843177,-0.619767762562744,-0.590188043848227,-0.617122549568888,0.107728327912925,0.234558841385272,1.3267622041094,-1.10975809092774,-0.199856592758883
54.575,-0.535567198211198,0.141328876728995,0.817778726473937,0.0991804099002054,-0.0335088926610677,-0.0715373065630392,-0.976232037602197,0.11015363117837,0.0511708589030656,0.629675645219804,0.5230618165343,-0.484339049272821,-1.01466405303246,-0.306425820616429,0.149006647821369,-1.33348089563734,-0.664138290211442,-0.381891447502012,-0.614148255758691,0.106208402798144,0.1946432969348,1.06273178557305,-0.517017742631943,-0.454395770493244
54.58,-0.53425561674856,0.148340646532349,0.823316313502274,0.10395348383784,-0.0416609576076008,-0.0749398995268326,-0.973461131131006,0.106816635958196,0.055837224409822,0.591176624466967,0.505630382882851,-0.468259407426468,-0.983431745249779,-0.32256216394356,0.14071891039431,-1.43259958042513,-0.70625932416214,-0.495910911207881,-0.571733938945425,0.121641687472964,0.202660756737645,0.957390757293303,0.0253294342072741,-0.623376629279205
54.585,-0.536663245343454,0.128293602013711,0.83006252984569,0.0829699016529222,-0.0421892308050906,-0.0670027409783863,-0.976213176612109,0.103538639917312,0.0480681522263889,0.523620891736045,0.480297392964446,-0.451861959503106,-1.0152128839991,-0.312375121259025,0.152668243397204,-1.43190236467231,-0.699402855443702,-0.358248608059704,-0.503404971763806,0.174124856387727,0.236313353996816,0.855786466452299,0.652854200298684,-0.649502922464702
54.59,-0.533457888196351,0.1263657857899,0.829759396615344,0.076217205469821,-0.0446798946549548,-0.0652604773640633,-0.977172484253695,0.0934189234713471,0.0355144584570889,0.463613777958347,0.465319171469082,-0.432396490996831,-1.03421923562789,-0.27435595781504,0.170638775962788,-1.27764580392355,-0.663291411727572,-0.122165888263254,-0.542734021852815,0.19377580960873,0.242100539184061,0.748276021340735,0.913562339926178,-0.651991692545326
54.595,-0.533177036765225,0.131808690462836,0.826500018972364,0.0808981731534004,-0.0581508555101093,-0.063323026747335,-0.978630044601392,0.0871285312354236,0.0262641673630971,0.426433824677433,0.453647674224273,-0.422992432029343,-1.02285998695981,-0.233765090204443,0.201751899375584,-1.03003641542472,-0.512923916687826,0.0744165251433279,-0.641958340302938,0.209126300099589,0.23259692759453,0.6287652822123,1.01398577495667,-0.696267202393329
54.6,-0.546489730017303,0.141496646896428,0.821554612120717,0.071781289174038,-0.0611703199359848,-0.0611433678170977,-0.969840156190013,0.0849705834773902,0.0154688798756011,0.400382857594223,0.448831891212846,-0.406896277188822,-0.997745372957993,-0.232876591970306,0.207504964288513,-0.751175776531855,-0.280002762974548,0.142445850795971,-0.728193892624373,0.220140270537403,0.225194879147324,0.485248099274068,1.01197292076277,-0.761921321247223
54.605,-0.540894152694005,0.149941373940544,0.822190302491761,0.0666148523467758,-0.0615920442333698,-0.0574626420891242,-0.966304025141837,0.0930431608695851,0.00336816797516564,0.38451855445841,0.45356285939332,-0.399304033190447,-0.981943182070302,-0.256047373945392,0.18840476859452,-0.667764226547855,-0.0324179369745146,0.0630747471693509,-0.782098728552564,0.25117290627997,0.233794361741528,0.461112037082115,0.905511701898933,-0.80959206382287
54.61,-0.536992231582341,0.153972185045728,0.825849338017885,0.0640416547515763,-0.0675048008561134,-0.0591519996523857,-0.97105543846111,0.100673826323496,0.00289438979094997,0.367345215986733,0.455051131870985,-0.397534567996914,-0.973088618873541,-0.253976516517453,0.192837778835398,-0.677655399726001,0.126929238999227,0.0319981255697811,-0.818872163398127,0.281027284288617,0.244639294422624,0.406368760357281,0.762599528772184,-0.660573905190882
54.615,-0.541821371944946,0.171873110926415,0.824073236581253,0.058493873521655,-0.0684571953962348,-0.0591519996523857,-0.981716763925956,0.102633144214878,0.00199912397492442,0.338920791247302,0.450151103612716,-0.388336003843607,-0.963216895577126,-0.235621701432703,0.196114122380858,-0.72616037982537,0.21570909886024,0.0190866304005723,-0.85807688213794,0.270226118007229,0.251272422813237,0.282036943561355,0.620094280162067,-0.524916626741815
54.62,-0.539734429556242,0.177268509151223,0.81913553209541,0.0350281935306778,-0.0613963305950165,-0.0542096170127328,-0.994315983344193,0.115227354294454,-0.00177838155860904,0.306678205113142,0.43867823714109,-0.384496166432777,-0.955493976731329,-0.199305718323976,0.226437285008657,-0.737606300655692,0.267921934547342,-0.0176842206270533,-0.908850990294757,0.209924803204992,0.258638714984805,0.291623027940965,0.494776257405825,-0.528778556224256
54.625,-0.540586731458054,0.177506612242113,0.822692877583374,0.0179542298550477,-0.0637070112112046,-0.0526584159552574,-0.993554337251431,0.135680298130253,-0.0118787441049921,0.268630431415853,0.429829534615383,-0.388732240447921,-0.955628584087046,-0.178171193099529,0.22991273080845,-0.695080712649423,0.281917945874221,-0.0674588331432663,-0.947994529523459,0.197482585365366,0.261918700565463,0.466283346687615,0.359810337674018,-0.54258346257929
54.63,-0.540769568993951,0.170411022870112,0.820659892721271,0.0068294764516604,-0.0665104427915478,-0.0577313076504962,-0.989477696406596,0.143968506712564,-0.00972757135985897,0.233494918343942,0.425848630940659,-0.393000781536102,-0.963602534073021,-0.171937822224158,0.237985405598484,-0.617154508948974,0.353990350143692,-0.126545028394794,-0.980318737307111,0.190437573968971,0.275888731286728,0.610607143029619,0.318980869064552,-0.510193467804168
54.635,-0.544992041714267,0.166009325374491,0.82003272769976,-0.00823404604540287,-0.0620200487759569,-0.0575402357892008,-0.976542056798731,0.158881429376724,-0.0107907285307375,0.185052545893158,0.424738852315524,-0.393992618336846,-0.99194609181701,-0.174116742572266,0.237340023806961,-0.510495605407901,0.470333733571426,-0.155059306188933,-1.01418543696707,0.178411522619791,0.27093654882026,0.737581345117915,0.305575734306713,-0.447364124475983
54.64,-0.534502807420164,0.160695121711199,0.812625647088362,-0.0211705387311452,-0.0610319325346091,-0.0751554956784929,-0.972457211155769,0.162345993029931,-0.0167884406761935,0.146848437199669,0.4306424775661,-0.396884018774891,-0.999112443247077,-0.173615695098382,0.225870363645218,-0.431875414312248,0.604946790485669,-0.159211300859064,-1.01440529403827,0.134183123167599,0.276220922929223,0.80817690924595,0.343098820008735,-0.38588348543957
54.645,-0.47749812607137,0.114492610666904,0.774044228082318,-0.00987117627397716,-0.0536958522022478,-0.0734040449686681,-0.956294437253519,0.142303190967424,-0.0386913605468957,0.0756752927610884,0.446593393023044,-0.404700428186724,-1.01176387409567,-0.175878602743203,0.209151566522221,-0.339481221872199,0.794032236292588,-0.147803482217716,-1.02578604989976,0.159564947565429,0.247142737268227,0.867957566878369,0.42490432199631,-0.394595735894067
54.65,-0.517794822790512,0.137354939403661,0.832164717707532,-0.0948425512964213,-0.0575438980115071,-0.0828365080537647,-0.947384297948159,0.162527479004216,-0.00918362041643898,0.0622119990531546,0.46221208713808,-0.419964191153702,-1.03200990586416,-0.18971879377358,0.171993588363165,-0.170903672607698,0.977915309613361,-0.117449522584586,-1.12553501100724,0.065365149570667,0.264177728862233,0.886021118180406,0.455593993229383,-0.44791645065767
54.655,-0.60167703362091,0.194934474099566,0.960505665597187,0.0153567403677887,-0.0135615938256553,-0.0643632910410209,-0.955004772900381,0.139592927247391,0.0333295675876516,0.0197252452606856,0.493151004465544,-0.44259206042488,-1.02509216009277,-0.211042627668503,0.135545903160075,-0.0643182475209242,1.13830035703438,-0.0705623671833885,-1.20247320853242,-0.0170133816842019,0.269113400463662,1.43819937556967,0.504170738024808,-0.368179523326966
54.66,-0.546938863868103,0.0107470486903424,0.713399510731324,-0.128382847853737,-0.091880407767324,-0.0875164668020971,-0.979623042345901,0.116337160109013,-0.0428412923281844,0.00206681771723471,0.521031532194107,-0.429096273901783,-1.03221407310058,-0.219154169640794,0.0656666899186084,-0.0289684477597611,1.23892059065212,-0.00148971709033008,-1.27348462206995,0.0255372753487208,0.277222827442863,1.67796056967893,0.251333327989905,-0.310581105240837
54.665,-0.557312475496684,0.195305989097142,0.909201862759052,0.0779960457605572,-0.0350422045745875,-0.0570593623012196,-0.973298069872055,0.00815236953164068,-0.0141229094293195,0.0583111640949101,0.558332418209862,-0.441685709563981,-1.00522797384288,-0.222282801905418,0.00989342161305722,0.00912523373600855,1.25344372680439,0.0768073902064031,-1.26894238759645,0.0519316531189313,0.303009850113657,1.57279075181616,0.017675357489722,-0.4100088315978
54.67,-0.455151050683382,0.112172051531173,0.754323518381665,-0.00976246806591533,-0.0173462903048597,-0.0874837562948926,-0.97701229590814,-0.0256070444155968,-0.0232914443045727,0.151610964624592,0.582236541532562,-0.451426630713904,-0.937284029199195,-0.209688442984939,-0.0564264820166809,-0.0476044537389701,1.11321651093447,0.0903969376255027,-1.23104121976906,0.0411153672851203,0.33019310042949,1.34359352232171,-0.19607412231854,-0.502381046595988
54.675,-0.55034977651895,0.103447291492768,0.87413556826718,0.0414245664807161,-0.0173732383978304,-0.0797101761176725,-0.986319371730053,-0.0336571034313778,-0.0344529984061498,0.265004761982432,0.616678353801448,-0.459714622639382,-0.889293902172568,-0.189208553302856,-0.108813180509471,-0.275822274776606,0.804654819964992,0.052988237203162,-1.21270044457658,-0.00628054805094171,0.344468145757599,1.2456219268654,-0.329038782286455,-0.554293980485805
54.68,-0.491342662271185,0.12311968285493,0.744972283433295,0.0100074078581435,0.00618245121757013,-0.0678893199803958,-1.00082356721543,-0.00925843503429737,0.00756214750371227,0.400960446402285,0.622542932614472,-0.467144730956708,-0.879685523352528,-0.167899280555587,-0.136425814619522,-0.531202104592097,0.453656238137658,-8.05907650844591e-05,-1.18822608425364,-0.0378339083540191,0.346254676326136,1.23303003334625,-0.399972181585639,-0.638732579905961
54.685,-0.550027931289721,0.111042253468992,0.893419779003601,0.0353050030941654,0.0351664386875374,-0.069805216416605,-0.98293143179917,0.0171179148888186,-0.0249925304860213,0.455326327631385,0.641093801747415,-0.457279520888997,-0.879830324179653,-0.136732066993583,-0.138872366569587,-0.825217057768014,0.0448544183731186,-0.0452105079428096,-1.17534379383841,-0.0508521520772127,0.342344260717069,1.20124241094034,-0.388233907077603,-0.683115220266172
54.69,-0.532438367998363,0.134392527860324,0.825121119599396,0.0563725757465507,0.0375538765372633,-0.072756099711677,-0.978061137594169,0.062037481037141,-0.0180805820358581,0.532918470004504,0.661787675403629,-0.455560472978385,-0.895088755516824,-0.125265284833078,-0.104549363258206,-1.04370519647226,-0.208810034376706,-0.0917957915698853,-1.16187750991743,-0.0458441269177092,0.339719926847079,1.16113028785979,-0.321838390984755,-0.720659796868859
54.695,-0.532677539323508,0.137995070397574,0.827049505886599,0.0314502897366545,0.037298444337122,-0.061767131267026,-0.978248674348069,0.0869290505915134,-0.0462303114695064,0.543261176862553,0.690294531064632,-0.460605347478758,-0.915369052834523,-0.118567990707111,-0.0403277548991879,-1.25316284769526,-0.423384222868071,-0.157235781378117,-1.15755768878058,-0.0269950015624096,0.323808465415133,1.12516912255235,-0.278432706925167,-0.732313407966142
54.7,-0.541447109118732,0.158692381477447,0.827277821200718,0.0694333085427431,0.0580949333135972,-0.0507292842490027,-0.985517036759909,0.109808737810917,-0.0318399116084898,0.537043587553614,0.695439102422214,-0.496394142883741,-0.94609704637168,-0.120314418314033,0.0490503049952814,-1.36185583196778,-0.535769947269599,-0.187980244625309,-1.15170833683671,-0.00368079007193878,0.31193446249359,1.10326479963454,-0.26518922418215,-0.705486601001596
54.705,-0.526676605919671,0.124536688761799,0.79157073071294,0.0343524874634804,0.0462387537617888,-0.056892888513955,-0.987168322883653,0.135632120811789,-0.0393699751227892,0.501897203552651,0.712787742836519,-0.517815663976227,-0.987746413059548,-0.135135973085643,0.176907703080551,-1.40369323938478,-0.615948732303255,-0.158426273342912,-1.138235741896,0.0287999540785858,0.283672365917944,1.10522371507409,-0.254930819356415,-0.681198822071399
54.71,-0.568525390251634,0.129204473274691,0.828999772280153,0.0625807089586024,0.0667923847238553,-0.051401345710399,-0.993246384092618,0.130004795009475,-0.0431079368784853,0.453019582587929,0.718328754326139,-0.539910514930453,-1.0172922661685,-0.149680925693321,0.285662046972139,-1.41378140845275,-0.660045423862699,-0.0788010665048261,-1.11566765599922,0.0560868314133966,0.26286075402029,1.07303105594116,-0.22677010331888,-0.674633072078373
54.715,-0.522375415383679,0.126114184018959,0.827984767820508,0.0739508372048324,0.0862522961902427,-0.0421658847380143,-0.997021152001242,0.130628484958954,-0.0376613342193572,0.407678382926476,0.719048790314,-0.562046652284667,-1.0281673088677,-0.151453324965834,0.333029469114647,-1.35181858078842,-0.671371695045228,-0.01780583890883,-1.0853263701022,0.0927354820479294,0.245538989553696,1.03794391248801,-0.205219750069739,-0.677606046878307
54.72,-0.589924775739992,0.130010654928682,0.866785112288215,0.0873619097506265,0.0835634070082125,-0.0442250739538209,-0.994313140901933,0.116559676778408,-0.0275550678255872,0.358579635620117,0.755464698861691,-0.58814384195836,-1.03258852503419,-0.129615773149975,0.356772324997142,-1.19671087515504,-0.653942062088081,0.0281888479828818,-1.05441785096656,0.119721252871973,0.238344311814001,0.983924313696091,-0.178039683280748,-0.664862987447851
54.725,-0.533714335119856,0.135261647921669,0.820226053942993,0.0841302687420753,0.100674708483516,-0.0396048873662949,-0.994369894592207,0.0963436617402016,-0.00375062664333503,0.361993374607904,0.759034845655021,-0.615856477829748,-1.04468768316142,-0.124697184365635,0.392661613324845,-1.00115037320288,-0.622112870394161,0.0635323491385721,-1.02359731403987,0.138371319901514,0.223576942676327,0.975204348564148,-0.17469481783943,-0.622694051369748
54.73,-0.551023150348418,0.143202920437641,0.834949402455151,0.107144183485803,0.101516119263439,-0.0396048873662949,-0.986308852359227,0.0870602422722909,0.0124423861620368,0.378812535181272,0.765129544791551,-0.635592081588346,-1.05919776743615,-0.10338126685274,0.421066320812401,-0.819360846981159,-0.551274746237055,0.142479858071863,-0.995188375972513,0.153536079888629,0.215255728974691,0.969469455623881,-0.200636031287145,-0.564110347568571
54.735,-0.544782425518593,0.154055020268282,0.829949353354446,0.122343020277211,0.126728174719824,-0.0448679766284116,-0.975740922139224,0.0732114710950743,0.0264639340059424,0.415663606081703,0.78800717750993,-0.654117712221537,-1.06494399132308,-0.0687738908912699,0.409271460030508,-0.660898550296651,-0.463052108821143,0.222146458087575,-0.966840913508546,0.166929619058554,0.209760776188943,0.970722692457125,-0.24548629344212,-0.523052042606152
54.74,-0.541025821861184,0.141949110535947,0.812930840641431,0.134236374425998,0.114715335875945,-0.0421825028836911,-0.962820588381043,0.07449719092795,0.0391833349673522,0.421562157745513,0.832977546434679,-0.663725204599679,-1.07960860652165,-0.0310799365792467,0.390747896405495,-0.454427827247941,-0.348582261880352,0.314494107159287,-0.927776079374897,0.180577992997753,0.209315091202427,0.960588961745644,-0.282992151639002,-0.4766162794938
54.745,-0.543857034054973,0.154778479164051,0.845563889412635,0.151344311645398,0.138961583375931,-0.0404254776621045,-0.966468202465892,0.0861131611830358,0.101886648867803,0.480615380908576,0.886159962476461,-0.682494673493705,-1.11281874888876,0.0380565731882794,0.375236083582949,-0.231787732007192,-0.242607516073474,0.395276655034947,-0.899430342311784,0.183683886028555,0.214427906581363,0.976793856825631,-0.26952481519913,-0.45359594582678
54.75,-0.540722870540702,0.132268584917746,0.837859337819289,0.152947493905336,0.143879002814978,-0.037192146776201,-0.98759485291597,0.0879676435086202,0.162666756855261,0.511571795116715,0.881741854302202,-0.682262066077111,-1.13938920895942,0.0835913765383464,0.36788246905504,-0.0749173350892323,-0.180597650652292,0.462517932424767,-0.891724548689304,0.191728814530036,0.22905072706162,0.975371313584076,-0.222868512802426,-0.425255854974914
54.755,-0.552898567414605,0.210879362977802,0.842294982641259,0.211969008042914,0.173539748714055,-0.0205838911163531,-1.00030345656471,0.0721273054773339,0.176466967296498,0.481710184910975,0.854495271616823,-0.674447588790845,-1.1487346100717,0.132673664579124,0.367136774407272,0.0785414780498448,-0.117902207538229,0.560822450701883,-0.896959310828116,0.19232601236054,0.238944250091446,0.951682711821918,-0.15071834760716,-0.394255123007366
54.76,-0.537807998877553,0.201040176322831,0.845078431145275,0.154460159788082,0.22091942604174,-0.0298050079871504,-0.968759022968039,0.0900744166103504,0.174724973738182,0.404930173182112,0.891050806193862,-0.679719396480233,-1.16131626005229,0.182346242948551,0.361250108987882,0.20053097402954,-0.070255373655409,0.678846019430691,-0.90180072374235,0.175897961708991,0.256147378342598,0.88123556819886,-0.028286138825309,-0.334023439866721
54.765,-0.535449331507301,0.209090848001661,0.881837700286792,0.165956167320811,0.250949284917476,-0.0136233287774829,-0.966275422511273,0.124201497817162,0.206524061853028,0.378129524270046,0.976621682468607,-0.701085168334674,-1.14765941877206,0.228403114197506,0.369787657592365,0.307135122172574,-0.0263692069805328,0.83448848558219,-0.900492290722949,0.148722095216848,0.261745497625415,0.827817962996866,0.0607889772608953,-0.288605276248054
54.77,-0.533598762921949,0.267426629022197,0.888462796932876,0.169612794073139,0.306551616055875,-0.0105927685825784,-0.992367263431671,0.138811105961687,0.2162214010288,0.335083672590745,1.08006060353418,-0.732610122217445,-1.13011957974479,0.242446110245652,0.367196464937026,0.393539274783371,0.00407708752271237,0.951809484398053,-0.899038691769222,0.11186227058667,0.27685317220453,0.776165079863075,0.151744623514537,-0.236117196196667
54.775,-0.544218906160635,0.335978867613613,0.904937380757129,0.149423605326593,0.339141905686384,-0.0372285377974914,-1.03330376679209,0.156968094411983,0.222178845860526,0.274642818781789,1.24051390234777,-0.773264730188356,-1.13198371658736,0.224821906500508,0.333702614081799,0.585022396723071,0.053664912313353,1.069589701027,-0.903761072460749,0.0687540015114836,0.295675409020271,0.75396366910146,0.212236414805793,-0.189226507727498
54.78,-0.478039697105663,0.330873925466975,0.856015037887798,0.13674277019235,0.360649362817446,-0.100759212151937,-1.10848334145304,0.15825251533464,0.254015248431761,0.184430737168038,1.35989752353386,-0.765995440891246,-1.16353639435276,0.195557795673836,0.293377004512367,0.718023905386086,0.0781074185623477,1.13634690413365,-0.916841075992818,0.0273233173767365,0.323465881863812,0.756521105766296,0.254112389240711,-0.132154766367332
54.785,-0.451285677660567,0.4085737778326,0.883058741893634,0.14670944325917,0.389326250276023,-0.194915106085608,-1.14745624383615,0.112298719270202,0.173112197274419,0.0852262699178308,1.45347882464726,-0.717973784983459,-1.18390346828631,0.194299641877375,0.248740436857183,0.808249909668443,0.087373060445637,1.25577734702712,-0.932694217352657,0.0025421596337942,0.319597987261936,0.759930069982227,0.28408878706172,-0.0899168450752312
54.79,-0.444780109952598,0.455916194888297,0.885051638914679,0.136278811453051,0.411268840003115,-0.296556591047553,-1.15967469396701,0.0731925666564897,0.13898323139427,0.0907908366021527,1.5112772014782,-0.673291773581495,-1.20935105637428,0.158339933237355,0.183118199474266,0.875919118622152,0.0917814260040075,1.48109737284626,-0.963386959298304,-0.035855873921386,0.309655816941344,0.772110211934306,0.3039364793478,-0.0416384027193029
54.795,-0.449940260998242,0.489626923309682,0.890950169668314,0.100828009366018,0.461368593632238,-0.448031864879984,-1.15904783366806,0.0314281844461707,0.0722705184063138,0.152044841824022,1.55243728829348,-0.560731892839039,-1.21664234688353,0.0653429886119786,0.0962526490733864,0.96675238122878,0.0975079366903285,1.68601582293607,-1.02706945945541,-0.110014766263236,0.274224858422778,0.757168494967818,0.376227381071681,0.00885099651967075
54.8,-0.461164431479276,0.506618980525792,0.913878661880187,0.0929608288494694,0.513391967112164,-0.603360039685386,-1.17711909385575,0.0397214973440131,0.0263541976486332,0.243948176742917,1.55692405207404,-0.473751989246828,-1.20745548380603,-0.0993098691857597,-0.0228986257255951,1.08534342970041,0.116340270165356,1.84870823532833,-1.10061369314677,-0.190020572454999,0.23263189962204,0.748566919597836,0.480958765480629,0.0527243275419477
54.805,-0.513200871465127,0.497109078598562,0.992840685548703,0.0956677426559337,0.605611736962404,-0.800410336618978,-1.28709112646544,0.119423699616378,-0.0854918945271813,0.535275461140871,1.50718784540521,-0.313871277860295,-1.20278359407982,-0.230176653546869,-0.120662706120295,1.19820632774754,0.184357536830149,1.91452522933285,-1.2014268248634,-0.28183391136045,0.165303812886347,0.673567076561688,0.677193834140305,0.0422664639091153
54.81,-0.496661116807367,0.386081045544504,0.974022991830963,0.107943345061708,0.772720967208655,-1.01816647985084,-1.37335916940068,0.177330177209202,-0.197406185169176,0.776769827930172,1.48616497380787,-0.203130909565312,-1.2133483522338,-0.433183771478213,-0.304284849947929,1.27520062121188,0.31674836177033,1.90890731242055,-1.29477605439958,-0.402111003667382,0.146352655655418,0.747279909599275,0.829796268093056,0.0437016821418075
54.815,-0.577875430845708,0.396930626302332,0.986032071012964,0.270379848469476,0.939474551667765,-1.16364316836957,-1.49681057511234,0.325995070841193,-0.287755148082163,0.891641340526596,1.48474589263297,-0.0529506068286188,-1.23297080567347,-0.563764052281899,-0.428358526091636,1.31050680540476,0.480354149230744,1.87784104039635,-1.29553578289438,-0.460675755863868,0.149255364691488,0.966605215325089,0.96043873235323,0.00559269622112454
54.82,-0.610398697490897,0.455180808409973,1.15141886000653,0.730054776953108,1.05028224653651,-1.22036758092612,-1.53946902413496,0.467178283727869,-0.384351394449112,1.00048168206602,1.441584423926,0.0693622835370529,-1.27169333210394,-0.638722311252851,-0.517330622779833,1.34047725116044,0.622261499996935,1.8455286610629,-1.24250910806688,-0.478774252916696,0.164447277962069,1.08257157626732,0.956240235967966,-0.0430205575584367
54.825,-0.836401014219894,0.939177758108016,0.911800405888439,1.38402786203347,1.1193637786568,-1.42928254345276,-1.52746458792216,0.764913187942326,-0.135112601114477,1.04146561551991,1.35507923504038,0.230652284733284,-1.31952600547005,-0.707456545257817,-0.603159838229528,1.34109285048787,0.769906045287671,1.79877574541952,-1.05700099940561,-0.466248803955636,0.222922084061671,1.13001202608735,0.829451674063829,-0.186178561839588
54.83,-0.770201633275047,0.689338422090492,0.909426378380307,1.20568646495459,1.06100306551168,-2.00897628423015,-1.44331605713973,0.770870393867118,-0.265419129662881,1.04813775116605,1.27674682822856,0.429699339161531,-1.32243951176007,-0.739156441835862,-0.643601990990477,1.2761588069659,0.830482646806068,1.81302004374064,-0.957416904678327,-0.460371987701757,0.254325563278401,1.18718839341831,0.700748239301652,-0.289663840139125
54.835,-0.708274858352147,0.261319184923465,0.998588278168492,1.17426319210144,1.00143395355746,-2.47911255442092,-1.36507948697362,0.503383505556923,-0.393312247961951,1.03511511912825,1.18107669840177,0.605490583166336,-1.31371935288765,-0.76829774943394,-0.652456599899055,1.11650309480219,0.835423234638412,1.88172091035916,-0.920571677498322,-0.427546618797307,0.274581749330539,1.32497035754409,0.565663070700013,-0.375608647056987
54.84,-0.693593414694855,-0.42217686361417,1.38864224888044,1.32125217229961,0.796537188813677,-3.12058609916614,-1.29319759704027,0.118574869958037,-0.425736968147252,1.16420686050219,1.02001156306585,0.701021601297687,-1.26151999696111,-0.827417132693483,-0.592959133556381,0.915487969353425,0.805364209322092,1.92806230586917,-0.941964503197401,-0.367046644755685,0.259830593059517,1.4116568533719,0.454549340967637,-0.441115994421077
54.845,-0.790614929802276,-1.09908746642591,1.67981833803922,1.77921618469569,0.204638728738458,-3.79762607883279,-1.22749278684477,-0.0201623816550376,-0.452436083080407,0.942426242661173,0.961150401478202,0.634409921971821,-1.17729223233486,-0.914222306240796,-0.455188590453394,0.582816741447926,0.728037379432811,1.93913490826205,-1.00819655571877,-0.311021292088159,0.212817836331306,1.41409667852891,0.370016636922538,-0.497253734380265
54.85,-1.23033931488468,0.0316893072911692,1.88634993629026,3.2503038343112,-0.494138428206985,-3.85565643664264,-1.10290027620459,-0.188357701331288,-0.586695665354882,1.03833871854,0.916193106643125,0.474727220109898,-1.06963458512715,-0.937022916756968,-0.287432332587945,0.288637901636959,0.645336897105921,1.84075298279531,-1.07996051119152,-0.263932921215847,0.171992061543152,1.35112234914328,0.321642308424425,-0.52436982207345
54.855,-1.63751351419826,1.89731284384216,1.97539214447552,3.61287705315169,-1.15577666045971,-3.0175450763805,-0.966223773784206,-0.253401092695058,-0.606393477286156,1.99018487615327,0.835162922714286,0.300300227530714,-0.951593596535781,-0.940299319074231,-0.101290774916212,-0.0512127318851223,0.511054707873399,1.6966860769155,-1.16526021724402,-0.243863108756787,0.144709607748065,1.21927972186074,0.305438306428404,-0.54550224792972
54.86,-1.21181395357304,2.19459118218043,1.07708778837185,2.42123576337454,-1.56129845859847,-2.06891319529418,-0.868631709558381,-0.148644794026572,-0.343835876290453,2.42641118386856,0.684747969703378,0.28626846640876,-0.860051235753583,-0.941380812108902,0.0618918923737635,-0.221679183422871,0.371766693925115,1.60333361767366,-1.20840219353898,-0.229603243252597,0.155926544654951,1.07444286921155,0.308507128049616,-0.566201831706797
54.865,0.2618967267061,1.31117952173998,0.280627757661675,0.801246343455044,-1.63948249152089,-1.71926939258446,-0.874400942790388,0.0346523434466771,-0.126613728389097,2.6796951571152,0.492006434609171,0.390317238403169,-0.804934747034789,-0.968545422856632,0.171703944691656,-0.319695242313882,0.16461156368521,1.47820423996179,-1.19915678130884,-0.196448054990635,0.183770323275282,0.955586027128004,0.351472399408921,-0.591932701294399
54.87,0.642232267424164,0.460482446697134,0.163162845045789,0.542708588310119,-1.34535150762635,-1.72514896129315,-0.882841730510785,0.173227340478164,-0.0660059424157812,2.74387048705974,0.227213681611593,0.506165845533736,-0.736902164481211,-0.998765323930418,0.21023420985812,-0.395277946380845,-0.0578645458782733,1.27708363830121,-1.1508728149889,-0.157988350753798,0.219827079856846,0.883446460561317,0.369533051442282,-0.606136263274892
54.875,0.232978594052319,0.0797555862148952,0.451625715216724,1.23439263877545,-0.947556588933528,-1.60991879649016,-0.802596175254141,0.197554573717878,-0.118721376610347,2.6567389916299,-0.0330373743402838,0.562111926969383,-0.695342017117635,-1.01664012224951,0.199339169701926,-0.456912011449469,-0.21441051020798,1.03108622293285,-1.08050227920388,-0.110609325914747,0.264133880386747,0.805333379450142,0.348163924680725,-0.61941612334258
54.88,-0.139570050509196,0.305386645785684,0.685489178008065,1.84054788640643,-0.950617215612926,-1.47871912301774,-0.642014594369906,0.161592125869949,-0.186799958694286,2.47881126361952,-0.203399020538437,0.566224852962364,-0.648003604565492,-1.02114692267246,0.134631310450749,-0.621374839198201,-0.347944413863452,0.732160293243771,-1.00563183489417,-0.0648527997111264,0.283730092190555,0.709523413317318,0.280890903097585,-0.624498426914215
54.885,-0.174730103484513,0.582299489578474,0.716594038661109,2.037463580127,-1.13759764206855,-1.32097372947964,-0.449163855169252,0.182031120884873,-0.186524199704675,2.16838767546387,-0.375652821425212,0.576479676184747,-0.609685455521577,-1.0144376471981,0.0603542415934589,-0.805979272214328,-0.412644618656732,0.535229858665547,-0.980557290043959,-0.0246202161330652,0.296259313722121,0.635750265382409,0.204365428251685,-0.623607481039975
54.89,0.068208856425876,0.649643506586471,0.534922263333641,1.84317783631101,-1.32289389557831,-1.11610383983227,-0.36291417679386,0.221422866805343,-0.129257730274373,1.78439247258626,-0.500932928046215,0.62791269719672,-0.525331221538928,-0.985411937341758,0.00178129985138911,-1.11562326788755,-0.463255557278429,0.358351522247226,-0.985108901326596,0.0296297293462127,0.293760033679705,0.582899993107512,0.121137157090827,-0.612681610227804
54.895,0.365393638759067,0.436664606452697,0.251594845441573,1.49194010384816,-1.34637501216289,-0.886184939232618,-0.385111226797692,0.195625214673769,-0.04991215025485,1.40270829824786,-0.611523406101201,0.691526710337056,-0.448732450399785,-0.93899378756709,-0.0405395060649332,-1.44625859667542,-0.478060128910625,0.236954030047927,-1.02504246543891,0.081520370646979,0.297764799423258,0.563460833395818,0.0637916762486126,-0.583522894370429
54.9,0.687364290063929,0.155184216576206,-0.234970452282993,1.26379074287021,-0.997673216260372,-0.663104135725974,-0.449077140585403,-0.108574948245207,-0.00372186415172546,0.736682443485199,-0.827921812594069,0.743366463963042,-0.361383959362776,-0.836163673631928,-0.0304823014705596,-1.87624001854975,-0.474380301262479,0.129919964746215,-1.07252301433138,0.142418328659879,0.306649558787844,0.554686967046663,0.0342780659405438,-0.528741815149473
54.905,0.769022796843333,0.197133660233419,-0.326011684495295,1.30899291485584,-0.589267904766284,-0.439210105341642,-0.451648712815981,-0.33473233210949,-0.0791847167451829,0.46395027146636,-0.946888469157826,0.720399570330724,-0.310339772495095,-0.75316847765528,0.0135526025463431,-2.15650436163236,-0.491170945745412,0.0649657878116945,-1.10210208891703,0.17076430874737,0.314565304644202,0.545250215205038,0.0213025285613935,-0.466223341392535
54.91,0.51059673068937,0.363855653719732,-0.0604390986533757,1.47296277528044,0.0624564907859734,0.0738843602791493,-0.444371380755645,-0.629295240620731,-0.189915476388927,0.354293274532242,-1.12593009555029,0.569114870874632,-0.265513352284149,-0.694238284933004,0.0705066483867991,-2.35159741833339,-0.54317020422158,-0.00810857217129881,-1.09958711299777,0.19062905102747,0.315952660548965,0.556701675097925,-0.0229161137500797,-0.386441697471455
54.915,0.159917918291886,0.4947701353063,0.29357419161946,1.54893557897682,0.39907101626016,0.653756290723336,-0.486335546359838,-0.737563351047274,-0.257141724199634,0.482629564975982,-1.26347559550545,0.434702878908192,-0.213198911417488,-0.63604830664541,0.130389240903223,-2.47346434151901,-0.595955205407489,-0.170180786511089,-1.07374109943745,0.178884741023759,0.305824264619771,0.598076700191389,-0.0857961733015547,-0.335198456464426
54.92,0.0147471421198429,0.478191403129167,0.482297686494049,1.50983214297621,0.515716552479315,1.10849294841637,-0.528924258679881,-0.736617731975306,-0.2754850537403,0.679999758339005,-1.36959260624351,0.346504013811912,-0.167983830755913,-0.588510799014712,0.163925151681529,-2.48817082980216,-0.61614202150286,-0.381751909359293,-1.03416029929143,0.161746110288838,0.290681218766978,0.648555604006359,-0.167799077851051,-0.297850944077216
54.925,0.0406143231819625,0.305990130802862,0.513534913990668,1.45849345701867,0.565118386852641,1.5425561723538,-0.557919651277226,-0.643693851697854,-0.25960024274616,0.969234305814381,-1.5347169442599,0.2455731991757,-0.13448802859883,-0.541358418122103,0.169559955463879,-2.38004729684387,-0.605799295321038,-0.65429434302088,-0.955734336341814,0.127851976712751,0.26567991980358,0.699350793720816,-0.29145549049268,-0.257588763342786
54.93,0.25418180565243,0.00844428075264443,0.30590795291336,1.56674959974833,0.723515365242264,1.91195198812405,-0.579765781415588,-0.577470500132798,-0.251971620189723,1.19512051664849,-1.67091990682436,0.149955456804415,-0.112042428907095,-0.518788865594052,0.167092130025662,-2.07324693814239,-0.55774418184699,-1.02899652374082,-0.8826565343511,0.0932177498288431,0.237999581632163,0.736764202664009,-0.405459733254078,-0.250017589327396
54.935,0.316343126167484,-0.0896467421039389,0.0858989239983402,1.68728224356905,0.985561047036745,2.09208984491792,-0.620750283885288,-0.518209796521245,-0.260198854159997,1.28862381477756,-1.78164980821165,0.0725429336976744,-0.110509639693979,-0.530856538348267,0.157210931578181,-1.8351556332311,-0.493329506370853,-1.27874237326651,-0.821030318347625,0.0662331888178198,0.22078728476927,0.752829324370769,-0.496308606943034,-0.259886088828941
54.94,0.195376181629254,-0.0738252736786918,-0.14434497615561,1.89461841390079,1.54759494064472,2.34169257190618,-0.679275385859336,-0.457416261823636,-0.317487494708252,1.30265481669196,-1.88167843356252,-0.000162647873847151,-0.122558658753612,-0.572428640222688,0.121419397847099,-1.6086708641336,-0.362843461014945,-1.51140195769635,-0.748335738785438,0.031763095294509,0.20112797490729,0.743292208286945,-0.559317910523703,-0.29299963730737
54.945,0.0644957080469717,-0.00292035387146716,-0.232142163680757,1.94298478334291,1.85734551300299,2.46518114482667,-0.700512244859427,-0.440543217926669,-0.367543469349157,1.25433890367986,-1.9032663242659,-0.051562540010404,-0.160884313482115,-0.611549018020094,0.0899514537245995,-1.45967692012133,-0.221042343564805,-1.6542306253791,-0.698643197064241,0.003963284495495,0.195573212153096,0.72298004275001,-0.563380323811056,-0.333624042706368
54.95,-0.540896661264112,1.45312771963175,-0.113904075616632,1.7677358092751,2.46311207580477,2.59933864748369,-0.715686638581898,-0.360856411464099,-0.498888449593597,1.05711704680557,-1.88190023109999,-0.116804549154884,-0.245438793349523,-0.593987956500816,0.0499427271640412,-1.3553823136052,-0.0913904589606903,-1.74883106242568,-0.627805247228177,-0.0367756932655241,0.181126653109532,0.665255680579316,-0.495269991205066,-0.408900695404419
54.955,-3.18630256890712,2.40688920955219,2.95894947326234,-2.97703403577617,1.70597567090746,0.708898344535157,-0.702517352393613,-0.0123940806508922,-0.966202108599459,0.995985503979439,-1.7396172563821,-0.190226378144856,-0.350215171360637,-0.521609111605709,0.00865508496123064,-1.29417944626977,-0.00507093320398097,-1.8064774532406,-0.58877261749877,-0.0663976826324916,0.180736343167779,0.602415744815259,-0.380470526804892,-0.469764288257051
54.96,-3.83408094935551,-5.61611210954704,4.06731165811983,-10.9880860006492,-0.0807624048845787,-2.43031265449645,-0.626559684116328,0.450537439826285,-1.41740792066546,0.912059586273825,-1.55043134377817,-0.0902786885166624,-0.437658164201241,-0.412337156688518,-0.0419133791590138,-1.30775613495599,0.0347086662070081,-1.79410031376171,-0.547362750045425,-0.0984548299671232,0.181351437553473,0.526707957712456,-0.223279633658003,-0.512155355346201
54.965,-3.28438262052252,-7.5733202092068,0.956609910883899,-3.4949079331317,-1.99574226782136,-3.52194443083852,-0.531954554220502,0.507061598428355,-1.65843867582755,0.614663974985455,-1.38600443942493,0.224960483087699,-0.552447602442705,-0.296262584078333,-0.0772536610800346,-1.3725976918497,0.0519759862525549,-1.74937667736081,-0.527141907976015,-0.116180996579287,0.182133783610117,0.469573650036116,-0.100652579126606,-0.534906599833469
54.97,-2.32083174203005,-4.25268420325384,-0.105788753677774,3.30085053692638,-0.924985273735696,-2.11469955953266,-0.449434363282153,-0.139654801015476,-1.86758366610098,0.375843173795472,-1.14728368036491,-0.118526809326247,-0.699567150308478,-0.097759289735942,-0.0905962101442161,-1.73751137945034,0.0382218435406685,-1.58383089245131,-0.533634494340426,-0.189193826211914,0.187940071667746,0.322068882378345,0.113477302242681,-0.541748134912589
54.975,-1.60271989210011,0.0364788804106095,-0.0359301252677265,3.14025475949443,-0.953271531698846,-1.77860554727822,-0.734639878647638,-0.689720039251936,-1.68903228748625,-0.0656800662588721,-0.560387631208959,-0.53806253587039,-0.817998020685651,0.0124127688516045,-0.102301260253211,-2.01762618829692,0.034315632627773,-1.42197352476834,-0.569722019524488,-0.237327165819625,0.197929020853781,0.239074263258796,0.230850515014386,-0.566997448407013
54.98,-1.59054928146656,3.27056123673175,0.225203541572516,0.79844031624636,-0.906995271437691,-1.41836539977244,-1.49707365538071,-1.20310509636713,-0.8839132312196,-0.869993026745342,0.165616030550748,-0.103431233920874,-1.05876895389275,0.140216600117482,-0.121927641577497,-2.34794718466839,-0.00798642226926573,-1.22767572056159,-0.622442934407821,-0.256782631426279,0.199603236587632,0.161442999486482,0.263955138280219,-0.578680682071054
54.985,-1.57424378504697,3.72193669637974,0.479511457190993,0.0487086295806001,-0.956580717537968,-0.971104852065607,-1.69317930743698,-1.14337067724064,-0.372592072760597,-0.648970347828401,0.153722425618441,-0.371037169607665,-1.34125494206498,0.196867253841758,-0.116507878618969,-2.66980389681729,-0.141680790178866,-1.07912647623389,-0.697476802466347,-0.272658283842145,0.188082639914947,0.076879448265031,0.256088763932656,-0.564914562943015
54.99,-0.477973396707924,2.46801553623,1.55195464040509,-1.74416302015487,-1.10543790983567,0.142777862489867,-1.64835651201171,-0.0849810093710699,0.727654024715838,0.535255126189062,-0.200649760851647,-0.613295637913448,-1.64322563485311,0.118053957225485,-0.10889964891287,-3.0949495735442,-0.430327349397266,-1.05637877934922,-0.747365743906273,-0.282217399715724,0.175352877393257,-0.113307284258936,0.199832491434534,-0.459133653448667
54.995,0.315744133105711,0.52983239145514,1.97961556375025,-2.6103473702022,-1.36978413431288,0.262065406282948,-1.65276152506435,0.679579342950546,1.21984140600597,0.752993039142035,-0.327912537753621,-0.34115039649572,-1.8595409057244,-0.0551988703383334,-0.104267438314101,-3.37631301896855,-0.692540551428405,-1.18799756230262,-0.764513520278369,-0.276971989066006,0.166329271873946,-0.33263803246618,0.14073345655304,-0.281680799339387
55,0.735724024137133,-0.650719872288609,1.67190518941708,-1.94344241007386,-1.17338966289134,-0.281167647292474,-1.81031497041554,0.971697181584081,1.21173221442921,0.527856073861097,-0.562655297655831,-0.090009586834816,-1.97050920262439,-0.279767776771053,-0.138622850261972,-3.29101249829293,-0.829628582370082,-1.51097091383714,-0.772922913123207,-0.274585266229661,0.166644400848678,-0.50878901125466,0.0734421190326383,-0.0677870483365147
55.005,-0.647633414358004,-0.0457266639768772,1.15007098171005,0.223253948933776,-0.201124876012059,-0.53678113497759,-1.88826959021303,0.660490015232949,0.12889783985011,0.0111549725197346,-0.62964413819274,-0.172698722130097,-1.99814631843033,-0.565577402567088,-0.159680170339901,-2.81971453182272,-0.871456166691592,-1.69168985919641,-0.808436536712898,-0.266498393392954,0.186069261602865,-0.747218734568863,-0.112049775057496,0.35152529307109
55.01,-1.19227748142398,0.796845564244632,0.681845360596615,-0.534448226089062,0.0376060821895108,-0.50360029616748,-1.80376991839982,0.150216986314421,-0.373479512521468,-0.0724628733304784,-0.751889896694956,-0.152382735948078,-1.99926273153029,-0.688976720438796,-0.121767464359546,-2.24911417098022,-0.78862260533898,-2.11334885889608,-0.873435408170457,-0.252285405413449,0.21140962439241,-0.754863069811799,-0.354034266960754,0.708505850341564
55.015,-0.949828720317884,0.157044279659301,0.64005541351005,-1.30507686317661,0.124503688702105,-0.47369146748349,-1.42081117955346,-0.442990754532178,-0.630996770036206,-0.275982782313887,-1.10866921234002,0.157655871067548,-2.00091945563776,-0.599668925933013,0.0110783049732998,-1.74195203241538,-0.539770102580488,-2.00358995019027,-0.933072261414138,-0.251965276747205,0.223664298039935,-0.624424098499546,-0.526372487328159,0.913979365048433
55.02,-0.707942342619378,-0.641128920746114,0.846667564191542,-1.23889056756272,0.0654543865848911,-0.405524500704166,-0.985787158911162,-0.645281497627747,-0.487630881623749,-0.573427329908421,-1.09982584986837,0.275807517232735,-1.75622056197589,-0.386767031081179,0.330832153446642,-1.79492299980675,-0.216162452794057,-1.51781865457726,-1.00768869747221,-0.261562483642728,0.203983279312639,-0.270067570842499,-0.539236562166926,0.970260076951616
55.025,-0.488080324121181,-0.653669123012872,0.907231607035953,-0.477201979204574,0.0232158060397448,-0.227482146174785,-0.790631604242837,-0.687546192734152,-0.21219209113132,-0.767553012810661,-0.860122104963055,0.179023195922533,-1.21851678625639,0.105185756409675,0.692602319412732,-2.21820400302046,0.344316234894246,-0.909039018387434,-1.10158593609811,-0.247860968768553,0.183323331385481,0.151031508616874,-0.434800889009218,0.905900248270646
55.03,-0.485066158950902,-0.236376986003189,0.932826657655798,-0.0380733194341457,-0.0567506816272185,-0.0844225088499219,-0.929806216001889,-0.709872027691689,0.0184859375978956,-0.794447754321817,-0.59971495098884,-0.0473221084730437,-1.10659231456345,0.421569435305659,0.856195488926004,-1.58760401689564,1.13764741631376,-1.03917119665333,-1.14232723526985,-0.1807735114693,0.125626575979246,0.719884344908521,0.0382182193396615,0.642125380830408
55.035,-0.496792790344538,0.0289323114445144,0.851563162450266,0.190673908241344,-0.162139227419738,0.0142326374724475,-0.855141419031897,-0.608578587009824,0.023824556998328,-0.446062487142553,-0.563086496694526,-0.18644171505166,-0.802649896185311,0.227258849547318,0.618726665530726,-0.465522277389992,1.18241147652636,-1.03976211220611,-1.29187901383596,-0.11979900793454,0.0945394893339997,0.998261461110989,0.51227934143996,0.366626211475227
55.04,-0.548628342076079,0.230985611780701,0.84883347487303,0.366476877223285,-0.188497640267662,0.041752727831093,-0.728003903148975,-0.481533954285826,0.00659535466481639,0.162879693115083,-0.466679066397353,-0.298332206914982,-0.560363777363481,0.0283941987283919,0.408934802083539,0.368177507895921,0.580996604307781,-1.47931685137855,-1.73554707356246,-0.126545729328097,0.057490867728121,1.12789612909554,0.896164053933989,0.0666259114345225
55.045,-0.564152507135041,0.245311885074737,0.781025749473792,0.312586112834869,-0.119846325499228,0.00654611498849773,-0.680907279306083,-0.20147831477608,-0.0206439232035857,0.85862669519899,-0.466474447141876,-0.265167676217403,-0.631661519959968,-0.191502699208804,0.0998116931259547,0.471267580656944,-0.0343412429974299,-1.88972691740841,-1.41243306251853,0.0583762579759231,0.0669981861634183,1.50021313707568,1.03813234574791,-0.811570050815242
55.05,-0.577542570705197,0.24288769626221,0.783019150282393,0.264419224861374,-0.0418532066445502,-0.0109841135754398,-0.708787852257155,0.0314906367003913,0.00774075055992394,1.12188701607776,-0.527652787485585,-0.170366825954977,-0.842410074870804,-0.214337884331343,0.0497925195861506,0.609530965299157,-0.208857033945224,-2.01533775880648,-1.40180153979844,0.532824797125854,0.100596364231349,1.4270916099767,1.24107304421787,0.0897102326878183
55.055,-0.57103490037576,0.244454308423225,0.790916338687519,0.18505719182417,0.0150329426040569,-0.0119971466606709,-0.842570314158024,0.179865654933018,0.0340328658875636,1.19760591628314,-0.557262214330866,0.0225719378967209,-0.899419995939998,-0.419624433197724,-0.120859109041515,0.583895959635681,0.17038025384483,-1.45979065038375,-1.54994784957049,0.166198897663502,0.100501736384368,0.330706177186305,0.99341457521273,0.0478295513195145
55.06,-0.550750879320523,0.239373897426115,0.829763777049668,0.117404707303698,0.0207679624267899,-0.00732345985657554,-0.956993532619424,0.280639507546379,0.0783934333187106,0.95522760760855,-0.514952953152211,0.0892875601224895,-0.611116797868722,-0.467587966986415,-0.355424704816843,-0.453841593731778,0.314982731069434,-0.984784248130104,-1.55075947758594,0.053637866152317,0.0596343774260326,0.565927875681354,0.616324222701807,-0.538438607204579
55.065,-0.51962687601836,0.232487671991199,0.802603107349307,0.069943511820091,0.00941854591030944,0.014343608467543,-1.06675522634641,0.353316348729182,0.133050232249002,0.421590158974759,-0.440635941025939,0.102705911282738,-0.855424649523703,-0.370057296458367,-0.313035068438618,-1.07421472843478,0.0882683112220818,-0.978601117247639,-1.39881454946297,0.16914253245612,0.142965137701316,0.295143253288404,0.650561365848162,-0.735561506576742
55.07,-0.532375942403433,0.181982867509793,0.832605273157453,0.0637205760909902,-0.0315358923510387,0.0233322396918781,-1.14280557807138,0.32734379982136,0.120975187892346,-0.0819733291465888,-0.352803345194245,0.063925366273308,-1.26217616729043,-0.115313655599734,-0.0561380261758488,-0.647797758724772,0.345602889497034,0.0098215225706598,-1.29404382656624,0.238919069151648,0.266251608548791,0.370934170563897,0.353095576603876,-0.700574398769401
55.075,-0.541844073434301,0.165104477939679,0.838745915674782,0.0715964721640031,-0.0388391720613382,0.015653622097902,-1.11223950313434,0.21292910335441,0.0777814189206259,-0.34702246501234,-0.325800863417677,0.0280364506626357,-1.2085765993307,0.118295705831281,0.128449256420336,0.329147595878931,1.18222202263984,0.598410221342471,-1.23762218305668,0.266008959821481,0.30235921117029,0.474444641943631,-0.116930593106193,-0.615211893671291
55.08,-0.54147264890502,0.156078538269821,0.824503707379067,0.084106353647374,-0.0249625915453954,0.00284652823548185,-1.04183995507549,0.116173082996187,0.0293655127237608,-0.402796057913022,-0.308939921047558,-0.0273864855277161,-1.05497618161445,-0.0252046397967922,0.132510615538865,0.942010723593689,1.81276596363172,0.427643981367786,-1.2359968547221,0.27818010039262,0.241221642493626,0.213315674371411,-0.414698814005862,-0.439121583586792
55.085,-0.541150869002271,0.203645684080115,0.8279350443763,0.110904485440373,-0.0026142960901503,-0.0101791529287626,-0.963778502753422,0.0461048046722399,0.0239620086367224,-0.256820608935641,-0.265944357280764,-0.0967029577479214,-1.04237746483936,-0.212164478613348,0.174007873316952,0.669293898857271,1.88630037939651,0.26681226507315,-1.14111558803801,0.193557965584385,0.185226069563928,-0.0149754623736456,-0.249199836930733,-0.325773654024303
55.09,-0.533373441356929,0.237769358970414,0.807839440455062,0.114026095943411,0.0042455373773891,-0.0413663442051611,-0.929752480280973,0.0211124363815289,0.0133333941402933,-0.109062136771256,-0.208790423445045,-0.154384092973006,-1.08322726336376,-0.266330461699284,0.220876110149577,0.312475506407127,1.75264678291496,0.043187380961684,-0.941852597225599,0.130211382743222,0.209119491858473,0.154585818188723,0.0971138452305427,-0.308600296580231
55.095,-0.543901336719657,0.244319147672548,0.809955444703155,0.0955391981025865,-0.00259079797443417,-0.0705721686383593,-0.914660061556687,-0.00198197780036701,0.0100528037433353,0.0510002322062024,-0.091208011821384,-0.216385253192973,-1.26097538387,-0.251074980634613,0.228850381213832,0.422614107255853,1.99761085445041,0.0992938979035056,-1.05032775542803,0.088853484559599,0.224269577979197,0.312600800146474,0.525110394820959,-0.298427801646098
55.1,-0.54672186250755,0.211524442143464,0.791093216187974,0.0894500315189362,-0.0226839621749384,-0.0957206742874731,-0.912323065464274,-0.00339207178558521,0.021801054671516,0.161930158037137,-0.0503438178415684,-0.24957367412359,-1.08218598508577,-0.32694131741046,0.101331244803188,0.575811330169179,2.2870634129387,0.0708443550865189,-1.21385017236464,0.0999487209399435,0.281316953081737,0.253180303969943,0.520667452935816,-0.243268705181224
55.105,-0.5556928907603,0.194456018851687,0.813125728870135,0.105822191953134,-0.0455070370461946,-0.106307959735918,-0.922835642006415,0.0140953424277322,-0.0301538542037852,0.2865594563408,-0.0642512929355328,-0.22500284916353,-0.908304524728013,-0.369451412852272,-0.0257155089303451,0.201273019593289,2.12867838400993,-0.177099436822576,-1.28321778553941,0.0558541635788659,0.296476081042348,0.0467318502853449,0.250330817593918,-0.225781426891969
55.11,-0.563156641992718,0.189767297855173,0.791264514978948,0.10568216592504,-0.0535422260548227,-0.110115515198091,-0.929952560502475,0.0450571889280446,-0.0341839462594279,0.370455198393295,-0.0961542144078189,-0.194519367705164,-0.780920549970179,-0.288410525216985,-0.120646525748733,-0.364576555878317,1.3690147641462,-0.332937368815587,-1.12378181380392,-0.00378126213292818,0.279822000092308,-0.027470678668961,-0.226376552772398,-0.353748631979356
55.115,-0.577943793979856,0.191430530127545,0.78699754209064,0.104080203879971,-0.0594959118571462,-0.121036105729162,-0.94408854937465,0.0710495664146562,-0.030242943629244,0.423016855956741,-0.166738056139849,-0.146048138210043,-0.775648516899177,-0.185080653935666,-0.149634565243949,-0.693033896806054,0.474773681510913,-0.246023168762101,-0.921193059424102,-0.00746426382138018,0.251371556422767,-0.107334708878435,-0.526870967789996,-0.379811908595418
55.12,-0.568774525890093,0.197569675053425,0.804452513985364,0.0926768042850391,-0.0638397186994553,-0.13443636056105,-0.93569555423458,0.0776233674010263,-0.0403719971160488,0.454421434128121,-0.229501345938251,-0.103909855881911,-0.832376527668886,-0.111260115701473,-0.119264487146923,-0.586195895522095,-0.0657893379044123,-0.0958468570278276,-0.790896793716865,-0.0129339475203294,0.23755186567675,-0.236794101791065,-0.411187069155798,-0.31916908997163
55.125,-0.553150645020924,0.19646499189209,0.805663401139023,0.080472977265857,-0.058294179064092,-0.163654794770423,-0.944851310184624,0.0625043522085354,0.00894397048835434,0.472522980243374,-0.282054839892821,-0.102641606312835,-0.833081375249199,-0.100802271033704,-0.161754451030345,-0.242634498549327,-0.479945468720917,0.0159196774735253,-0.728486360571681,-0.030276850915058,0.251863877867359,-0.348008064133024,-0.214899126821543,-0.212591829644619
55.13,-0.558398621435758,0.183773291183817,0.809856727324626,0.075613859964466,-0.0565095469355583,-0.1706074100641,-0.9596200272417,0.0293770118684925,0.0326052319099122,0.434466754111425,-0.319654135472476,-0.118812616578064,-0.805904040197883,-0.13705335250937,-0.223903268587897,-0.17307493007146,-0.541305081601193,-0.111086707554976,-0.694306201622217,-0.0763846349552934,0.29173819629199,-0.375613074208269,-0.0848256243907088,-0.140986755202388
55.135,-0.55145707908843,0.183297150345542,0.805817523849588,0.0755906716502856,-0.0589124532095046,-0.180520483385647,-0.956931469550792,-0.0164466907645426,-0.0176697725540441,0.384651549719151,-0.307561529833685,-0.161361913487809,-0.859102968846974,-0.121341554235577,-0.208078255307574,-0.381378781939625,-0.40548349827779,-0.430961464352852,-0.715882093720321,-0.0698178679932699,0.314186218715752,-0.3161084924467,-0.203015784876148,-0.069052204133231
55.14,-0.556001454453706,0.17563041761139,0.809568021580909,0.0632740697684519,-0.0601746290922165,-0.1928370859383,-0.949705600603714,-0.0535160292947601,-0.0272890083163499,0.349298041008056,-0.217081399804412,-0.220623985881913,-1.02570090287827,-0.0652195257405709,-0.179628943017618,-0.0470664648033782,0.547377229626337,-0.885910714632088,-0.609869943283449,-0.0537923545002107,0.307583590333008,-0.351131581175622,-0.502638087136031,0.109287175944038
55.145,-0.537672916028376,0.148774180883744,0.806148287181182,0.055839987226214,-0.0826082244074515,-0.195511806088358,-0.960434650885705,-0.0709040629773892,-0.0128183000608992,0.331275093594382,-0.124207300518288,-0.247023329388455,-1.07310884105712,-0.229935615040939,-0.274308784871184,-0.024937637496618,0.904817882711575,-0.54691565660501,-0.386683746851404,-0.124317226608312,0.262248771562159,-0.387712339706251,-0.527609345666058,0.186420665618846
55.15,-0.522413268524386,0.15287173214767,0.826154707714324,0.051184015030559,-0.0917937827089354,-0.182218780052529,-0.969554105814397,-0.082783423192588,-0.0128466661301063,0.337484124260518,-0.0564821910326636,-0.241686188783679,-0.773426500646696,-0.279007052379104,-0.358145548612658,-0.409132897487447,0.671236389527829,-0.163802212055613,-0.447960218227325,-0.182949661896808,0.231260754579789,-0.3156065892855,-0.317523184154168,0.0313325669337983
55.155,-0.512293783646807,0.142268665636228,0.834954647176741,0.0384003324882682,-0.090389034046236,-0.17041186252319,-0.971475060366082,-0.0986632593559935,-0.00673295714103356,0.364221403675827,0.0710979235000062,-0.20128885396686,-0.918799308527835,-0.213194023632404,-0.215182933892969,-0.747485172845282,-0.373763286388696,-0.153044399718297,-0.249804113262879,-0.100423373295883,0.220607039219869,0.0612358482492034,0.433284006690973,-0.521654474574423
55.16,-0.514122923516947,0.129805007673195,0.834754383699614,0.0338462244897938,-0.0778390837918219,-0.160948744770605,-1.00199930846218,-0.126470090368521,-0.0145570758939728,0.407974365658432,0.160243797472824,-0.146747449095445,-1.07455344406644,-0.19546282771899,-0.10938757450152,-0.363696896452334,-0.542046914435822,0.209562034322986,-0.393083485823429,-0.0167883567408639,0.273696601852014,0.396526712978864,1.12701244792112,-0.248163793240985
55.165,-0.507157101683955,0.135278826492584,0.837330507186797,0.0301870364594969,-0.0639045839201183,-0.134297017390677,-1.02803268453689,-0.141414991295861,-0.0334888393837593,0.427397092765632,0.165957180340885,-0.0987944816528581,-0.966685273028432,-0.319143079143082,-0.112060116292563,-0.261866774328823,-0.388408024370943,0.235999323920588,-0.584287212305686,-0.11247062726676,0.326833087086766,0.215087379002276,1.25393920759354,-0.185715231021626
55.17,-0.517082692735554,0.143298095877389,0.8460092063252,0.0301740976783801,-0.0495031405205701,-0.128926713247203,-1.03273502663402,-0.138947163397305,-0.0462721917521342,0.419295802021535,0.156178613187724,-0.0843891539120643,-0.869519541343329,-0.311240540567111,-0.0604907085221972,-0.650818232701631,-0.406492550602507,-0.0148368527610948,-0.793608590626195,-0.178196024714603,0.343343837610834,0.614158596550956,0.756134147472776,-0.580140709120362
55.175,-0.524200245282448,0.128131689010766,0.834462355460786,0.0322661182698176,-0.0208918224696116,-0.0984491601729071,-1.02750542398289,-0.120602282070954,-0.0642409036517719,0.384139867477667,0.149720044519117,-0.0973888638244888,-0.935524418857181,-0.329667256965385,-0.000333645405190859,-0.428282279562878,-0.347599617482485,-0.138372060318526,-0.788535107852198,-0.048240458084302,0.259084534700559,0.407881229812768,0.299572207380033,-0.475422373711669
55.18,-0.528631586113678,0.122028436661764,0.834074254660645,0.0413278267856661,-0.00237477883277919,-0.0742256570146131,-1.02240211788557,-0.0912656429758782,-0.0718462359153497,0.324926033534889,0.112523021857276,-0.122120884123982,-1.01474411973876,-0.437591504105121,0.045972373876509,-0.491922826189415,-0.365047751576419,-0.00249421541031235,-0.680971672093496,-0.0466166605249054,0.23152387899979,0.210515600757051,0.154971495382594,-0.254482625411789
55.185,-0.524091113338593,0.144185483737523,0.829896232447273,0.0703147242409657,-0.000503784401626452,-0.0577244037239591,-1.0053189723717,-0.0723699481305714,-0.0828758140320685,0.270025446007903,0.0737438901928195,-0.137915816082555,-0.985780630925911,-0.419667354463388,0.121626688188236,-0.506609959864449,-0.351663816675353,0.209611380206057,-0.673145302726443,-0.0910829144043345,0.21390195484593,0.39912342615714,0.133546088683382,-0.383746890453442
55.19,-0.539568328754949,0.159288674576505,0.834099647451974,0.0717176349533381,-0.0029689828626995,-0.0479070900305301,-1.0029564589009,-0.0437645482978826,-0.0894546831720698,0.205321546120383,0.0588158544466234,-0.149571701659201,-0.965773735352671,-0.436368869473844,0.157641466014502,-0.350152636914839,-0.261966010823887,0.365257390027837,-0.738941326783813,0.010998366482698,0.224416575477122,0.823107119315508,0.185044161105932,-0.316408329627167
55.195,-0.54239484989907,0.160543155724895,0.824933270185698,0.0775365019688955,-0.010797587435554,-0.0396048873662949,-1.01406135583432,-0.021076261913757,-0.0804363646956312,0.151001914388352,0.0182477061536936,-0.149581645875895,-0.951108424067301,-0.499420204068091,0.173972205530762,-0.31762822224278,-0.187957919086276,0.47231170360935,-0.862271230157645,0.0642016205266064,0.25111907513814,0.866223722326441,0.17107136904501,0.0663894609326651
55.2,-0.540886029426772,0.187363566095885,0.827153132475411,0.0869330563379689,-0.0173233403242643,-0.0191488280500211,-1.00954304268288,0.00388395926180544,-0.10712370926622,0.0636874987008974,-0.0216374134414926,-0.137474902302883,-0.950339750438924,-0.539731514004795,0.188052303248393,-0.432313155896954,-0.069420465137385,0.55148413353872,-0.922231167955991,0.0438506601115805,0.256405377721633,0.793483114474982,0.0221165699476814,0.231627695165796
55.205,-0.532497114113325,0.185174907754978,0.821623642331275,0.0675192958683583,-0.0220005808272612,-0.0268602836905167,-1.00620510521633,0.0236236941512167,-0.113234444433657,0.0274159515443451,-0.0309409076966943,-0.142099780295783,-0.918549909445634,-0.511109949151964,0.19976141252584,-0.599040068688856,0.0652081988531024,0.482276987254489,-1.00785104924718,0.0563643480559209,0.221955657437599,0.829417422223942,-0.347948451848234,0.206803401355477
55.21,-0.537460138897187,0.176107322549916,0.822329236083151,0.0648912476944581,-0.0161103641795847,-0.0178828470786609,-1.01453578893457,0.0212148948988097,-0.0997980827352613,-0.0222756555774486,-0.0534700394398592,-0.127283462387074,-0.905960910863645,-0.486675383663484,0.212198159995079,-0.653407830447007,0.167883131288115,0.333871552451636,-1.05658102852554,0.0966593153151466,0.190043303578387,0.800025334370987,-0.417861241602496,0.233230570995846
55.215,-0.543008156808968,0.183880317466831,0.817778575303192,0.0561816405747581,-0.0147551011317928,-0.0184353198313207,-1.02687615788293,0.024509986552019,-0.096266673501769,-0.0701308501772994,-0.0952815549920552,-0.116401213582072,-0.910390651664537,-0.461146156341411,0.214585138672679,-0.561921534358797,0.271727048333184,0.104825295201189,-1.14221391712714,0.0847392990793036,0.167943362877095,0.6908385810609,-0.23116516718698,0.320501463585672
55.22,-0.545397923483812,0.190880241717449,0.822143843411414,0.0430907391852564,-0.0123983437376367,-0.0173539857680763,-1.02022914269303,0.013330822365888,-0.104261283226637,-0.108441149895858,-0.161905020855093,-0.115422953215072,-0.926050049278498,-0.448943708496647,0.201090483692774,-0.350080701749945,0.272190052703131,0.0160595734269504,-1.21923243247018,0.0614325470779397,0.159439567876688,0.684358909964076,-0.0376587522474281,0.30382779886116
55.225,-0.548186680855134,0.194048027249366,0.813993878286529,0.0331545205285092,-0.0223996626714925,-0.0198079697669139,-1.00944315408467,0.00890046944241462,-0.117026054279767,-0.13009878250099,-0.173473543829226,-0.123278029501071,-0.930616611433148,-0.430705803149308,0.165795912073468,-0.131408609123989,0.239657658906663,0.0184458770826947,-1.31575313349788,0.0755490060512918,0.14640258663697,0.706006587150769,0.117203260577712,0.200252113945104
55.23,-0.548990642665111,0.189120878284004,0.812012435570457,0.0231540986317367,-0.0257104244120562,-0.0260392624944692,-0.991659883022314,0.0115031266212548,-0.115736523985881,-0.151435446030793,-0.180863317864554,-0.150470882260632,-0.926068382811586,-0.428774004842536,0.128374436473577,0.0464577835058676,0.212332828919272,0.00587007564577165,-1.40763737496291,0.101962946547846,0.144012859803302,0.620059715888206,0.274487158166108,0.134463764835823
55.235,-0.546865637211141,0.185497106355714,0.808074614878454,0.0134642463001959,-0.0359661566363329,-0.038206478146219,-0.98306009944484,0.00319572026083345,-0.0990955406199978,-0.173165239101867,-0.162595614642479,-0.163367520505805,-0.91998346196704,-0.410588867673763,0.0789720154688371,0.233709547065248,0.199854446921476,-0.0691522728257589,-1.45675117883991,0.109512077979129,0.153830922696073,0.430140975132406,0.376053932677916,0.0547086430773554
55.24,-0.546453960169242,0.178170387164022,0.822797672006679,0.0100398873910308,-0.0423496869409609,-0.052072069655087,-0.989465950655829,-0.00883746666582491,-0.0921285304526469,-0.151225640832741,-0.146455307885701,-0.154508834872556,-0.926167996042729,-0.365013987856714,0.0509461648100345,0.419213131698316,0.247131462107908,-0.194696194092392,-1.45855416535938,0.119953987867634,0.181121913815096,0.20778068776918,0.422889918029587,-0.0582095000622891
55.245,-0.547420451837186,0.159262476319681,0.820112939012411,0.0118741004844507,-0.0546753345412674,-0.066947405124638,-0.992928425306217,-0.0218086915775724,-0.0693295655515685,-0.096690015357194,-0.159530795202643,-0.135012048884289,-0.929851564319822,-0.332749285961643,0.0218517146998661,0.599431748620287,0.311129685317186,-0.26232348359615,-1.40675795561328,0.127258990550326,0.21722957515155,-0.0563237300710226,0.375477763519467,-0.0950981103409931
55.25,-0.54280688219961,0.148191505937261,0.825249687799684,0.0195369824901593,-0.0470124554563442,-0.0707001754500229,-0.991473781701009,-0.0476628582310036,-0.0654798487956953,-0.0498639653701634,-0.168207690733903,-0.110467293768321,-0.944102368035899,-0.301643808275468,-0.0161953345852869,0.719531627423892,0.360671069155333,-0.305808154732187,-1.34790957902057,0.105756425390367,0.252432236836805,-0.311913541624659,0.28232656628535,-0.103349479765746
55.255,-0.529445400616241,0.153574576851275,0.828762928376465,0.0244102324999643,-0.0367557000915961,-0.0803342768749505,-0.982813591984692,-0.0712805206401435,-0.0741053529362201,-0.0149304658268605,-0.145678342847966,-0.106647610194821,-0.962545790627683,-0.280216534545234,-0.051863811840951,0.791161006565775,0.385367198288149,-0.304276562016286,-1.29802858126916,0.0886961490768382,0.279167496106807,-0.565806332025531,0.125612494528765,-0.11098166423529
55.26,-0.52329509900903,0.151582028859915,0.826735209800468,0.0184439160534596,-0.0176021903479354,-0.0840684262632146,-0.984394031516327,-0.0785379622569304,-0.0565483302001289,0.0220323634991105,-0.146033912450791,-0.107922322781435,-0.976200999852409,-0.251778751379878,-0.100930576599492,0.81602366140107,0.383352456087231,-0.27805741201095,-1.2453217650335,0.0653723781197025,0.314483178292089,-0.748863523686472,-0.00184198923535912,-0.115243885399837
55.265,-0.527432326744464,0.153633415077768,0.834043579572542,0.0203580515807557,-0.0088045865670574,-0.0799796815588343,-0.999057846136136,-0.0757961782075139,-0.0251323440573947,0.0380775373794779,-0.158074288672709,-0.113249110719318,-0.98453565600284,-0.219900396100291,-0.145415189807926,0.819042110603843,0.342624236150914,-0.237673113794037,-1.21393554259159,0.0549054742964415,0.322348340829085,-0.849362758671925,-0.0689222621892069,-0.11784587807911
55.27,-0.531382404084968,0.139898735932266,0.837891895928236,0.0398563435887466,0.00333402540009191,-0.0823641940951347,-1.00500622840812,-0.0764517825068067,-0.0078161891314291,0.047658938763168,-0.178343916963584,-0.106818574634078,-0.988961476268298,-0.195422356483914,-0.16881565317681,0.774803313605541,0.280836507345409,-0.198431519835088,-1.17975191721382,0.0369081665604035,0.339770263920902,-0.883045259603925,-0.099634264273125,-0.119265678090188
55.275,-0.538126029651751,0.131597136378119,0.842195122887261,0.0558826716156053,0.0143682268308646,-0.0805219068084602,-0.992647617701135,-0.0834514225920516,-0.000114942801949336,0.0561114433192989,-0.202598959792707,-0.0956573610747443,-0.990070411330122,-0.180332630722772,-0.200435833067721,0.668668869755477,0.19072711386906,-0.123248210552223,-1.13027940337033,0.0144435390523855,0.351666212821502,-0.865698610939733,-0.0856472065906371,-0.122359566443223
55.28,-0.531303786371042,0.131934470578329,0.826250641541824,0.0734956262049675,0.0289478215615435,-0.0762724275073106,-0.961575724600557,-0.0992325350140625,-0.0131089241459134,0.0473588726205366,-0.188523754521342,-0.0960122775187847,-0.98881279833266,-0.166514491826759,-0.231376426517818,0.579072745876093,0.153950222619627,-0.0799691353563274,-1.08715419376988,-0.000864689754524061,0.364409341477124,-0.795423227963152,-0.0408021127043161,-0.119122974453081
55.285,-0.532058092434684,0.139837692352047,0.836176083920522,0.0916636639893856,0.0376605170979753,-0.0704765939666676,-0.941437799049773,-0.0895833156692541,0.005549361943559,0.0644120927802985,-0.168507155532655,-0.0973507240414619,-0.973189933126329,-0.137251025671686,-0.250662223868383,0.546178679647332,0.258618804871258,-0.113826841077803,-1.01537265323501,-0.0146499185492043,0.361372260680129,-0.675070450928753,0.0113154780310361,-0.102667482895337
55.29,-0.524401630473174,0.137562309514363,0.840014500160051,0.109705476249841,0.0459446487898827,-0.0663140263170748,-0.945843763991153,-0.0844997546410549,0.000467026380870219,0.0764251026710906,-0.13217856420176,-0.0946105564490833,-0.964334692445903,-0.155935315594999,-0.264594249776086,0.45891337861836,0.291545556520463,-0.167129848952301,-0.94139795826781,-0.0308730407704044,0.353507106399652,-0.563582558312843,0.0740661650519285,-0.08749381710938
55.295,-0.521276089639028,0.123754705279617,0.839900104903008,0.123879970585605,0.0605514366497076,-0.057929905991338,-0.952844367987828,-0.0735050443895964,0.0220995959000127,0.0881547228410162,-0.0925979516204654,-0.0904925857011955,-0.971816751254446,-0.152407050906425,-0.230840026011318,0.213005396585914,0.321595107655816,-0.205992433669056,-0.878133532473115,-0.0514231093451813,0.340644465906027,-0.483463692234566,0.12988732197466,-0.0959971109593433
55.3,-0.538572640840233,0.12680152037028,0.87795354955224,0.174914758699885,0.0754199912849094,-0.049385183017168,-0.979081116183646,-0.0599425469305136,0.0506023218677772,0.0801742505391631,-0.0840533669134029,-0.0815920366535753,-0.99797483482233,-0.146549535765842,-0.198879047236518,0.0531181988087192,0.361904757304327,-0.225988311761235,-0.840499701239427,-0.0805302242002635,0.334739652816308,-0.382633228581551,0.241235565875963,-0.133017047380317
55.305,-0.570505490283903,0.0817921257642008,0.886690812902752,0.26735942595575,0.0885425870776959,-0.0449591716980671,-0.986614000059047,-0.0590032685584202,0.0372207085755108,0.0930290233395461,-0.0924778167909826,-0.0621504514281378,-0.980037297556477,-0.17285379859353,-0.165228065640304,-0.0776965094735493,0.404403252163033,-0.186917706446799,-0.694344732884637,-0.100856710176171,0.284441614189372,-0.180504525050592,0.376251317864986,-0.312089342845561
55.31,-0.584540378604872,0.078485677573037,0.867864561192316,0.391884905915888,0.108404968125144,-0.0357959944490842,-0.962696201036962,-0.0740426422511833,-0.00813670917940266,0.0825279879859904,-0.0688610410431025,-0.0687266022267085,-0.956047289159747,-0.218838066510667,-0.133251783106229,-0.313902105482434,0.302460434749064,-0.161999547308696,-0.613518245751892,-0.095837211214878,0.28760049894952,-0.122829766878805,0.57472704166095,-0.108975165133921
55.315,-0.577112771820016,0.11750966101746,0.83662826049109,0.446648639384273,0.11852987222031,-0.0324221548062831,-0.948420735093263,-0.0750594374507617,-0.0242920439073309,0.0668207628645449,-0.0226161790115849,-0.100820056611607,-0.995766592163597,-0.191836935041237,-0.0657924360452873,-0.425085332136224,0.192790815665104,-0.0703487195406737,-0.586722185891974,-0.174513321900538,0.288080367575017,-0.139617072541243,0.655448658091855,-0.144245111479494
55.32,-0.552534197561364,0.160948552939773,0.839018031262353,0.483839487708334,0.125390630231459,-0.0254036763961997,-0.956603496415147,-0.0549028892213572,-0.0265574769026744,0.0561683373007494,0.0320239780363243,-0.121308924874362,-0.976099052698312,-0.179307692853321,-0.00783323307761477,-0.409131262436369,0.1471391703052,0.0250682492205043,-0.683626641735544,-0.186676614890908,0.290101736842483,0.129914289038705,0.595026117345508,-0.370520074531995
55.325,-0.535809767873671,0.178102102181073,0.84151608433043,0.485348186388073,0.137918525879447,-0.0208818331265734,-0.970941503334861,-0.0315205197875643,0.00772742534972344,0.0419192474914849,0.0686206362638445,-0.132604324969477,-0.976282094992236,-0.186210670778346,0.00667185664706123,-0.580719659736377,0.0571020351683835,0.0180410811943317,-0.728391957881598,-0.148322881710991,0.274034474464987,0.174956649962422,0.531980693032465,-0.536413391585108
55.33,-0.547467315292945,0.183639269792896,0.826671085784097,0.496793252735342,0.128599554341697,-0.0207605149461973,-0.980112692486629,-0.00101596096557587,0.00907728825822592,0.0160011318259817,0.0975914383148405,-0.143268911875224,-0.983515156653667,-0.183312515916245,0.045302758904126,-0.738845964040061,0.00101360777948429,-0.00242673217197785,-0.753101689172531,-0.117703954917099,0.272054040275087,0.161107857911499,0.463527861463481,-0.547508162619882
55.335,-0.554580637244702,0.226746266027539,0.802862853154235,0.493477685667817,0.100318813361957,-0.0251530513945535,-0.967524460397628,0.0101159503321105,-0.00797600257087315,-0.00284375097512327,0.125874709335632,-0.148504130732273,-1.00182695689815,-0.169533960880105,0.079625262968176,-0.804600545283756,-0.0120964526701937,-0.0143821069223922,-0.750723331364663,-0.103637708964739,0.28626979443738,0.121050159735407,0.377756048606778,-0.466735299249721
55.34,-0.557043993545518,0.206834979542713,0.804683239209125,0.465273421429553,0.0830700923500777,-0.0127276089042425,-0.958049391988338,0.00833071859017253,-0.0224941772387826,-0.0168954328915972,0.167558383982492,-0.155046928009821,-0.967213887128737,-0.175915742723936,0.101719051705658,-0.691307253798806,0.0139794514741911,-0.00876985534783222,-0.771227754156537,-0.115135037459294,0.302785488561075,0.201771156867218,0.193446372833655,-0.436153811270696
55.345,-0.564611703654368,0.207822986866622,0.810823180207816,0.463167181546212,0.0583231526144913,-0.00760467929196554,-0.96450080709046,0.0159232040655712,-0.0407827821119513,-0.0228609392537967,0.204078205606992,-0.161286663878651,-0.972987225671838,-0.173489568536853,0.12631711666428,-0.613347978868769,-0.0279780060945499,0.00246594048693388,-0.798800119413633,-0.100609798646834,0.316306878726822,0.315051640771827,0.00443419591453493,-0.432703603064119
55.35,-0.567973072242136,0.180872379452985,0.814516263551783,0.444896651831136,0.0331852974856084,0.00148289668971482,-0.995666207703223,0.00678208296502529,-0.0564924175031863,-0.028234345995629,0.257599632253654,-0.176552680156854,-0.961707752618455,-0.154038631505769,0.157059649783126,-0.507731002619423,-0.0392837212001319,-0.00515839473342705,-0.846622495217044,-0.0618264010279718,0.321228167837015,0.443819157463152,-0.264983297478133,-0.408702756238693
55.355,-0.584681087851959,0.17194035812931,0.83137318711116,0.468234202573805,0.0245550352785759,0.0170169712710676,-1.03381623500194,-0.00771401376862191,-0.0750770960911624,-0.0318907527038753,0.281074663587772,-0.184840878422417,-0.980438474549282,-0.12972725803716,0.185436998549753,-0.470985145140779,-0.0426320551123674,-0.0555762666038487,-0.881766747413845,-0.0215154611794705,0.324342050179377,0.453742520134436,-0.444902849256378,-0.334540881813171
55.36,-0.587117181798333,0.190362080490828,0.809106489083113,0.490205970813577,0.00579687394201756,0.0352058297365438,-0.0351421330661392,-0.0192759641302815,-0.026248964241341,-0.0863658405744531,0.337316402202822,-0.245259250337736,-1.00729702269545,-0.0905565834720033,0.202888205044592,-0.394621127016485,-0.0441818572064964,-0.0918597171700622,-0.915566057256701,-0.00387423624839644,0.304472619773328,0.328586947434744,-0.53379208325141,-0.197368553182413
55.365,-0.594157468291457,0.196047845393531,0.807498805709637,0.452983186590665,0.000220214897468588,0.0577186367471298,-1.04383507004266,-0.0211676417648709,-0.0719071729031882,0.0287665808623299,0.37987391248221,-0.221083260479371,-1.04752070396514,-0.0587586216645603,0.212897181937311,-0.311013213066461,-0.0349716697347484,-0.100146644418704,-0.944869877193879,-0.0205387276103867,0.300744023699796,0.269063773507518,-0.490273450675363,-0.140700073523268
55.37,-0.595994581237532,0.224991427216489,0.828868704945604,0.471303905533462,-0.015021495500113,0.0668662196591121,-1.02531940673118,-0.0182868809917567,-0.0378536408315005,0.0860128593316434,0.419603086055822,-0.244007824899999,-1.08438902608787,-0.0544128755102303,0.184410397065586,-0.175832423255546,-0.0506924135994666,-0.0962287748815029,-0.989546738773514,-0.0294592686820126,0.295750310559264,0.278630157697455,-0.389635570273035,-0.124634290182735
55.375,-0.593107365183879,0.198778546615236,0.807208456257405,0.471342709697543,-0.0670973968704135,0.0906638651156492,-0.977139049350582,-0.0138925691729748,-0.013236480968483,0.138319976388002,0.467515463457424,-0.262816905779567,-1.11753716789266,-0.0785338103682195,0.126708344066585,-0.100584677769719,-0.100784219609153,-0.0853438541880645,-1.03069021973686,-0.0267261155581127,0.29536258326634,0.30380270298359,-0.255051341582457,-0.123603671789169
55.38,-0.568958849392753,0.170184500769187,0.795197030584899,0.447593650301021,-0.0933735192427026,0.0783952012960606,-0.928653389309826,-0.0258881691307648,0.0233958636504986,0.183048764850435,0.522132867591108,-0.287625106705009,-1.13288385926331,-0.0974453514729042,0.0634537962259555,-0.0231683840478617,-0.143915171946114,-0.0812810247372996,-1.05577655421371,-0.0043686652383223,0.29615622055451,0.375316451560011,-0.145674497604608,-0.12343846190865
55.385,-0.551758519123517,0.193772890046608,0.81140169018401,0.467663955027902,-0.118664350292948,0.0817595906571366,-0.887576317086502,-0.0390597043740394,0.0420321419385317,0.227481746803963,0.563424228397713,-0.301311957654161,-1.12996906889896,-0.118767315840879,-0.00652098714599954,0.0417396317053864,-0.165858142590666,0.00890522059736384,-1.09242303111571,0.0288825172745591,0.294201466737507,0.380753708706628,0.00260794635260802,-0.0512432410623314
55.39,-0.503687192771494,0.20522052183141,0.837428298517073,0.455450249424528,-0.161484165982089,0.0456279721619365,-0.876128100937292,-0.0389004566280012,0.0763281037382585,0.296043982092875,0.609996925171544,-0.316569753423143,-1.09934076040917,-0.115339680443093,-0.0315251325158131,0.081316778986609,-0.149164609347838,0.149170220834936,-1.14741187930662,0.0394441038178767,0.279811698686582,0.321239282422481,0.140524000913539,0.00123534755787895
55.395,-0.536177520851472,0.130635446409564,0.85390500831865,0.397353714088353,-0.194404360662162,-0.000420104736833745,-0.878658081149078,-0.0242312554927463,0.108445441878445,0.354159148461396,0.663020117864253,-0.332780721065567,-1.0529633203854,-0.0940909715960169,-0.0489230168268683,0.0601449146232775,-0.0835011552045694,0.319008292616733,-1.17961283706333,0.0434378460860861,0.271032775467769,0.275119880176425,0.246443849306945,0.00226191260982111
55.4,-0.456658646011732,0.333324962718503,0.734878482930722,0.484249867781149,-0.188528320518228,0.01732375766819,-0.894318021487113,-0.0297144149442317,0.104632690245247,0.385790828240309,0.690186626064052,-0.32684468242133,-1.03888604760163,-0.066685400440782,-0.0560860583694808,-0.0373161451837585,-0.0313793297358771,0.404985395973912,-1.18529402738763,0.0571138984931452,0.255847391542946,0.226511657517252,0.398288093966111,-0.0338943417119854
55.405,-0.442380739385695,0.334975948471481,0.736013958673785,0.367681441830643,-0.1238532940932,0.0162815740788681,-0.904345823807913,-0.0307683574657284,0.0944180635235489,0.399340532259842,0.742647839177412,-0.338250998729258,-1.02714497137038,0.00339272325014908,-0.0426925051638612,-0.227860523551286,0.0282786582834356,0.459456836551606,-1.1778433941869,0.0667525737715044,0.25262098248917,0.208022087773461,0.511300865374036,-0.0807857851460712
