Header,foot_Accel_X,foot_Accel_Y,foot_Accel_Z,foot_Gyro_X,foot_Gyro_Y,foot_Gyro_Z,shank_Accel_X,shank_Accel_Y,shank_Accel_Z,shank_Gyro_X,shank_Gyro_Y,shank_Gyro_Z,thigh_Accel_X,thigh_Accel_Y,thigh_Accel_Z,thigh_Gyro_X,thigh_Gyro_Y,thigh_Gyro_Z,trunk_Accel_X,trunk_Accel_Y,trunk_Accel_Z,trunk_Gyro_X,trunk_Gyro_Y,trunk_Gyro_Z
122.095,-1.43175194148739,-0.271711978388014,1.50250174242862,2.26022976087359,-5.78516024835227,2.86414390454936,-1.35638448825593,-0.55849067227507,-0.495689081879185,0.469135984775076,-6.02017400299595,2.85139922473297,-0.244579400141899,-0.168100624722891,-0.728502685604299,0.0914683110889098,-1.52247689351092,1.28381140748909,-0.606933718058157,-0.0499974866979354,0.22541618457884,1.04837035175875,-0.389195560250676,-0.91135646360247
122.1,-1.48343280658198,-0.298232880913495,1.44718836059923,2.32321956363723,-5.72974332606064,2.66784187125702,-1.45193667982921,-0.61119000487587,-0.522951608768905,0.615378969245402,-6.05088096895241,2.77251163970499,-0.264203691890228,-0.13630021564341,-0.690778661721035,0.224693902055431,-1.61488139948709,1.30885025716381,-0.606367210591668,-0.0125851890455898,0.218212274341208,0.997153800468567,-0.473396364238529,-0.770746041693874
122.105,-1.53993146288978,-0.300450723815896,1.41673787959816,2.33883678795458,-5.63165093112165,2.48857938642443,-1.54664865445612,-0.686010601129859,-0.542535569685568,0.776140525227398,-6.05448898499512,2.68497270428547,-0.28296363685196,-0.101440059266812,-0.639345435042906,0.325593253166046,-1.67563852605072,1.32811928283204,-0.612964578854945,0.0168224697210369,0.207458064952505,0.947371202751643,-0.506086825877439,-0.621244731741907
122.11,-1.60513109818222,-0.295744533225569,1.40677373849552,2.31364438476452,-5.51477204439084,2.30195283042581,-1.61910574774103,-0.773767407629118,-0.601381420273947,0.967096571699396,-6.0499382966147,2.5921512251872,-0.296275750529119,-0.0647971522463288,-0.583735340075582,0.444398831800115,-1.693022312218,1.31623589695683,-0.622848639976201,0.0411912395350215,0.202489177265663,0.914145850945689,-0.504588258553927,-0.501760168916133
122.115,-1.72327788056421,-0.321118837208692,1.4323739589708,2.24898151909867,-5.34932821373413,2.16496913230297,-1.64387355633934,-0.842271326606801,-0.679991528397311,1.14512205427053,-6.03786826323052,2.54015087896577,-0.301973264064262,-0.0344595260054035,-0.54929439543363,0.566997125460326,-1.6732782993589,1.28410200481208,-0.648770098232191,0.0694150145918667,0.200737142144766,0.878422401180073,-0.49165144746159,-0.369045422368379
122.12,-1.83587023276075,-0.356424097165673,1.47317176576151,2.22065426981994,-5.23369920240074,2.04823517239355,-1.63350719278297,-0.898452741364175,-0.749860321429698,1.37215353881728,-6.02132756947698,2.48477918101502,-0.289907402000499,-0.00618158185649716,-0.515014477559792,0.755613019583388,-1.55051355132229,1.21949895781703,-0.678016900676773,0.0820214376437798,0.218370119766419,0.871637225565823,-0.498699691435994,-0.300080472629942
122.125,-2.01120048911993,-0.418196598174538,1.52066850844306,2.22264352984049,-5.11195522150198,1.9315685237843,-1.60956257694024,-0.950168155428464,-0.857635539911338,1.62859263544102,-5.9935338995646,2.4038015353989,-0.281361836392573,0.0255124286890132,-0.440708107765018,0.935291728460623,-1.41442325262479,1.14723369801175,-0.710808956320906,0.0922108543308508,0.241921729740075,0.902359754963403,-0.542787902526784,-0.287296367562355
122.13,-2.15157224732126,-0.464948081783569,1.55777789819123,2.2133931438305,-5.05257821685373,1.86001353118147,-1.60254969704083,-0.974889847249316,-0.973571407116662,1.84365204640621,-5.94401502773953,2.28356988444484,-0.286900107420869,0.0958006534712988,-0.341241559956904,1.13792206338531,-1.28214829981245,1.08150822815569,-0.74412883803656,0.10004550703,0.261299875639382,0.966406136225631,-0.616039705164174,-0.34037012450358
122.135,-2.259843920366,-0.477196080374043,1.58085041645711,2.16986888687203,-5.02975870188436,1.78922211433496,-1.6097635924645,-0.97439304189902,-1.06622255223387,2.06067050937462,-5.86964943927063,2.12734309185452,-0.312232776569245,0.185150616715381,-0.242594483320191,1.34843200393788,-1.17515110090911,1.04416058686738,-0.770102679248506,0.117839999760295,0.270209609943122,1.04521427190557,-0.682504724934135,-0.412610412233831
122.14,-2.37517999528229,-0.489878690116109,1.57629791788153,2.06958181765776,-5.03025101033543,1.71575760388214,-1.64012327673262,-0.948070691921,-1.11083741548516,2.28535407651936,-5.78056408061421,1.91679933121006,-0.359624507905515,0.285243402490416,-0.163340698728852,1.58469334071847,-1.0463047221639,1.06387334148771,-0.794241595566835,0.150335136502908,0.277169452136193,1.09396457545948,-0.717196761433059,-0.446329421971544
122.145,-2.45790912690875,-0.548574801722568,1.51608704743194,1.94098038054641,-5.05007300500295,1.63778249878672,-1.6757673875512,-0.895254189249556,-1.13972679152374,2.45059571040486,-5.70049810502139,1.72667944235785,-0.39751429843527,0.373828357571695,-0.110624799962438,1.71734767725191,-0.951043462586175,1.11763778421019,-0.802699513594166,0.181960135309619,0.272440066263543,1.0907366733531,-0.676770650617642,-0.382152076913012
122.15,-2.5235968046454,-0.646717163337976,1.3986539476899,1.77911674307894,-5.0701118780671,1.49007553281885,-1.698030573306,-0.806905313241674,-1.16032964155167,2.64366247509521,-5.56658049990507,1.50795424927221,-0.471180386234414,0.485708989524718,-0.00146178598863636,1.94548585053512,-0.800979207732857,1.22724231527383,-0.816080431239444,0.202909399339489,0.271175505232293,0.993353920738912,-0.603141252605647,-0.227322279039076
122.155,-2.55369233562364,-0.700955076497773,1.2773483335258,1.62469177140416,-5.09300014838087,1.30308182967501,-1.68684391029569,-0.718180712245828,-1.18117918242232,2.78333090839688,-5.42711477920599,1.34883449266517,-0.55711804958851,0.616557552391468,0.0786692794398256,2.1241718069245,-0.70951019184203,1.32719106055359,-0.826250994326337,0.198088327879576,0.272829287277214,0.857395564002966,-0.509608960110328,-0.0277087286678508
122.16,-2.56443556682759,-0.69876096242379,1.08516940848611,1.43012166872357,-5.10139332921854,0.981035728437489,-1.64386230599361,-0.622877615867434,-1.20882196406882,2.88383807597945,-5.28857540344093,1.23288509535662,-0.67878526920849,0.72509338888204,0.143925036192139,2.29539074496921,-0.604524639113633,1.4473882013592,-0.845507479676482,0.155746532045374,0.288385252460904,0.712412772875041,-0.430304559908318,0.137205162935076
122.165,-2.5817238185216,-0.67228372003592,0.832629879987795,1.18260675006505,-5.09156671046907,0.534067293495605,-1.59357027283007,-0.505418364877322,-1.25536530422173,3.00366458731762,-5.07650245370735,1.1083529112203,-0.791047018878297,0.777027965518935,0.149143599322252,2.38222916147511,-0.494448530639009,1.55379186402871,-0.853045041403147,0.114259931556093,0.312987532285893,0.634410130658929,-0.409021662822361,0.21480542131782
122.17,-2.60474210096566,-0.637312953211121,0.636248092911648,1.00065102158756,-5.06687822583667,0.125112702275666,-1.5507988542942,-0.411042409218524,-1.27884038594867,3.09206544736595,-4.86900742550569,1.03589467463763,-0.989151983926341,0.791501249415075,0.145138693966634,2.38921378320157,-0.311034497749385,1.66613695981763,-0.864003384836756,0.0963800463115116,0.346800230610127,0.62106479213461,-0.382188548392796,0.246417989275607
122.175,-2.64423256946841,-0.541725487085429,0.394134153705966,0.821707735754131,-5.04127096000528,-0.428745687291879,-1.4779995695534,-0.2781952754798,-1.29374951396437,3.1396542882317,-4.5752645894785,1.01662186142074,-1.2014343735032,0.691465688952617,0.186224468903083,2.34722518222565,-0.186187907306246,1.77188995201107,-0.875213749024024,0.0926878698293854,0.372436890569753,0.587731004035084,-0.293730515046127,0.276201888210813
122.18,-2.71145563624411,-0.480177295801385,0.176718022748475,0.705288415064105,-5.02746885123639,-0.843410889255076,-1.4025800020186,-0.172326066935523,-1.3186473105709,3.08285094938828,-4.32673574836532,1.04734334655631,-1.41031381762205,0.500742298679247,0.251883390644416,2.19361139625114,-0.175151642757185,1.87102827744033,-0.890008129285757,0.0939806618522879,0.405085585031222,0.506737466419141,-0.134874348225084,0.339612622314606
122.185,-2.81096729982927,-0.467837807876024,-0.0812645085909615,0.652164204426817,-4.95760324116944,-1.2565557203818,-1.29045345229067,-0.0567647243523783,-1.35298225546315,2.83709818786415,-3.98594419361776,1.13807393321448,-1.5339136281814,0.302413623616939,0.327170114346342,1.96060024628769,-0.307092589376132,1.90875993427652,-0.907847057853783,0.100207656756919,0.43234497437531,0.394860467791923,0.0675412781598095,0.433020445661234
122.19,-2.89299445964165,-0.503027522524559,-0.293239109493247,0.664090672837576,-4.81823501322569,-1.56657273883987,-1.14874355906073,-0.00815384170475667,-1.3791778482685,2.38993705591972,-3.59597528367439,1.22878294945829,-1.54100757955243,0.014027557779105,0.468206519145352,1.56640634784815,-0.659214383303633,1.77229182683386,-0.934962473351266,0.105619190436209,0.469194939138205,0.278975252347247,0.21625711794074,0.508198318936285
122.195,-2.93227288669942,-0.558988371065411,-0.502590685903843,0.727548951667973,-4.52799352773378,-1.80839905428763,-1.00458247587693,-0.0476308969164153,-1.39260650468713,1.87036881926118,-3.22274749996639,1.28152471423369,-1.43341108243349,-0.274097356247221,0.62834312342604,1.3394085555384,-0.905666923884727,1.57553482611324,-0.949459821507702,0.109557025519649,0.506106520492052,0.20515245642104,0.323679449822519,0.577917696309817
122.2,-2.88038151274102,-0.606007883582199,-0.756853725810284,0.769408661601083,-4.16789901542469,-1.86536318581778,-0.888435294876967,-0.177233168623738,-1.38845578308944,1.25279550471369,-2.8432995830676,1.27811500677672,-1.27408510228548,-0.571010206732407,0.796039029050736,1.04789228238961,-1.32768741594362,1.15421179673701,-0.972766649692145,0.107849655011878,0.527359738615826,0.153835468127368,0.367190445499476,0.618117096718363
122.205,-2.74000615856587,-0.635151610168573,-0.964103325270527,0.773244313907061,-3.56846992196765,-1.84129197830067,-0.773937946798186,-0.402917477919696,-1.38801926738796,0.438956379744224,-2.34468713040003,1.19971113563331,-1.15516662614267,-0.712868600491504,0.924610649074026,0.873691378804858,-1.68649508368757,0.739022716528091,-0.995208277420188,0.11277069373885,0.528222106692983,0.114128511042838,0.377400243698096,0.638820187194062
122.21,-2.57063093741481,-0.591756080559407,-1.11464692011535,0.632304892582,-2.87323343451948,-1.73835040473763,-0.701960111456998,-0.660142534141123,-1.38846399890252,-0.311616638582062,-1.85373442835377,1.01890639270775,-1.07391575521455,-0.781989912909236,1.04237333895602,0.742276754043341,-1.82478004118546,0.308140880739619,-1.01436484664867,0.107550194833455,0.523398342730262,0.066778340302514,0.386066312933611,0.64852976000261
122.215,-2.40035711972951,-0.511120806018137,-1.19861633137333,0.321661880226058,-2.09972517978463,-1.56443801699701,-0.663494385026982,-0.892448171001458,-1.4048327066945,-1.0293923922701,-1.27303011459743,0.740442447884629,-1.0616715742624,-0.726404664972966,1.09711162106028,0.652996637079371,-2.12727954384701,0.0835659434491091,-1.04076382798113,0.104485049613398,0.515094675325972,0.0438514175932969,0.377982355820555,0.650150753498082
122.22,-2.23673957926694,-0.406176894067663,-1.13409207243596,-0.258333026815119,-1.12122209900995,-1.27810106775729,-0.69413380938385,-1.12058605598426,-1.4145036612626,-1.40028643550043,-0.829656684451483,0.503107784669933,-1.08039810563504,-0.497778494459369,1.12100925290874,0.590281641315793,-2.11648551655173,-0.0568492996087481,-1.06747061681728,0.114294667988245,0.485884336332785,0.0499859723691158,0.351011502524562,0.650052274910066
122.225,-2.16568760311519,-0.375632375485719,-0.99078410942832,-0.782456426518203,-0.393936627827123,-0.977343235443131,-0.777709056428782,-1.236856575546,-1.43495517508664,-1.53845049733828,-0.443945824923847,0.30259756386486,-1.04127797071253,-0.173553375140601,1.13666428323393,0.540188722186664,-1.94098657005058,-0.174331689627255,-1.0781532440171,0.126988444089347,0.480532791170292,0.0841143054004226,0.313867905404549,0.655914782397715
122.23,-2.14109607873373,-0.425699190460762,-0.828267510898726,-1.34948253280209,0.31841741821689,-0.622906338035278,-0.866517406077521,-1.29413676236629,-1.45525328814409,-1.49861260314795,-0.0981071692420543,0.107614930785845,-0.941928190968459,0.170158070015522,1.14675308863721,0.498534449623232,-1.73158727528602,-0.325131853805977,-1.07670636957677,0.141795493855754,0.454999098616439,0.137987964410975,0.272462892663866,0.661945879459381
122.235,-2.20615734997494,-0.542344681195982,-0.623155696682432,-1.7837914695208,0.995522687684789,-0.274104140742804,-0.913907742180763,-1.27287094792513,-1.43919361431241,-1.27794597759645,0.11685842398498,-0.0197389479449248,-0.787994410594393,0.497222610991082,1.15018578348208,0.353093778574448,-1.34130603723126,-0.547537375609065,-1.07297350359391,0.166305666842613,0.431064707107063,0.219275122439575,0.223738852545747,0.661945879459381
122.24,-2.35538313259413,-0.722492811153504,-0.387625200761789,-1.85595732652234,1.52860213601079,0.0259924600222096,-0.89594445562383,-1.18889457759217,-1.43510922911237,-0.855847952254534,0.323020865026837,-0.128182184368539,-0.645737752506726,0.690850029393373,1.13667410785896,0.0524386879123751,-0.749868601652401,-0.830031400301002,-1.06062701619835,0.181994148227235,0.413241551955484,0.272282098405056,0.180457632072277,0.681934704291681
122.245,-2.44460722590497,-0.907330604805403,-0.261125850697362,-1.75599512364364,1.81539823100898,0.251967217617158,-0.816727865044175,-1.07838509088637,-1.45228232502454,-0.54308246716698,0.56655493454155,-0.194134028441502,-0.532282779855755,0.780345867178519,1.03468708960389,-0.278129972417239,-0.186836542393716,-1.06029301620683,-1.05392774928638,0.196225083716248,0.395642385280125,0.297661818197079,0.127928769143703,0.723348368103738
122.25,-2.33299266642511,-0.940490285719609,-0.222901892146883,-1.55540988251933,1.97607331555982,0.372676844022148,-0.743615598435528,-0.963649617503719,-1.41127735106704,-0.301624498720918,0.957940794705993,-0.28776525189866,-0.50663897572018,0.7746701631889,0.922316812833982,-0.736763228409741,0.432852233081625,-1.24555000568177,-1.04917058918294,0.20608722968929,0.372780937146003,0.290387157596874,0.101724061727084,0.768409791256142
122.255,-2.19044361796769,-0.861575978650444,-0.26237126759039,-1.3348198257467,2.17932580002888,0.314495401994621,-0.711833888983314,-0.808968498428117,-1.28446903859447,0.0257537135478418,1.32890440165594,-0.417409724124479,-0.526500306198671,0.724710854472451,0.842459247900818,-1.09787877960864,0.788458061135429,-1.3293567391561,-1.05613370813439,0.206460699870487,0.354939469719767,0.253683947733575,0.0731441522145118,0.824508390360711
122.26,-2.00944097254127,-0.643878747682266,-0.164090827390266,-1.15139434643117,2.56142090974262,0.216387951106115,-0.72371219934796,-0.647601195493056,-0.98944062488377,0.56373292953642,1.66777622311985,-0.594654378637179,-0.560610550612363,0.646446393540713,0.805713925180521,-1.55728818797957,0.9987951604549,-1.37668657010819,-1.07652476360736,0.212997327033707,0.337881135614088,0.18973884591872,0.0854056271998271,0.868103495586616
122.265,-1.2335805735228,-0.111379765290182,0.280414628821687,-1.53049636040384,3.17350125778584,0.0180532748842779,-0.863464428292002,-0.456365792598256,-0.117504179227466,1.62683865452017,1.8495235134591,-0.885595465316746,-0.624863903817006,0.632979751911312,1.16009133911122,-2.09579783725569,1.12402223968694,-1.39471250556837,-1.09414686396219,0.232186510728991,0.327621148048751,0.127902357569286,0.113603440395739,0.912549215883232
122.27,0.637600892913001,1.08580186543991,1.1047083855651,-1.72425647287949,4.06610098375221,-0.749599159248838,-1.33208679510491,0.0822273171844315,1.85669367396208,3.9133099749945,1.51751555515043,-1.16764934147805,-0.47163554185428,0.620724084435043,1.37350454766324,-1.97420698006064,1.04506692847633,-1.30864168693649,-1.11080498674197,0.248062482806948,0.316463711546359,0.052507664987974,0.171775185429572,0.976513435720977
122.275,2.9754597718515,2.60804141820978,3.69379842114495,-1.46659314437065,5.63082091799644,-3.38743794370129,-2.44921648487277,1.73987550372837,5.11450019193888,9.04201676413481,0.52142073031732,-0.853748428409348,-0.441473365541996,0.377331537661081,0.963206607987416,-2.52356916575595,0.790812513352468,-1.29833733466249,-1.12460988228304,0.280308130625476,0.281565383291592,0.0134063634306134,0.221592985006822,1.022376267787
122.28,3.48747395297735,2.51917739868404,4.62219018238083,-3.8422682396531,5.10195416873149,-3.9743478264723,-3.34470264604605,4.27368310336928,3.83121427105841,6.50180767510535,0.255792025842231,0.447831094978702,-0.832740778053974,0.458303251431079,0.191656138013519,-2.83178597108361,0.873292272917495,-1.35418746829584,-1.13732697715143,0.335722372663706,0.254051882820976,-0.0164898846306851,0.283923600577771,1.05816648402156
122.285,1.76084405588272,1.13847911708855,2.89086999434685,-4.4970042670744,3.25518930562791,-1.97256111414538,-3.51607331486761,2.78356310257798,0.912022701927884,-0.912010955234796,0.724921175717268,0.467951038235022,-1.80659813147223,0.935182105258903,-0.562261423052391,-1.91698799185585,2.30290104597292,-1.31691651622584,-1.18114436080331,0.420080461250927,0.288789348000736,-0.0739714661405083,0.34831240106568,1.01887761363564
122.29,-1.19425121453617,-0.634627686189193,1.18578429218301,-2.03370216135413,1.97715021228579,-0.541581120007073,-2.34910745030817,0.936032668507562,-0.159440549021693,-3.42346052638597,1.51532473485489,-0.325433006122996,-2.77914585686762,1.11594710687387,-0.352181413792932,-1.12564087751293,3.68066440568508,-1.5570580785405,-1.16525551917108,0.415255225601579,0.371242316777005,-0.120212802932354,0.410171990966449,0.97760940698915
122.295,-2.78351774736342,-1.2251100340109,-0.296188522515327,-1.79176703140529,1.85998604309663,-0.96433131112502,-1.17303721294357,0.341747251508137,-0.0313242243213658,-2.86694013176673,2.1463076694428,-0.166560739872186,-3.04862704285293,0.268771798111695,0.971531017229245,-2.58310070952434,2.84989595535549,-2.13301207670089,-1.18741923961366,0.421258004780776,0.522194067915809,-0.20563830470006,0.41031615912689,0.98839810411969
122.3,-2.72496352736855,-1.41693902742692,-1.20932644654264,-4.81438584537942,3.1568338447165,-1.75784654497917,-0.318861794506125,-0.580430647336706,-1.03980139273458,-4.36300106206988,2.41520588769668,-0.850403154015065,-2.51689817259508,-0.435751960340517,1.1093646138601,-4.61882352181333,0.729505086981052,-1.96791566983688,-1.24224598686712,0.396130380596674,0.573511343238397,-0.254610847920484,0.360209521727632,0.936539661882366
122.305,-2.76098258744911,-1.22642490773041,-0.200209349728896,-5.51392661350063,4.37314291078462,-2.17767968064064,-0.136464798633235,-1.2184412962135,-1.59344582056347,-4.65181020190291,2.89264029041643,-1.38776568394646,-1.72856793181408,-0.804402379773973,0.625102608101731,-5.82555409435003,-1.02957476492723,-1.12348275675302,-1.40039102142868,0.384609847652887,0.54948184607815,-0.32479354493919,0.292793611468974,0.870137039307532
122.31,-3.54382516493775,0.805057994236158,1.90290826308414,-6.15245956095173,4.37582723481609,-2.59663961782853,-0.401279682570425,-1.30889190135597,-1.73439076047515,-5.02313695985554,2.90563077627974,-1.55338082706743,-1.30299622790497,-0.859333383986872,0.740672752089684,-5.74471584976899,-1.48651595031634,-0.435098104537384,-1.57576217423723,0.300783983620596,0.456377840342931,-0.418727800131992,0.263084888458252,0.843198985832098
122.315,-3.25226326668746,2.04273972986103,2.65092176284941,-6.62214305328179,2.23312305536399,-1.62748262081199,-0.76191007196352,-0.724056690612284,-1.38720751562719,-6.85855126160895,2.16320796475924,-1.8053748465445,-1.06469628528774,-0.691007879141595,0.860693588102238,-5.40140115446892,-1.11964509366812,0.176998151252573,-1.69851744211359,0.178329146115035,0.340797834035416,-0.487506817976941,0.233989866125472,0.905605672217506
122.32,-1.45628734826257,1.23573974072818,2.08405702125193,-6.75633132366796,0.22143598045719,-0.468540915970338,-1.1770661850604,-0.0820493878785769,-0.60674751972983,-8.23640284695428,1.70437851591764,-2.35614020067051,-1.06101452350171,-0.508805673679556,0.820572244361763,-5.02624661160199,-0.614402829493389,0.710421424152358,-1.7233579082338,0.0294287304093625,0.247500668808439,-0.544297391345141,0.145674639857752,0.93944244698612
122.325,-0.12745350579184,-0.0267163654207759,1.61516112655223,-6.32652998652066,-0.278447227876056,-0.066498782418638,-1.43087944480138,0.0706193018336151,0.00426081648960954,-7.36523283422451,1.59744036558068,-2.42227954143096,-1.11981758194604,-0.365653374324869,0.418900893703887,-4.46473079013359,-0.203557317405079,1.31222322842941,-1.63320573274877,-0.122878512792642,0.177997112060068,-0.584468187155773,-0.0818587548104546,1.0721962950719
122.33,-0.00525423711515007,-0.88218159697792,1.46000802359187,-5.08498950428785,-0.317358404508994,-0.0529902574104096,-1.56997472879795,0.272277833038467,-0.00309438620719287,-5.73140428240911,1.54473732007061,-1.83843574765422,-1.00673891291089,-0.33310561703217,0.0496251689686537,-4.04372957697636,0.230611060376737,1.59342285385637,-1.50346708127647,-0.271764618080201,0.135050535540384,-0.720232243438636,-0.460876521793148,1.25701859100709
122.335,-0.371995504334872,-1.38203740823691,1.14300184053598,-3.87953930801099,-0.355771229588873,-0.445015673530198,-1.44076631651474,0.218607047025557,-0.252953962902068,-5.61649892757391,1.82229162473216,-1.11330127703922,-0.77738658858282,-0.388039297393207,-0.402860908506073,-3.73556999969515,0.899929655303193,1.57649781215681,-1.38384815983224,-0.369144569069037,0.114575587142301,-0.816052712282793,-0.701616601274801,1.34069363117818
122.34,-0.941857816551996,-1.22991325742775,1.09397472639178,-2.76146635652125,-0.549730403928782,-0.843049793701672,-1.16609573198611,-0.303067034345078,-0.620102504039484,-5.46910036238098,2.08978207511114,-0.437297008405983,-0.563045150354666,-0.563947213433997,-0.605634963694248,-3.40998988492055,1.45895783216921,1.42705430807677,-1.29672520968914,-0.419011760398442,0.0956986772672909,-0.881447703464879,-0.769015883120082,1.33923355308493
122.345,-1.20606829496268,-0.511643252115805,0.874116694725757,-1.34337761191209,-0.839983704524209,-0.910763323729899,-0.87997963492359,-0.884600842251284,-0.99525477120948,-4.50540895743321,2.2314731309258,-0.000810953035314154,-0.259465640994892,-0.940967439869157,-0.688129549974599,-3.11473379219561,1.94595898905787,1.28658949416442,-1.26053953479337,-0.434601054316334,0.0730420256653582,-0.83243151554528,-0.660347504957517,1.2619055074085
122.35,-0.932478267789834,0.805456321419522,0.488927913014347,-1.04672373029388,-0.762408313001544,-0.683477311373879,-0.74047234115601,-1.337471938752,-1.09258688871638,-2.50980027605166,2.28179002402522,0.156242573930056,-0.0657167320583966,-1.23087102754351,-0.922352516063375,-2.96486568047348,2.18524023116349,1.33082462190487,-1.2380925080273,-0.425974781792241,0.0177912866554094,-0.582202717389506,-0.350197239873175,1.03131143337098
122.355,-0.936860606909122,0.83416797520501,0.72881936358221,-1.19746831999009,-0.591911377211174,-0.508513232537957,-0.736360614333335,-1.61255223523907,-0.938013344647194,0.27753532109666,2.19195034106442,-0.055967847757876,0.0841756463242201,-1.48758571141819,-1.04626841398399,-2.93978108889478,2.33415022269087,1.45857076482066,-1.2070382628283,-0.407439131337034,-0.0340628469843302,-0.249911797126254,-0.00099369632102693,0.718904198875464
122.36,-0.879765604328751,0.460131182671374,0.893596113969124,-1.20628391025949,-0.632463195674475,-0.432699052997028,-0.803173703562511,-1.34680093244319,-0.725354254497576,2.02546432217725,2.09074485569189,-0.375672417062808,0.0228305039811993,-1.52691287218881,-1.1712199020506,-2.49765635527352,2.3329742412262,1.41375983699816,-1.15244185353358,-0.389996559790396,-0.0547428538031708,0.0564303085346552,0.330501275915014,0.372881401583041
122.365,-0.341156849862367,-0.340600860733195,0.901736576296659,-0.384184305968829,-0.851817526141376,-0.638639391329748,-0.855917219924422,-0.837054585312119,-0.492522058512071,3.33408406630234,2.0909636493981,-0.531394541260317,-0.157175993135659,-1.39965769165927,-1.23404788603125,-2.02618174926406,2.27023965996339,1.23588118186037,-1.0857759082095,-0.372672837136823,-0.0528623643106824,0.264385553448652,0.590778691212501,0.072972275956064
122.37,-0.412902102755475,-0.0677815047256521,0.898346703051795,-0.176865573790928,-0.785136413157422,-0.53412246385407,-0.900767154492462,-0.360234531839467,-0.331451378757699,3.63440771485383,2.1081051211572,-0.482012525868523,-0.464362217414003,-1.08092226669149,-1.15258399252081,-1.79070540050234,2.12571445362685,0.984092638509772,-1.0150294849016,-0.340339130198483,-0.00118855261692087,0.345577792112054,0.787690430900022,-0.199430826956841
122.375,-0.552824449876242,0.135030760436827,0.921081383829556,-0.0444977700876632,-0.691275609074469,-0.432239381535849,-0.9540292140069,-0.140102890296989,-0.29995088932938,3.5461292497012,1.9997633827078,-0.373670865727666,-0.939154701125381,-0.713582657924661,-1.06088614635732,-1.03386380710686,1.7772755896889,0.646998340958051,-0.980490127776853,-0.328587220080802,0.0702095581263387,0.309912296035144,0.857400235379837,-0.417476644075726
122.38,-0.611499390003113,0.214176242995057,0.876802332904853,0.02183745860317,-0.598188421182918,-0.334649359923798,-1.04592623136532,-0.00792944459554369,-0.287600128136105,3.62418126801604,1.84762628964027,-0.211389796059157,-1.34011789767147,-0.460179274192685,-1.00467176441805,-0.237183021476059,1.28570594297568,0.191239804447455,-0.952022776043865,-0.309930547604197,0.148793540261496,0.201422808551076,0.789794142064768,-0.742053418959146
122.385,-0.532927191814921,0.0936038674294259,0.908624908495249,-0.0115938000380993,-0.480492897647399,-0.250394058802534,-1.09178127358396,0.0235400214987483,-0.238337540482455,3.61585355808802,1.74015712259907,-0.0806764777848841,-1.66773815754692,-0.243036923859194,-0.886618984761251,0.707917858547348,0.2534060876881,-0.54233858673378,-0.949243298687346,-0.249672680060432,0.23191748945458,0.0795231034586209,0.618408498266852,-1.08359064596592
122.39,-0.475224590635088,0.0658127690149801,0.892236195117885,-0.0104318646568771,-0.440829320716532,-0.197836771126418,-1.09751010155292,0.0810746826724169,-0.240357241665979,3.28392210761035,1.61165189966642,-0.0210836005324384,-1.88350327590083,-0.0915458736396077,-0.825818304599933,1.28808446691881,-0.765830662231719,-1.02349115835495,-0.955556767537823,-0.111787631042957,0.319665329925079,-0.018336028328908,0.23571022171993,-1.37494719913968
122.395,-0.503742818875347,0.173916083731515,0.873003095604379,0.0121180334519039,-0.376400164226608,-0.138063691917821,-1.1031736376311,0.249633874872589,-0.283165175944266,2.57112066583862,1.42524641630133,-0.0130950554311217,-1.88887865358859,0.0113378996721922,-0.607696313656497,1.9575526366013,-1.39844569916847,-1.41279288213154,-0.963795937826863,0.0300903455649978,0.372392041045752,-0.0449105054140091,-0.157454795590543,-1.34801830678813
122.4,-0.527142177682636,0.261517258608208,0.852884268184255,0.0299968295378948,-0.302815569692138,-0.0813972441981669,-1.12115384610263,0.443230895252,-0.305508227257799,1.76403221332276,1.2909539462238,-0.036359678926336,-1.72546068746352,0.0348942097071039,-0.374891179941874,2.50867045155475,-1.47541618004301,-1.53005289441706,-0.974712051444416,0.171271312194246,0.389670218919245,-0.0377221081425519,-0.706804827179456,-1.11583028781822
122.405,-0.52088984260686,0.227773871141735,0.855048948841094,0.0233841828881252,-0.255216606549189,-0.0590006771169195,-1.16972415194082,0.598434923464426,-0.281130000740035,0.963625947472587,1.20550234708614,-0.0657187939484465,-1.47678047176484,0.075502545915452,-0.277811652435339,2.82203251070826,-1.08307385623361,-1.39915794260257,-0.998541672491406,0.275446033349306,0.349632473624948,-0.0774702402826283,-1.21007792537142,-0.582087766896335
122.41,-0.475563636635503,0.150765717383173,0.882030538052652,-0.000427910534705429,-0.197574309255246,-0.0292497966570915,-1.26620207129129,0.685499048307557,-0.203459863025384,-0.138987997837494,1.12559987290764,-0.134953268371343,-1.12779282498159,0.188240978582727,-0.2713571486541,2.90978917720977,-0.470905010535514,-1.12195653023423,-1.05438516564185,0.270240519642553,0.293410751101908,-0.130492629115733,-1.30720122337068,-0.242321935888993
122.415,-0.456056394429532,0.185814341546162,0.867257584347748,0.0030665323138237,-0.158508052657996,-0.000585825517927548,-1.34145695263263,0.602008970166908,-0.164621358954568,-1.009566687819,1.05330849052089,-0.196941949708018,-0.821976594584001,0.258137233221261,-0.136396292613394,2.79852474688202,0.145242310935085,-0.814325761505115,-1.11329412142253,0.26941613226232,0.226416551727795,-0.129266514380918,-1.214446002792,-0.0701955090879649
122.42,-0.474528772810394,0.253766372961189,0.883062943717303,0.0067884339022595,-0.10769913368424,0.00988611853103019,-1.34790111929908,0.439509538808446,-0.169674911824847,-1.71106620882069,0.945629303655268,-0.257466134276621,-0.747842691306808,0.341974738263804,-0.0651170673113834,2.61396820938613,0.543111174564374,-0.653711439515391,-1.17386441773364,0.319078551062431,0.163710345380636,-0.0791796409856138,-0.907767364016633,0.00936977123956777
122.425,-0.463099543192512,0.260689091645447,0.86447408983566,0.00349153879415434,-0.0562624933293909,0.0129817957090559,-1.29750120466271,0.262164344401447,-0.219032031228651,-2.36195734960401,0.811461445005089,-0.289268333508374,-0.794296457029814,0.412506870253851,-0.0494368891590519,2.36238261049362,1.01014734777031,-0.547400046842668,-1.197281749238,0.358275414150156,0.106070514970316,0.0660677933222731,-0.577407219429998,0.0722946655196258
122.43,-0.456080177927362,0.237807098586879,0.853194627265373,-0.0207824876928611,-0.0181668667565576,0.00640721788066417,-1.21729474525912,0.0819458646765119,-0.271511952273116,-2.76565321795288,0.655447961584868,-0.268345374728208,-0.935114688977501,0.438114613626913,-0.0426733011793223,2.06437578261051,1.34988101641273,-0.575010638303787,-1.19044620002308,0.370951441793788,0.0554746561532673,0.304979309229529,-0.206082789917676,0.134975955714585
122.435,-0.467964761816545,0.251221777658506,0.853866259484553,-0.0483893534488561,0.00200419653607055,0.00293080033917071,-1.11651457336899,-0.102054575544386,-0.318031943425371,-2.83860647891031,0.469769452162334,-0.181968566596303,-1.08815647799591,0.461022301294529,-0.070049873297962,1.75017727595328,1.41988241917318,-0.680117988040687,-1.16306610569032,0.349292718760034,0.0309858654524563,0.593271138294309,0.159793783503139,0.17335018561357
122.44,-0.487786493074407,0.250710896072933,0.863033245713145,-0.0682027624702175,0.0248839216852366,0.0160271010228513,-1.03263604473841,-0.183201956871968,-0.348724991633477,-2.68183733422785,0.354330310535025,-0.132761416428342,-1.19104435868525,0.565842088217734,-0.118644929682693,1.34997384004105,1.32473062676017,-0.576096324122181,-1.14242979227529,0.303728236579014,0.0694940718312192,0.88744840380458,0.435772122132366,0.169492037505236
122.445,-0.478185156510938,0.239782719699308,0.859152825342724,-0.0796534042158082,0.0539381675441382,0.019810695873677,-0.962729326185342,-0.219391366029977,-0.350555021803275,-2.4367667505516,0.340582613039137,-0.106543537971546,-1.1609462883599,0.698659032668131,-0.100795353184137,0.82706335260371,1.22729195301636,0.00226693177299134,-1.13221020973605,0.26331516920403,0.117674711724778,1.05251371219599,0.431207031271864,0.110425387004426
122.45,-0.47544579363998,0.211467097889093,0.85971193514168,-0.0661531515302117,0.0914708688131174,0.0409001588576779,-0.926680238692416,-0.205293943454999,-0.333707232439252,-2.1920671374638,0.415773303575954,-0.112546796420619,-1.07755422936533,0.728439817247335,-0.0349379558441131,0.0940475022538706,1.06705966694802,0.860607407048573,-1.12442452720101,0.225039970076952,0.163882171694403,1.16589684926171,0.261753922890042,0.0628723246351239
122.455,-0.4747642021042,0.197115135936445,0.858315508974866,-0.0406259791542627,0.118653909213228,0.0641052864354671,-0.939266761327699,-0.166009824582875,-0.332590641253318,-2.06550239858527,0.513217972078585,-0.161360888244644,-1.30435309121453,0.423116415811376,-0.0605887992368807,-0.168400079335934,0.678501352310889,1.07634894661827,-1.12634387516386,0.182010045257837,0.193558959377452,1.19107534930285,0.0951624549676504,0.0887398220325978
122.46,-0.488745612792593,0.239530109799613,0.85699184976802,0.00644509840321357,0.157066346337436,0.0953111595362957,-0.982762290066995,-0.186028851122729,-0.39757706907273,-1.25609062299383,0.523715327792175,-0.0313954362510102,-1.59802965704253,-0.177165768010866,-0.452424599617196,0.502373160419547,-0.0228718301737844,-0.23547596415833,-1.14189339767584,0.13838328720391,0.213548368647109,1.14258211616172,0.00566975733687658,0.167729260168588
122.465,-0.491025486724227,0.25730827158712,0.846136617784356,0.0448883937458363,0.179214678506213,0.11389242707109,-1.04221046661409,-0.132136994386585,-0.37889824934925,-0.277268619729515,0.358551058940476,0.055997125542963,-1.2267843727737,-0.295568680059236,-0.553070498774065,1.50255343910316,0.70756155440016,-1.39391296743205,-1.16818895069346,0.0889145596288016,0.223255949257677,1.04990340739998,-0.0367345714812067,0.252840960535902
122.47,-0.472938705202544,0.2596597628859,0.846174906661698,0.0693969471867265,0.211344351957153,0.122298336596301,-1.04468441140924,-0.0164918858277,-0.288024655870038,0.0913553197906923,0.254289717211046,-0.0274562560977278,-1.03962293074939,-0.138704229016348,-0.323483330914597,2.73906445285662,1.77979238603547,-1.71871473991925,-1.1917462932067,-0.00540810323679281,0.22961957139825,0.980832004052827,-0.0506120188743365,0.302254921802315
122.475,-0.446940112034372,0.233503887269187,0.849736170306035,0.13810926042353,0.228006732791395,0.114731356149082,-1.0219319793266,0.0730910883598119,-0.260655609912008,0.567071047739235,0.407582124397109,-0.0466035267740277,-0.74439903089836,0.134213703541627,-0.407701721871841,3.13012605760998,2.39017149311838,-0.974538437305218,-1.23651531332041,-0.0587553389676996,0.226034313832388,0.931026529422664,-0.0951861522191559,0.306346349853497
122.48,-0.405754574370345,0.254427802032552,0.836774104607717,0.225101922659365,0.224769923947907,0.100518920231658,-1.07770103712483,0.15421715644299,-0.25857647530591,0.92348881375758,0.301870093501932,-0.087504467105297,-0.593182741035903,0.576461727834095,-0.259174515485454,1.72783040495285,3.43100029593312,0.884946523248325,-1.26467037875368,-0.0955145814782756,0.220117648933146,0.912875803257962,-0.178315416087498,0.264206687313133
122.485,-0.449803405039914,0.306244628488216,0.826066586593499,0.258120199423496,0.229115914283953,0.0975594369760898,-1.06987007794966,0.17569077427948,-0.226871297855082,1.19718175233429,0.104807083071432,-0.102896221133357,-0.736008290092162,0.55973942128662,0.270654075298448,0.223366855339683,3.55141633840969,2.47045682147019,-1.2655099207907,-0.113220993766638,0.203231002540013,0.924580177410586,-0.278993684534726,0.188886882812444
122.49,-0.453126294086661,0.298344951790955,0.826807480239453,0.283376565934078,0.214793433245604,0.0722525272019408,-1.02633443908462,0.174557844719652,-0.203706174487675,1.48538452170557,0.100313754485435,-0.0817985638471206,-1.12477445898138,0.0676681541285675,0.207098438984697,0.255317634576487,2.13996072471031,2.55023351674746,-1.24228454346941,-0.127781472895087,0.189039175521975,0.972482614776552,-0.390299246759621,0.0804950159269354
122.495,-0.447941170431085,0.279309380668431,0.838005592230036,0.285776409927296,0.199428942110889,0.0402441536484288,-1.02118926308387,0.191352087717988,-0.167706198010056,1.48347822732245,0.128637541962745,-0.107994026636413,-1.22556208653118,-0.0829314418391974,-0.391839137348513,0.759410249733305,1.41563385921927,1.4204006150248,-1.19951843733262,-0.143502904976358,0.18025547547828,1.12354863067482,-0.55031726300731,-0.103022192319401
122.5,-0.447686264402498,0.242394432436132,0.839499800491753,0.290123911880955,0.182392921681749,0.0196461624762109,-1.00443096956324,0.133219700940901,-0.156494154156488,1.51353791101608,0.0616730481202394,-0.0528490583163172,-1.27530604307757,-0.0864575889246385,-0.310950127444704,0.786107274414972,1.4703765098262,1.00660231683762,-1.1503265369448,-0.156006121311577,0.168068149501053,1.34856848656449,-0.70981304629749,-0.314160511441291
122.505,-0.449179998239211,0.236089219312263,0.847120446611851,0.28894305229187,0.182731322275377,0.0103684203449226,-0.987911912957316,0.148808605876751,-0.0989170017918701,1.40684595432379,0.0919216586374956,-0.0666849922923746,-1.29111209218295,-0.255196702944945,-0.0814536385267284,0.926167415682696,1.46092182451456,0.453028437780858,-1.09665052920667,-0.15269141694316,0.17215906937156,1.72498053930549,-0.868007835879162,-0.644555581741769
122.51,-0.456228861471514,0.243628800307534,0.845832123150842,0.284760705105924,0.179216927042222,0.00652005339965122,-0.995217372752684,0.155305240086884,-0.117637484341537,1.05894368371858,0.161207229898332,-0.0599362775899743,-1.25286933772961,-0.26992214319343,-0.055614538140094,1.26029052332986,1.25047032589532,-0.129792649350177,-1.05368901522021,-0.155127159905019,0.175922658441931,2.23509039006788,-1.02695389875961,-1.05536142547571
122.515,-0.456537691635042,0.240052639534219,0.837933071624204,0.278648953378587,0.182831823781405,0.00875610888998359,-1.02382024884887,0.16315265817304,-0.111469736584768,0.81861447584954,0.128444725577372,-0.0505113915818912,-1.12676313748439,-0.195682184637308,-0.0252963634236166,1.35551360128323,1.11505073545123,-0.197492727565594,-1.08682781330105,-0.1425458691969,0.175678071101419,2.66221328886736,-1.18560265261014,-1.4076575080745
122.52,-0.449706460200951,0.228078135500218,0.854546960893063,0.259474781499657,0.180069287028144,0.00438558280082036,-1.03836299075171,0.162697932044474,-0.137999841853032,0.551829067548192,0.0468235703495249,-0.0484898342145865,-1.04384649247078,-0.157927268180592,-0.00270117023251342,1.49371506185783,0.776910959088056,-0.286019735360898,-1.16462265700264,-0.102278933858479,0.126240871167193,2.92951896354514,-1.36893198917335,-1.7401244785902
122.525,-0.46296884454937,0.229383079098612,0.827859126515426,0.252448813110369,0.176516000332706,-0.00707083106690033,-1.04481989402903,0.151136033627625,-0.147533230019237,0.433894033216123,-0.0878973602266736,-0.0389467063165405,-0.990969441632448,-0.0627011309492775,-0.0494309945868933,1.62232489966036,0.454706090605305,-0.144622130879753,-1.06799738710128,-0.012667109965171,0.074547061180483,2.8760243135382,-1.30447491331696,-1.80438734238239
122.53,-0.479584010073847,0.244184944752718,0.835789406858537,0.253250191561406,0.173899364230773,-0.00119743339326339,-1.02451567754264,0.164882972712106,-0.146424152318044,0.254337911016045,-0.199677676874586,-0.0665455203259534,-0.994909849353651,-0.00340351710149716,0.0127651422923465,1.75231683842989,0.22496508556779,0.108802175130212,-0.898036295504225,0.0841179354466486,0.0518154707280691,2.67677271088498,-0.966235143129352,-1.64595950388144
122.535,-0.468971333598474,0.256560767596673,0.825070247091266,0.25062451751048,0.152764399348932,-0.00750122336950069,-0.983338819410207,0.17548805006381,-0.132973487118393,0.0730886290679122,-0.16240864849381,-0.079888344673202,-0.945536541662308,0.0379061279901733,0.0399226685393112,1.76267449984202,0.0982994353121135,0.275627078269211,-0.868327050187929,0.117203765330177,0.0782803279935873,2.22719885325081,-0.547231985934211,-1.23686093485754
122.54,-0.463119370947238,0.258548189593954,0.823834822352832,0.25014206262755,0.141286656306098,-0.0119543387756379,-0.955414049523931,0.178919672356749,-0.117331453657038,-0.0276403064530245,-0.0666378066612358,-0.099951321016427,-0.883814760351332,0.0482081425763142,0.0165670457619565,1.85459650993415,0.0575689651359074,0.344445838083541,-0.82826463368843,0.134642854891559,0.0983355871309328,1.76015998399323,-0.299356148490163,-0.888914642473665
122.545,-0.461599444799881,0.272425194247343,0.821370363863572,0.255220037564112,0.127772179182827,-0.0163502471305889,-0.944940621106848,0.178770161372813,-0.11184600120486,0.0213094996305182,0.0337167571281144,-0.121384232357916,-0.850206216281201,0.049368923600104,0.0215384213973866,1.91543271833135,0.243624266444333,0.364797157846664,-0.730283736558146,0.176004983202952,0.11728693100071,1.38725836486111,-0.10135053639563,-0.59140067737738
122.55,-0.467605341185397,0.287701871989513,0.805749749719203,0.265370086710722,0.110490934866876,-0.023548894505174,-0.952785647029659,0.162269543269026,-0.122190255121258,0.181318732497355,0.0415230937973409,-0.128517303462894,-0.844786766894755,0.0308805599256732,0.0304070396718567,1.9716083086937,0.436099566658525,0.326912472552978,-0.571708655214877,0.143888692346716,0.0973747854850506,0.951272226785442,0.0129299449019173,-0.3393960325124
122.555,-0.46812469677248,0.30998914718414,0.805756402953423,0.260785662777043,0.0943188265362409,-0.0371981033753895,-0.957733407977274,0.15208546819638,-0.111627450291855,0.389862086320936,-0.00625039306468257,-0.122074222510888,-0.902719309857056,0.0318698247595591,0.0583369367026292,2.02624434573712,0.516740567299812,0.212665886109173,-0.165272342480634,0.0573721997968033,0.0303662257761197,0.343583309648962,0.123314895162992,-0.0997479630512945
122.56,-0.469352536892449,0.314283879366564,0.804789162257916,0.256389349446724,0.0691058249290544,-0.0588772951941688,-0.954260076703395,0.13906721695754,-0.114039886037095,0.60727380448665,-0.0654407738881274,-0.106171060594616,-0.969169441815975,0.0607901835013241,0.0998306637426322,1.9670373159676,0.595427347412518,0.0359428024756761,-0.392384886979662,0.149622685138893,0.0838791359733905,0.845897721286189,0.309977654609874,-0.23274138264376
122.565,-0.46673904957542,0.31328381961327,0.803409178277832,0.25139832172854,0.0459360119304647,-0.0740489897970028,-0.944783640778709,0.122675544038459,-0.115034835577819,0.844860611664909,-0.132854141908659,-0.0945018676069283,-1.00293477385906,0.0794602416508827,0.116464928041519,1.82583577186239,0.634008563387595,-0.104645133504961,-0.252891901182396,0.135105369270906,0.0578782226449032,0.594049834848875,0.388817580808343,-0.100582169958122
122.57,-0.462937972147049,0.302351114808893,0.810283057388729,0.249409810922952,0.0220586987953451,-0.0953086199688244,-0.932115866218476,0.108254396460966,-0.112520470876934,1.01678661990168,-0.16278343651745,-0.0847044082566208,-1.0033564306658,0.0891289617210251,0.0894788746369298,1.59615720847073,0.706799082265185,-0.18712871219065,-0.511166730869225,0.289030277231219,0.110024687844808,1.20208605936102,0.837193723610372,-0.162562077506797
122.575,-0.46053447938203,0.293204710326877,0.810872393136451,0.245712839080719,-0.00282647625906892,-0.119627704626443,-0.918843380838289,0.0972740468082947,-0.0989420269859939,1.15372864943642,-0.150279048696236,-0.0866171270459011,-0.980546607179336,0.0943077241403586,0.105881909686903,1.3132949049216,0.885361007016534,-0.270169218825137,-0.504125754107671,0.303698042482152,0.100985529754632,1.23759351753173,0.885514167856949,-0.0994545644623451
122.58,-0.455797787101822,0.281844760138543,0.824750720797686,0.244400829345861,-0.0161586997076154,-0.135311037814985,-0.920442920717064,0.102098863623912,-0.0867205467623669,1.21928099420081,-0.125403972895202,-0.092121142905172,-0.944529526136512,0.086824570224006,0.116420808306936,1.0626866134287,1.07217519763741,-0.338589767648359,-0.492913950545974,0.314811028150094,0.0928755635571016,1.27421112607813,0.883208555257372,-0.0814482946037763
122.585,-0.463663467923601,0.283481573413173,0.817887807211638,0.236474984028598,-0.0406787788966747,-0.153804693784626,-0.919032248921909,0.110328114773314,-0.0884100001291359,1.23230211606043,-0.10651879978292,-0.0965795940198002,-0.926374424898861,0.0948618250830656,0.135288166346039,0.849423900160642,1.24846180677777,-0.391320425754526,-0.486531941115981,0.315640501739997,0.0857952638141258,1.32640711518459,0.822439512335053,-0.0561584021468594
122.59,-0.469740564847573,0.292480132823349,0.81516642440687,0.227535147741105,-0.0520448577273089,-0.162580614754954,-0.929844647110482,0.121605360857713,-0.0907040509504565,1.20636829898285,-0.0783025289672235,-0.104923646842252,-0.92984048282091,0.0659555448515886,0.104096470743893,0.624862485247278,1.44764541316847,-0.431148243268307,-0.482450640188643,0.300194832071176,0.0769951821093559,1.37905899632017,0.754733236611887,-0.045764458658703
122.595,-0.471469162778712,0.289877979029254,0.815045932967632,0.209832866746018,-0.0752405680305936,-0.171524617305102,-0.938922665953772,0.125515971280201,-0.0948022419688698,1.15245648579245,-0.0564658910857061,-0.104914736366383,-0.931925499357067,0.0566381260698733,0.0857950131523881,0.37794055046977,1.74548373951151,-0.473645754064096,-0.481232719790026,0.274724751340123,0.0684204462878682,1.43524429214688,0.693087377157289,-0.0432582809943666
122.6,-0.48146751470594,0.283901262664114,0.812264946088652,0.188394041785013,-0.0861850697358631,-0.175400944328862,-0.961035250663562,0.127847403340018,-0.110833396201793,1.07865875155455,-0.0465501951796876,-0.101954883335304,-0.945961055172803,0.0576684972193115,0.0889147063821419,0.215667731040163,2.00339090336717,-0.522792593317025,-0.49362507272133,0.244536748595877,0.069137898084139,1.50287745837937,0.633192166311963,-0.0501369179654227
122.605,-0.479534543804536,0.282903153403832,0.804083403158367,0.171877137616156,-0.0993065486173261,-0.179546631094492,-0.970725612398113,0.124802378268656,-0.107790998856604,1.02025306905278,-0.0542141877169718,-0.0989722058231939,-0.96283834698001,0.0424548126431415,0.0772398344401098,0.111405186610617,2.1988804268192,-0.57150931021072,-0.515830838501256,0.215271378422239,0.0739529699223932,1.55635201970089,0.609822534537699,-0.0598001524877533
122.61,-0.482937011145732,0.28025802639952,0.807893100504365,0.15845274885039,-0.108278757766152,-0.171874091029167,-0.976805342478051,0.125609069244352,-0.104911917019734,0.983666747157062,-0.0499614281433877,-0.0947194449235564,-0.970088700774742,0.0309536898329416,0.0698255062971634,0.0810992008347853,2.28048569653808,-0.595450959569927,-0.53427056108202,0.194055316428347,0.0853952186391465,1.60844035807885,0.602949324013603,-0.0681332423770055
122.615,-0.479781354946123,0.277359827817975,0.809792267637267,0.139922472356482,-0.117093833739202,-0.169250796328702,-0.985967587657966,0.127906831695995,-0.101008148088089,0.951709082568466,-0.0425398054857802,-0.0900878355530848,-0.959388444076477,0.0129895472034253,0.0514118249797608,0.0890299558511681,2.29428308056528,-0.635416734046795,-0.557066531421762,0.170480566206036,0.0987452703084787,1.65374109977125,0.598472438258497,-0.0734493812889137
122.62,-0.472350277925004,0.269776234753147,0.815573199199078,0.128895818828596,-0.120060742080682,-0.165152147233016,-0.989488008625855,0.134127274148673,-0.0990724785039159,0.930255708709094,-0.0294734960940806,-0.0905132229631412,-0.943046436604674,-0.00569215590894775,0.024377027666104,0.151045617428472,2.2406435934912,-0.67419162739509,-0.590642118587808,0.153884080463412,0.118836668405387,1.67921221008709,0.587530669097013,-0.072136597082958
122.625,-0.460348347253479,0.276151411530663,0.8095744170421,0.126523900652995,-0.134534617825998,-0.158766569196336,-0.991625969798872,0.13518837273781,-0.0991019650582047,0.915216745355738,-0.00841166515921444,-0.0943990552485897,-0.926867680997557,-0.0448816888564414,-0.000982547149956651,0.351309360293316,2.06135267300947,-0.704165183265462,-0.652319832071808,0.145799381616575,0.131961659822298,1.6909114769101,0.537499244584891,-0.0568084502980712
122.63,-0.467269775800438,0.296003224797041,0.812433270038852,0.122805133120232,-0.142185724452844,-0.151579015775809,-0.989769928260529,0.135920008858924,-0.0921553310981554,0.934809431863329,0.0142234031664281,-0.0949299266813305,-0.928321397386564,-0.0554404800835351,0.00635101239439539,0.500398362351323,1.86522537702008,-0.713592525229289,-0.716980754056946,0.14172823391705,0.145015587794642,1.67571590388099,0.465116503525485,-0.018209602982013
122.635,-0.464983139044171,0.289395338134619,0.814220127781773,0.105159759760342,-0.144926476650308,-0.146974176041462,-0.994514831482448,0.140954064884876,-0.0895224497597989,0.949375315154163,0.0399082038466569,-0.0999553130820503,-0.937791216596286,-0.0714663115951304,0.00151540225001683,0.601796027280671,1.6559727435915,-0.722796522908322,-0.808582655617224,0.140058887158578,0.166682834752483,1.63057465818715,0.341106682190826,0.0507301580947439
122.64,-0.462379316605041,0.278179241877602,0.822136562729021,0.101975146372354,-0.147722470798911,-0.14911165753918,-0.98893414544484,0.139008772383966,-0.0972586205995948,0.981649134453488,0.0538209384197792,-0.108708261881705,-0.954575085479156,-0.07255964919724,-0.0225224083290902,0.629275018708124,1.50882831861535,-0.72954184459123,-0.918239948673068,0.122992151931953,0.180220259561136,1.59871663176148,0.194543431075182,0.102735409643342
122.645,-0.46458273426867,0.28693986882784,0.81838240727653,0.101680193047339,-0.154927300872102,-0.150176284145774,-0.98556798103366,0.131166098933122,-0.104779940609494,1.00808882714412,0.064881197896912,-0.112527945876147,-0.994166760395948,-0.0418261757749049,-0.0310214157995922,0.590875517993603,1.37358842607431,-0.755471054137943,-1.02069572002078,0.0942782860600577,0.189179392449874,1.61304518906989,-0.0186570737631268,0.0991404484623145
122.65,-0.458580773696993,0.280443145173953,0.823319018544118,0.0996090707477623,-0.160870160446117,-0.159427708954711,-0.985367406140809,0.114812406379157,-0.104765618184936,1.01886669340856,0.0675864576429181,-0.111557962063563,-1.04876573845933,-0.0158240298872558,-0.0318251898601327,0.521317309811507,1.27554823115054,-0.794110498162411,-1.0615988326963,0.0634050587486868,0.178587830276863,1.66310489724393,-0.170136429805567,0.0445176418583312
122.655,-0.45641695518875,0.260663756826852,0.825844576791042,0.0976521471167918,-0.161419083815057,-0.167285340525228,-0.987817337735607,0.091293983734572,-0.120051430723747,0.994988822106646,0.0659466790957818,-0.111554153263569,-1.10314134877113,0.0169266173707185,-0.0348361050318186,0.479688248963513,1.16849237541552,-0.820566565658834,-1.07610643080079,0.0341099793613234,0.155410800008531,1.74685166966221,-0.253347515846044,-0.0867141877499284
122.66,-0.452362935767813,0.255529612648199,0.829484408721966,0.10785934129269,-0.166032844502588,-0.171712916702983,-0.995057764133948,0.0667773108245349,-0.129435766517528,0.981547106824122,0.0546164878452333,-0.109694696812223,-1.1150674159732,0.0162940868874464,-0.0511884168727472,0.521387896044738,1.05853385233682,-0.804711372906033,-1.07211972808316,0.0228917713894269,0.133131312395944,1.78659103391019,-0.203110650152107,-0.222454065868037
122.665,-0.464067995538941,0.272520656852097,0.830365417690145,0.111112254273723,-0.166647912357329,-0.165617136394192,-1.01307319466049,0.04538150231345,-0.132835025917161,0.960924546813935,0.0575371829986628,-0.104503505098814,-1.10905218302036,-0.00578357528014905,-0.0534761431938523,0.61797911304554,0.924076952848996,-0.773690580068957,-1.07663172807287,0.0168229399291333,0.128457853217531,1.79740476608276,-0.106216366151993,-0.337485500001798
122.67,-0.47161188033568,0.28081603452661,0.832114516413731,0.110575646162033,-0.161662748452092,-0.166309444273903,-1.02191502000683,0.0333661417857464,-0.133967586448276,0.950127580241498,0.055317778304388,-0.102072131861043,-1.09571364743346,-0.0420933844263746,-0.0470721757261824,0.784509799338862,0.804424750146813,-0.725492140524709,-1.08762658727527,0.0270803291655227,0.133390056744368,1.80228575917406,-0.036528195977199,-0.428215071924734
122.675,-0.461270014328063,0.260928977456833,0.833804720428386,0.112816145663067,-0.158744387934465,-0.174829056241992,-1.03530364570628,0.0354428892808766,-0.125873512894661,0.952767295222126,0.0412657660641369,-0.100609151724596,-1.08651858874418,-0.038874504363037,-0.049845186643205,0.989208953921169,0.736285992989145,-0.708983298874141,-1.09033245168925,0.0356604886308633,0.13793244835305,1.81951303722447,-0.0340223445874167,-0.495495908817202
122.68,-0.454858331510101,0.248239339289649,0.840414583308681,0.116032327407971,-0.150912724568485,-0.178253860270294,-1.04186986950673,0.0450119931544373,-0.121856709929794,0.958713027593383,0.0108909711928836,-0.0843478289005654,-1.06104549783623,-0.0582130955811541,-0.0411942454836851,1.19351870765618,0.704724852985374,-0.677885846325003,-1.09691418667031,0.0445513777193255,0.141105563262294,1.83467979378752,-0.0634026479894283,-0.552622819296659
122.685,-0.454644467788251,0.254269397904185,0.844784213531017,0.131635332061459,-0.149549162038721,-0.190930856773394,-1.03752602226739,0.0399530432322431,-0.124884902642387,0.931789653739311,-0.00129179000804627,-0.0723700316928498,-1.03199184859727,-0.0434399624607995,-0.0461217985291111,1.4369260455611,0.715593946668662,-0.631341995560066,-1.1086947190276,0.0495012802835132,0.138645444214306,1.86698850382735,-0.107531368453379,-0.635848313493319
122.69,-0.45014897635946,0.254748669837625,0.840480430789899,0.143685050081865,-0.149964904981341,-0.195709493658202,-1.03563521716849,0.0492213770732498,-0.135164472628622,0.906016680026468,-0.00119700017562817,-0.0642804337944722,-1.01627145428726,-0.0189089831248473,-0.0495431889549761,1.65031335033451,0.773889367112967,-0.595857180679307,-1.1265350934074,0.0542662862479126,0.129029281383125,1.90773894482977,-0.135269701377864,-0.747812845468644
122.695,-0.451409630746505,0.240279238510108,0.850011147450438,0.153227089244199,-0.141653511130666,-0.197197282124533,-1.03610097616606,0.0605902602975709,-0.139505010329932,0.895835761791831,0.00798790166279977,-0.0632844288227496,-1.00070365933794,0.00617208488148477,-0.0585505604638042,1.85736769201124,0.855772243795337,-0.573971995855586,-1.13130515237257,0.065584542009501,0.125055039830373,1.97341126519799,-0.123119770554813,-0.897954399749625
122.7,-0.456705880800751,0.237788512843839,0.846125213486571,0.177203163856457,-0.133332749240642,-0.206588274817254,-1.03935843282373,0.0589065120066894,-0.143155951914045,0.893095394875739,0.0019013802378647,-0.069814661416271,-1.00244838750566,0.0254956795291028,-0.0700957861075246,1.95090063397426,0.893528114875745,-0.559882268436837,-1.12545522082789,0.0815117276212114,0.116477951180574,2.04407645575075,-0.0987015354561008,-1.04782343783678
122.705,-0.460329825543474,0.250428551488169,0.840279217204136,0.204147143289379,-0.128637520341919,-0.203832590698023,-1.03428081561625,0.0533410616394493,-0.151911456390506,0.899677651648349,0.0128875429959876,-0.0760684563998765,-1.01324011269877,0.0470169708961833,-0.0833889465139584,2.02857751440602,0.944678415940403,-0.540677747666763,-1.10752039930968,0.106143389131604,0.104622709860182,2.1025879620023,-0.0397755073461204,-1.20384143399441
122.71,-0.464423286645551,0.260181862473323,0.835465996599313,0.219105826929203,-0.122573657896831,-0.205711864521953,-1.03448211833345,0.0481838847212734,-0.158630583644291,0.912196615338752,0.00149607025264388,-0.0889127686596091,-1.02255960947445,0.0707565286103234,-0.0989400474430658,2.15208976180089,0.990344522181551,-0.466930601951596,-1.08355300567004,0.138199483908264,0.104860504485475,2.1552053187834,0.0258622083941392,-1.31721130782117
122.715,-0.46411155387073,0.260539433389269,0.836615351759742,0.235382357611258,-0.107427836834586,-0.206619227114525,-1.02541616699932,0.0455082014724434,-0.157147393543161,0.93192860529739,-0.00364729323895746,-0.0983580313022543,-1.01557009363962,0.0757057911779372,-0.114745299178927,2.24516556638906,1.04970645812609,-0.379698243342132,-1.06813820154458,0.165152711341311,0.116282673392196,2.20085464442522,0.0756998977974391,-1.41743549574774
122.72,-0.45462704921035,0.253681210822709,0.839926862470191,0.243255706805085,-0.0891270533284471,-0.200205292742398,-1.01817533564916,0.0521437930981867,-0.156149929882222,0.944709137312357,-0.00370738375866066,-0.113022401000875,-1.00484626929946,0.0873975474806752,-0.132000788648628,2.32839322264207,1.09519281690562,-0.279622667941242,-1.05383536714708,0.18994349861854,0.127549941947537,2.23038556895667,0.086985085777402,-1.47650265955495
122.725,-0.451082920019763,0.246864471219251,0.846884365585662,0.265732822735773,-0.0766852412032235,-0.203639360449617,-1.02652749705259,0.0766571724958922,-0.144813649232068,0.982797422748795,-0.0159272771429169,-0.125109193793186,-0.984992121378322,0.115305407692696,-0.144589478927888,2.37567855544481,1.13846963953633,-0.171891094120941,-1.05936189965019,0.228696055310166,0.144889008163277,2.25335580495619,0.0600531814633765,-1.51449581582207
122.73,-0.460393418489847,0.24658089526557,0.846451330425851,0.284410336968958,-0.0541146637809535,-0.213877947213813,-1.024965941366,0.0996647906583659,-0.144091527603178,1.00952205549983,-0.0425171450300162,-0.13110126554966,-0.968379562561858,0.147275416412681,-0.141737500121972,2.39463624686308,1.19990648066349,-0.0220677159278002,-1.06520103161448,0.249119545748723,0.154781703522244,2.25705894563322,0.0123835216671377,-1.51412992881569
122.735,-0.463065194433792,0.258848169417166,0.842879059339126,0.315248125905313,-0.0438429603955338,-0.221318682270344,-1.01964643561041,0.120855777275631,-0.146834708820391,0.982389551338272,-0.0592779625340924,-0.130650191596622,-0.953860899156092,0.177207159730646,-0.134599185868456,2.39046239169758,1.22828000061833,0.110385501271997,-1.07150615794228,0.260647696932213,0.159940899519936,2.24957413370497,-0.0323929119273951,-1.4763640549401
122.74,-0.460185597351812,0.264650880401147,0.842261403859856,0.330372912501431,-0.0243167178283171,-0.227572583119957,-1.01219658266636,0.1284748663959,-0.154741274260571,0.911447557487149,-0.060165919780638,-0.137292402684922,-0.940624149129297,0.205745962224288,-0.100177075063246,2.34587195868016,1.2432328529253,0.244706571873187,-1.0718941651946,0.266838947170118,0.154485868797126,2.22467075688031,-0.0442530992675081,-1.43774743439061
122.745,-0.454965615116112,0.269353381448852,0.843553143495996,0.341636177495296,-0.0136905627473321,-0.234340781393806,-0.995046127960509,0.134362341338019,-0.155985422467679,0.833583345510238,-0.0657151174810422,-0.1602400052714,-0.920795523341589,0.223118947116604,-0.087163031832007,2.30702859889156,1.23394160760873,0.354191792285322,-1.06554537131428,0.26998744355521,0.143024997904301,2.18210636565069,-0.0304456837520273,-1.38592341633148
122.75,-0.443593704304916,0.275360641127593,0.838800933363513,0.342683832502714,-0.0117730565649347,-0.233041357733397,-0.99167957888708,0.145762032602122,-0.146088111728754,0.781351420288039,-0.0682123913453448,-0.181774441286583,-0.971171864117886,0.209941567400279,-0.162892941973099,2.05936224148371,1.18345779315234,0.467480629217142,-1.04936394136698,0.277004463814839,0.130500792902365,2.11542617173613,0.0132771776545692,-1.32207146111019
122.755,-0.453970595476573,0.279701766589636,0.837202087408043,0.341582580622207,0.00144205331040256,-0.239648922745212,-0.976143338073821,0.154358471232577,-0.135551403327584,0.710320351814243,-0.0761047353428733,-0.205451459527188,-0.978652993737869,0.206468563430996,-0.171145317038162,1.94044387944851,1.07676473801861,0.557502941931241,-1.03148651754428,0.290027019432902,0.12814174522664,2.0522169871794,0.0565255701136279,-1.25331767388726
122.76,-0.454529979730566,0.286881823090674,0.833728858674714,0.347730294916773,0.00667906194810414,-0.250500223779622,-0.9718414831939,0.161747167225336,-0.139823319799666,0.649259053355168,-0.0746642488659013,-0.215543987667444,-0.997298505566791,0.175116006867723,-0.173583287425454,1.80610910705574,0.895019683742486,0.658468657350485,-1.01893790937786,0.289811232151384,0.121782136995592,1.99979127982243,0.0740741378860575,-1.19977050633983
122.765,-0.462645884714184,0.303217543883798,0.822146924799467,0.347468447635662,0.0101682872075919,-0.258409343441886,-0.981144212198237,0.155230478393939,-0.147236799910322,0.559697022375742,-0.0670825692270195,-0.230707352832316,-1.02931583814148,0.154698406594974,-0.173921581533106,1.6964001825128,0.736062760655719,0.722782243357399,-1.00860574510961,0.300514906269006,0.126319801727001,1.94707295157501,0.0658542218332124,-1.13385767382632
122.77,-0.463180029744862,0.312534557680873,0.825714116168575,0.341225520865724,0.012178122832128,-0.273140308732079,-0.994351284832126,0.129194443715708,-0.154968698978911,0.484274307581783,-0.0607108492621994,-0.24944332427174,-1.05522716166412,0.134600798762161,-0.155178443625144,1.60000011484817,0.607246065464867,0.760798285858229,-0.99034088303587,0.303653174716835,0.126836664556956,1.8930620738008,0.0501493884202448,-1.07186855399171
122.775,-0.46623300456053,0.305926830009639,0.825311805029485,0.332696484789923,0.0115016080283372,-0.282167952162986,-1.00503232652377,0.10458360861963,-0.154115265233004,0.444826317596271,-0.0573651037038804,-0.260958642903773,-1.07108399001693,0.113879766737809,-0.13320794570626,1.52325984412385,0.51212932658792,0.755874345606883,-0.97747518344383,0.306218314725816,0.130558470725816,1.85284946690393,0.0244322769957453,-1.01648021966414
122.78,-0.467952942425785,0.300119905142118,0.819894492344391,0.315804667478414,0.0118829281635101,-0.29191242963429,-1.01309276080703,0.0790109597570859,-0.142455145563421,0.433034988717954,-0.0482624971870129,-0.265871166900153,-1.07809336179644,0.0952662698283259,-0.109017110948938,1.43953265979411,0.447313131261827,0.726434370093995,-0.958927623210168,0.309455463302109,0.130550464952268,1.8027845129443,-0.000848281042731181,-0.949779979965557
122.785,-0.468185986571511,0.300125179663481,0.820130234759695,0.321565443804517,0.0100927185368974,-0.295224854958659,-1.01019878418476,0.0536977316535149,-0.13663311351893,0.448102338823318,-0.0556434088051619,-0.267911359717153,-1.08157129711973,0.0809540207280894,-0.0975505308215602,1.32919394061677,0.374943477162058,0.654829360796209,-0.947431731047151,0.297982878926349,0.137887840446958,1.781542695145,-0.0219738443593475,-0.898918411076429
122.79,-0.479878572289507,0.321986080881842,0.809904352833911,0.306359162977682,0.0151209827461468,-0.290872694572358,-0.997887626259332,0.0493974682331947,-0.134705832937258,0.474595921706352,-0.0507200643887819,-0.266094415306705,-1.08615316940441,0.0728778119720246,-0.0813959253431899,1.23623431042568,0.324494533868705,0.576011917239408,-0.933088589574095,0.283183803362137,0.1341229049343,1.73497555761956,-0.0379173087227371,-0.863045627643782
122.795,-0.477106437515648,0.303271080550458,0.817327311903592,0.295139843630794,0.0146557823836813,-0.288218398370154,-0.989597067771586,0.0425624020136104,-0.129533524309185,0.507995612422637,-0.0336780797870916,-0.269674118022323,-1.07777309484001,0.0641058240455082,-0.0687894862977587,1.12173657912387,0.255005828347916,0.464957188919666,-0.921484387190816,0.269661765074402,0.139011870240804,1.69938980355761,-0.0723039122247727,-0.828925232970039
122.8,-0.475175640302807,0.294929956354077,0.818625892359482,0.293108182365885,0.0130965091989817,-0.289777679609787,-0.974147994163145,0.0437894966352372,-0.122826775347596,0.56120516898725,-0.00968136427952078,-0.273518670498536,-1.07506348383587,0.0670951686870248,-0.0417408848974085,1.0079909785974,0.197742045508359,0.352531387728001,-0.904890457798517,0.25663441114769,0.135907931682554,1.66222081438252,-0.0716594085097313,-0.806849000002675
122.805,-0.477405211722011,0.287699526310305,0.817886746634741,0.299938291311264,0.0172529537237701,-0.287742547496397,-0.960026147431043,0.0532550594404245,-0.114627612042283,0.625826226753115,0.0129953393681551,-0.277223980056826,-1.06492136550927,0.0738175195117702,-0.0102779593217798,0.886882505744795,0.156850075207676,0.243111802511596,-0.89494905632148,0.237403426687637,0.133935740001266,1.6240979705857,-0.0589485816710973,-0.77805827285498
122.81,-0.478346376697505,0.288190012450468,0.816768787085373,0.306035139613026,0.0177936207285294,-0.28264880446826,-0.960524177627359,0.0679042280798944,-0.104944338902186,0.67509632552672,0.0377425885922776,-0.288065050120236,-1.06022259116597,0.0750128255766478,0.0167645392289309,0.783912075144071,0.140878081516646,0.151291937952747,-0.890452866591932,0.222720072444205,0.132164957648261,1.59115747534724,-0.0283178670410226,-0.756761181692604
122.815,-0.466302706460242,0.29771879327831,0.815477962798403,0.314017411413871,0.0277372791076973,-0.269901411739147,-0.972018326640593,0.0853241458474119,-0.0941193682713101,0.709800839424133,0.0581150185337577,-0.317623894558212,-1.05428744106449,0.0758153183895417,0.0472170020380772,0.63383791524523,0.119269954064041,0.0429436880656501,-0.885166451840455,0.20035981472876,0.132932038170194,1.5471344633578,0.0128909456086541,-0.740249092467084
122.82,-0.459817889185378,0.294502470091747,0.823417470834985,0.30849015712738,0.0293812172304578,-0.26141082129615,-0.974524149105797,0.0950107817714173,-0.0763238325547256,0.708310036204212,0.107553694430199,-0.338002253750568,-1.05431415022231,0.0700292824753202,0.0702140906552965,0.526697263905266,0.114972816762745,-0.023942445091996,-0.886825621778926,0.18534337210816,0.126154300667064,1.51852955176987,0.0533762802042259,-0.72171712426283
122.825,-0.466341923301422,0.285966354815493,0.819709742289995,0.310551902716359,0.0213722147531809,-0.264341226284703,-0.970210578250696,0.107858030387235,-0.071546510233414,0.700614671988282,0.135367742178708,-0.350028307262955,-1.05277029983855,0.0656074649687822,0.0871538550913622,0.385769851290315,0.100711227808066,-0.104534125116966,-0.887747527986424,0.163276884203267,0.12792015749619,1.48930156606307,0.0933271907731305,-0.707230378156724
122.83,-0.470516423128297,0.284726718897854,0.814326416156697,0.311829180702679,0.0196215778167752,-0.267166256904602,-0.953247206770578,0.105522705207121,-0.0694981329805884,0.671338788491213,0.157314469609,-0.356623230170808,-1.0531128027137,0.0547287824926302,0.094142884666652,0.274556218819279,0.106937431090008,-0.160886175015388,-0.894250679277244,0.146598080567288,0.13193917256008,1.45457711982707,0.142947280711272,-0.689191311184344
122.835,-0.470416476141943,0.301586889429958,0.808156140921613,0.306618694763209,0.00443791389711333,-0.260693972007188,-0.93021894594329,0.0946538974291603,-0.0647275068493946,0.627723737895733,0.183759299470514,-0.356138872422615,-1.05760986353736,0.0368614900497281,0.0996518766774676,0.194817263667886,0.110399536788464,-0.203191149067074,-0.901074400004612,0.132818263076588,0.131131066480935,1.42267253413492,0.18875794281937,-0.682150529208875
122.84,-0.470651134172352,0.297934487265295,0.807607851423315,0.287858827453027,-0.00982195825687016,-0.267785813415597,-0.915235420299214,0.0746822692375223,-0.0655217724994139,0.574140827238606,0.207442246875134,-0.364483576224254,-1.0561231555073,0.00729804409039252,0.114181011151548,0.138592694199999,0.12241597863785,-0.238285903233847,-0.912284614295029,0.12809889819079,0.13908323457084,1.38880946530657,0.192989142506679,-0.672833262137583
122.845,-0.465878724121371,0.301893412889736,0.802544962488175,0.272544038980073,-0.0248495439459311,-0.269873274055965,-0.906656025023177,0.0628579795603458,-0.0594201448617699,0.517051004380684,0.231761692732181,-0.378007468320632,-1.04895727881298,-0.0162446374819114,0.123086429912436,0.0959093122355959,0.118400074043364,-0.271893352934399,-0.923736436282031,0.115684005344211,0.148496733820429,1.34830841462011,0.186206375312764,-0.677942255240651
122.85,-0.4680074914454,0.313885735229486,0.808952238438622,0.244020032549414,-0.0341450256442514,-0.259473266409414,-0.907133894949273,0.0584295308717087,-0.0584784122263864,0.485152125436734,0.267363154613128,-0.397287607114841,-1.03833858860981,-0.0328604858271632,0.126433180046841,0.0636025076261227,0.110976551194865,-0.294658341774856,-0.935117028103071,0.111914741125265,0.156457276519978,1.31800924647234,0.164858032349569,-0.687076000172044
122.855,-0.473826554936393,0.311256445288331,0.808356095158905,0.223105628915816,-0.0409429700780903,-0.251328917810879,-0.914628196922982,0.0595020118419159,-0.0573071045214815,0.458187846910817,0.300911467295175,-0.413895527319736,-1.02418175755202,-0.0460381414486786,0.128806062609896,0.0708409764298643,0.10712446521924,-0.319951581420903,-0.94031579341657,0.104665641883451,0.157693902015254,1.28054084279364,0.126339362396597,-0.714626371608486
122.86,-0.47771629300336,0.309871514979584,0.812988704937051,0.1989405228426,-0.0424187797011825,-0.248005801446857,-0.926588628303831,0.0711294544553685,-0.0526879567002377,0.425881698252735,0.347598318854832,-0.431758727957343,-1.0097606883093,-0.0543128800473643,0.13480688626686,0.109194640289891,0.126091979280619,-0.343202056994513,-0.946160404654306,0.0977985248931478,0.161612097015278,1.25897353840407,0.0671198278053613,-0.744213643823968
122.865,-0.466406064362899,0.314573797502218,0.819424048275076,0.191207483410835,-0.0445322904918417,-0.247619152069092,-0.943871522569469,0.0838272823200184,-0.0399901876294736,0.395978428631517,0.389530409679454,-0.442271582500619,-0.995153285143342,-0.0437371630784365,0.141156327821764,0.163741715920773,0.145508228152178,-0.366457084325338,-0.94600467781226,0.0917630017250836,0.16348127478361,1.24642477385031,0.010215475887738,-0.782081619910963
122.87,-0.457533710671195,0.324437759643521,0.8185635511867,0.185643207329083,-0.037593737244606,-0.242018800295014,-0.961137680380849,0.0999229444685736,-0.0253897083267309,0.370040239207226,0.44394149806584,-0.453924761349085,-0.993016609518028,-0.0398607584821395,0.13815150330868,0.260462541542641,0.217269978626347,-0.387036325526226,-0.942204294136311,0.0802565259629952,0.17945597847577,1.24736670023564,-0.067169479751942,-0.838060437581403
122.875,-0.450967853035364,0.347154360968037,0.819239859335787,0.175638456705232,-0.032281221601859,-0.242760982520493,-0.983466016086958,0.106068810461951,-0.0218466947008526,0.334793052955795,0.496781128277974,-0.465706532126042,-0.994542776226125,-0.0215476612519612,0.135008672426626,0.36009253733232,0.307040887584846,-0.391137239669799,-0.943138022516957,0.0719486662417776,0.181259883217521,1.26636061819319,-0.140753553323121,-0.894934554514257
122.88,-0.454121513093303,0.345410434376147,0.814423957529511,0.160932278293397,-0.0226947679266399,-0.2456387546184,-1.00205555879086,0.0948751990581782,-0.034608084109021,0.307948570640678,0.523012422505402,-0.475249775598801,-0.998544601164338,-0.00755835909291215,0.131489492894483,0.477866552457951,0.409086463846003,-0.387745036076548,-0.945801981314024,0.0644490983351062,0.182919943101011,1.3072208330145,-0.207425381119788,-0.967602221738544
122.885,-0.450358690820649,0.34140471745756,0.81644536622143,0.154945614524872,-0.0124668210277149,-0.25108972926919,-1.00975698723917,0.0691237390114214,-0.0430241887905222,0.295813820377645,0.55332242961032,-0.480158634448197,-1.02531177250531,0.00208978706909555,0.149201509431447,0.604146027644012,0.491677011022944,-0.369114327645287,-0.964262955454373,0.0617056863385969,0.181619080070918,1.36226023080115,-0.268969488020293,-1.03657135841304
122.89,-0.451364160347965,0.333605168828022,0.831160116463826,0.154070711575314,0.00125065705425045,-0.242077598459238,-1.01530952851271,0.0434594014095874,-0.0419249267576471,0.319044220655794,0.585867105479985,-0.490481670497819,-1.04806995865942,-0.00291580380943255,0.171404198324498,0.725629112371531,0.53238430478305,-0.332717819071046,-0.990777094781944,0.06677267167687,0.189292237636329,1.45205445654955,-0.30590040020025,-1.13616137428606
122.895,-0.442048316223353,0.312389506075425,0.833753519683527,0.152853822155138,0.0224422427944125,-0.250062525272369,-1.02272266857635,0.0106673670754577,-0.036792455525078,0.355730753220247,0.639903314423081,-0.494312642389975,-1.07291836080271,-0.0108997738675389,0.183217435711996,0.78199645149958,0.534184478293081,-0.299380209775715,-1.02817619128038,0.0640829534018767,0.184048632131506,1.53069992324349,-0.319069363965966,-1.2172724346792
122.9,-0.44686909674331,0.327177312785452,0.836277100270739,0.168196529527911,0.0519350080348992,-0.247417904672326,-1.02026850400907,-0.00457878759009226,-0.0297332024664609,0.38363254663906,0.683095689395317,-0.502370049507598,-1.08850904816075,-0.0228041141294272,0.194148872631354,0.822422221131194,0.518242143353319,-0.261754075172352,-1.05450167735951,0.0627369558934982,0.190945862492373,1.60395615866112,-0.315274639926713,-1.2889049924399
122.905,-0.455280888044128,0.326370143229745,0.829852039228836,0.1733751805044,0.0919501928837787,-0.235387427151033,-1.02814146907619,-0.0158200400390865,-0.0325952254993453,0.40836632581366,0.728398795204096,-0.50316463751623,-1.0960682994136,-0.0294696888679478,0.201952669000951,0.8782898280877,0.48236449025266,-0.214091150667361,-1.0854625773608,0.0459705078235751,0.188059363929474,1.67856790964941,-0.286588429702111,-1.36764474711182
122.91,-0.457207258255775,0.320979053733093,0.833430780565587,0.182019531965332,0.128701428599739,-0.225368377305565,-1.02434485265546,-0.0206770571789988,-0.0368405372976167,0.428441517117385,0.767819297628443,-0.50101907454126,-1.10186373140602,-0.0361983144887297,0.214003407184921,0.934359390418495,0.442143367240136,-0.169822092895066,-1.11949262788153,0.0325354521739497,0.189100414050353,1.74613502477562,-0.285478894098957,-1.42044161982989
122.915,-0.458636014940229,0.313708053752118,0.838230715261159,0.200983134328344,0.161188146436805,-0.219316209783319,-1.03128298929598,-0.0190581921657313,-0.038578508297362,0.446949003970905,0.818463389246761,-0.494602192272865,-1.11255806045751,-0.0379783707418624,0.227883574367929,1.00728921243184,0.386504217226405,-0.129663359187299,-1.15677590289162,0.0236644999760322,0.185514211345891,1.80212744057339,-0.270006496975968,-1.45289942557144
122.92,-0.45733514972462,0.304231102398851,0.841801670661647,0.230342303167075,0.203429973069994,-0.216427918817231,-1.0368635092942,-0.0167895231407305,-0.0322220575067184,0.467964235706167,0.874777124830563,-0.487836062908173,-1.12186427429301,-0.0508431727066765,0.245114949320546,1.06549581473055,0.314561295710121,-0.0875030626492344,-1.20264699952822,0.00940979303056903,0.177711540389842,1.8371797649214,-0.253011152332091,-1.46081456226371
122.925,-0.449154484788991,0.299812545854534,0.853818482890481,0.259167856342387,0.252808911961734,-0.212096107812953,-1.0366263780058,-0.0313598348157599,-0.0139664269661692,0.472792118787766,0.942727349128905,-0.481765732602689,-1.14744180688526,-0.0810534333180772,0.268117808478142,1.10411659720789,0.248171484830611,-0.0467988815810858,-1.24797167853731,-0.00358993159937017,0.165434761962642,1.83712573726097,-0.231138158647835,-1.4473361583869
122.93,-0.44953272936841,0.286202619345629,0.862861213275818,0.31512168496219,0.320938453147136,-0.205379412475381,-1.03372104070697,-0.0444322687835756,-0.00623371482610913,0.473931925314699,1.00404370245464,-0.469025882739846,-1.17464950340479,-0.106053448958671,0.2972067610062,1.13053631340295,0.186498696913023,-0.0075359594924804,-1.29934129359823,-0.0185590568607616,0.151934798439467,1.81716894301554,-0.230421801677386,-1.43580493505712
122.935,-0.443467130707619,0.293084679422945,0.870501790990744,0.370132093180661,0.338736300597023,-0.203325389999709,-1.03671579511132,-0.0504826011561267,0.0133116454495172,0.504397750751387,1.06387724070403,-0.45208189898545,-1.19697597016812,-0.124697207198051,0.332320747362885,1.15222213680337,0.105796695537963,0.01463851830759,-1.35703709673085,-0.0490810687668964,0.117212182738263,1.74948379102743,-0.206774987650462,-1.40148246186505
122.94,-0.436066759643742,0.27957836494475,0.881337290813396,0.42617779705445,0.247045658395216,-0.200810504169161,-1.05425270600743,-0.0700422774104584,0.0127368642164877,0.531486702302451,1.12975565891847,-0.42696986330419,-1.21879348940533,-0.145339102951189,0.365917275329495,1.14450326352425,0.00560525248516642,0.0258231518766173,-1.39637407146488,-0.0812406041928751,0.0722744691827074,1.64996010917863,-0.184175605035457,-1.3524345616017
122.945,-0.420240691000798,0.277926509019463,0.892274535126289,0.515972418917213,0.527706565745205,-0.202554893389713,-1.08607985608946,-0.0835311172081747,0.017246786707642,0.560860265460473,1.20164573570884,-0.394991767150041,-1.2284212876119,-0.161216467068882,0.394101940960177,1.12594200166436,-0.0844752305419697,0.0319417180017865,-1.41010357754242,-0.130572282626312,0.00962713061172164,1.52056026750898,-0.139349474563447,-1.25364600353861
122.95,-0.397011032574143,0.265864912348124,0.910559054569095,0.595041903030233,0.623623935875154,-0.196651460962106,-1.10179376567008,-0.0992925540210205,0.0178603903681661,0.609605509310061,1.27694935928252,-0.365995887390154,-1.23685847094727,-0.183063410861874,0.416996566434256,1.09931852570097,-0.175310380372188,0.0237978357718166,-1.41755526436763,-0.16574235841505,-0.0629224972756509,1.31990850204555,-0.0792874447527229,-1.10328523227494
122.955,-0.37940766934877,0.28597344035794,0.926738342696488,0.718228630640754,0.717227711763908,-0.19390835625363,-1.13230610293031,-0.101682463065784,0.00261930099745894,0.681429557618073,1.35909533411663,-0.33349936435549,-1.23920870850203,-0.206971058044299,0.443457896356482,1.06204377488294,-0.243360035291744,0.00734803160931465,-1.40846230951928,-0.180981301563679,-0.102494118713723,1.12088550483948,-0.00594515594780018,-1.07427262994881
122.96,-0.353586754961719,0.327688651384587,0.907619191861437,0.86506571331508,0.810732548716757,-0.20078807015726,-1.15938346694022,-0.0783634295351231,-0.0134032035910249,0.781773955520469,1.41980741922961,-0.315286757668214,-1.24298529671441,-0.253103314602906,0.443530678775583,1.01191279625488,-0.322591762795113,-0.0148640472136854,-1.38345898106702,-0.196819848465872,-0.144277836708715,0.912222165498179,0.0889528711903043,-1.09205471227259
122.965,-0.435466379714209,0.432363364733364,0.938215620436819,0.950491644739246,0.911186408186039,-0.247859473356053,-1.19243978311478,-0.0487337336244718,0.027886172219436,0.970569629965267,1.50586082483652,-0.279437641598177,-1.25262895743632,-0.294005958390915,0.449674694586455,0.953638512848695,-0.37540715217209,-0.0373268217360896,-1.28855737508886,-0.232219848867005,-0.171159362900293,0.706935388728886,0.193561971130481,-0.991307878671648
122.97,-0.44295623011325,0.395819864319284,0.923157758993541,0.973256299132794,0.981403033383369,-0.297613329746251,-1.21975438697806,-0.0477603993506162,0.0321071970141944,1.05814472100777,1.56178386014217,-0.235453012546286,-1.27425391458361,-0.335863668861693,0.454370468221682,0.882559280723624,-0.41899980019886,-0.0659127683695757,-1.21883774870527,-0.261284002823982,-0.173506239276985,0.500431026263841,0.288112538966415,-0.889583877532979
122.975,-0.458228037530223,0.313849394508372,0.93886238638071,1.0100477510412,1.1207859866732,-0.377170152470286,-1.26174566579414,-0.111001592396853,-0.00163633621582329,1.08401528748992,1.58131685156396,-0.170053827422178,-1.30106788374478,-0.378580386373952,0.446890572134759,0.799215700402032,-0.478348634357357,-0.112636616091493,-1.15359645222785,-0.280301063209976,-0.163778613498568,0.303406443923976,0.381283647679049,-0.818151500566973
122.98,-0.448097913209455,0.268566073349091,0.957618034124388,1.09468483928736,1.24743469903842,-0.4220302895451,-1.29920113430365,-0.206569190495908,-0.0444741232600459,1.11947058367266,1.58586224179882,-0.119793288531775,-1.32451357046244,-0.402105995732198,0.423804834780682,0.688585338679959,-0.514889520257487,-0.172022174070937,-1.10468454182826,-0.280295175805131,-0.142853497807705,0.132736600787005,0.419656486381096,-0.768677852752022
122.985,-0.413678383903798,0.364150972197161,0.933788126561068,1.20942374877107,1.4065889024768,-0.462567604618189,-1.35067493042405,-0.301639287949022,-0.0789946375708189,1.22889169000015,1.59894604010227,-0.105740742163248,-1.314232563928,-0.42524767956633,0.385767633366973,0.529552050901058,-0.4922629646986,-0.249845526683524,-1.06757733723213,-0.282420507281874,-0.127609942925389,0.0371534805008484,0.424120574600219,-0.761135306945978
122.99,-0.367479181862467,0.303383130239862,0.972023697304889,1.28378071418642,1.5256396454374,-0.519978406350187,-1.38575743538888,-0.345507813290087,-0.104889619478213,1.32355013470251,1.58711467527795,-0.133543176425017,-1.28740999076492,-0.421821222859367,0.368832388511032,0.433886926690164,-0.371767233191173,-0.300681391482278,-1.05616158666517,-0.25895132249966,-0.112693613562954,0.0630574585094218,0.404572150631917,-0.750409481030627
122.995,-0.358218856393918,0.32351453484191,0.928554470187424,1.46671088277829,1.64659253234496,-0.671601175873267,-1.4282023412645,-0.367015464573072,-0.140040688797277,1.46462768004515,1.56384522251211,-0.180496373751377,-1.2471089354476,-0.395030131721094,0.343021453231875,0.402617804880273,-0.148879526252313,-0.357525744066388,-1.04237876016847,-0.227224010141558,-0.080829425559532,0.144954982677367,0.382535024074957,-0.758746863913341
123,-0.405344285612612,0.321653556917758,0.958038754967124,1.6520584106106,1.7348460023223,-0.825311401513615,-1.45483578200188,-0.335754711094763,-0.165537999858283,1.68037387253756,1.54269531805966,-0.180904611992876,-1.19146725791185,-0.36031175183687,0.207075505365563,0.611160403046717,0.0405072932485634,-0.39084682725023,-1.02791270224282,-0.205581745152632,-0.0456432075537974,0.252470399211422,0.365011530512719,-0.748647462920446
123.005,-0.398192890821491,0.22030820779855,0.984411786647722,1.93309381043808,1.76663930268944,-1.02242294854564,-1.46859510393633,-0.264577616731886,-0.181540704636441,1.96034181932903,1.51822727677635,-0.113356348992795,-1.11756124483045,-0.340597041446858,0.0361609327713302,1.15773800058124,0.116155171542334,-0.366875330395242,-1.0038777312391,-0.186460090745436,0.0144640415221662,0.396726763689986,0.318962124244638,-0.712692551972988
123.01,-0.310310276322455,0.174413420728677,0.939050800439652,2.4191178745355,1.74977177656947,-1.34977155784568,-1.46947872415251,-0.183825723650134,-0.194871256595079,2.26419839488578,1.46827922099128,0.0121267732015937,-1.07545229026869,-0.449596563032234,0.00443383872802694,1.74087421915763,0.0126165462019458,-0.346388351368722,-0.989788574515733,-0.167587824093916,0.0636112985512161,0.520423309915562,0.280280680011893,-0.638148039709402
123.015,-0.352682908482029,0.345868825003395,0.933250083148195,2.94966944995013,1.83329583086937,-1.70310797870141,-1.44343665202963,-0.08095432103928,-0.248739124022592,2.59723814843202,1.38712058892351,0.160563030507939,-1.09080665658826,-0.708677960278443,0.143602401265099,1.90682476514244,-0.369735882527288,-0.484405509240582,-0.990074434918341,-0.154116543834776,0.145297275161092,0.62340253682571,0.210679379637058,-0.664559607634912
123.02,-0.479890615998049,0.325470687025431,0.967592475155291,3.39855057041219,1.82111421325312,-1.93594690567028,-1.38054341555219,0.0306674592313572,-0.316395170393196,2.92430190133435,1.34400759228316,0.31308498515473,-1.13037795333515,-0.934972613884745,0.236828055005939,1.78190560278303,-0.892639098267815,-0.668737493743948,-0.984662393089359,-0.166783074336538,0.209397416144858,0.741860181501877,0.174787989430298,-0.694844547988597
123.025,-0.564391207757713,0.27737948044574,0.945788080262882,3.86545234591566,1.82005136307221,-2.19331979234656,-1.3246330174203,0.108615984639893,-0.357388843216025,3.16741482566831,1.37301345225488,0.429593296862744,-1.10163718266642,-1.13542572900669,0.0306278473492933,1.47319756847151,-1.34208615932306,-0.873170213707236,-0.973126967118118,-0.165614172424485,0.26288499033417,0.845892748840562,0.16094371381142,-0.680587357526689
123.03,-0.657393751925188,0.399574627421932,0.85843168990774,4.26303494047162,1.81612824227862,-2.33760017691454,-1.2716015697156,0.161030857244667,-0.390401102951251,3.41015725315161,1.41419308767122,0.521193985613805,-1.00412828871155,-1.18395507812725,-0.350743144116778,1.23292812379258,-1.30285413440944,-0.985910482772577,-0.952427054334726,-0.163327094441285,0.307377235490013,0.920593770253501,0.181353225658797,-0.761868231075577
123.035,-0.779228731964077,0.516996447678064,0.814192933909242,4.65160233006336,1.77696613130509,-2.39660624828074,-1.19947728374716,0.183319144824095,-0.436284902106212,3.68240804686771,1.44517852274606,0.611364633995967,-0.974292342730971,-1.0626709794132,-0.59403707311196,1.45866049103645,-0.916539508920706,-1.05863038262227,-0.954830750693618,-0.17021942460986,0.33538767501171,1.04864445998515,0.225164094186771,-0.786957118993731
123.04,-0.833871097315599,0.511305194903996,0.815540903884167,4.80927695426702,1.76934392064941,-2.44569816152971,-1.15758783075186,0.143675093599386,-0.480127580336937,3.79319425583388,1.44312611278673,0.678524477140075,-1.09705633651664,-0.924906246602935,-0.579980938566489,1.87847074760445,-0.800994558880383,-1.14116597709992,-0.949376200037269,-0.189614626181504,0.339655636496564,1.12729991755928,0.286164313272518,-0.780826751327682
123.045,-0.742614265590394,0.557949808715791,0.878978425717829,4.960533601128,1.66275424194403,-2.58289040565494,-1.09820507059415,0.0570931614459494,-0.493777680396758,3.83574404216014,1.39500199038484,0.707459336502352,-1.21631483758955,-0.765868925670727,-0.664055629390047,2.35104514566258,-0.844786203468552,-1.16714802562338,-0.940301385353605,-0.199500224011094,0.34548345075896,1.21799179114797,0.319838808284121,-0.756107388197161
123.05,-0.694576788586179,0.564265343065234,0.994732246006928,4.95809411807577,1.43619240808535,-2.66101944553414,-1.0544194012269,0.00321459618459794,-0.486405879266636,3.9381405782226,1.34993670942889,0.688094093333349,-1.24017230656473,-0.62498113977589,-0.78650206348578,2.69725741482474,-0.900664660400253,-1.08356823022145,-0.927378642790665,-0.203763252307935,0.327454716996409,1.2870745953896,0.328647197383824,-0.706446792322058
123.055,-0.729407703803471,0.356920240337541,1.15464052105025,4.67670399727372,0.955804154129074,-2.84850008330579,-1.03332466435359,0.00749314825615975,-0.455104959365558,4.14718504515069,1.26992346038985,0.657725441318254,-1.2306848815282,-0.501274986099158,-0.831651376318076,3.03362248599733,-0.939698046315416,-0.925224082370301,-0.920534964526858,-0.198652763636318,0.304463464168316,1.30882530458111,0.326933976973436,-0.640111519723333
123.06,-0.671178106607716,0.00780765411761152,1.37937099250411,4.32807283094706,0.526046987359099,-3.13669693086025,-1.00930925214543,0.0623003253414914,-0.407148533166674,4.30280447006226,1.201342852962,0.641953080358543,-1.22638732789582,-0.416969481094454,-0.839985481227773,3.27561305372542,-0.97866519136199,-0.807275677405002,-0.910060590260886,-0.184948548856662,0.28386736838622,1.32350798846507,0.296571582942543,-0.614004079704741
123.065,-0.67115728002588,-0.224929279995843,1.57839977507237,4.45804302926785,-0.0460641254527884,-3.44032483121303,-0.965654584239233,0.131772840502341,-0.362948942771897,4.27339135793966,1.07792409909823,0.612864063422051,-1.15507314051391,-0.308074468289899,-0.907053222456873,3.68514845942325,-0.982555409475831,-0.704468682713307,-0.896451730467238,-0.1767301522041,0.250467299492932,1.37167979860265,0.251501382919771,-0.567589415002554
123.07,-0.675811216037298,-0.362517682065936,1.4850374543508,4.82549135659806,-0.587260602260434,-3.69221814377972,-0.938223356299748,0.157362169296722,-0.381978281200039,4.1165852311952,1.03229264286305,0.599589477106853,-1.08099517265335,-0.22285219702499,-0.926224494499888,3.98201803191046,-0.938380429175894,-0.674929702184682,-0.889193327217964,-0.170286597650445,0.209327891583253,1.40284070208586,0.190241303081585,-0.511215030848629
123.075,-0.600979246631684,-0.327064070624628,0.857968952962944,5.29760600969674,-1.45509152348606,-4.43960841629882,-0.861233142513,0.141006231419532,-0.386981355007483,3.68185726292134,0.900109240872457,0.590389646774727,-0.998951167023121,-0.136968286195217,-0.922334032502862,4.14917468036251,-0.881530164231257,-0.668990142654947,-0.899527807529566,-0.152612714922748,0.174650004746206,1.41214294323187,0.145421622089981,-0.48753669636002
123.08,-0.712301336601361,0.572035022636699,0.379174308687445,5.14626742284601,-1.72358044086374,-4.84507847856897,-0.79486180968945,0.102099819357897,-0.369596193484643,3.54157791191129,0.832740084989857,0.618089041120721,-0.918202218839505,-0.0752724246420034,-0.892187258460313,4.25692476925543,-0.833880038276362,-0.655068259250533,-0.887713033232061,-0.158871326573949,0.133129149286139,1.43535705012629,0.132788329076269,-0.383585239336394
123.085,-0.809118063363285,1.18258355012906,0.303393484308555,4.76704717080633,-1.71052621434047,-4.61722880335756,-0.741700033150174,0.045796538724355,-0.440284107035791,3.53244698638794,0.773116924916878,0.668749651739377,-0.891862493680207,-0.0661493507712884,-0.850672183609614,4.19963339526509,-0.825409343880862,-0.650225893836838,-0.928756156907727,-0.122716962869323,0.110902118584975,1.38961435072161,0.12500489877913,-0.376295906148389
123.09,-0.854967652985236,1.20997027614655,0.493872327976492,4.2469099861862,-1.68879229972663,-4.15546277045919,-0.696092043107987,-0.0174298936423918,-0.500988639858267,3.66759344970557,0.736998856007357,0.700133545361244,-0.871761551332513,-0.0967158954101514,-0.798457999274294,4.072181594502,-0.838723943502036,-0.627252341532956,-0.962469702454463,-0.112758505438264,0.0816861839717594,1.3646979783045,0.118094377486718,-0.412850704162625
123.095,-0.81834596703666,0.765634543491811,0.465532190580802,3.64472530367359,-1.85419314286158,-3.99837774892729,-0.646384808965255,-0.0575105058555019,-0.49158683343838,3.96821547329305,0.685217364405123,0.726889082781113,-0.856633194873748,-0.141580297778698,-0.759439319217026,3.93848865187119,-0.844077978624701,-0.579095979415173,-0.984799928496229,-0.112793067022523,0.0565271571946587,1.30887109447033,0.0964716851354619,-0.457283185938552
123.1,-0.76362901018984,0.486552882191853,0.552896915844309,3.05399517308363,-1.97263087385882,-4.16588482257313,-0.617275387693934,-0.0514076907769656,-0.448282194291365,4.19337072645336,0.620078233282089,0.761001221680011,-0.839161196869618,-0.210257131684498,-0.737588605802227,3.79514172641307,-0.841948368142859,-0.506065887887144,-0.98996791522452,-0.11143394012302,0.0334862095132754,1.25987874023757,0.0687626197290653,-0.451744044289372
123.105,-0.765771635567473,0.851670825113629,0.954682251141377,2.404555823408,-2.32415129666901,-4.24404796661271,-0.574504478489124,0.0199902011367778,-0.511360995111806,4.31658695810127,0.501060513951814,0.822535689907572,-0.79966673713338,-0.285036351904461,-0.731787651567022,3.60613174872474,-0.825137329537194,-0.381129511818928,-1.03650680914513,-0.092977343836213,0.0314416499434016,1.18510316556401,0.00306139621873676,-0.466825023246583
123.11,-0.836969757000754,0.985898829607845,1.11708919725418,1.58443181138583,-2.93820339709636,-3.90464332364187,-0.528151908259027,0.0312773767534385,-0.497846554807338,4.32054719196332,0.41863354013274,0.889388095786207,-0.763385736168357,-0.308564530862457,-0.739118403946575,3.46783873713277,-0.798867384167477,-0.289928721350492,-1.05771351148541,-0.07954836467947,0.0255023906719842,1.09422650263403,-0.0683779811645052,-0.499730646195917
123.115,-0.792673190918982,0.560789502763808,0.946732378330045,1.33927407102647,-3.54310246749766,-3.62143152287051,-0.471008774538523,-0.0317319754493575,-0.390798092971771,4.23669656822369,0.334023947847519,0.952463230346414,-0.724861154987305,-0.31327585888677,-0.71738641454934,3.40280145666512,-0.717056738086405,-0.207297194009479,-1.07405090275611,-0.0666285982670849,0.0221517301605621,0.97611473075386,-0.139571230479044,-0.517923544590815
123.12,-0.539199117640127,0.182556379776717,0.636079272782535,1.43437057461809,-3.96626347209022,-3.58909747229457,-0.4658312652406,-0.109952264207471,-0.276697051223635,4.05051930375212,0.245713163843563,0.992535201409064,-0.695809338273503,-0.302622827872783,-0.690419491136492,3.40055565163106,-0.623552326826558,-0.156630692907696,-1.07971229440955,-0.0659798042587633,0.0259908573640927,0.869262147448939,-0.18544823569511,-0.507101584317943
123.125,-0.30579166626694,0.0853453400659953,0.361258310603682,1.62323803745044,-4.067514181835,-3.6099764865359,-0.512660170865708,-0.150137931724581,-0.201327041033646,3.88292532220307,0.160629737014031,1.00711248007095,-0.674639939673761,-0.268990296524076,-0.674687769982201,3.41166713100718,-0.548988592209565,-0.147127643339558,-1.09356749540266,-0.0557265381386372,0.0408423754444214,0.774437495175646,-0.199476765119764,-0.47531751013491
123.13,-0.221652795533143,0.172615618145842,0.103942194550714,1.7899251959627,-3.83720417101702,-3.54981027596652,-0.587628373209388,-0.160732863034594,-0.14119590548468,3.7079059933417,0.0456665835310822,1.01407925632758,-0.650256303365477,-0.224156884199666,-0.6552759424439,3.42571979743887,-0.486551379472612,-0.14613515432373,-1.11017096279485,-0.0596577766049931,0.0570504780775455,0.698913028985182,-0.206956768076758,-0.44260947744134
123.135,-0.269019194662936,0.246473232144398,0.0485217500695077,1.85726839547843,-3.48756191061896,-3.42329609267525,-0.628227199803212,-0.16609428395746,-0.13658659552206,3.62606642377759,-0.0488593582241297,1.03493218709697,-0.648529250353449,-0.177676519128874,-0.64006418633344,3.38372544006889,-0.417176459091579,-0.152517679407395,-1.11575670108635,-0.0546351875222932,0.0746599048712962,0.626078160065113,-0.203241465445696,-0.38907297911902
123.14,-0.298282170118,0.298579356774253,0.0958374179231742,1.88562926544281,-3.1507681372294,-3.29786502346974,-0.636436164464807,-0.171325280221154,-0.16818150299559,3.61582713735274,-0.149558794520117,1.06079848420048,-0.658907168369366,-0.129155087956252,-0.618856375986457,3.31427184387155,-0.364922025825124,-0.154282808303833,-1.12681222290919,-0.0476127321619598,0.103447200554475,0.558473039072724,-0.201152338969022,-0.316437794067084
123.145,-0.328491229365922,0.372891388921651,0.16600387427609,1.8416832823364,-2.96102249668252,-3.17961450366985,-0.613003656124039,-0.194379195849597,-0.185295731001925,3.61463090739654,-0.228838870522264,1.07489110548295,-0.670502925556501,-0.107937019144796,-0.604730348783414,3.23291639315941,-0.328998480481438,-0.156037782954288,-1.13924084582477,-0.0436248532670239,0.129606810527209,0.513412891065101,-0.218891911683132,-0.254124272278467
123.15,-0.35485808219994,0.414417616999867,0.219952466314687,1.7753636751349,-2.82829209552438,-3.01405782083021,-0.597481331892903,-0.235512216534882,-0.206740748791133,3.53652736782864,-0.295068647449345,1.07393052319311,-0.686772290693953,-0.100535362018843,-0.587988618563949,3.16013280152852,-0.286482477735437,-0.160184496855492,-1.13576349138798,-0.0463566774934538,0.154451531121925,0.464824235750751,-0.26330673900516,-0.167945186008273
123.155,-0.342199831533861,0.398464473201152,0.238827932970207,1.67708733830771,-2.69545888731692,-2.79502196021294,-0.581365022112196,-0.281191957310163,-0.227851715499366,3.44205680371759,-0.35395508351746,1.05331039947939,-0.703427711881793,-0.114630707900566,-0.57631568611297,3.09731159774076,-0.251534738572126,-0.189559458304257,-1.1152509787811,-0.0528837147021202,0.167877821044593,0.433658048514042,-0.311318496016884,-0.106428636229038
123.16,-0.357368407400979,0.266483755529355,0.218095303413561,1.54559745899313,-2.4830365628641,-2.50994564001946,-0.571842265054438,-0.360496394262347,-0.225148460440924,3.37007331876223,-0.405785845577923,1.01748302008747,-0.719408200748406,-0.114352902281085,-0.56789042905014,3.05753191555901,-0.204823855999372,-0.220149295743063,-1.08364565783755,-0.0717877991528922,0.170996248326582,0.407880472710152,-0.389463660471886,-0.0623922063883194
123.165,-0.307999981736306,0.273673292391491,0.238057174910426,1.5246699504572,-2.2838900214447,-2.38153642751512,-0.577598197135849,-0.348393675518314,-0.208289905777321,3.42931597769242,-0.455008404822858,0.965670775783043,-0.745247659969808,-0.0986202696567158,-0.555024585491788,3.04477978222777,-0.166941421392092,-0.241508554390568,-1.05235450117438,-0.092011626528136,0.176719055643728,0.415953098663088,-0.474336180755145,-0.059083898678534
123.17,-0.274752971149553,0.300024766685166,0.28796883504831,1.4651772211209,-2.03961756931099,-2.1944579676455,-0.606235494342628,-0.331150072257603,-0.173419597599556,3.45298926513254,-0.491300304984263,0.896382528469034,-0.770743786897622,-0.0815799078884866,-0.532691821728801,3.0287805315476,-0.161233082794149,-0.240201312026107,-1.02053400335218,-0.114345166812513,0.187842452064299,0.45174318064935,-0.578542032396358,-0.0896561995254114
123.175,-0.269384275789049,0.304063253423041,0.350943729291347,1.39010547803744,-1.81300321545729,-1.98701646050656,-0.63552499597651,-0.289453227881327,-0.144430800574738,3.41938132909813,-0.525094863336776,0.835612409264623,-0.805885448052791,-0.0720200978511873,-0.493527992724439,2.99163170875506,-0.203643804378919,-0.225959815547119,-0.982106453159927,-0.133814341474513,0.19452466042389,0.500355401193251,-0.674892191698264,-0.128317137078795
123.18,-0.325929098743209,0.298709959677208,0.437050375866627,1.53049825520448,-1.63065008498065,-1.82289696777679,-0.643212189438098,-0.255552471396686,-0.148867795626782,3.2925604132786,-0.579967591701637,0.815167966620326,-0.81955396343559,-0.0652014570114037,-0.486170439607034,2.93168686767881,-0.287186288934444,-0.20574656233968,-0.943154245604969,-0.145507856540342,0.184909872434112,0.536001495939692,-0.727350803788164,-0.14903243301548
123.185,-0.33274495823844,0.388339179470221,0.569947771985415,1.1693329565931,-1.50933403804994,-1.67007317181151,-0.637118589410354,-0.228422446793131,-0.147936038320887,3.16679405416824,-0.639838503597979,0.833515609809205,-0.824896147130822,-0.0429645134641453,-0.482985193481084,2.83924483769884,-0.334666524234449,-0.153459013315455,-0.903168608528751,-0.162987630967753,0.188943491737899,0.543905792991038,-0.71330925219797,-0.153398988144077
123.19,-0.322547247106055,0.410999610089277,0.652092235437606,1.00916389968479,-1.4778017954409,-1.47650567614677,-0.667482652335949,-0.214830837698553,-0.173637501859612,3.02489705810982,-0.693250404926339,0.851095378220478,-0.828125871202682,-0.00435565544102063,-0.456445730095168,2.72914632315951,-0.366837271825317,-0.112911521000535,-0.865077503790228,-0.187152401916824,0.181905170957507,0.556398770701684,-0.643752578114642,-0.125017280542994
123.195,-0.41334255639221,0.31048335544895,0.718983245618733,0.797967452879957,-1.46372957408981,-1.22239083169187,-0.715726496839908,-0.200610349174518,-0.18694579514147,2.82515137006263,-0.756390276096435,0.804247885457863,-0.835640533034238,0.0321243472788367,-0.425094307947316,2.6272251806429,-0.404847018224459,-0.0718700523299709,-0.834574895966516,-0.199399931255009,0.181254202587881,0.555368194748046,-0.558648121219501,-0.0897119960958649
123.2,-0.457169400706969,0.257915997751116,0.76152788255633,0.691622690702666,-1.45571535608266,-1.06275204091308,-0.77142852155997,-0.175813052197246,-0.182938535539758,2.59527769459862,-0.804546794990356,0.717637430236506,-0.842048133228284,0.0681626294096414,-0.400601839773381,2.47921584143348,-0.447309753991957,-0.0390878359138809,-0.808361864279898,-0.226889880093097,0.18300489965699,0.548773221502424,-0.464058091978721,-0.0497436471675929
123.205,-0.484403834615438,0.22885200875846,0.7789210502128,0.615110723588759,-1.47528571332691,-0.919695930216422,-0.814672638679514,-0.147365599313119,-0.149439785303003,2.2518513640473,-0.882489576465229,0.61635950594781,-0.836589699372132,0.0889889888032049,-0.378827755741112,2.29988874203345,-0.464577111293628,-0.0134338323106128,-0.797728195323251,-0.243781040087253,0.187523482424511,0.528589293222326,-0.372644815659532,-0.0098145617377417
123.21,-0.480081416313996,0.239862980523946,0.783112760428683,0.534670911426726,-1.49010796875148,-0.830640133591164,-0.831393657967706,-0.139549929152954,-0.121778760530908,1.87552723108177,-0.974011134991638,0.563191273027797,-0.822762414905925,0.122504058220357,-0.355532569983532,2.05074534927848,-0.40777189656791,0.0195932230531591,-0.78712154798938,-0.259225216764257,0.198052098753868,0.484160619989416,-0.255540337968743,0.0380955819632347
123.215,-0.428246049913291,0.275674777650859,0.772050942221647,0.434788057286325,-1.49448169098807,-0.725765088278832,-0.829102211777854,-0.161853434424912,-0.116276167242156,1.36054521379988,-1.08896880699761,0.542901662562881,-0.818069923092338,0.137131762712876,-0.303653523074267,1.8354240322913,-0.327464394270121,0.049267794843132,-0.796265259939043,-0.275996078143642,0.211625728896413,0.445563505613903,-0.156499647827794,0.0914457402459734
123.22,-0.43648493954816,0.276608337739756,0.776525585061532,0.283186735760206,-1.48615738311998,-0.581579378946325,-0.852412107944159,-0.201808457136769,-0.147878105666146,1.00167499608896,-1.15381480624866,0.516385926327098,-0.837077726499705,0.142494860240727,-0.181846617365437,1.60838329314496,-0.304728489645667,0.0643160602797428,-0.80666444392676,-0.285280374680095,0.223852368570258,0.406538445569523,-0.085529493388642,0.127604644582473
123.225,-0.452455429672494,0.274457681518299,0.790926354498437,0.120858915566642,-1.48773349436864,-0.46765061903514,-0.892537907055002,-0.230104983826423,-0.162989954264722,0.67634741576462,-1.20878872531495,0.472759299790185,-0.841904912108873,0.155577826337472,-0.265359028794157,1.38639568594855,-0.336060890112389,0.069277311558601,-0.820147502081913,-0.298647601067548,0.236981743038476,0.356012609210172,-0.021374703870138,0.174809807515491
123.23,-0.466891806700802,0.259855082355053,0.808212781450785,-0.0269158998514977,-1.4893322517196,-0.365941152455726,-0.928025361964296,-0.251805368798018,-0.187520150317252,0.495774590699875,-1.25469789883461,0.423241550708105,-0.83840052816096,0.14199242027977,-0.278499799801489,1.09159835761325,-0.123926242702847,0.0844240575498083,-0.848644341201069,-0.310113550590511,0.256613331181802,0.308788746156021,0.0222228573819921,0.208611239617116
123.235,-0.502862149369892,0.230879120590739,0.802411496077955,-0.131712993723805,-1.49972438168987,-0.256075013942402,-0.944851131042502,-0.255153149235984,-0.193311535811382,0.36862041347855,-1.30158226095746,0.358070893699664,-0.837546071710412,0.131106424724238,-0.263005358195454,0.777379408614541,0.164745449014733,0.108352867735022,-0.869771623469112,-0.313651087056876,0.268085792096931,0.257704844095586,0.0556622097741648,0.233363340554411
123.24,-0.516769593633147,0.224261146047199,0.782751882409303,-0.212885408583578,-1.48352033459306,-0.193365204189181,-0.93691731425427,-0.258828153696855,-0.19547402303868,0.199757516869323,-1.34768122676232,0.326976294204467,-0.862333190635602,0.10585635433131,-0.217521464244232,0.502190761137961,0.420728056749459,0.0996450620777847,-0.882737189323804,-0.315128728694047,0.277719498550869,0.239190326618333,0.0651703774929047,0.243723280173846
123.245,-0.528447841908717,0.230510134083069,0.762490670128769,-0.279932617592965,-1.45419450926809,-0.111923739710837,-0.927879178882586,-0.266969882810026,-0.207193087524282,0.0108485926640737,-1.41581052853295,0.285070428585994,-0.881326866778924,0.0749366682690384,-0.214031371727921,0.326878046487501,0.546432636256484,0.075184345190504,-0.902379908324426,-0.310695543146929,0.283726561498146,0.2160234412617,0.0586985592839462,0.250954704516311
123.25,-0.542659994223047,0.241039907040707,0.740392895553859,-0.346900602770172,-1.42639343568684,-0.0456034898628935,-0.918722409132031,-0.284633291802287,-0.217951117524703,-0.136385100245598,-1.46677964977173,0.247702508650744,-0.897467734248719,0.0392912761249342,-0.208459127303178,0.0957664948627556,0.698718642076722,0.0548764367222056,-0.91818291365423,-0.311789827895435,0.291636566343633,0.206143161067198,0.0345825450211768,0.252678245306015
123.255,-0.544974978175572,0.255820674267216,0.713850248097873,-0.440593609296642,-1.37852848136952,0.0259825167426864,-0.917784991864595,-0.31845253780818,-0.226496269906322,-0.202782838260283,-1.49204302480404,0.197489442875098,-0.907675566365788,0.013561704758425,-0.193094786453202,-0.118159264049445,0.838605275098325,0.0449207919503136,-0.935636924169326,-0.309131501859247,0.292108935005102,0.214156736341511,0.00635900738767991,0.244075369531367
123.26,-0.539740377687659,0.257729340489002,0.692073144559629,-0.512659136640613,-1.34575237582082,0.0574815294313979,-0.929349424967328,-0.3233002414688,-0.239801110013065,-0.192153536155224,-1.51252545830364,0.153398407539651,-0.909255386999075,-0.0133834587618178,-0.179981924336684,-0.299518962974826,0.945752217117125,0.0267930180504134,-0.945886361596396,-0.31006628801014,0.282181072253417,0.230528717284143,-0.0254803452051447,0.230735816561541
123.265,-0.545278236234059,0.235979448803003,0.6627389941501,-0.589921340720144,-1.29595571042977,0.0854070412499977,-0.935768425526733,-0.321665021822934,-0.250163940869699,-0.138185403195789,-1.51460493212057,0.116730640771242,-0.91862342845854,-0.0367557447279875,-0.150611447894802,-0.489952223680765,1.03371665230333,-0.00241909148958915,-0.959278950541483,-0.308336665175999,0.281184012471696,0.251891935401565,-0.0593945800249576,0.207752903465087
123.27,-0.553130842846273,0.217492285330558,0.63867682560226,-0.645623369004758,-1.23587617052836,0.094212685894871,-0.942993972581124,-0.299103522379209,-0.268937422770848,-0.06637975703291,-1.49952933394017,0.101436353984496,-0.919054766513397,-0.0621113877503546,-0.110452417344661,-0.659904168211534,1.04779464256652,-0.0336460682456288,-0.968423313523711,-0.301241965800445,0.275862291927935,0.258282263291226,-0.0920566037533938,0.200889001406817
123.275,-0.545235641862179,0.213704510708962,0.603386091557502,-0.692028825752381,-1.16456125235407,0.0951850782362902,-0.948874140763491,-0.272602045636072,-0.274894212323676,-0.00728340622283101,-1.49696444553165,0.120091170555067,-0.918426434572656,-0.0859838481681037,-0.0815627602175781,-0.79999715739,1.02780427904011,-0.0574300382187791,-0.972703477069821,-0.288777948835919,0.262682354380029,0.272569160138432,-0.138244169579554,0.194665359931951
123.28,-0.552423826269083,0.206021237206433,0.558587022585516,-0.735218235905797,-1.0968978267248,0.0837402016309059,-0.959390157066002,-0.244638889021947,-0.281617878300897,0.0308630141591104,-1.50480007894126,0.156298100393741,-0.910854727925643,-0.105506956859506,-0.052898373558346,-0.951854112991558,0.958183830482611,-0.0882214108206033,-0.983991937173674,-0.272204114342068,0.249897359802691,0.278485863048505,-0.164344553236154,0.193961431548595
123.285,-0.543786626838904,0.223439925252496,0.509852784964952,-0.810824803148854,-0.975136658864051,0.0430822323396095,-0.968710518617345,-0.224601338052494,-0.277838419673089,0.0473579223284099,-1.50924915835045,0.172163471798682,-0.898947021275545,-0.110405118822328,-0.049513512393292,-1.05488441705541,0.889565319122798,-0.126182854102443,-0.995366371888178,-0.26487645749988,0.24586289924774,0.274645927577422,-0.175170217880489,0.213209250689825
123.29,-0.552969038230584,0.209999792893158,0.481921981677385,-0.883223593634984,-0.828354258581243,0.00833669488322951,-0.984687257196648,-0.221585914703007,-0.273837362240754,0.0277037951829867,-1.51151028055259,0.168696683728768,-0.876262879003059,-0.123010464836666,-0.041374607666982,-1.20394177416906,0.785221521872778,-0.197594586831812,-1.01745367574037,-0.253897352914434,0.231784464884122,0.276395171880722,-0.176023636160309,0.23665674619981
123.295,-0.583882296150249,0.19822231194827,0.481544983635198,-0.948207359989063,-0.67681265365344,-0.0407266150148497,-1.00369331428608,-0.211186216819589,-0.289682200638119,-0.00211604486834935,-1.50150688165446,0.159438689706615,-0.862282510335233,-0.132567004621724,-0.0332240720937649,-1.34844557440575,0.651692684594876,-0.264795745385591,-1.03683128337544,-0.244988739191189,0.22518294685686,0.278919867161783,-0.1848968568174,0.260795053324184
123.3,-0.612086271397966,0.19519934518774,0.500755203233645,-0.992698325382448,-0.556107249559613,-0.0812970252514746,-1.00787102112031,-0.176158678264566,-0.311096286765218,0.00800823162399328,-1.48004118517898,0.171339013298152,-0.857564634316285,-0.131054656412784,-0.0242188743911323,-1.49693559284495,0.506920955598231,-0.343850290049012,-1.04071297193386,-0.235907297046367,0.213870021873987,0.304812148870772,-0.203571873289683,0.28656409978865
123.305,-0.70981324552052,0.156697772902695,0.482801904777715,-1.04561297965653,-0.431187520012135,-0.107329723248401,-1.001830803255,-0.141814201470466,-0.323499421271459,0.0232596414253852,-1.45017333167118,0.195392179385505,-0.871116917648343,-0.119277811015291,-0.0174953053062916,-1.59979628453475,0.385349404200945,-0.42109222080071,-1.03270420799565,-0.222041011786519,0.206835695964605,0.32574256198196,-0.208257181820834,0.304376072126698
123.31,-0.829280461060755,0.1161514718373,0.469445558439539,-1.08037537766771,-0.319449342564557,-0.139909084689239,-0.978447105299257,-0.12115148583387,-0.316164360424813,-0.0330979227536002,-1.41427098487481,0.207624834074111,-0.899437480262913,-0.110650966958129,-0.0135812042132427,-1.66723701104411,0.268578694635882,-0.491785679766553,-1.00399496817608,-0.20834617530674,0.195853727057052,0.354268522503829,-0.193657450024004,0.312703425868923
123.315,-0.696102342749153,0.267858765626024,0.440407755713676,-1.07291614688716,-0.208854515365632,-0.222241701888336,-0.963664502399323,-0.0963075225039312,-0.325504197658579,-0.115396826496767,-1.37727571216705,0.20804068547199,-0.924789740702493,-0.110328132637028,-0.00408030386636296,-1.65710730887378,0.19238578808292,-0.518142960676134,-0.978516599132135,-0.189682255662217,0.193410554285488,0.363621699908531,-0.13856921532376,0.332313160909483
123.32,-0.637521731251072,0.305135963886197,0.362875324725028,-1.14182529623824,-0.145537482653,-0.253597259998948,-0.945497021252583,-0.075813007782018,-0.318131459264522,-0.206021607774557,-1.32971039765238,0.193833379210062,-0.95221495897386,-0.12554754348407,-0.000104657057711756,-1.59002816171457,0.0943178981151827,-0.519411407889942,-0.960251240888525,-0.16937491484075,0.195058973741984,0.360933168834309,-0.0775452301653509,0.363456094929963
123.325,-0.591762526877168,0.227384474761832,0.243441657485402,-1.20757239816455,-0.00460287543843789,-0.252348006712046,-0.93006986658574,-0.0581804979229358,-0.282588366964233,-0.349743969314388,-1.27007907619372,0.159864281771663,-0.985141145289287,-0.140838554302158,0.0156992200213104,-1.47927509942011,-0.00767462762132172,-0.479638630201526,-0.942489722532924,-0.157968685300204,0.209726968198847,0.332643873570052,-0.0577890789140375,0.418492998848435
123.33,-0.564655203226005,0.172507023393208,0.114237582475533,-1.24176040869578,0.339004167940429,-0.29890110752805,-0.913964816492862,-0.0332060022017148,-0.278342995238463,-0.466067609200584,-1.22025966646024,0.139361748405832,-1.00481430535595,-0.150431795838134,0.038289764352946,-1.37738357328165,-0.0971104805692712,-0.438358454433189,-0.932852060553592,-0.136874875153839,0.214122915394997,0.319123995852333,-0.0778162881378691,0.469007807685483
123.335,-0.536050412846049,0.19140277436386,0.0439970188025922,-1.22729945677979,0.687280028446329,-0.33832230380538,-0.906375972995807,-0.0117434613623273,-0.275161608587208,-0.580571143096887,-1.16399539279609,0.120124376571056,-1.02105974274974,-0.150764338771066,0.0446937884697448,-1.27987386113458,-0.175801211803644,-0.384858852416784,-0.92987788285834,-0.136694825484269,0.224096261617404,0.295756233697639,-0.120613945918387,0.538877173770637
123.34,-0.576559389482292,0.284774336697838,0.113018681115238,-1.32061563184203,1.04229476061157,-0.350996519435454,-0.902755861133977,-0.0296705301055411,-0.293874577251485,-0.76093563784045,-1.09348799791343,0.117138814364614,-1.01349884949585,-0.148481108180795,0.0692526685566369,-1.20342771047953,-0.219573560158012,-0.327125396350955,-0.925445557861713,-0.138225576792002,0.227809002750967,0.289217036896349,-0.161922756704087,0.575087220174841
123.345,-1.02491176234036,0.584101202876144,0.911701058785473,-1.9996152513249,1.17686950774702,-0.279594019514484,-0.892890162751747,-0.0251998412905937,-0.492802829855148,-0.914289745235435,-1.02400186731377,0.126776742082166,-0.991813675763347,-0.153041780622825,0.0965761664780202,-1.11264453945637,-0.209564891714501,-0.275980807366002,-0.920947801201986,-0.143859452660984,0.223236972876891,0.289833813905716,-0.171762541955106,0.593212231222088
123.35,-1.75431241816157,0.735003641399096,2.02168466276008,-3.03040396466941,0.713878206611189,-0.0168271261883283,-0.84341558981649,0.0144109308429342,-0.836366759623927,-0.890550602889879,-0.862953045186538,0.179574400612206,-0.978488070543986,-0.174828522814079,0.127963604567111,-1.08503699302673,-0.214282215678443,-0.235985722630265,-0.914726842947649,-0.140532064553216,0.213661085109333,0.28876988749378,-0.168331069481472,0.591718783903519
123.355,-2.72563020413586,0.0578814406534732,2.32090883650252,-2.13072898757296,-1.12931486774449,0.164779899024001,-0.804864482906027,-0.0442807481804883,-0.907956107868559,-0.777370747679315,-0.66396679747025,0.232001642241212,-0.967970431919419,-0.202264606333907,0.201569535721773,-1.01396253384236,-0.271071537917471,-0.173646230727469,-0.897756372002808,-0.142157343413399,0.209000327886036,0.282137187852812,-0.136663941807478,0.58002119829283
123.36,-2.12724852756428,-0.780741857940403,0.86708099134798,-0.805308504770852,-2.10598128117447,0.236742598913241,-0.811699607754078,-0.206547681145095,-0.805875714803702,-1.0248991527501,-0.508045051710531,0.190337799013953,-0.967559451451559,-0.21228536406356,0.312099046437163,-0.979208678687834,-0.379568820726399,-0.136293712559237,-0.883797442405266,-0.131829576779917,0.205964543590247,0.264467523794692,-0.0924067293913215,0.55587545929945
123.365,-1.16550713392505,-1.18056809965359,0.181440306720579,-0.432430815763382,-1.86855595004905,-0.00559153327450192,-0.841813309483612,-0.377623815650943,-0.688188401780575,-1.67235856051258,-0.449738755465667,0.0493248978263323,-0.963225350512409,-0.211454680110229,0.385699772935077,-0.906202223197832,-0.538049391277221,-0.0685708397602329,-0.866271966911286,-0.117076248253866,0.213462412952962,0.239737764429453,-0.0731228201347385,0.543048251900448
123.37,-0.763409073399418,-0.576922694896111,0.488965739337261,-0.0516574814048365,-1.59488577006885,-0.378670983078188,-0.870794004265547,-0.481514852626484,-0.633155663732928,-2.08324490246431,-0.454899719365918,-0.0906418442261855,-0.950206031525497,-0.205050609337876,0.303636498990766,-0.928054654724086,-0.57246507169437,-0.0187266750457545,-0.849166896620645,-0.107356592569184,0.214302736234196,0.208978592272636,-0.084136946186645,0.533198717026226
123.375,-0.864448450985428,0.0146686136378103,0.78575124712023,0.466204135087595,-1.59457264507198,-0.345570528505532,-0.89365696942593,-0.544699661875949,-0.601251826354706,-2.07038380919032,-0.397669988037022,-0.179915130278064,-0.928651423171778,-0.23472682700979,0.22982022311719,-1.00047763336711,-0.516625437129764,0.0190992364074694,-0.827584614654789,-0.095460339844749,0.217737111429328,0.179885607378462,-0.121743128548384,0.528083720477926
123.38,-0.992936527370086,0.282572123928078,0.748188659301922,0.684353502737144,-1.70108256478536,-0.227389580265853,-0.897928611803923,-0.553929574825118,-0.554941246687695,-1.63267835065827,-0.270331725286881,-0.179111466054376,-0.88405063342437,-0.299244448199608,0.158319068603117,-1.07549841315718,-0.343346669484012,0.0461449539526502,-0.798042823004495,-0.0763675374226277,0.218535099869208,0.15602933621748,-0.15891152615274,0.518821901931446
123.385,-0.843728380579704,0.443388079050881,0.847317284553297,0.420289097158081,-1.77142364753564,-0.189584910933231,-0.909496008982833,-0.550892811262225,-0.349868356004673,-0.655691014634205,-0.118893932445516,-0.0852702925577897,-0.83948490909455,-0.373167994076409,0.0942704968262958,-1.13884306630291,-0.149933139567019,0.0696343557762717,-0.790533108344938,-0.0738629057761301,0.213383176696879,0.131656645898439,-0.18055032390778,0.478045851904793
123.39,-0.486162720446517,0.353381483021285,1.07760090981543,0.152973065554303,-1.92998390804983,-0.155781149702727,-0.919633049662901,-0.526701404595226,-0.0711520959887678,-0.0692385801461264,-0.114918328808549,0.0269316306203657,-0.780658794545773,-0.448886200896821,0.0398296094176972,-1.22742830912371,0.122257963443284,0.122690675832231,-0.777575105378553,-0.0661491820274752,0.204171112589326,0.113316914772364,-0.183278828178935,0.518431641358251
123.395,-0.184100275659875,0.156256010130236,1.14431144864316,0.149581311630038,-2.0481128770126,-0.231082509646039,-0.948808829294909,-0.515343613254662,0.137308222269151,0.284968080545727,-0.214388844209933,0.101547258738094,-0.734670506607408,-0.515091627873307,0.00882513244666187,-1.27988317001306,0.372067793724048,0.169308962230821,-0.76802288468848,-0.0616569001268032,0.194214198924008,0.0869491983335722,-0.152263449667275,0.510677908213088
123.4,-0.0477709485834577,0.0175630294658904,1.1450157000256,0.0940084724687448,-1.97223574005322,-0.218810040517972,-1.01839204617557,-0.504859708647601,0.175889230172875,0.535165318620894,-0.287817558811708,0.148177599314776,-0.715253166321838,-0.57287270103796,-0.0234709881623237,-1.27021194887848,0.623504123874509,0.181190078799511,-0.753019180865614,-0.0546833729530766,0.182177950045848,0.0685736955249983,-0.11260681419161,0.484107298569506
123.405,-0.048192353575263,-0.0565455664482842,1.13659450433658,0.133926155342561,-1.81922873672948,-0.154736821331215,-1.06167547995796,-0.441551072487202,0.193447973294961,0.951584003786039,-0.345418267436785,0.202553015888477,-0.701785850648557,-0.621930355144842,-0.0588969200146911,-1.19880949122329,0.805371475028209,0.160636830347471,-0.750532938634444,-0.031608454460108,0.167894788933884,0.0378905945609256,-0.0713548206374856,0.444761758048608
123.41,-0.238581074349138,0.1830436679732,1.05567493931128,0.165702403677931,-1.66015454847559,-0.204274079649993,-1.08540928722255,-0.350518240808924,0.185101968274077,1.2087604759208,-0.415970922213377,0.221138553934319,-0.707242152140957,-0.656920495977863,-0.0683081606657024,-1.02724527701068,0.970823537088004,0.114693592817753,-0.726100999011583,-0.0119550062650341,0.165560668461174,0.020726760535334,-0.0554157671792401,0.391458232536123
123.415,-0.424716033648669,0.364995055855956,0.917981167139322,0.0472647597180438,-1.54039823542941,-0.163727744280073,-1.12416369000666,-0.255183528268068,0.111247634733216,1.30568328604858,-0.46934484753767,0.203642268596096,-0.733737967340038,-0.675934404933307,-0.0463908493979588,-0.873055160701196,1.07053435763931,0.0669817397959756,-0.719647481267983,0.0127654550335847,0.157879620583944,-0.000552374646587349,-0.0400511606940888,0.316255961909712
123.42,-0.67484013187137,0.432046774911568,0.872107839128272,-0.0920728021187695,-1.38280208749294,-0.102158654420426,-1.18506126293001,-0.170432462484469,0.0137069445586292,1.32172907486195,-0.456849777255873,0.164570944840189,-0.791315527554811,-0.676620436806905,0.0221925013188069,-0.666633670867716,1.13075721572835,0.0200660671694128,-0.730112994854533,0.0394360899978722,0.147812506982317,0.00480299271771216,-0.0353845486777136,0.290104481096175
123.425,-0.876023155818787,0.403351308889037,0.883168279394919,-0.234432649062407,-1.23847754520277,-0.0726847067534776,-1.26979393929722,-0.111061017859386,-0.0660801996077185,1.24574465449049,-0.402921456589907,0.123693528124691,-0.913728239173275,-0.64751527958019,0.160133243824276,-0.378188023664261,1.1353975536913,-0.0237286539710043,-0.750157822535641,0.0498122079841432,0.140515070306503,0.015141826445752,-0.00319281734478162,0.265161839693033
