Header,foot_Accel_X,foot_Accel_Y,foot_Accel_Z,foot_Gyro_X,foot_Gyro_Y,foot_Gyro_Z,shank_Accel_X,shank_Accel_Y,shank_Accel_Z,shank_Gyro_X,shank_Gyro_Y,shank_Gyro_Z,thigh_Accel_X,thigh_Accel_Y,thigh_Accel_Z,thigh_Gyro_X,thigh_Gyro_Y,thigh_Gyro_Z,trunk_Accel_X,trunk_Accel_Y,trunk_Accel_Z,trunk_Gyro_X,trunk_Gyro_Y,trunk_Gyro_Z
93.515,-0.139218971747741,0.345123593463221,1.06384082431147,-0.945975516352177,-2.36667434417392,-0.358189454941978,-0.66839333153521,0.249707579675793,-0.068161766138718,-1.34260865724627,-0.177898545137013,-0.181302727895069,-1.76266754793285,-0.30869412082581,-0.397825667751402,-3.59548339341924,0.106950122091222,0.398680683134567,-1.13348363216706,0.0956377085459224,0.154376156109825,0.311123935095155,-2.0116125402634,0.448266470947312
93.52,-0.130902606467374,0.327705451303864,0.993859353645669,-0.592749757165749,-2.6932693648042,-0.355402784381982,-0.612958369052747,0.202211538251029,-0.0964801188537008,-1.04027724036017,-0.278097358416996,0.0140859507317702,-1.73411553633959,-0.415004714355144,-0.490423387310727,-3.47123929715427,0.0213293459010104,-0.0155482914318804,-1.10532081434754,0.108963592067913,0.159868306068341,0.366755417162392,-2.11586707484801,0.526870504885716
93.525,-0.121438278801396,0.339400487375031,0.96686528014954,-0.293847893051786,-2.95126244622902,-0.280089499146378,-0.583677446728154,0.105811177357179,-0.1421656222528,-0.939355520757394,-0.434743211949708,0.137193244377504,-1.68614546617674,-0.211526845036053,-0.444673979424624,-3.39130191150081,-0.0465664028395816,-0.212603942379329,-1.04921300981202,0.123014203785688,0.120655410718677,0.430207996463704,-2.10326393569485,0.512782316993709
93.53,-0.147800410337052,0.377761192873326,0.933069556089289,-0.0040221978228803,-3.25626618239804,-0.184108420224106,-0.563602469196754,-0.036921073128717,-0.198643089272179,-0.778866690188878,-0.691535417032179,0.244517302501648,-1.75989062076813,-0.0819924741670876,-0.415192544156559,-3.00344138844023,-0.467756678965497,-0.0138434220949262,-1.00739698279301,0.16519184051519,0.0800412873235463,0.489007368388482,-1.95289393110648,0.483011941015213
93.535,-0.162040244730573,0.4248657529068,0.886779355754893,0.146504146012137,-3.52075238142388,-0.10850129910017,-0.543388393216337,-0.164619949075006,-0.222715708246876,-0.473255772180573,-0.963148990998617,0.337861623919451,-1.7893606565957,-0.215997740172214,-0.502426974791258,-2.03391697459089,-0.880565355888139,-0.0307381625920882,-0.993125951604521,0.218930649648737,0.0470748630381372,0.503106698847705,-1.75333842742827,0.501624919768238
93.54,-0.156223798350385,0.48222041854967,0.822854702895085,0.158174573149179,-3.81624231566247,-0.0213849966678607,-0.532533329876393,-0.224216924244911,-0.19962347059085,-0.259917136764563,-1.18311926432559,0.368019754815842,-1.75857552002942,-0.302235592827605,-0.53784025800282,-1.49146354981678,-0.959424141226029,-0.209882099612935,-0.963388024254433,0.249928481940824,0.00982303731364214,0.456171509725172,-1.46210197787254,0.587740329787493
93.545,-0.149861078557348,0.536887194231186,0.762667470376671,0.0969150439972587,-4.03889589026259,0.0565498685602702,-0.513687146741402,-0.228602863852638,-0.165644275911756,-0.263126538377465,-1.42511730351651,0.283560888345451,-1.65281593692431,-0.0664890432331082,-0.544955599757795,-1.23527929061634,-1.13620763190276,-0.274117142033347,-0.913838489175856,0.256690352471554,-0.016762406696022,0.376827162928361,-1.18510526809243,0.625934853509361
93.55,-0.152235141143043,0.555312240360104,0.699023735388777,-0.00909235416132605,-4.21881856768672,0.155996036631144,-0.459107149223249,-0.203285938942915,-0.138809481487855,-0.162881721586654,-1.64030779860794,0.184532581096178,-1.53745502502502,0.0336484851487488,-0.578435478560684,-0.924691732594714,-1.26746473219328,-0.177512960794682,-0.883862036897604,0.233678360501099,-0.0587782021340318,0.196529164098068,-0.779262477440573,0.64802064337886
93.555,-0.150045119703023,0.521274118783013,0.643558730784882,-0.151962192178477,-4.38780770652898,0.291799670184574,-0.408307800650656,-0.158736274166337,-0.125370509189557,0.0155874697878571,-1.71301409061988,0.149739235612899,-1.4003279320828,0.0189559136751598,-0.591731473144466,-0.725925575338278,-1.27772455521876,-0.195108822351104,-0.869889019388592,0.204726004512369,-0.070889195157614,0.0162575659294029,-0.401857620609901,0.620320047846314
93.56,-0.166641421652952,0.468327459669439,0.607455983609272,-0.240269947888104,-4.52201387630596,0.399496777128599,-0.3785785221945,-0.107177028636144,-0.112438181889985,0.145491653432608,-1.85106681695418,0.124000648934991,-1.28756480927302,-0.022989295894089,-0.632531288125268,-0.639025100768887,-1.3389074040377,-0.232972323870877,-0.857781765289504,0.186504606133562,-0.0711252160846947,-0.129001873145595,-0.0887099203960411,0.568568110052781
93.565,-0.179546767162098,0.43409033680802,0.592017738980934,-0.247927616481122,-4.62624482532935,0.49089407349812,-0.354461129620049,-0.0591203545774744,-0.119322003867594,0.316043993461716,-2.08956967538192,0.141132273514648,-1.19692201522008,-0.0707081474710528,-0.700024116458162,-0.812823344708877,-1.31704279918494,-0.158775490544394,-0.865297203283155,0.18881475682228,-0.0401475652375949,-0.256453092929071,0.157907891217469,0.536086806501209
93.57,-0.221895754614528,0.395212829690617,0.573893711366558,-0.149994307161143,-4.76711255760759,0.62272135221628,-0.336577071039124,-0.0241721701134941,-0.161774257597678,0.479664516906143,-2.262975427311,0.175167463632019,-1.1434843713338,-0.0373745690762808,-0.759845578824904,-1.04688434611435,-1.27311480502794,-0.0647347878644668,-0.875356380145103,0.194064047779536,-0.00452665099125751,-0.3393080212281,0.242528636533886,0.551949812499453
93.575,-0.258171327297737,0.387340672917989,0.553064673821746,-0.0685761482236742,-4.86425165543612,0.75265298202795,-0.318448840656826,-0.00698720112722914,-0.166980747994869,0.686474553338402,-2.41493206251882,0.223849122980121,-1.09610152140372,0.035350416071436,-0.678592115546256,-1.21880316764514,-1.31873248652174,0.0194361710634943,-0.883095799368948,0.19074135011507,0.0295499414958497,-0.43294816168418,0.259861209378098,0.594342789939213
93.58,-0.290379272671239,0.409443217476633,0.527007957641106,0.0225323934464179,-4.98348802310392,0.904143210709221,-0.31855980424406,-0.0051467644947624,-0.206496467333532,0.880530491113113,-2.57198609096572,0.239072173833847,-1.07282990141186,0.127326838916452,-0.623221765205221,-1.27821502995763,-1.41313813401736,0.0903867077483949,-0.879185877806708,0.188345325716788,0.059599569087283,-0.47363650406195,0.238074895268738,0.651401990633962
93.585,-0.298992733117033,0.434989674088217,0.471532501358029,0.0654979754337315,-5.09902580764426,1.05989837904407,-0.325091162356717,0.00874849275209384,-0.252249492781552,1.09567677109495,-2.76575152603825,0.228543742224765,-1.07027965885909,0.213284593700294,-0.590181507315436,-1.10228405988741,-1.64952904833206,0.165268723522902,-0.873928094452588,0.173402005220927,0.0949659059158626,-0.524196926534578,0.190126469675869,0.726772552196592
93.59,-0.290177897437166,0.470653476679641,0.397673636431474,0.0487308430033645,-5.16504753395632,1.18678151231726,-0.329747370252907,0.0257757862802605,-0.264273513510077,1.29620520757233,-2.93609956480769,0.192395129854674,-1.05554577478747,0.242769036529907,-0.63403764290384,-0.890465072439191,-1.87700511432737,0.230356462668133,-0.861199439110065,0.135413755944482,0.115980236225317,-0.551476927696176,0.112046899204841,0.809318822252944
93.595,-0.284686649814853,0.501160410696466,0.327426166497713,-0.0321373881841016,-5.1932407578698,1.32468542460935,-0.336959604184325,0.0698157547879787,-0.252340099643448,1.52502457008926,-3.11965109006325,0.123478096475246,-1.02800468823307,0.265717348815119,-0.711396432207264,-0.769597819132356,-2.06033331973054,0.296661075037451,-0.851902099974019,0.101619017910753,0.132501550626636,-0.552402110135626,0.0833910326804124,0.855463608866375
93.6,-0.293043673387943,0.486912811997977,0.295076939190645,-0.123764103858678,-5.19800476610763,1.42725113128522,-0.361274353992865,0.120534782241778,-0.238112495734748,1.6275063964354,-3.26086393630821,0.0485986176512055,-0.997065712247732,0.312302333041196,-0.749716450811054,-0.770680138392761,-2.15383885833701,0.351495069579444,-0.84370300804315,0.0432008427374922,0.147794872817664,-0.538729004054434,0.0904054375152925,0.889014471250906
93.605,-0.309934445761006,0.443271295295523,0.268160648559541,-0.25220470322802,-5.16626938242101,1.51417785004265,-0.390070316604357,0.166181551958654,-0.226387948675566,1.68066734452577,-3.41962904460473,-0.00548157467432353,-0.967935651616727,0.367181812811956,-0.769056115282596,-0.788401730143478,-2.18516445159912,0.431105859969495,-0.839088327892892,-0.00373779208262402,0.159958418710081,-0.515041894708816,0.143602098588964,0.898193868868932
93.61,-0.328133407045314,0.387521359110563,0.259060293933966,-0.352233704095133,-5.10279420312921,1.58182711770382,-0.427818232338764,0.188846380486258,-0.21694999154148,1.6063732993381,-3.5802730754295,-0.0174836721271276,-0.951897409939634,0.395994143662596,-0.778662089673135,-0.800375912554122,-2.18760566384894,0.476910608424614,-0.844857058222663,-0.039544199854593,0.179600487921524,-0.50587374678738,0.211058431723785,0.906421854044466
93.615,-0.341578716092266,0.354757870769595,0.272792907335905,-0.398986205948484,-5.04044260460479,1.61952194812068,-0.46566756800782,0.190861669943231,-0.223029558710712,1.43484761540899,-3.73507146152772,-0.00919027540360013,-0.943367689106661,0.417431867659088,-0.809544462520818,-0.836427500069954,-2.18559150069399,0.504233887118909,-0.859541856415069,-0.0806871190343809,0.193814086045217,-0.517614303054628,0.271627056307519,0.905421371875263
93.62,-0.362467380723787,0.345202263839397,0.294245965185197,-0.434271613033501,-4.94888650733624,1.64842699741891,-0.509426455172349,0.168477134391254,-0.246082481350487,1.19601026525276,-3.91090421532245,0.00519447257551254,-0.927618067649588,0.431090045685198,-0.821144575393479,-0.894162721209989,-2.16394490259462,0.511360441902923,-0.867443097687881,-0.112912979868699,0.20122130494977,-0.547384718006401,0.288284439751574,0.89747248058954
93.625,-0.395866276377623,0.376173522486386,0.342469529405389,-0.420632553797286,-4.88039131030112,1.67303694045841,-0.550184849731262,0.146565835729999,-0.29010369404872,1.05474143810881,-4.04589790583822,0.0234815448963735,-0.902610489263129,0.438345749286336,-0.827881316324533,-0.969897200133525,-2.15793363070133,0.511924705442482,-0.873945433496811,-0.141929796388501,0.208066228402026,-0.613392981693258,0.281219111068373,0.878179795201927
93.63,-0.463477362077089,0.446134506081137,0.410124729051428,-0.418999060185783,-4.84510151536226,1.70925527470488,-0.588488799013353,0.115228309908503,-0.340550642360669,0.930653866892934,-4.21017863165642,0.0340058630351711,-0.880642361059593,0.439125969722182,-0.843433664219527,-1.06851103644243,-2.16370603800845,0.525511477003815,-0.87662029605506,-0.177358563242612,0.204571302062827,-0.695471305501681,0.249602095007151,0.84587859914389
93.635,-0.572503376637863,0.5706395378158,0.498366227002137,-0.451519060824386,-4.86332725377665,1.74780563158373,-0.624138692970953,0.0993760100800457,-0.384180633209544,0.839411252803202,-4.3728845352669,0.0465214213069545,-0.850892470495199,0.441317267025428,-0.856317507009907,-1.18387406917441,-2.18608921081258,0.553089646779115,-0.872693434298542,-0.212283074494705,0.199195849123598,-0.805269017577087,0.186994551835878,0.788323956494724
93.64,-0.698106107084176,0.699937548664129,0.579756609424957,-0.481280170898913,-4.89854033525929,1.80154228938785,-0.651152471314478,0.0956750758187772,-0.428785488070103,0.792901276523171,-4.54085717867057,0.0624684329530501,-0.823545783360257,0.436282295212566,-0.872828720370479,-1.2967348830033,-2.21346748795064,0.583706847128659,-0.861968137327802,-0.244334244680901,0.18523443356087,-0.925010952169112,0.102821890872002,0.696597046958424
93.645,-0.846971163356643,0.823341843919814,0.662416068377444,-0.504144865784943,-5.04251707295755,1.93916331330681,-0.67619240736588,0.111140554505288,-0.501335581393996,0.743051213814984,-4.67556129798282,0.0869028515874079,-0.793703046867591,0.416251620776821,-0.869185962833515,-1.43826226052637,-2.26291139761741,0.636743759641874,-0.834557462541634,-0.247522678503418,0.163555935072587,-1.02662648592952,0.0595566432244864,0.591493954234849
93.65,-0.938922514733153,0.889239837620588,0.665815233099779,-0.566008833688021,-5.20923927226965,2.07553426990339,-0.704754539321456,0.135715756094309,-0.559762504112025,0.769279845845076,-4.80696123678929,0.120475565147492,-0.767251055744866,0.391322081758871,-0.86869020458067,-1.55749367369231,-2.30090966777704,0.673948599248163,-0.800964232763999,-0.252273095494451,0.144673359147831,-1.11624538532823,0.0134894096816738,0.452394800611967
93.655,-0.994522935911483,0.938177219084365,0.644217275065151,-0.655044081596822,-5.34484390629624,2.21518126506309,-0.721637763892211,0.158362663489991,-0.554965304695539,0.874908320408079,-4.87222278765754,0.169055639300332,-0.734789241198059,0.352606576065248,-0.862292884017516,-1.67541294908895,-2.32943616336963,0.673970172671567,-0.765158614500232,-0.246241071180431,0.132475290805322,-1.16752814953297,0.000420570373535156,0.347268289329295
93.66,-1.03097375318732,0.954982757802947,0.604365293683181,-0.735193135985958,-5.45344309872113,2.40086153113,-0.769108952490265,0.194560865348995,-0.546072151286745,0.97179091926194,-4.96381762487977,0.223867096585869,-0.698872729409616,0.316848356911989,-0.84406888454006,-1.75794330310111,-2.31584304904808,0.657587948323856,-0.725511597909528,-0.229874868750658,0.121512678562327,-1.20090607052974,0.0120877315494911,0.226881831818783
93.665,-1.02953369170017,0.941046470632267,0.562673646742302,-0.794105603905173,-5.5084048367893,2.57333858232655,-0.823207063357163,0.242940141907713,-0.540778622868273,1.0183288308852,-5.05813302980571,0.266349170825027,-0.672381436579618,0.286120553049114,-0.822190488603762,-1.83206021968246,-2.2551956478935,0.630464600148896,-0.690109862231005,-0.216956459670206,0.122257889187914,-1.20558135325937,0.030230009596906,0.128064933586358
93.67,-1.00749475848134,0.89728066535267,0.522290164926968,-0.81870911337886,-5.48925389293628,2.72068420214873,-0.884549777085127,0.308529825118443,-0.540414914169185,1.02124997254295,-5.16988973112348,0.295544107841225,-0.651707214362352,0.256678152657131,-0.801559338055763,-1.87992415130885,-2.16314813926999,0.598919858436465,-0.664116664047959,-0.191434536440868,0.132191419652121,-1.17832088490285,0.0576774291756121,0.0126622851702865
93.675,-1.01792947378066,0.870669216080221,0.518373916356991,-0.76042616258698,-5.42184210279512,2.82562993958249,-0.93500198273848,0.354937317083951,-0.529101667853617,0.948633050023104,-5.2611214592145,0.340397479117387,-0.627481860672137,0.21673126544026,-0.781872416750777,-1.97296410354661,-2.02722834337268,0.564713027559334,-0.654505398102134,-0.164309797094315,0.144119133272275,-1.12506360838539,0.051564946270594,-0.0723258895374003
93.68,-1.06987472962965,0.871829710654623,0.527213986664417,-0.699686114591734,-5.3653872355159,2.88736347561249,-0.995459323601577,0.369041230135527,-0.535197632622972,0.767543133935395,-5.35993387194172,0.393676631477872,-0.60665315606105,0.191593202783783,-0.764390766684628,-2.0677635238633,-1.90120263069234,0.529559081550768,-0.663734504171549,-0.134095047385818,0.167998064596874,-1.07264950907333,0.0223035551973905,-0.139459416398275
93.685,-1.15207143629117,0.916684640555911,0.520506649882072,-0.619805535850733,-5.29445060199029,2.94451989731715,-1.05821129978146,0.369980050826637,-0.565948218195893,0.442145777746903,-5.4856605361843,0.459730991142633,-0.588256022174535,0.152869292511557,-0.756862330141871,-2.16334902758932,-1.77219128098563,0.488115813279151,-0.683948887254448,-0.105487444419665,0.196093270316962,-1.01568979250316,-0.0360284159728241,-0.177789058148795
93.69,-1.21864814437257,1.01679988804542,0.506379748122201,-0.57021696864702,-5.21414661323642,3.00793838019606,-1.10386918651454,0.352707728183295,-0.595393391784171,0.0906607330719132,-5.56358796335229,0.519912927947869,-0.581508255422233,0.131343658664478,-0.76242810375916,-2.22418971714632,-1.70211799420535,0.452913571918243,-0.717752415811871,-0.0687803940550542,0.229897447802835,-0.967041555562977,-0.145965666444814,-0.191823884224692
93.695,-1.29490829372537,1.10573285194391,0.50085953974608,-0.599930771512989,-5.13230194296706,3.09266569294627,-1.14840437466195,0.320285378749189,-0.635176559193394,-0.281453531574778,-5.57561466349034,0.569698579016834,-0.574297718486258,0.0593653823335376,-0.76174804943103,-2.29436273206627,-1.60012464891518,0.404071075946564,-0.747732664326031,-0.0448748931064961,0.24551662492684,-0.953082350796678,-0.26249073313157,-0.186755974754884
93.7,-1.37518771683714,1.20951698552678,0.482831027772675,-0.686524839084886,-5.05247675078457,3.19564908857078,-1.1903907216209,0.287265844948934,-0.676831771835461,-0.719669131230999,-5.48639084849458,0.613405027108028,-0.582354918230878,-0.00968200028542666,-0.753726207155675,-2.35263769590045,-1.52452359060016,0.34413132544624,-0.792743538604971,-0.0231530419304546,0.262774646213015,-0.948166943722732,-0.389609945784896,-0.160992517407674
93.705,-1.44220797061639,1.34359856883811,0.438625287017186,-0.864527078567749,-4.97472258878808,3.32419696827147,-1.23727209959535,0.240359735978403,-0.696612005107594,-1.25011306047956,-5.7416715377031,0.626563014274079,-0.589083926536371,-0.117927116765763,-0.746605154147937,-2.35110880276781,-1.45224638872371,0.282235974279198,-0.836745005544176,-0.00319913258602749,0.273077508211133,-0.946070616407134,-0.518640889393581,-0.122518955492563
93.71,-1.47017942617024,1.46034386400652,0.349730391435272,-1.13829769453456,-4.84916703399742,3.50364497629039,-1.26438308966716,0.215916440702866,-0.695366583790098,-1.61578260926975,-5.76233577728271,0.641234131550939,-0.601049035595559,-0.194085138976572,-0.74139061514224,-2.33611808036462,-1.38982966797494,0.208614640582634,-0.888402518930275,0.0167943978604616,0.272358948501048,-0.966193424723757,-0.632918008415749,-0.0732637751853218
93.715,-1.48632076884112,1.53075511698917,0.285375188617814,-1.47826350692127,-4.6023940743596,3.73741796735954,-1.31370124392576,0.198868003468244,-0.70030456159289,-2.12573527545997,-5.81608861250426,0.647118061584481,-0.609588794930281,-0.293899586785998,-0.741303119280016,-2.25293651213178,-1.34170065508867,0.130357998694142,-0.918468336935981,0.0340409824852009,0.272748374274922,-0.998942180106714,-0.726253149522122,-0.0248195570868607
93.72,-1.52158780053894,1.58142519694136,0.274984008685736,-1.7192173864036,-4.37268221845693,3.92752023428685,-1.35603290506469,0.203440735054787,-0.725319089228545,-2.56976274480838,-5.8714477253636,0.648520582259697,-0.597358163297304,-0.390878722123202,-0.742771270219917,-2.12680268042633,-1.28096019053701,0.0464212741674908,-0.947125222334656,0.0446920403030953,0.264040764213089,-1.05742644852208,-0.777353126856551,0.0327709482119784
93.725,-1.55329456514336,1.6222945935395,0.291459055639832,-1.94884090825399,-4.14652848951391,4.12625941585422,-1.40303843836255,0.187453834101671,-0.747325534493179,-2.86322381535776,-5.87615465465753,0.653938009073427,-0.578755435215409,-0.457628516198513,-0.73807350578437,-2.02537653642228,-1.22737631660804,-0.0116604146846376,-0.969990832710799,0.0613462506694183,0.243905268701426,-1.13600604870913,-0.810784578323364,0.117290266216095
93.73,-1.59469962128616,1.66522663857598,0.323068928206604,-2.18615418116339,-3.86428367567713,4.39656897544992,-1.44657049830763,0.175555360733916,-0.741262291199532,-3.13975696907701,-5.85763743955191,0.646115317188658,-0.554757290285384,-0.523472696826876,-0.705610759022831,-1.87052574727005,-1.16786548506258,-0.0745001623530941,-0.983914965002108,0.0800269295186788,0.231844784515071,-1.23081139438576,-0.788302499059108,0.226267785515688
93.735,-1.64517424757871,1.6968961127488,0.380120790017858,-2.3211794199352,-3.61825699530318,4.6466123017047,-1.49859191491305,0.16458486701213,-0.758126585534212,-3.35652545369536,-5.83444271482988,0.627603379142016,-0.535860658936017,-0.585013304327041,-0.654888800729078,-1.72358661216186,-1.12053388863179,-0.126971444290178,-0.99013223502981,0.0944802387485507,0.221668460869592,-1.35361619182203,-0.704599431483085,0.358413524241234
93.74,-1.69182129628996,1.70130335335366,0.437721024619793,-2.36952861852032,-3.41130697927367,4.87737204223928,-1.53732683630036,0.168979273930908,-0.796737225856949,-3.48206059459725,-5.81380259151342,0.616096670952625,-0.514541187102173,-0.619614455782219,-0.605163309226108,-1.59967560513041,-1.10561559653607,-0.17643962560648,-0.997335829709446,0.0901660426686095,0.212799827882,-1.44921420490411,-0.597322315518849,0.474810852026907
93.745,-1.75964094244243,1.66939636374223,0.487735325324502,-2.33034890990957,-3.18584451581629,5.1902252133336,-1.58950798869993,0.191144397792673,-0.834687550851673,-3.59445651560905,-5.77759053277754,0.631582211532546,-0.486560506709203,-0.651468383755159,-0.561753399083293,-1.49547879196007,-1.11727576357257,-0.172041548739719,-1.00120999550943,0.080714966389343,0.210230341923984,-1.5072136650662,-0.482563578432392,0.576409686638087
93.75,-1.79012517635541,1.65339451647395,0.497507417150148,-2.26040709604982,-3.02335789443737,5.4253609906315,-1.63381205582619,0.210325914651155,-0.845629489660263,-3.68018704926627,-5.73722036078317,0.655625332001277,-0.473280666516409,-0.657342270075427,-0.498063745515824,-1.45203526300446,-1.11781271503778,-0.124218198098594,-0.991656581606083,0.0767740576548562,0.217127840416082,-1.52256109275681,-0.386746660501958,0.640265527242184
93.755,-1.82276166986418,1.64703163185124,0.475936318186514,-2.13483954046311,-2.83336986117052,5.66319254603428,-1.68096732332819,0.242216653187208,-0.836075762910145,-3.69837690270861,-5.70556649682964,0.683860260126629,-0.47663394923004,-0.662657543368231,-0.408687414740372,-1.47861678063905,-1.136086307721,-0.0521639081527229,-0.984061627896457,0.0751887704125528,0.224839794605484,-1.52712752313627,-0.292090554476458,0.704991121840817
93.76,-1.87646307111129,1.64938967965355,0.467897061347958,-2.01973274319272,-2.64896557019534,5.83078015832762,-1.72060725654933,0.279292322478721,-0.845812688137018,-3.68378917363506,-5.67774338672705,0.718170417784698,-0.504737742448826,-0.645844215008719,-0.314550274182089,-1.55179480420667,-1.16559473343014,0.0155729491674244,-0.972569921845523,0.0660971342237219,0.240648087543679,-1.52019767502944,-0.192497551213468,0.755064430145622
93.765,-1.96245860590896,1.63569123059272,0.471815853928268,-1.89639021679791,-2.4436416831048,6.01080662938141,-1.74146066461314,0.322109865222152,-0.875625146945856,-3.6851096697859,-5.62533553704405,0.776542444859782,-0.540783411163415,-0.623116451307776,-0.225780190628199,-1.67746230893357,-1.18419823521244,0.0876657093841386,-0.95638934099602,0.044480988688822,0.252521128224957,-1.51460897922516,-0.0944335411075799,0.809616664981157
93.77,-2.02354592520619,1.61924079364317,0.458263705150488,-1.81742051846598,-2.30132177571966,6.14691543335268,-1.74675681635029,0.355134120109401,-0.904101944544093,-3.69558676933367,-5.57804342648633,0.809493384534261,-0.569217614710897,-0.593245068608245,-0.132443567205559,-1.80867064661381,-1.24215693309355,0.124679608464653,-0.928963172412196,0.029389087214857,0.270445318102805,-1.49470012330298,-0.0151155684010168,0.86649568590176
93.775,-2.09003037422457,1.57507472311666,0.432256551313297,-1.76792941503544,-2.18189904785483,6.24141520907059,-1.72919748230371,0.387593885933774,-0.941413638533196,-3.75072992950165,-5.45181273906779,0.875451201800047,-0.639021179961873,-0.564337976873954,-0.0493109518580282,-2.0183872181555,-1.34116135804111,0.189663664541109,-0.902982012675093,0.0139264658176161,0.286436576169043,-1.47576000589126,0.0216968370355082,0.906162190943988
93.78,-2.11894437701625,1.52210909928352,0.374575892166716,-1.74459920529758,-2.0882980257029,6.27417286067696,-1.70493432997501,0.419863441716691,-0.961314745971846,-3.81081235442621,-5.35168762947785,0.938974656787638,-0.68348591973654,-0.542282604724502,-0.00392904903152045,-2.23911136468203,-1.41209068826636,0.245556004569661,-0.872990490006905,-0.0102958882895293,0.306604969074718,-1.43293659831136,0.0457589379483676,0.928969030881266
93.785,-2.11768232132803,1.40620027928158,0.296576815449394,-1.75764127564626,-1.98808239748968,6.2839212847631,-1.6623882074647,0.43665887659557,-0.975941151264191,-3.92210399644306,-5.23624481284928,1.03019911523279,-0.741207704012134,-0.534104160588379,0.0307196872692427,-2.48050210567812,-1.45567738247912,0.286861069824173,-0.855511272331315,-0.0338016556304563,0.320469542819731,-1.39798725967234,0.0485066150307971,0.938024312560838
93.79,-2.0859064917193,1.04565238786337,0.233711197284905,-1.82525469767275,-1.80946758222677,6.33422657452054,-1.61157499312792,0.400060675508276,-0.925484442941093,-4.14403122282791,-5.15287952121926,1.0972910628742,-0.788998588732748,-0.529748729113258,0.0468564244204129,-2.74439965058301,-1.45216168101574,0.309500424484038,-0.847684313221833,-0.0477898651919149,0.337126245293843,-1.36152635802119,0.0437689046508517,0.940295926268632
93.795,-2.07009733717761,0.623725308684404,0.221378340759081,-1.74658691769621,-1.52019758244664,6.40506087441728,-1.53628175540748,0.304568521018012,-0.991125192266474,-4.55645255256874,-5.10255682867925,1.0780884075474,-0.836172490380052,-0.518692423943485,0.0539679643017604,-2.99448606518911,-1.40769417266038,0.327192690531577,-0.847876752714046,-0.0754722730378352,0.339929158017263,-1.32826782155544,0.0306871025571977,0.939086668796412
93.8,-2.08722449774309,0.50892653892,0.30105870890766,-1.25179398591479,-1.16559050511449,6.26588590796263,-1.48797731058051,0.183631370635804,-0.998921176281973,-4.75487977988852,-4.98902440359832,1.0110382840845,-0.891925726811695,-0.487552707583007,0.0717117218519064,-3.28251483378688,-1.28339740827386,0.358220316720096,-0.859938630017448,-0.0809258037054064,0.341308246297764,-1.29778625271035,0.0181444645946041,0.931679925090609
93.805,-2.10256424551601,0.62964111921027,0.294070105893476,-1.00747571522584,-1.04762332453323,6.02874632114084,-1.48454894844895,0.0717068557594222,-1.01408356413457,-4.90821671090852,-4.78985623001404,0.935793214368035,-0.938846134262446,-0.497876830784497,0.0769751035855455,-3.50412686410972,-1.13605527942334,0.394958079980807,-0.863909486814326,-0.0907133265009688,0.339619126203764,-1.27043619408832,0.0114158205688,0.924066307445534
93.81,-2.18663857427559,0.783190215163967,0.242259733359688,-1.004574830892,-0.921922051363831,5.76959477563187,-1.50557655160547,-0.00189976615813503,-1.07691185236486,-4.93273990706184,-4.57371609864545,0.84974842338091,-0.974803504858138,-0.534314184403708,0.0968483719286288,-3.70820501980904,-0.986093500361074,0.474608859502,-0.862414874947226,-0.0938360453698661,0.346130570465447,-1.24770726066183,0.016682007370697,0.90355197780209
93.815,-2.27250765995965,0.868542774674885,0.233830439585001,-1.1935444695027,-0.808090892018859,5.54901384738921,-1.52912082579025,-0.0158271450303281,-1.12173445026254,-4.68640127356619,-4.33945178567312,0.774686368512031,-0.97760420134681,-0.582835581992163,0.18294578074423,-3.91784399416011,-0.87183387402654,0.543759708553162,-0.855945780653618,-0.0884358996457585,0.346987320692078,-1.23083230339052,0.0308398583961187,0.875755296615622
93.82,-2.29723626590198,0.760141701528942,0.231636440508273,-1.48866607413826,-0.706293792252655,5.36022540545538,-1.56894875017606,0.00326653162712779,-1.14687002475376,-4.33327342606179,-4.1435504171025,0.729549192740735,-1.01244701591809,-0.594508721945581,0.312530377520354,-4.1673375133971,-0.822456432895871,0.609204339719212,-0.847464172333625,-0.0805202541568033,0.347746104904629,-1.22507583371154,0.0529083313407939,0.851353686100692
93.825,-2.27524891164938,0.570072618733299,0.213014196136278,-1.68657988665601,-0.617443792643846,5.21621018257238,-1.60415237057214,0.0198987967073936,-1.18118135214093,-3.96152090308917,-3.93298914828168,0.705372661717444,-1.04949196392929,-0.534583751278156,0.526823199292641,-4.30188905778553,-0.883848297971408,0.641905000633946,-0.844094739040826,-0.0667698247189688,0.34005087211944,-1.20037563515944,0.0781351620545176,0.806821479150746
93.83,-2.24768989766666,0.362913198751991,0.170005637847761,-1.73404619343203,-0.561563905103327,5.04505395480123,-1.60992962951424,-0.00331754622217063,-1.19393598379632,-3.75395511400983,-3.76569229226185,0.683965885105649,-1.13724490382923,-0.406302599616734,0.862639643316448,-4.42989079166199,-1.27069990871397,0.678122771699996,-0.848779236606306,-0.0503780649170358,0.328866324176391,-1.1728357914624,0.109034272920975,0.76639236184088
93.835,-2.2030805023991,0.165374467003059,0.0838340028883976,-1.65921709121366,-0.517782002724915,4.78674089512557,-1.57549106905235,-0.0372014830565252,-1.22170767107965,-3.51581749004615,-3.55349423203083,0.624586960954101,-1.19729102753796,-0.243865829141255,1.01331424894608,-4.54156121960892,-1.8424397808621,0.737091720144438,-0.851048024293373,-0.0327721458306208,0.321762672472836,-1.14283105720967,0.131224614188061,0.726530277787958
93.84,-2.16464595586368,0.000455488408376271,-0.0407367091205704,-1.48395074657553,-0.459542604251084,4.42528174803519,-1.47728592371486,-0.0475437306091242,-1.27296021694644,-3.21739570837283,-3.35467015618688,0.564982810372969,-1.22402695553508,-0.101457530992661,1.07492798018979,-4.59165860511345,-2.26962534196633,0.785842530549927,-0.848169607349234,-0.0167444318244924,0.315335664167226,-1.11541477192654,0.147781380029297,0.691501968689185
93.845,-2.13991976714706,-0.14952488241318,-0.144696481649635,-1.30071824484107,-0.37950231431386,4.04838990287138,-1.29572180288289,-0.0101930387763922,-1.32908800157729,-2.7768821470319,-3.1523446392551,0.563326411186674,-1.19110853550437,-0.0333796379523383,1.10218895932594,-4.50085879483577,-2.49864126756762,0.773681241030879,-0.849469358562386,-0.00116253542471334,0.314776652402942,-1.09108171492154,0.156679633344902,0.670780578919644
93.85,-2.1553622344481,-0.340456303295285,-0.243097743475708,-1.01172659853426,-0.272201145160721,3.5254194850242,-1.12760387636424,0.0414610058555137,-1.36483388847886,-2.39155171769439,-2.98355086160855,0.616236509955,-1.14422584785121,-0.0236740144846804,1.01723340004315,-4.32119366183016,-2.45066222120004,0.773378796176199,-0.858602711130126,0.0146241168374081,0.32435736108021,-1.0486812659067,0.162286846405905,0.646237312587435
93.855,-2.21551948974315,-0.433617413567917,-0.278966020691097,-0.65851257605351,-0.212237032693718,3.00134849529934,-0.951610142652707,0.104344170652064,-1.38009746862367,-2.0014752511228,-2.73995608112264,0.714049337626128,-1.07983145788224,-0.051489246835483,0.85955790067389,-4.05420763943114,-2.07229504391811,0.792101625295131,-0.874417499475476,0.0250060366937294,0.326241613249375,-1.01710599909515,0.154282684372372,0.631011962512023
93.86,-2.28528692796749,-0.447260254848475,-0.303479068895963,-0.236519631532757,-0.195979762742693,2.39011194152903,-0.828393188511246,0.141065421679828,-1.37776261177209,-1.73843300916737,-2.44354637589068,0.806669671699024,-1.01230529423312,-0.149974156700176,0.751200229953745,-3.84741566047642,-1.47737633403131,0.795337243919259,-0.891923047579643,0.0376289140433326,0.330669139495258,-0.983619419505255,0.141064611103748,0.620012571281169
93.865,-2.31637941706843,-0.435658266602127,-0.342398850217068,0.110358373350734,-0.241553797751944,1.85586934116431,-0.734657030450743,0.145932470048598,-1.38471976801557,-1.55643527769055,-2.0770670675765,0.888830459799528,-0.962030261999984,-0.272262805301577,0.702082788683756,-3.71620746096524,-0.876484602233023,0.75960395583657,-0.911060250726957,0.0476520166987554,0.330869870460238,-0.947507701049805,0.122631707108562,0.614002205360654
93.87,-2.3020465600943,-0.40722904792277,-0.42430031516401,0.379425208573319,-0.276757988541127,1.41690152510217,-0.678650091013212,0.116211834741946,-1.39130006475175,-1.45034463621885,-1.71919618464801,0.933982803677445,-0.982208211334193,-0.397331517017954,0.668234209543506,-3.58805478908583,-0.281318947110373,0.761074714120198,-0.925607282570747,0.0423349374778435,0.332831668066615,-0.930026846583382,0.107393649821833,0.606205045210487
93.875,-2.23648659555536,-0.340408914126278,-0.492311824508831,0.579909199850344,-0.251336299816119,0.99792403870155,-0.649322665965367,0.0494381292855389,-1.36375891167352,-1.27516011334412,-1.26145819310974,0.937473354206268,-1.02803903547307,-0.480267435608537,0.646593854260625,-3.48565758998087,0.111730888351996,0.767686291903063,-0.950187238589991,0.0525962114531456,0.332558228704,-0.917306918451638,0.083708808077124,0.603092466081892
93.88,-2.14676635920637,-0.219587403665491,-0.53095199825816,0.61871880630773,-0.169046131416031,0.753709711679128,-0.652782454224196,-0.0174444373870276,-1.29936717703894,-1.12115701154722,-0.914922923647355,0.903447616583035,-1.04697825280413,-0.546161939676576,0.590554628782118,-3.25052434929197,0.424727944069873,0.751820880004229,-0.98114824499699,0.0450125008851859,0.328829716811115,-0.91025598687845,0.0630494814051601,0.588130763664415
93.885,-2.0744358595368,-0.0943255046111971,-0.539992166430187,0.572257433194888,-0.0378293532584669,0.576787409464906,-0.682056862969982,-0.0962355651647761,-1.22681122895195,-0.974168953956927,-0.53865573798718,0.817843317744358,-0.997162111903168,-0.583048156450775,0.537434984713144,-2.97704156867129,0.560223836803188,0.707367140179622,-1.01162067896465,0.0426942027480575,0.324201352588924,-0.91543499404396,0.0443056822565033,0.565259441983861
93.89,-2.00479598198058,0.0291924754349923,-0.539961201825211,0.450518965362174,0.138987839179132,0.464743399034962,-0.708772318480909,-0.137533315043925,-1.17330669499941,-0.872162487907065,-0.245597243508163,0.717845347327841,-0.874851784023146,-0.574100227969488,0.487225001121016,-2.5664755487129,0.577494415212395,0.608443739607641,-1.04450993107062,0.0440120256538252,0.315957651133763,-0.937300254070595,0.0231590018883944,0.540143479018382
93.895,-1.89852744035345,0.150240418090397,-0.52593157195393,0.208715775879529,0.29449769832041,0.423530886046377,-0.73557760583868,-0.146595294981792,-1.13431454889013,-0.73703949426431,0.0535640258192237,0.605755710967258,-0.786779012313771,-0.53276372949578,0.469635578638091,-2.21628223209818,0.55321720279849,0.507970522718875,-1.07541409351575,0.0388706697938775,0.318047836868424,-0.976317393344668,-0.00294997273123217,0.531528821367769
93.9,-1.77565183227635,0.204460178796308,-0.521482278929143,-0.111340173105323,0.500055064564139,0.411038221269676,-0.750252498569932,-0.12795420459851,-1.10402844746771,-0.615997138422546,0.302842283290722,0.527550973272156,-0.745895575312233,-0.421284941386799,0.399524400825431,-1.63905209142214,0.404944588370312,0.316265139221653,-1.1016967451276,0.0362452821972569,0.314553246597363,-1.0415317945171,-0.0234910855470266,0.526910089919882
93.905,-1.62808337808297,0.178329494184177,-0.502005500005607,-0.319942520167593,0.714629305009193,0.393651120046364,-0.770862049709355,-0.0820947396845991,-1.02617883940076,-0.491971769248581,0.580675053776149,0.454678854840215,-0.740364662542747,-0.369845044872573,0.420150714875006,-1.42971759657896,0.293933853940046,0.217008528076266,-1.1270515675696,0.0280238586988191,0.314464536425654,-1.09224965240561,-0.0383760849107908,0.537946158049183
93.91,-1.5279382482967,0.113627361777954,-0.445918712735686,-0.456450880729511,0.976643201543364,0.361090816781223,-0.791282694863588,-0.0445936516156035,-0.969081504737542,-0.446268760065194,0.770007484165119,0.388575708425262,-0.768540363432493,-0.292525037037081,0.351488771440861,-1.2496951306018,0.109411154473209,0.0789337562750679,-1.13017378773333,0.0217739367262583,0.317675857313672,-1.14563890924241,-0.0453245965314864,0.54628603312209
93.915,-1.47221248959413,0.0839386379164881,-0.373073868214445,-0.455617660181167,1.18396614080947,0.300559333960742,-0.818110883893411,0.0209444480059963,-0.899174199210581,-0.500318443673951,0.954455275324919,0.31798749531381,-0.794294261449431,-0.235950638684904,0.273539298325943,-1.22561484337356,-0.0403043086722424,0.00244587238540332,-1.12592107768417,0.0168446980423767,0.325285749858132,-1.19140392575513,-0.0333740550814495,0.565487857800743
93.92,-1.43338401612004,0.0974318356099167,-0.270364697855981,-0.338282264717614,1.41082899853234,0.215932753013761,-0.838420438784931,0.0691046585277587,-0.858101694421069,-0.62800878053749,1.11371496428131,0.277834076116926,-0.803993990482944,-0.180122866228091,0.207157377166783,-1.23620891607659,-0.114853887899546,-0.000298202705522389,-1.11643351932596,0.0060846173501979,0.330668748054133,-1.22752920082948,-0.0152494070174365,0.579691298456686
93.925,-1.40769080763139,0.122894382536247,-0.180175831323273,-0.196746866623541,1.57494920154818,0.157692589694247,-0.86490543882322,0.102677392489133,-0.831716026644012,-0.795971772510309,1.26103019000134,0.260744592958042,-0.784741474516637,-0.122667328979355,0.192002734792123,-1.22350948161667,-0.120500721037388,0.148406150445202,-1.0794166700407,0.00160228673898551,0.34126145808604,-1.25162889282574,0.0242426575180445,0.587323872246592
93.93,-1.37705137762019,0.180893439166786,-0.0759913971079784,-0.000160717042809618,1.72262144593556,0.0907271376476166,-0.879087889264482,0.110497361602989,-0.819237641065598,-0.93806648234573,1.38019229066045,0.274176220188121,-0.771963317087369,-0.0790729839087795,0.136386513423779,-1.23196508340671,-0.13016209090665,0.436516074917381,-1.05857065218265,0.00049395734720479,0.34536456253025,-1.26321775687035,0.0739530946540072,0.593531012535095
93.935,-1.34668009120192,0.243732392232151,0.00101656092662183,0.126687533029362,1.80219504472924,0.0453936574546117,-0.892476255780939,0.0986472396737598,-0.792435536570551,-1.07980732461057,1.51055979300578,0.308587201599333,-0.740915379987771,-0.0455884274740258,0.0619969698389534,-1.25490286553663,-0.0860339580812552,0.698233764735223,-1.02990999708576,-0.00231355368234569,0.362617040544363,-1.27341708822609,0.131444367452979,0.592631878797228
93.94,-1.26055759049002,0.335783424077702,0.0715872708453758,0.225781156556046,1.87037361950678,-0.0103579823976259,-0.901431672925877,0.0699574805355087,-0.745157702282427,-1.15644080844667,1.60696378804324,0.345273806711705,-0.714657629783857,-0.0452967958592827,0.0157084416921352,-1.11310103416564,-0.0423122718930244,0.899200864734288,-1.00678283186214,-0.00716734310754644,0.383487579229813,-1.27604071632386,0.165498664120504,0.592478253765103
93.945,-1.15235918222483,0.392518609243491,0.140312794293128,0.25810686897585,1.93305105989069,-0.068358262082185,-0.907817716948517,0.0189223555048959,-0.646087078329649,-1.19357609258055,1.66392985718904,0.369908658548726,-0.684070635094828,-0.0769473165374248,-0.0355665901412232,-0.802210360237319,-0.115600606052708,0.841509284748416,-0.988202841987463,-0.00355636040863783,0.403403371356154,-1.27585951630584,0.169273963661633,0.594493171296078
93.95,-1.05959593454033,0.505194779888628,0.199466529772552,0.121388273528208,2.08982355827299,-0.16742813425577,-0.929962355579929,-0.0536451005348352,-0.476407807560979,-1.20777476873034,1.66360806379682,0.367696397517375,-0.695582135335655,-0.107506834851613,-0.0876698907384299,-0.383501271378582,-0.240234851961956,0.60207155089968,-0.969692061774364,0.0043355140948313,0.41563402286062,-1.2873276045448,0.158065451069874,0.582587183651163
93.955,-0.821624816496196,0.626008166063841,0.364191293860987,-0.592550584262432,2.48388075373803,-0.0483884621354647,-1.03837616727154,-0.277362891604184,0.012171800678053,-1.27224485826125,1.57239070067117,0.315240598798108,-0.677864952505042,-0.125149930007797,-0.168433361157237,0.0398878410727642,-0.304032597630155,0.273095928750118,-0.95091268972468,0.0156964282756058,0.42883899725819,-1.29867802303784,0.129994302752075,0.586200833320618
93.96,0.151704601096745,0.584714517846837,0.606193869613437,-1.66983110316381,3.45051050383006,0.422618148695565,-1.26170516131206,-0.616245180801835,1.11021702272136,-1.22996731071799,1.23924376400888,0.183242153920467,-0.724310166119709,-0.0221091767315561,-0.226339759848506,0.359228605572906,-0.126057239393691,0.0776745219294268,-0.931044799975123,0.0252349954217647,0.441122906173936,-1.31216650417363,0.0929476422855416,0.584799740657633
93.965,1.48108340172867,0.527777858354679,1.32637418336887,-2.93672186296686,4.96620781648825,0.99712518148007,-1.70473442756343,-1.27750503746462,2.82739538936171,-1.1196557753212,0.541849588924549,-0.0693147556381379,-0.836024093452904,0.0961855555989167,-0.045985053100746,0.624924642641936,0.212684009959123,0.0473571983463939,-0.909013985755575,0.0400063297181154,0.457792851547827,-1.32292702526846,0.0709914975277698,0.582535743713379
93.97,2.55572496572587,0.261573837687975,2.34987831150266,-3.41893165242205,7.23206671057252,1.88225079934361,-2.26332612449496,-1.98988855055214,2.85671087588809,-2.44518581005794,-0.159996761977465,-0.670234535562232,-1.05185035592408,0.205937094264505,0.319840980562853,0.829720875203701,0.380919263448209,0.447260360056874,-0.894109816583607,0.061160592026597,0.471856859467064,-1.31981481614911,0.0476705172097207,0.576410810490535
93.975,1.52464898728775,-0.69542928774822,3.16552822823226,-1.33214401462954,7.54610820990131,2.63276907386142,-2.54849392193849,-1.39616817641133,1.30447104693564,-3.96194403738662,-0.0949641648078035,-1.06181696922046,-1.29392898020653,0.325024515165699,0.4112411508482,1.14696685230978,0.61894506511115,0.99311783557218,-0.889172848802421,0.119507695156211,0.445954551441974,-1.26243476655967,-0.000460723628594602,0.550873255899483
93.98,-0.623122426667717,-0.709967893497202,3.02651560736487,1.18917410616877,5.46221003660768,1.80771694870394,-2.27079979506804,-0.223135656002238,0.128734200344847,-3.09702665595197,0.52976331383159,-0.394664033128282,-1.33613056070818,0.534572969624013,-0.211769379355515,1.706118280388,1.53392715543847,1.53365953259468,-0.895456670214273,0.173562238538764,0.41574825692087,-1.20100141243647,-0.0517982467279274,0.574990275515189
93.985,-1.69448723633197,-0.190247527804748,1.97458542424988,1.56192404495104,3.93746955730842,0.493429035463228,-1.72016205565306,0.058921607039233,0.097095814701283,-1.35928063733275,1.20549500792572,0.179047211416962,-1.49159194858829,0.593831559645303,-0.664151581322878,1.65639114478266,2.38905929796125,1.57335093739797,-0.954245431610364,0.172341214046175,0.41506696619539,-1.16965536373803,-0.176471394932722,0.591001750116862
93.99,-2.27653411211659,-0.832159883573133,1.4130279054345,0.142846217790224,2.85571688378789,-0.943741077772498,-1.18978024561627,0.561918450422969,-0.034405788777681,-1.22665339243329,1.39175164807351,0.125170387091511,-1.62393828007346,0.263321210078855,-0.629534202876404,1.01764768504327,2.6400355570034,1.27720710588112,-0.998610086111944,0.167023085054528,0.42068717279633,-1.14404704259127,-0.265335231081852,0.546458524895031
93.995,-2.25276771536945,-2.42740530607694,1.01413249539868,-0.634922434953745,2.29198718477134,-2.15837172483621,-0.911510697970739,0.754960379756484,-0.426110641338418,-1.71637445419468,1.37409925375095,0.190613756028471,-2.01421383804687,-0.37769763290838,-0.251914134135566,-0.238855407953718,2.48467116165412,0.865195296436428,-1.07284474919191,0.185869147573977,0.42116177329227,-1.09396734482718,-0.301646437300809,0.493779604971901
94,-2.23022667436652,-2.02075774012647,1.13176641411588,-0.0864983682136505,1.52702947806605,-3.78454166406823,-0.834726189970868,0.557953426114104,-0.947399962150514,-2.42229311241356,1.2436603996941,0.456514746857563,-2.25403044214982,-1.28148387076538,0.718974140445511,-1.34621306982907,2.40405338027261,1.00381689505144,-1.17705480924348,0.212271821686749,0.378033841045361,-0.998442134252637,-0.246887659022868,0.46676946184517
94.005,-2.67755813624452,0.498668165925308,1.80278820934565,-1.31575391411751,0.563944214692286,-4.89656881197466,-0.877863007143944,0.280077811291386,-1.1823877419887,-2.80281580425159,1.26537267343656,0.77116875165829,-2.29402270572424,-1.84840858628039,1.72906069040765,-1.84882590436775,1.97002165983563,1.45418593701161,-1.30308178816116,0.254410536674473,0.326065769396106,-0.89615257515923,-0.129466015451751,0.497239886347435
94.01,-2.52347540828185,2.87882760766139,1.89669978999745,-2.3687540536597,-0.951055926988562,-4.06092714007814,-0.852377976140879,-0.36742793487686,-0.962251124132503,-2.86017585686312,1.62698940174773,1.10622748811826,-1.97475156294404,-1.78358574428506,1.38412737308572,-2.20062783913163,0.710132377276444,1.76299384434904,-1.43942554518173,0.230193539996019,0.265486934074204,-0.924583941937567,0.015987504897197,0.555086476991892
94.015,-1.67407731721217,2.95734503442391,0.973959679155385,-1.02233017726417,-1.13500504510878,-2.21731891756265,-0.746601575455245,-0.967890420866543,-0.526306174577508,-2.32143428941993,2.06488382298899,1.10986939574136,-1.57077605161869,-1.38112289418738,0.745124226990028,-2.37114067708059,0.463442198111559,1.85099140694395,-1.47509379326248,0.208671936772769,0.232982403164263,-1.00262800899881,0.020811414188668,0.587740542227035
94.02,-0.923261295589576,2.14789911752736,0.348093866269481,-0.383660759377258,-0.415829056717735,-0.519500950657554,-1.02193263848803,-1.1705215637787,-0.231045960654609,-1.43705634315491,2.03789042914602,0.783071139151927,-1.26553921395665,-1.01897192097543,0.436594073381397,-2.25021863819782,0.524824102040213,1.8464319911476,-1.43267612219611,0.182549914973639,0.194005547334531,-1.140456252734,-0.0811318172470431,0.564550842453823
94.025,-0.82329746541758,0.809271010522706,0.405599464728754,-1.09826589113444,0.2652655056118,0.248327575075898,-1.33270946203436,-1.02292999490461,-0.245351366400203,-0.92031258626275,1.84396554591297,0.516829704296797,-1.11155962667532,-0.663301761541985,0.0291673581638667,-1.93655529554192,0.242638340082431,1.69820272456439,-1.34238386472341,0.175655443117973,0.152747750920146,-1.26959393934181,-0.252383076384201,0.515013185414842
94.03,-1.18638049392767,-0.459407930927197,1.30464394994457,-1.48837127865725,0.526578086967999,0.665800045165728,-1.40996470631699,-0.655465138538111,-0.486238574294188,-0.75379364548403,1.89914821543099,0.475125409399921,-0.855926749269299,-0.25980053377335,-0.319529739422477,-1.36169059473118,0.344880550920958,1.43833267314264,-1.29342987858463,0.17304235380146,0.130482958452815,-1.32834166539665,-0.385014375391091,0.500881294130223
94.035,-1.08897556886503,-1.3062692474569,1.68987545419487,-0.80302131628292,0.14187739547058,0.438890153593453,-1.36080516823649,-0.530918973239089,-0.449167473096908,-0.512783636777163,2.06923776199393,0.558215578622492,-0.685354141615476,-0.0868028901573374,-0.243022047980162,-0.716561798559244,0.519191071377249,1.27924452298067,-1.29573939402964,0.160628333346785,0.109285486830079,-1.35990540027563,-0.469080386060343,0.563069920640765
94.04,-0.46608287562476,-1.17403590706155,1.39407369409953,0.100140741606542,-0.241989893021676,-0.0665859509519419,-1.36131807734119,-0.548660955669032,-0.222965521406667,-0.336023491630723,1.9868813506251,0.622256356278756,-0.516149779124724,-0.000535078095151897,-0.210592435640808,-0.24224740236286,0.575126661619354,1.08947278154163,-1.3264799562666,0.128746129083233,0.11459444156587,-1.36789364162962,-0.438911612858655,0.590550498197596
94.045,-0.343271421427955,-0.166853813635334,0.982503041747295,0.525694887279443,-0.217281647176913,-0.170023241383132,-1.25032346723309,-0.409632767752775,-0.239009878877883,-0.587719119227036,1.6154750743736,0.57258609616579,-0.355998439462778,0.00472634413976159,-0.320802960602077,-0.0375701453941571,0.739276904367915,0.900901436090542,-1.39530430614829,0.0806112132969818,0.114236610060817,-1.31431746611941,-0.353937149254751,0.599006428860285
94.05,-0.547893015808377,0.955296711908009,0.530937049209716,0.56583340643015,0.0160116995806521,0.0359024668354782,-1.11477514985041,-0.231835404758274,-0.313736642254137,-0.769511780314944,1.24190188775959,0.489795003605179,-0.259020458090792,-0.0504893809404527,-0.470306174031035,-0.00891321951853838,1.03378576119291,0.742358186909469,-1.44995425411743,0.0604755875199681,0.111967002968185,-1.20998927730654,-0.256629876376584,0.552781935206309
94.055,-0.643674163378185,1.12076793966712,0.43168175058459,0.250349405885246,0.228669224160152,0.324665237123401,-1.06555248014045,-0.117538806100794,-0.29803079160981,-0.419319821423766,1.14049376106462,0.470537457184185,-0.265011828300082,-0.154084787615306,-0.672267085906191,-0.0790369948877643,1.44912865859525,0.622982676756991,-1.4674704261591,0.035426228720837,0.080561868337179,-1.09786904030651,-0.14726227931315,0.483159925211165
94.06,-0.550835511107317,0.525349018780762,0.767209023755968,-0.0173261798492879,0.26828726113139,0.470288332511212,-1.09827102895339,0.00269116228556802,-0.205856027153676,0.480884233540945,1.21185222291547,0.528337006470734,-0.387172089537577,-0.233137993813675,-0.811451585276828,-0.153668230574936,1.84507006323726,0.510818812040077,-1.44148587430896,0.0241243719078598,0.0462969200106463,-0.983108289879109,0.0111742086805054,0.4222862408047
94.065,-0.42709941809499,0.158358999658206,0.94620448192855,0.0428654593136442,0.173516018733589,0.403723570090662,-1.09905009917689,0.115821966345991,-0.141095308587592,0.831654914099279,1.21314244663755,0.540356459563269,-0.544722513146935,-0.247969824733065,-0.841953314408854,-0.227081936063136,2.0761394609198,0.457590524159566,-1.35286878668483,0.0120340525671191,0.0194596937812473,-0.892013065078816,0.192551818858202,0.399354187215112
94.07,-0.357051348156031,0.0621111546517435,0.950163086211831,0.162729538932314,0.0754928132115746,0.284554793047931,-1.04047535933995,0.182465283103065,-0.0976049499359729,0.561173448400444,1.10257939971894,0.476132279814708,-0.692217379143983,-0.237840352521502,-0.826302178036721,-0.249873330447255,2.23147049543511,0.438873649117505,-1.26319401659216,-0.00493317718693151,0.0149101998842106,-0.838977694975371,0.351218116884195,0.396838188171387
94.075,-0.398265075701674,0.225178879573653,0.838202695530937,0.263081572520399,-0.0211977003173471,0.172408346559887,-0.957844340287132,0.173230177888173,-0.11865114504655,0.0446078965528435,0.964579994769508,0.390556910551639,-0.85562063645167,-0.128709229276976,-0.748951999384423,-0.249649718112507,2.28447442168541,0.435745296892958,-1.18557925622735,-0.0102210612706521,0.0241445594881496,-0.841568324603089,0.451910757345148,0.378894151244294
94.08,-0.54940385845073,0.581635041359654,0.665642812884614,0.226210095293865,-0.104653414708589,0.108503377403788,-0.875924002018638,0.0779313440249825,-0.210545945599229,-0.211350201417263,0.865719182532393,0.369913560117799,-1.00406426925498,0.0748560781984343,-0.708413642826921,-0.107394687661089,2.04737709522748,0.374470622521595,-1.12913937454569,-0.017103647209269,0.0311177115338134,-0.868290084888523,0.529556561083245,0.343747643870065
94.085,-0.627028242723678,0.744410654062391,0.600650000049599,-0.00296748985256155,-0.145393277518682,0.107788351846228,-0.826256749280652,0.0331750305562532,-0.26043699066319,-0.0731167570874843,0.820811843900476,0.423689177097117,-1.10450346047688,0.209283748408237,-0.655822075676993,0.0999312211226222,1.66881113534453,0.264158231051348,-1.06746126429859,-0.0208201288602154,0.0492083272453623,-0.914235813838884,0.586334796789109,0.318153348714291
94.09,-0.550821260069296,0.634124483376323,0.693420098726452,-0.196843893778925,-0.166100672830312,0.095663984553972,-0.854984081556401,0.0865126601607151,-0.20121223225711,0.285487753518844,0.798113906718326,0.526704453155405,-1.14195848692055,0.31038704059872,-0.558744743090936,0.37109840913784,1.19611121100651,0.0756680665152098,-1.03343427282891,-0.00693746659776209,0.0679679486137695,-0.936882686989648,0.629093711770037,0.287428968957492
94.095,-0.41147354330207,0.420571998747816,0.830042116251505,-0.355196399520748,-0.221165458879723,0.0390138626147668,-0.902467276769866,0.17574217700785,-0.0822710701820743,0.242474164572555,0.719205468565008,0.550793390217118,-1.18708120956519,0.359992495852825,-0.578640929591315,0.434345867822265,0.682244900190973,-0.135252256694266,-0.985093052663316,0.0139544918499073,0.0796834012324187,-0.95859308992669,0.675599379809374,0.297731887993972
94.1,-0.369059474503862,0.278275332877023,0.871931040832323,-0.38760385860202,-0.297541626864542,-0.0468522790274001,-0.943678138905472,0.221819855567727,-0.00196698055053889,-0.270846098193959,0.567802402013165,0.49965279081526,-1.1893044639359,0.352012611586325,-0.540195091541549,0.519371280977496,0.192456589325728,-0.317474130014978,-0.944190290182021,0.0459586808938373,0.0982737471083084,-0.996042646766165,0.715765708109295,0.371319110173465
94.105,-0.431251630667852,0.307240107018437,0.817852891603654,-0.404195330811603,-0.355648104488573,-0.0988713758618416,-0.979853686481551,0.173785115738438,-0.0486181077059764,-0.8057924724152,0.446127384486982,0.419068802972272,-1.15908047801637,0.323562951982831,-0.48033736539484,0.490000012074343,-0.172909748378952,-0.465225878131608,-0.911124478176496,0.0720050554799404,0.115925475339623,-1.06157707352303,0.743917126310672,0.46760912310477
94.11,-0.526342066734275,0.368644110269488,0.770395212953472,-0.449501506707524,-0.36390055113968,-0.0891782201152172,-0.993022166789131,0.0984745524047192,-0.152677920379535,-1.12880812025351,0.396465109441349,0.335112891366746,-1.12525683649842,0.284034716259216,-0.381724141636823,0.331706973714229,-0.491677487487742,-0.59108944037464,-0.87081589588467,0.084906781597867,0.142717117800595,-1.18323290042304,0.725644710148507,0.570203215265991
94.115,-0.564871543510457,0.350403910308492,0.786098086754779,-0.513335518684801,-0.356730205519937,-0.0310806459991153,-1.01072344586681,0.0285914807423669,-0.171906123745187,-1.1370590741018,0.4088520034456,0.317114038358471,-1.09057576200555,0.250711279564583,-0.286714299315021,0.100614475762462,-0.572055672119121,-0.577762960837873,-0.828639054745267,0.0881178652915414,0.163859719898993,-1.25387801967523,0.685632451381524,0.549046130212908
94.12,-0.523206986766545,0.262157466106257,0.83712062557921,-0.537008066185304,-0.360864189475632,-0.00742391579938796,-1.06515647721579,-0.0914327180252214,-0.121283984162334,-0.991667018323557,0.431229763571946,0.35127361646914,-1.09371335298543,0.240886874481422,-0.206781513923151,-0.238673727070161,-0.624730860302042,-0.527202235319681,-0.795379342343724,0.0883991076006592,0.17834112078461,-1.31061386343553,0.61065676212835,0.452628614512121
94.125,-0.473878549202425,0.193065895504738,0.865173856725121,-0.518010812465677,-0.363095396837312,0.0018196978588819,-1.09976984538904,-0.156365576258145,-0.0962803358597853,-0.926330814875795,0.385246623639692,0.388615093039438,-1.08747784691098,0.179977736485333,-0.168463329306413,-0.589772361311874,-0.620797209275534,-0.455699673682103,-0.75067072098585,0.12492904103921,0.202603173334288,-1.31858070068655,0.49038653476135,0.290017882170541
94.13,-0.457862386956185,0.198787645971442,0.869176961885404,-0.474728912241858,-0.336999212992646,0.0160568647064081,-1.09422057351801,-0.178366996297365,-0.120209385440491,-0.948055960910665,0.259960025801676,0.414089039526817,-1.05036592957106,0.0883242885388555,-0.141688789953738,-0.973869701550451,-0.530890736183039,-0.373769927272564,-0.689153116792798,0.180275452098534,0.212410399501961,-1.29903967367189,0.387248880868602,0.165471756061713
94.135,-0.481654116083687,0.245651253135768,0.854886621154645,-0.408830558471021,-0.290663154853849,0.0438668264543634,-1.08423711036464,-0.225545197773042,-0.14531713190425,-0.890398174977472,0.175399749645897,0.422209600157144,-0.973005513892887,-0.0490924840364385,-0.122714153882177,-1.25959472584252,-0.396726583381659,-0.331761062333108,-0.609481183598187,0.270333918571844,0.206886568859615,-1.31215678800749,0.313106498666334,0.148213630917127
94.14,-0.500823853101361,0.272985623074037,0.840854502089889,-0.362985178288424,-0.261846545252397,0.0460636395681541,-1.09826822298412,-0.270863699352792,-0.120883799769726,-0.589905156937217,0.134799969302365,0.429824754577458,-0.912850378780859,-0.170246265150174,-0.156793341502618,-1.50550729426038,-0.213597615421231,-0.325961951025096,-0.568647116733082,0.325845882307501,0.195182954279064,-1.37066938701111,0.302942424631067,0.245918592542489
94.145,-0.473350564255237,0.271510885027363,0.844504791165003,-0.303716260487661,-0.226951959725487,0.039982378237137,-1.08839778053869,-0.254654475927041,-0.0910596640394026,-0.274496586976201,0.102809896748853,0.438208371400833,-0.868171403004074,-0.275687930805795,-0.198163624569425,-1.70374939041078,0.0509916449489865,-0.298027149436587,-0.552731795573501,0.334576286123877,0.18054116313428,-1.44102030898284,0.273073042192103,0.340784100349532
94.15,-0.442827893062068,0.257641965084105,0.850304431522399,-0.264047912477779,-0.198853550751818,0.0416352277508813,-1.0581364517207,-0.211996819903736,-0.0583312079435483,-0.00427344036556423,0.0714078145577845,0.438208371400833,-0.835367671468179,-0.371497612803013,-0.233512216374306,-1.88223387728463,0.383997479505845,-0.204653306470529,-0.566773346864661,0.320880700445442,0.173569660220364,-1.46824308572318,0.207078350808113,0.348208495835412
94.155,-0.432362272537066,0.247334679688733,0.860596463658877,-0.235800517218285,-0.171492853497389,0.0486657917994499,-1.04409561392106,-0.160447574384269,-0.0322982701342504,0.13031590321056,0.0757250150594183,0.445225717650174,-0.851947042442712,-0.417124072352052,-0.202254300277759,-1.95435528131949,0.669654746141569,-0.0315046924180655,-0.586555886489213,0.328905431804656,0.150862762994676,-1.44115819397065,0.0829337565123435,0.285457528998618
94.16,-0.435724994766968,0.245993340689204,0.865852495626261,-0.197393261451813,-0.140708205350703,0.058064650506172,-1.03965484111916,-0.115403550337317,-0.0144481937728773,0.191915568361487,0.0752290573681372,0.454512224802877,-0.928869613255961,-0.45281311530487,-0.0860088863516797,-2.0387139450868,0.878682661494596,0.237408157709217,-0.61956309977344,0.349080981618527,0.129027961745515,-1.4254252910614,0.0206275144494033,0.267930948456483
94.165,-0.439930234877655,0.24182014574151,0.871510732542679,-0.163511264016641,-0.118563909336137,0.057555144545022,-1.04403454543763,-0.0739048422715688,-0.0132825107436631,0.213886568594056,0.0643565750502722,0.468230945720467,-1.01638757057621,-0.45741517862405,-0.0344710363789266,-2.06218105049141,0.927924803910868,0.393598449911735,-0.658857569335001,0.359330859871626,0.111602594383544,-1.43545209744812,0.0179965260528719,0.297477112286352
94.17,-0.445350563584467,0.230519868131891,0.87770630428847,-0.110321393962477,-0.0983902928822569,0.040268498154057,-1.05180064458161,-0.0412460948310421,-0.000317668508485656,0.232723099830224,0.0342445769124331,0.468529944000117,-1.09023991828672,-0.443889999742928,-0.00209864654411391,-2.03084544655866,0.923608186014103,0.458980733755744,-0.704686553025285,0.359853496574716,0.0936573970353688,-1.48066812061155,0.0587660486525176,0.359789619631646
94.175,-0.452515406333401,0.2305197884325,0.858675183551973,-0.0564654894048763,-0.0715383350364409,0.024302794343374,-1.0676833084588,-0.0154003610953905,0.00454913728225734,0.217022446731888,-0.0164849715202258,0.443611202525487,-1.11545164412877,-0.405082472310827,0.0298540300610324,-1.91285642941211,0.896341357439918,0.426725218642143,-0.74654800283137,0.357320071159915,0.0717299826575167,-1.53142750881113,0.0944436719503908,0.43377518035203
94.18,-0.448018633122886,0.265534246301838,0.846251614185116,-0.00937214560251004,-0.0409994106920426,0.0282432443021639,-1.07604354340822,-0.00518120084396001,-0.0015494359581618,0.134868994807425,-0.0563554025570569,0.409528203234037,-1.11661365872032,-0.305676989611649,0.0608307737230736,-1.68125665496309,0.839178654714447,0.327352402827898,-0.783672395300051,0.346988663382223,0.0608219044897933,-1.57149491278519,0.147339950297737,0.529542387814318
94.185,-0.451691768383171,0.287130676432297,0.844330618020073,0.0112043083354633,-0.0218265160430149,0.0353753381570498,-1.07482474345236,0.0212423138703314,0.00845197470179862,-0.0524426143108222,-0.0710632327571556,0.376521634720261,-1.07331445310051,-0.201416149513694,0.0713781692389078,-1.4387900109961,0.790793091303459,0.23252563138171,-0.823054390503398,0.328418201020554,0.0527392617260392,-1.60069570228268,0.20825561082544,0.605938797238592
94.19,-0.438151648424063,0.297816219993904,0.846269418496741,0.0268980929302825,-0.0163822346942364,0.0221454739542623,-1.06957667500497,0.0353565453609298,0.0356052138613295,-0.160574758150702,-0.10122180745562,0.344637147179013,-1.01360310024675,-0.0885589091284024,0.0917577246919538,-1.1883349907085,0.786324724825625,0.132323430872019,-0.865657998074442,0.300247329986335,0.0498218453665109,-1.64538610332138,0.28557555961895,0.697264462456489
94.195,-0.433571651962049,0.300194097259634,0.83700354709894,0.03858901499247,-0.021217541240305,0.00811583693283893,-1.04355904714209,0.0599202709022242,0.057867868972777,-0.310287618488321,-0.118174701706274,0.32452340101389,-0.956534674427741,0.000806994537460928,0.109235605988788,-0.984592631446418,0.820831516258354,0.062266642835505,-0.90996922245017,0.260741550066645,0.052711329091068,-1.68987130782026,0.374664930388622,0.795029863728147
94.2,-0.434180581862452,0.296701735032051,0.834211284922415,0.027104021365485,-0.0198316516820619,-0.00927743020339682,-1.00064065487351,0.0763011526413214,0.0521910459286868,-0.48331639728406,-0.12843183700711,0.313379930150237,-0.92382053878248,0.0712439381040773,0.12239670764383,-0.823933525827866,0.87333427048634,0.0210204870882336,-0.958384006722655,0.216554675324169,0.0600658613830423,-1.71502230739594,0.461862338581328,0.881757460735603
94.205,-0.441156495651691,0.299375429374219,0.826068305645248,0.0083815234639147,-0.00937300443512899,-0.0175281001796722,-0.95576784684788,0.0617908010750656,0.0304942605768624,-0.663266243021573,-0.123442177729371,0.321430443991998,-0.916078124110114,0.116897753382292,0.137766597884801,-0.726297684491372,0.948326652112542,0.0131838252731681,-0.994788797397735,0.153417442231429,0.073859162967624,-1.74496163656887,0.546334893170207,0.93961130020217
94.21,-0.443656264093375,0.317716804376852,0.819393213455929,-0.0304979317914536,-0.0121276712230827,-0.022079450879353,-0.927689774844551,0.0310934150974472,0.0237434413507941,-0.752935817432759,-0.10592816809442,0.32096351722505,-0.930777832103297,0.142043228703285,0.142013078794634,-0.676724098708997,0.985783340540918,0.0297739865409194,-1.02578507290478,0.118060551851303,0.0777953735601538,-1.75104560119658,0.608284162828054,0.948889140411449
94.215,-0.437786734388131,0.310827379670541,0.826881554031115,-0.062000564253741,-0.0147295049337792,-0.0280620932724998,-0.914024003091501,-0.0117756780380119,0.0242542377585179,-0.759378007290016,-0.0905587584337749,0.304397685860191,-0.96266499377204,0.157519606237067,0.1482856619295,-0.694217012527383,1.01523451660963,0.0512629304367558,-1.08470146383484,0.0646521517654518,0.085678669960086,-1.74847491228489,0.654320126899077,0.919602970225395
94.22,-0.433898810862628,0.286977959298443,0.827590182273914,-0.0976013116808382,-0.0162069137522927,-0.0313505198315558,-0.921570848575485,-0.0361079961798224,0.0242242667397916,-0.69834347639818,-0.0620974979863993,0.276099078827388,-0.995495833359434,0.162575937067735,0.157872527770011,-0.744342725495885,1.01169672779391,0.0617380480004605,-1.15281601739728,0.0192181649988128,0.0886617667126159,-1.70444145379233,0.697225752303733,0.863086195995042
94.225,-0.415903991520106,0.256072778380028,0.831189593061693,-0.104780516931472,-0.00767525175565891,-0.0180186159527887,-0.947029580460547,-0.0415380716920438,0.0324278757005152,-0.647461122132289,-0.0273007830096706,0.243557829703964,-1.02379804883562,0.170300370929106,0.16139325756952,-0.841396093725342,0.974642547827762,0.0617140198616246,-1.22308445004964,-0.0256301613204892,0.0904953461501653,-1.63634223801477,0.746964991457072,0.80048022363439
94.23,-0.416075498363178,0.229294459986081,0.845143543704147,-0.088076463298038,0.0127677649612845,0.0116014241885003,-0.982617190090714,-0.0469103159145698,0.0454252616937848,-0.655677860968823,0.00424472620474867,0.219403338662921,-1.04429946962602,0.176348794419275,0.181960225249665,-0.969914545622179,0.898172655620014,0.0442488733839121,-1.3054120073971,-0.0755252705709922,0.0873310363647904,-1.50498615295761,0.825351856135509,0.714477573434004
94.235,-0.434899713047856,0.21453616363705,0.850314224564958,-0.0570501595761848,0.0312197556231085,0.0374912243207068,-1.04088554171524,-0.0439478836369545,0.0202541018770605,-0.696961982196276,0.0420133417912194,0.183744448288543,-1.0500645890527,0.168934120241335,0.208837288210473,-1.11362180327921,0.791597530501245,0.00835624829545844,-1.36542710249813,-0.115104498960275,0.0938315282418846,-1.3766728492135,0.901670553638142,0.633456486150018
94.24,-0.449079027258523,0.242091120335518,0.844357469399529,-0.029666690161686,0.0418103131739533,0.0478924769181446,-1.06348875732121,-0.039741946114491,0.0174116700037358,-0.671466019400779,0.0481202805920936,0.155335833734424,-1.04546436919154,0.141396738357118,0.233335694270485,-1.30429925468703,0.646762643371547,-0.0403434617588622,-1.42302758667852,-0.153328123183358,0.0932369390834007,-1.22107669342315,0.962019283712037,0.536409461889336
94.245,-0.440137603098572,0.244040300945401,0.847112940856088,0.00778731025414964,0.0479070717211965,0.052188252178502,-1.08728224850152,-0.0573674921304551,0.0354189371548987,-0.580515961780024,0.0586702020744772,0.124008581563374,-1.02482114047348,0.0861650739581725,0.23117364164533,-1.57056680968878,0.497311164773815,-0.106208654374797,-1.44742305937456,-0.169269093593335,0.0962851452392512,-1.09371300638035,0.993910760709118,0.439216948120364
94.25,-0.425993431897491,0.247870381443796,0.84967910070894,0.0345201399296692,0.0421228346697342,0.0500684263571521,-1.07526119700459,-0.0648280954995248,0.0716674776645411,-0.487797554359683,0.0562859941561943,0.0967519571465184,-1.00687425560043,0.0240635859450084,0.213039193574661,-1.86366810669844,0.417786189029961,-0.168120547897364,-1.45047036458081,-0.177384769856426,0.101010518294638,-0.991771944773058,1.00089640780458,0.351729623444243
94.255,-0.412070980326179,0.261453018571487,0.846405174575362,0.0501265845912915,0.0425861680670149,0.0440480154427754,-1.03356096790035,-0.0473058691128542,0.115816501862824,-0.41491777915988,0.0815570900668214,0.0820349491012112,-1.01406775884907,-0.0472550855101444,0.198995034860148,-2.137516997573,0.407715577719329,-0.205394196359751,-1.38202190310271,-0.172418062072975,0.100966623775931,-0.952551209777989,0.978919582960422,0.256988971309787
94.26,-0.409628978923571,0.277178567402794,0.846738368013018,0.0580363059484739,0.0430381000041962,0.0346013629697557,-0.988911029073163,-0.0315473563297094,0.115151478567347,-0.396953577804851,0.104745085737221,0.089247258138488,-1.03907096918786,-0.112817341719186,0.165694250729844,-2.41030140839227,0.458830996294356,-0.179084204979524,-1.32738181542297,-0.145449884023906,0.107698787085697,-0.950644753306771,0.968949163599899,0.181782980903895
94.265,-0.406662903304941,0.275683065153904,0.84210106205401,0.0460350816299008,0.0369296222925186,0.0413919318419072,-0.932103502318676,-0.0187115554151104,0.110274272531438,-0.386661494634269,0.140580020858205,0.118201273841569,-1.06437512907401,-0.154456854597146,0.147298536607987,-2.58348963184552,0.517662454804703,-0.096618949367845,-1.25025759766587,-0.10305524652779,0.110170877682659,-0.955022368101282,0.964923108065674,0.0920798162209785
94.27,-0.412174182555296,0.261707714824623,0.841856506366593,0.0254666210432645,0.0347377442255902,0.0448042212340179,-0.896534722076039,-0.0143611707980509,0.103982626776231,-0.363087436163655,0.18367875382893,0.130733838277739,-1.08778902717056,-0.18643755502692,0.147288252677541,-2.69418894119729,0.559089405918704,0.0335458108765609,-1.18139414018706,-0.0695701252534018,0.124027791365495,-0.940580603401519,0.969612197655107,0.0209213584558904
94.275,-0.413384582579109,0.255140131103941,0.84495843794119,0.00658656606824939,0.0281451801996955,0.0462565326307831,-0.879812141101664,-0.0156513292270307,0.0954763633346166,-0.352572423858673,0.238979914509966,0.13234518718978,-1.10730820880192,-0.219778145249492,0.157069957545606,-2.67748142019103,0.542860598618657,0.15715533561969,-1.10459576844198,-0.0323960052998225,0.139626579171723,-0.912790442605766,0.984079950197891,-0.0461169838222964
94.28,-0.410461671758982,0.259744387352053,0.840242852463756,-0.0124116413831498,0.0104864885903655,0.0440831369561735,-0.885850081302873,-0.010396393969659,0.0875981458690935,-0.357891880996962,0.269928733727481,0.130341365933418,-1.11513061157596,-0.254791248527131,0.168434724387576,-2.55762589247037,0.476477497547329,0.264996462639796,-1.04762150390012,0.001622063025498,0.156508062383675,-0.888478837663669,0.972076656780364,-0.0984326659054149
94.285,-0.389450653699337,0.279828811292438,0.842562610441889,-0.0341292746044633,-0.00307048633652031,0.0349080921599356,-0.913281757510572,-0.00472542664724779,0.0958473636728447,-0.369021263415545,0.315791835793098,0.117953182063576,-1.09867077859592,-0.277711733840658,0.186957437612454,-2.38513507464959,0.411751749477098,0.335032038707307,-0.964346950825515,0.0448032325037275,0.186299702463015,-0.869023329659936,0.945682457980183,-0.124530353139528
94.29,-0.372864456236763,0.281381116279628,0.850158996328896,-0.0554341690358993,-0.0274686003757355,0.0206737714648955,-0.94323539304787,-0.00680463420989897,0.106084059162215,-0.379320050903257,0.336172944367253,0.100740206673868,-1.05689441648669,-0.291248706050185,0.17836320086708,-2.19115057687795,0.346458919197648,0.357760227872287,-0.907478611734806,0.0866667313274214,0.213050739155956,-0.85824339933765,0.877777848670361,-0.115244557703763
94.295,-0.374421163986697,0.264737427153097,0.847882667342689,-0.0713611069303237,-0.0591918687631992,-0.00272199917023778,-0.97290473328339,0.0223605197903435,0.101528082084355,-0.403594651753328,0.349766146680208,0.0987932085449372,-1.00681844945915,-0.287000499112287,0.153843701595848,-1.98236272231716,0.301638049885295,0.354596270128749,-0.873943180538646,0.125257582901076,0.237763945885153,-0.859542443899146,0.79121304620061,-0.0953554100619994
94.3,-0.401618710196918,0.284167327231702,0.835436258464523,-0.0932781278847865,-0.0826272316356566,-0.021202565926828,-0.988453509432737,0.0686707201826024,0.0724031669444924,-0.417503519281976,0.362087225448159,0.10468578338623,-0.951045869552446,-0.267179789559375,0.131175312719039,-1.81132103994172,0.295718880142379,0.320874377640518,-0.868603794429234,0.165366640259096,0.254454200629169,-0.860672286081622,0.684107138625849,-0.0747523734404803
94.305,-0.42788395103844,0.307091955271113,0.827646157009766,-0.122890205488107,-0.10942940752181,-0.0298724608788174,-0.99371614729648,0.0964775246366917,0.0464718516399869,-0.450918388631984,0.375342355636731,0.107583373286389,-0.920655092026472,-0.23968813749452,0.126587271501393,-1.66887949431004,0.321660751155493,0.257039834107843,-0.845239690504715,0.207643612745585,0.27760466895431,-0.851555825467723,0.565995894532213,-0.0533991746463488
94.31,-0.43343153471117,0.309827653554258,0.830206179001136,-0.15400284963892,-0.127123671936394,-0.0312996285592801,-0.983637945507903,0.0754471459453632,0.028115416020322,-0.511714778861372,0.382660135670671,0.105971142239448,-0.918185941544693,-0.227906376231316,0.107759912816927,-1.55031325773106,0.349183085606544,0.209590249693227,-0.814136104627235,0.247237637142376,0.284864935646141,-0.864886864326788,0.499391619376626,-0.0518562247487974
94.315,-0.428235856832071,0.304995595326113,0.836628834731547,-0.179437705814164,-0.145574595575275,-0.0456539044067794,-0.979741722820833,0.0358948460787566,0.0181149349316047,-0.552052404348779,0.397258853292854,0.096823366550243,-0.940999315080286,-0.216592188167595,0.0793171702454433,-1.35528198896113,0.423418944608763,0.189537064834259,-0.759515224538164,0.275166240984792,0.278891503974979,-0.916244876660696,0.472587323981807,-0.0693895328300413
94.32,-0.425574508629049,0.288106077491895,0.840197964547219,-0.201073711925049,-0.164268790574758,-0.0611983132575556,-0.9745473234457,0.00407922254241647,0.00574004861063513,-0.554514941238839,0.422967407548177,0.0756796196991994,-0.970496298117122,-0.203408612825762,0.0474842177798734,-1.12279949385658,0.497413192465389,0.192445638296811,-0.716377872569795,0.310181940824449,0.277019512197881,-0.942957522648777,0.449720438391642,-0.091839611530304
94.325,-0.427086647813696,0.2928931419082,0.832909574192406,-0.216720114170108,-0.173656418501226,-0.0700520087475543,-0.973502757174189,-0.00920898130021462,0.000351236479965839,-0.510832670928269,0.422791866956327,0.0455577369929617,-1.00659949310478,-0.175912632331977,0.0217493779780893,-0.872396740005985,0.537043297542827,0.200660689998948,-0.681052514991417,0.352958002426957,0.275843810258368,-0.98028556961917,0.408378961245427,-0.0895179041030359
94.33,-0.431793946006438,0.297173804206313,0.831077092085459,-0.242700616316494,-0.175899001941757,-0.0738434334494917,-0.969425723487682,-0.00100462377425161,-0.00976009206393084,-0.465236230123529,0.43298065158433,0.0283951927858048,-1.04167334093049,-0.143907132099056,0.000145625004525023,-0.671701462426376,0.537078479413414,0.209911520352796,-0.651769072837703,0.373250682882728,0.274278220875059,-1.00852653678025,0.325719933003598,-0.0697124680905114
94.335,-0.439945875008914,0.2867003126047,0.835793821432996,-0.254504607571241,-0.183866836547319,-0.0741385295987129,-0.97660102004281,0.000486583846649669,-0.0175000350771975,-0.44126152641742,0.438933221871755,0.0192541381288366,-1.0707181653553,-0.0882146529776652,-0.0034216793399398,-0.374484809680769,0.517085068924228,0.215779603189327,-0.62934058203287,0.384245901452453,0.254823788691183,-1.03321142512307,0.22869329420531,-0.0437155555680256
94.34,-0.436773649852396,0.276863513113854,0.839742741305005,-0.269268995078751,-0.188022067885427,-0.0748805012612489,-0.985374661737872,0.00542078346620994,-0.0142556216008175,-0.433074608501728,0.436371317966758,0.0169339746742252,-1.08061999537614,-0.0640466109586998,-0.0186741022968867,-0.130967907508206,0.509603249989347,0.205963442910724,-0.624481956912473,0.387071826081458,0.226203396312626,-1.02901007100165,0.12828162954173,0.00576198424016612
94.345,-0.426546040444269,0.267472601140036,0.843569291056856,-0.277963668213083,-0.191187464484435,-0.0733780108691515,-0.995008168349461,-0.00650971902752371,-0.0224847004973026,-0.429569705104511,0.44660339069607,0.0184158872686112,-1.06427074918301,-0.0494553172751958,-0.0228533392196921,0.150764679083116,0.50327367428182,0.175316747509406,-0.646290701939879,0.378577687986355,0.20047935410803,-1.00951282909925,0.0879233357718943,0.0661463791877246
94.35,-0.420264186668924,0.25826119444815,0.847380008863548,-0.280366599559784,-0.199261217138488,-0.0779382138277568,-1.00231843592051,-0.0129789032770564,-0.0261219510878082,-0.416436324792876,0.451225628750337,0.0111552029473808,-1.03042449005639,-0.0483031692388203,-0.0265386923782817,0.401323134320521,0.494101508401961,0.135076039799925,-0.689252961330817,0.362624024102256,0.168340528091691,-0.981983453165662,0.0937314563266815,0.129715981602753
94.355,-0.417815182297718,0.251881497509894,0.848711565086066,-0.278462355935971,-0.195857691830357,-0.0780731898022254,-1.00464422802574,-0.0133750415367217,-0.0331879922662169,-0.387859275712217,0.45481605026731,0.00269997014088626,-0.996957189121692,-0.058326832771323,-0.039680549070504,0.600171107781067,0.478768195010325,0.101956508125317,-0.735551542835057,0.339048437653133,0.145295326562944,-0.957517340725592,0.138713960979684,0.206575738935398
94.36,-0.430006115403085,0.255524974123231,0.850082338859753,-0.275485146616424,-0.193970650434494,-0.0814607089650564,-1.0061820907197,0.00362999910433351,-0.040034202792713,-0.359801399601507,0.445375482596484,-0.0164309459128556,-0.972973095779689,-0.067185002318009,-0.0493857074401611,0.746761851960254,0.46171605388683,0.0920746791624406,-0.772886766688689,0.311732271323739,0.139755123393851,-0.924717168578349,0.187670798787048,0.263237732305507
94.365,-0.435648289262199,0.247904238389231,0.85518574159464,-0.274652469651272,-0.191488589335591,-0.0779221697839269,-1.00526863781252,0.00401846651213466,-0.050555269465585,-0.378907325633661,0.451864108634825,-0.0219123788333199,-0.960688721083837,-0.0783038828349443,-0.0528005807480126,0.822283066136475,0.430495761625245,0.108515115587914,-0.808638843945816,0.287482065447056,0.146892342281246,-0.910098640367887,0.201006837310788,0.330030568734759
94.37,-0.431653351395142,0.239226475595036,0.861229931775954,-0.266463229561666,-0.182975381612778,-0.071997927273183,-1.00752358084273,0.000714122927345066,-0.0560143022726501,-0.39993583559894,0.450714922119668,-0.0342911927932438,-0.959553414301802,-0.0690453772268197,-0.0742661485170141,0.872403692292735,0.398901118983128,0.1381472352935,-0.852518540863531,0.259267202082119,0.155073059646751,-0.894740167692129,0.177198492921935,0.39263235297848
94.375,-0.4271420507049,0.237676941938254,0.859783103081037,-0.256328823399318,-0.180523660438048,-0.0700689846695035,-1.00899480085463,-0.0102258702967111,-0.0624762317121543,-0.414573490310979,0.444990033770777,-0.0461629528507889,-0.95391174006621,-0.0479859973910372,-0.0849873321630132,0.872417710632975,0.361447162139039,0.175304875343442,-0.889984269010364,0.233849680557355,0.168211477186638,-0.88422076301942,0.118083310380825,0.446258941647791
94.38,-0.424472739224165,0.245331733734859,0.856344259695326,-0.250464391929953,-0.17294038968243,-0.0662268298099919,-1.00382557438133,-0.0138812010871759,-0.0634386118471701,-0.421213587460504,0.434112929898567,-0.0599539918100024,-0.957615178889766,-0.0291981299049524,-0.0990717007947007,0.817787727992733,0.31298491308624,0.206548434700768,-0.929888006135807,0.202956179700591,0.17726293891912,-0.868052339387248,0.0628182167249967,0.4820577348389
94.385,-0.428173830870683,0.258240602959506,0.852933799650096,-0.246411144652892,-0.154624430356944,-0.0595621831601987,-1.00052470992434,-0.0228770144303266,-0.0639343312574001,-0.398538479496408,0.441535370925509,-0.0685816622447995,-0.968769015065611,-0.0246676507431474,-0.118149297347388,0.744452717220406,0.278589841646379,0.219004414207896,-0.961056519317313,0.175679864679107,0.187068070213675,-0.85599763007275,0.0198759776734588,0.504347324371338
94.39,-0.431502093160519,0.252066387704938,0.850790212297034,-0.249229061101053,-0.149425819690054,-0.0589143776474782,-0.993391958398801,-0.0293711765755861,-0.069022156665391,-0.388174714055504,0.441667105924237,-0.0686460273969739,-0.975166929660231,-0.0239229918164689,-0.135177942393204,0.667535297458936,0.257550686342046,0.19836743198559,-1.00286028346219,0.155546041812185,0.199141627247184,-0.833109599148208,-0.00126560346209195,0.503951535466031
94.395,-0.428777959735106,0.237845952044084,0.855875123414123,-0.244017313132382,-0.138595611439714,-0.0514476934094801,-0.983261806957411,-0.0395389053876478,-0.0767872609895819,-0.38461421484995,0.438452075554394,-0.0765032829174947,-0.982111336913987,-0.0234134398203173,-0.141892920695279,0.631576760647298,0.229328960898623,0.160321572434321,-1.06316453383152,0.131145274370373,0.202869918897402,-0.80439589901668,0.0100886166308613,0.497105068379839
94.4,-0.424877727236695,0.235557162406141,0.859420807434302,-0.233718182054346,-0.123141377616938,-0.0433721354994865,-0.98722162857884,-0.0575514344725051,-0.0893191414468447,-0.371975479787841,0.437763690948486,-0.0801012090368158,-0.979932834206292,-0.0221199939050062,-0.148841908612421,0.589624188584853,0.214275788714667,0.0874274041188842,-1.11004045183679,0.111386116893082,0.208229642235997,-0.779273065840757,0.0300678769531762,0.482546284797683
94.405,-0.421497304273267,0.23762744892975,0.864166740284593,-0.224508271075777,-0.109572276051984,-0.0312777820005094,-1.00151306980328,-0.0660301225477024,-0.0979365933910838,-0.332086219890358,0.430676051289652,-0.0860744000452366,-0.975603081403843,-0.0166172731267701,-0.159470752823492,0.520326973119354,0.21902754516685,0.0123189432566373,-1.13789876915294,0.0967987888856757,0.210990335857657,-0.769941820116073,0.0639319061438227,0.457090044461751
94.41,-0.429710589010702,0.233739841927827,0.86504503554842,-0.215712344376325,-0.0927610954295567,-0.0265242861142413,-1.00736377633685,-0.0644405034192191,-0.104528977003369,-0.289324984232924,0.435257379595648,-0.0895846248376315,-0.972883969993712,-0.0102656241479447,-0.170191872858081,0.391063910577147,0.283896973131849,-0.0465324988259979,-1.15044669735825,0.0846402368713276,0.203454286814699,-0.755936741828918,0.11579307410746,0.417761357906995
94.415,-0.43346716599783,0.236209549976839,0.861285195709942,-0.210303240318774,-0.0789252933635833,-0.0169102874197595,-1.02913454890946,-0.0592085969140711,-0.114529690546081,-0.232845438190862,0.421831436191112,-0.0956218775832841,-0.97685156451139,0.00127441716476657,-0.171050297422906,0.246017723847222,0.323588231294292,-0.0698698367102947,-1.16698913437159,0.0727069386344699,0.194877431613575,-0.752629888096185,0.150554581234014,0.370472759615504
94.42,-0.434961660351886,0.233199575926235,0.861405009047328,-0.200089974282665,-0.0745685804883891,-0.00849102412246168,-1.03835099609914,-0.055020306814859,-0.121590930518297,-0.200042528585528,0.425850948625185,-0.0996413904436192,-0.978013197697213,0.0121808074549632,-0.162812452833903,0.0366675294240445,0.376374630169598,-0.0686185496557005,-1.1699525923219,0.0754476468912997,0.188211028061937,-0.737731193953478,0.189056309511751,0.314977034123313
94.425,-0.435847308464617,0.234655770503731,0.858717696999228,-0.189207379318525,-0.0626462612924973,-0.00137231739007103,-1.04683404562225,-0.054798731927478,-0.119979396289561,-0.160563602456663,0.410141163352053,-0.0974063163349012,-0.972233910178378,0.0131251105173693,-0.145388185937163,-0.210846003280381,0.40936387545952,-0.0410994339663303,-1.16125794018866,0.079161426750505,0.18411329766386,-0.6996320772539,0.231317314439852,0.259235763814676
94.43,-0.432718622878685,0.231661990207084,0.858526450263614,-0.173081824338571,-0.0574649734032582,0.00275345185265166,-1.04278701717069,-0.0608205149029324,-0.116415227587037,-0.122542039260797,0.394250769069088,-0.0978338855657144,-0.971922043682804,-0.00424398262037247,-0.134859179725072,-0.454155355536958,0.417286003354307,-0.0098180683687193,-1.1499714014068,0.0823595700500441,0.179441841733535,-0.654338897686719,0.254003215696352,0.20715135556893
94.435,-0.428548231977255,0.221427183441234,0.861684647806173,-0.163496476253718,-0.0548624888397536,0.00632829420643241,-1.02812095162278,-0.0623989646245192,-0.107868844690785,-0.0958184894534446,0.379460562088103,-0.0993064611581896,-0.970298187151148,-0.0524996911402598,-0.143753751594074,-0.701572334077885,0.413223297531627,0.0128546354649376,-1.13360232843101,0.088708099044587,0.1762516025615,-0.598284204874207,0.275921439474851,0.148853169632088
94.44,-0.417173534576662,0.222218889522398,0.863974498875512,-0.142463987880321,-0.0520964275182016,0.0109203124836462,-1.02342673265247,-0.0692557970177522,-0.0978883131794626,-0.0728669166339682,0.363408078042526,-0.0930329105013103,-0.971653540539553,-0.10881025496725,-0.14884337184843,-0.853101106463029,0.394243082308132,-0.0131288335812268,-1.10496000441144,0.0979063782064932,0.169825706294,-0.548300716515581,0.297441578945791,0.0979499119748429
94.445,-0.413297736104532,0.222390828161202,0.8674223309193,-0.127268309799378,-0.0408559570502482,0.00893342676492401,-1.00946854205358,-0.0741591355257122,-0.0831950796092137,-0.0461431627137483,0.335004774567544,-0.0953754941175255,-0.975507866052757,-0.162283675860539,-0.142446045393367,-0.972890958711285,0.372236203250476,-0.0476408756493684,-1.08562696371242,0.105592290356101,0.174452932451159,-0.495395777858139,0.30165618078169,0.0415189901894153
94.45,-0.419177040741121,0.221502869339278,0.866187949888137,-0.102604501306978,-0.0362839870368505,0.01138009224087,-1.00706659778697,-0.0788752977343253,-0.0736413137888569,-0.0269590668957536,0.319528055243583,-0.0914914843059756,-0.97594717719459,-0.193700553438483,-0.137401051250429,-1.03675880201672,0.36423817898907,-0.104309016510993,-1.07294204124303,0.111137198990163,0.180391455925274,-0.442349803695305,0.304043397697775,-0.00644609869612251
94.455,-0.418053098309488,0.211757146626507,0.865727832417956,-0.0863170118452511,-0.0286543344492107,0.0160201008142309,-0.992297111155295,-0.0856906890491849,-0.0661028080888358,-0.0276754096645662,0.302538943653234,-0.0791872984457622,-0.97562906541665,-0.210425809287685,-0.125155972131265,-1.09521343363068,0.35518832065313,-0.177415984479433,-1.06002398349116,0.115048990991477,0.18670790576072,-0.391375132947876,0.300659177641341,-0.0584981477725819
94.46,-0.412767580360775,0.211278804296689,0.870225646981184,-0.0740323815602533,-0.0169570896882288,0.0186937395004124,-0.980592990397823,-0.0891782048186022,-0.0691161547725447,-0.0268472972214815,0.294795992082668,-0.067564732837918,-0.978381784820442,-0.213194775756455,-0.116022562952303,-1.12356148099481,0.347594532532645,-0.2377196227099,-1.04578559298418,0.117337468284721,0.192412658109323,-0.348977223521326,0.280410474657997,-0.0972901143642414
94.465,-0.411716239401358,0.215139779682083,0.867295240384283,-0.0532151457350956,-0.0100336900886874,0.0216088325593232,-0.985011208191408,-0.099446449722487,-0.0676864993089359,-0.0156197740668839,0.287017401846004,-0.0651297569274902,-0.982097124356278,-0.210437971918219,-0.0889184071548172,-1.14116485679544,0.349415922840586,-0.283432189196075,-1.0448506198199,0.122891199180433,0.202549211927048,-0.321204837319021,0.256832348002904,-0.132275582441097
94.47,-0.412508676678251,0.214372193036599,0.86855668212312,-0.0425711129610877,-0.00268712899375312,0.0257791640297157,-0.983525537838971,-0.0944406263178276,-0.0594176265506165,-0.00655899572898616,0.288099671819831,-0.0628310236074336,-0.97293774183593,-0.211458688631168,-0.0780127210439922,-1.14338677947829,0.33452958123388,-0.311187232910679,-1.02546579692182,0.118452671857443,0.211083102576265,-0.297017546713064,0.220141232091654,-0.156312784987852
94.475,-0.419688704967204,0.216070964405698,0.869118586800144,-0.0282044640060229,0.00813567117736718,0.0279234504414934,-0.988936053117565,-0.0823739660618939,-0.058081659641714,0.00443039133120335,0.280024547930493,-0.0571360362902039,-0.968920805146649,-0.209588964840879,-0.0669439339392553,-1.13722443216072,0.322628911664352,-0.329445753445603,-1.01346924182437,0.112864592962049,0.215495087420263,-0.277634596764758,0.17098490193776,-0.172234073631468
94.48,-0.421366980593528,0.220226497572078,0.86780551774639,-0.0139007208101509,0.0181348292378293,0.0275650462408729,-0.992892583854333,-0.0755040660133924,-0.0584496617979181,0.00976988859474659,0.285041111643253,-0.0423391571561422,-0.966179624806141,-0.209169414292807,-0.0639794813441146,-1.11418431876817,0.319309294223785,-0.332157091669304,-1.00213158806863,0.108857282108562,0.219192944785477,-0.258223016762478,0.104977553352779,-0.189176179553122
94.485,-0.421731325451749,0.218533440737738,0.863499023512842,-0.000624232587321758,0.0243562885550862,0.0357883007853189,-0.99756539464217,-0.0623947026664617,-0.0650664162684642,0.0172602654877158,0.263187330608544,-0.0432994658537184,-0.970101180050678,-0.20428691809097,-0.0497796316224635,-1.07679629681151,0.304804565298761,-0.328081274320758,-0.982124341929215,0.100049954966663,0.212403579278196,-0.243565296942792,0.0462232516930642,-0.204634662237601
94.49,-0.422219061592192,0.221268734848647,0.865498997462607,0.0103504139681892,0.0295763147959029,0.0346038610692364,-0.998867422382235,-0.0453983886083057,-0.0708586375127505,0.0232085287570953,0.273876806257835,-0.0348571536560792,-0.968149878645448,-0.20349846305835,-0.032894987442929,-1.03186604880417,0.299315272137964,-0.324617465401775,-0.97274938666292,0.0946177199148898,0.210755091475502,-0.224306796629007,-0.0153130715925241,-0.223402331540716
94.495,-0.421170889901862,0.223369871021292,0.862957441321126,0.019123284971506,0.040664876226471,0.0461461068797743,-0.998626849534585,-0.0378194447873923,-0.0740450011858524,0.0259208732691162,0.272183578466253,-0.0431230485260985,-0.975392679161576,-0.201550641238517,-0.0157132330003059,-0.956167912404512,0.27139453880427,-0.312861370929446,-0.959555902249624,0.0841683841366522,0.206264666224108,-0.193780415503284,-0.0822849387604119,-0.24911670514731
94.5,-0.425941699422315,0.23204136515944,0.858707718240884,0.0227659854553095,0.0550280161085876,0.0528430187933804,-0.999180226886542,-0.0297448316522183,-0.0688923190786554,0.021986110663451,0.294715166532912,-0.0440275969590686,-0.971136941053549,-0.205296965172759,-0.00272981914856216,-0.864957460296021,0.246488881977756,-0.293667036756283,-0.941368030565969,0.0773879433229025,0.198823205757849,-0.170182755302685,-0.123502189394819,-0.281125581289435
94.505,-0.425295277480681,0.22950310299926,0.854937899045595,0.0254193037608887,0.0633906826873151,0.0638590028108301,-1.00000564945784,-0.0256244612531703,-0.065550115569057,0.0197068658976482,0.299977817605086,-0.053901592862662,-0.968850129797467,-0.205304515389608,0.00824390618061945,-0.789382174695491,0.234918037559719,-0.268274596604652,-0.921622059856065,0.0704785544745344,0.191243061540051,-0.127745349574864,-0.166264372219284,-0.31975633443281
94.51,-0.420830401388997,0.232205620269463,0.859267516628594,0.0330291983276988,0.0638069063425064,0.0674621008052382,-0.993790414882064,-0.0238111003578425,-0.0585445830149536,0.0403027311774864,0.316238160128226,-0.0681318770340526,-0.965878672160548,-0.210634097238431,0.0114488892333091,-0.669055016030324,0.241830903962023,-0.226258283110521,-0.897256259565527,0.0678562578941497,0.188813018797322,-0.0861572739825887,-0.193270341063481,-0.348946941319173
94.515,-0.408291929834263,0.244371544568025,0.861646764829495,0.0382953572052886,0.0620844186328464,0.0641330655602968,-0.989087169922534,-0.0197918591302233,-0.0483667300794411,0.072293354657326,0.326911770108971,-0.0826067327714218,-0.961487415110199,-0.216549475891761,0.0140058722916363,-0.561351013804955,0.273820287051133,-0.182668113646575,-0.881448322549425,0.0706989977876109,0.190063034621709,-0.0507735353846313,-0.212766033384771,-0.370385974645615
94.52,-0.402659666525421,0.255705872414714,0.858531328992129,0.0383277712687727,0.055338990827695,0.0500733474668464,-0.984854056429444,-0.0068845047709411,-0.0339136693760443,0.118166004525513,0.35889866395121,-0.0966236631281996,-0.954796829449117,-0.221519275422671,0.0302615731772808,-0.436590972338837,0.322417507247212,-0.129846579009231,-0.874945322187211,0.0801705139404032,0.195355858698809,-0.0216358906667351,-0.235397683055307,-0.371210835491079
94.525,-0.395796215250135,0.254035614763091,0.858238002243611,0.0421013949590405,0.0505258314886967,0.03165568010794,-0.984801705904485,0.0153779531933524,-0.01908091913934,0.16218161370412,0.373013883829117,-0.107730641957417,-0.955354449578175,-0.220334544393209,0.0530419247087607,-0.305325387681597,0.363380472274266,-0.0772152817567148,-0.873201380848761,0.0781810562820104,0.208117081082137,-0.00489909236702908,-0.25813674998237,-0.370913255253928
94.53,-0.3992889946641,0.24913355702276,0.861185507694307,0.0427537472509604,0.0499293940615549,0.0128865374437291,-0.983873173974772,0.0383994669039602,-0.00790723966763266,0.206179488928667,0.377853467869293,-0.106299473259083,-0.95908697742793,-0.227517193950494,0.0785470352813933,-0.174663660152155,0.395073115785482,-0.0261451968826862,-0.87625066072837,0.0741371067707209,0.223722373140781,0.0154431087849548,-0.293613364899511,-0.378740599742669
94.535,-0.411420815915498,0.248486834859938,0.858137758170526,0.0571583261294071,0.0483078132622678,-0.00857713690140872,-0.987469623139543,0.0404664789572475,-0.00180994338056685,0.247405616661263,0.366677139448683,-0.107377888424214,-0.961763419714943,-0.233969876376201,0.108504670586646,-0.0230497205028937,0.422886469577929,0.0310100962680349,-0.881740314756347,0.0778203864053597,0.236149209099373,0.0232937268119046,-0.329247069419783,-0.409395655447927
94.54,-0.420545785335025,0.24991154952747,0.857883096248083,0.0615446764836468,0.0405675131321719,-0.0315152092572197,-0.990670757641952,0.0165407217583586,-0.0202783796356506,0.257054396484945,0.352445974905508,-0.109010316451779,-0.962107718329477,-0.241943279459728,0.12879870115991,0.103223717725707,0.444930996221703,0.0761623809702982,-0.87165472760047,0.07942130069042,0.245388843516825,0.0237366959541618,-0.351247000156068,-0.437691175217113
94.545,-0.414034939035628,0.247829947491353,0.855386938683898,0.0549080748780813,0.0391078313795564,-0.0380180594249811,-0.973866631413491,-0.0097673247399083,-0.039152351551993,0.270483819742767,0.366562604020446,-0.108382049563514,-0.964844817947339,-0.260923278708246,0.161300751833488,0.269442949526008,0.458994626608155,0.127148654871385,-0.883820391061258,0.075023039928611,0.257992627388481,0.0273492248318374,-0.388267170007397,-0.470071391960366
94.55,-0.404466989703594,0.242938518670096,0.854125560384201,0.0568210929632187,0.0347396762392806,-0.0428553442961752,-0.973526592916411,-0.0472386547308419,-0.0408912870297649,0.303621771736075,0.418854157629742,-0.120113646401249,-0.964988685032137,-0.259861439754664,0.186359163088353,0.429672062671843,0.464022816233096,0.172863782689857,-0.889885008804847,0.0770522030181047,0.267120279441297,0.0343046722179138,-0.407105483642703,-0.503992473824942
94.555,-0.39235620863188,0.24054740934167,0.861636594003014,0.0589652500393884,0.0310288960299821,-0.045831803772655,-0.966854569293863,-0.0675471131367186,-0.0195391915483743,0.369923944021615,0.466825873700475,-0.133927393243063,-0.964471739136924,-0.251679848819821,0.221242150373076,0.604173994786933,0.466281622995914,0.211709217431977,-0.890041605550914,0.0784386035832319,0.276178664021248,0.0430773937459746,-0.428861846268246,-0.543177270931506
94.56,-0.375093172277497,0.243405425438953,0.879117339337398,0.0643243354398826,0.0282046857636353,-0.0534537173649177,-0.971415435344694,-0.0673739902776521,0.00191266998188465,0.449449385471861,0.508674077923159,-0.14609201570141,-0.964916440693281,-0.235004951313625,0.238437304335892,0.77087142198843,0.470232049184079,0.244904815023526,-0.893891209266345,0.0775569513185297,0.272284948454918,0.066636140163086,-0.446130351058214,-0.576003060315124
94.565,-0.362404045169544,0.24556003145032,0.871782139934938,0.0793561881327241,0.0388087683958165,-0.0628047258694805,-0.977889805149292,-0.0382210272260977,0.00559622861817676,0.515521514143514,0.533045883871129,-0.159193834606582,-0.954310260318402,-0.188675472371726,0.241309008060627,0.981484677791376,0.486097021062831,0.275169235583539,-0.895989906989008,0.0768943257942864,0.278245990528529,0.0847521441582926,-0.456427258544588,-0.61482194211348
94.57,-0.377177846680176,0.261791198951133,0.865769542054466,0.0941254057525291,0.0636861665575723,-0.068864637886004,-0.987096235855879,-0.0147709065262535,0.00231672248396932,0.556086685875404,0.59148128897423,-0.16819083706388,-0.959030940419071,-0.149283784834909,0.25821074299885,1.18496311335522,0.506954521717908,0.295498494604508,-0.89672503893491,0.0726477521430427,0.273875272303143,0.118025404408276,-0.454690686147312,-0.645197072532096
94.575,-0.387329212708586,0.251192350817345,0.86954779715654,0.117416154527364,0.0840715057859956,-0.0660035924334779,-0.999836560299494,-0.0145934333297449,-0.00252558522916175,0.569343649607958,0.639554957582935,-0.17654974104161,-0.962329638744561,-0.0983770059594872,0.286014174508944,1.41269495749209,0.521431870312734,0.309553889785812,-0.908413255431512,0.0696009414375924,0.272010681442962,0.159965975299187,-0.451782454592058,-0.674753243092805
94.58,-0.389547202085119,0.231494544295188,0.881623722035481,0.147265489379518,0.12019982760831,-0.0579965526484163,-1.01861331394092,-0.0308718723019035,-0.0131898001180705,0.605924079538697,0.686767437982709,-0.197635735441244,-0.969626989739821,-0.0556733170613556,0.324819640540766,1.61878723313389,0.523573233822944,0.322676866801995,-0.924729109664241,0.0573431598710317,0.269597887115357,0.210902774657358,-0.457990356447546,-0.699872185451562
94.585,-0.393509226104901,0.226340488918812,0.891162344811728,0.174277300559231,0.154260891899009,-0.0406425720313576,-1.03603089155891,-0.0373035547143841,-0.0243421681517118,0.650195630294042,0.73657254226756,-0.229170132317054,-0.976884752978513,-0.0147945091074146,0.368698099314034,1.84553391266069,0.51520776888895,0.330023174147626,-0.949335499101723,0.0433337490021466,0.269699048227041,0.258470954919242,-0.483818252428883,-0.723151103109594
94.59,-0.395252773780935,0.257975213406605,0.875388818259039,0.194780742590735,0.182878215623383,-0.0294987631844157,-1.05328286954264,-0.00224610570934203,-0.0246727841492884,0.755481260930919,0.790563189998637,-0.285782746706577,-0.991762409067245,0.036784069449113,0.411124134171906,2.03540937167203,0.484861039487745,0.331925631028649,-0.980864490487683,0.0203516377321523,0.278273404563001,0.305672771570886,-0.526090523808969,-0.750307623545613
94.595,-0.399133054273314,0.291835188551576,0.855938917122079,0.192541013604414,0.208310773825117,-0.0308284976037349,-1.0608741793996,0.0347311030301551,0.00533971221509931,0.822702342949298,0.853856146889676,-0.326361884590002,-1.00588990621128,0.0668087442249586,0.419954796503829,2.11622036307061,0.449927363725115,0.325633721267691,-1.01511963450453,-0.00368826345447615,0.27652415298131,0.362339673734196,-0.597068286933571,-0.76854581980326
94.6,-0.411105873074838,0.298321035492362,0.845973048557405,0.191617722720426,0.227915181060103,-0.0446037105954539,-1.06042893306996,0.0834383997953649,0.0391888939489164,0.840598082124089,0.928743781361696,-0.371319037260176,-1.03250061223077,0.074612736895536,0.430304040868867,2.13602352699505,0.367861427289508,0.319024613248727,-1.06334143980359,-0.0310960136467077,0.256916890788795,0.432790149087938,-0.672748159680087,-0.779348970389406
94.605,-0.415652234657124,0.277861796475339,0.859905958114106,0.188658292079403,0.242015600181273,-0.0701560338744728,-1.04044263863955,0.0984991278998757,0.0556979463967802,0.741008444524336,0.989792315492433,-0.403805958453304,-1.05395734073464,0.0388594808421328,0.436848827607438,2.07716075651122,0.273635639255163,0.305351611218965,-1.12157264646026,-0.0591832622024743,0.222014399386481,0.506600349808494,-0.715200302080431,-0.794203099795117
94.61,-0.403176642770953,0.257236877437478,0.884618467628789,0.194400751534129,0.264999015392537,-0.0809968798786649,-1.00708395276548,0.0776892815786492,0.0624060654876297,0.593332045411902,1.04312791644132,-0.430177932260911,-1.09095954959234,-0.0291923377867263,0.45703530525828,1.99067655955816,0.144723898220517,0.301724505985378,-1.19533051513753,-0.0758357432192464,0.162553016601894,0.589059903085256,-0.711950479674623,-0.8366477274468
94.615,-0.387691916364706,0.249170550098942,0.893395759871573,0.207585442511135,0.297097768493253,-0.0920922660337544,-0.974018460331567,0.0168640573213431,0.0673883173592171,0.442725668247108,1.11532208105342,-0.447399339960497,-1.12668912474227,-0.0891890498894543,0.472228135112777,1.86614452571743,0.0120764837771551,0.301409244537354,-1.2984399463405,-0.0986351381261849,0.0636370780653986,0.711415913599975,-0.642727310780508,-0.879564287601003
94.62,-0.362300986534352,0.250585012071582,0.895416700828091,0.229267795206822,0.351241694564089,-0.097184903474096,-0.966199487098718,-0.0382647632201019,0.0749013558758307,0.374099002156065,1.18438793737685,-0.469033728158936,-1.18288580617175,-0.149343117403607,0.504481561893477,1.72552571214486,-0.200400866548055,0.288318039560602,-1.37491268049243,-0.128742067365531,-0.0232911137897827,0.772235226259032,-0.517529149013912,-0.917891594671113
94.625,-0.38171808402623,0.263082184082386,0.896355975801556,0.251857029472853,0.43945759519011,-0.0920004245824747,-0.975268564096617,-0.0761809818623107,0.0765720707965602,0.364405598503737,1.27050399222909,-0.483382445739681,-1.22428764785982,-0.187049599260001,0.529415169157741,1.6022962824209,-0.426131510821597,0.264843287857287,-1.40644755687269,-0.166705377157118,-0.0990479678643564,0.780110447191525,-0.316704692652104,-0.968639087051668
94.63,-0.393409031923844,0.280856444707605,0.901568651595078,0.261377333436142,0.52741866286362,-0.083912082016468,-0.994407207866809,-0.109833173132272,0.0750643448354675,0.370968506990171,1.3495609199475,-0.510286912095732,-1.26227740623145,-0.208531599949962,0.543945733565538,1.46215080888659,-0.667320461504266,0.231752545669364,-1.37601777060981,-0.203134424101892,-0.137481987812963,0.710844311603089,-0.153213194100427,-1.00738755807736
94.635,-0.380926786689251,0.29734438754393,0.909217887809137,0.271183913135075,0.625876446922267,-0.0922703861358616,-1.02589419342385,-0.121928324925386,0.0737911607026382,0.376681672898198,1.43573592899508,-0.534317562750489,-1.28907771187247,-0.221013149978415,0.5459567970159,1.38941541836955,-0.857455234919042,0.190293997764202,-1.3032250593557,-0.216568590965564,-0.162626801883136,0.604316058699735,-0.0389706093059594,-1.00843594899814
94.64,-0.358067354204583,0.300213839258562,0.921810997917026,0.280781053251953,0.710446854744205,-0.111543077565848,-1.06697443376909,-0.132121691604868,0.0761445259972431,0.373154224600152,1.51691510019561,-0.53828624699975,-1.2848234032034,-0.236360927944468,0.530339371023904,1.34916357089634,-1.0519825926952,0.131542089373971,-1.20377549493963,-0.218219983188969,-0.181581332907996,0.453000436416021,0.0450563459977554,-0.960103306107956
94.645,-0.364820910986984,0.271362870078483,0.940238375350189,0.311792660984706,0.828682590387077,-0.146843309447816,-1.12801882212895,-0.161952753501936,0.066443206684976,0.360568165713784,1.61221932553769,-0.533563628825428,-1.27221258984413,-0.254015666391417,0.500973830921772,1.34870850973487,-1.17092425681967,0.0779689647392099,-1.11977148815588,-0.194714373325003,-0.206461025794965,0.251604976556408,0.108595279358682,-0.866617261204807
94.65,-0.369446333207852,0.247165018743268,0.954918807092007,0.344527118494809,0.931882316485857,-0.17248191415487,-1.17662866318769,-0.185890906157594,0.0541163373585755,0.40184462344948,1.68715686072755,-0.517897217770098,-1.24076598884863,-0.277271910170829,0.488141219100339,1.35690668589842,-1.20347634863313,0.0296352425509296,-1.04467057332361,-0.188398486359553,-0.218896682645678,0.0798339920669001,0.174287914515171,-0.77325404831605
94.655,-0.360012407636174,0.221588102855713,0.979717250294975,0.378786351437623,1.06105131463304,-0.202766594438274,-1.23292324236468,-0.210568511697865,0.0388305902596066,0.506761868856127,1.77823760492144,-0.505947675346603,-1.20631714287897,-0.300052202996224,0.481948949194978,1.3365891886379,-1.16442746557154,-0.0110827104216736,-0.990873943193536,-0.185070630846232,-0.222173425014079,-0.0891812847600806,0.24712953147148,-0.69116755080035
94.66,-0.338941349920393,0.233721852027369,1.01700765784575,0.416170845399676,1.19302590825262,-0.232874592056241,-1.28200880792341,-0.217624387828452,0.0172132927547059,0.614107672150691,1.82399209452425,-0.499411308373126,-1.17969197117014,-0.302959784880026,0.493856101871508,1.3221072308152,-1.07708120867382,-0.0341504488394111,-0.955875679138978,-0.190214894124732,-0.205806788819443,-0.263389815479823,0.341929023984515,-0.615052171371171
94.665,-0.258171026931602,0.317457823659639,1.02744809805072,0.456730157921371,1.33843774629084,-0.27447341143656,-1.34147123502557,-0.204135168712377,-0.0102626621736491,0.748237596750462,1.86433050237498,-0.495555808141481,-1.17559185226193,-0.313305117769787,0.501083341940603,1.28044047170215,-0.935587470349053,-0.0724561264802716,-0.94607773044026,-0.182950139739527,-0.166797741236397,-0.364683525416896,0.420886114433652,-0.576591547495454
94.67,-0.344427567496166,0.258199459744562,1.00705522320173,0.488402693802225,1.50372706262182,-0.345588923997176,-1.3960050571593,-0.206038400441885,-0.0240405313378707,0.840589990476649,1.89123642997045,-0.501658822367394,-1.17640477086568,-0.328874979556101,0.480657466370323,1.22476039724273,-0.78894079332732,-0.107242147882886,-0.946448658719451,-0.169075737701952,-0.103329364814741,-0.389097009358678,0.518963889255449,-0.565783561633338
94.675,-0.372221136400277,0.326854437921098,1.0175420319621,0.549283557090487,1.7042364160771,-0.395543315404239,-1.46060393827944,-0.231580169810244,-0.0673174244139768,0.904803340935453,1.92352495514194,-0.524845017588568,-1.16970841520917,-0.353373731738435,0.428111126698221,1.09805662485375,-0.582345164437237,-0.145588372169701,-0.950626648113548,-0.142541970540297,-0.0334493390286371,-0.329923857508211,0.583949797336478,-0.588694747533781
94.68,-0.412596473779433,0.311207984431491,0.982333693674062,0.503126359439466,1.90585926021555,-0.374165784602584,-1.51637280009482,-0.264147214726564,-0.0853963802379649,0.96207348898259,1.89653272306434,-0.559280832584543,-1.16207238044778,-0.382487324221665,0.377071910865757,0.97999255573469,-0.414730064541335,-0.206267979313769,-0.945830757265618,-0.117518729749317,0.0560916170239689,-0.207284001329284,0.641873209915552,-0.627808798404728
94.685,-0.40481993028305,0.308514725131216,0.970953976658044,0.510920806754936,2.04850129225821,-0.338856833118908,-1.5482469613156,-0.282424344535699,-0.117541558084084,1.02610054272023,1.86556698876372,-0.581012626510373,-1.16974021276451,-0.468552183378503,0.295607241690735,0.828540966563586,-0.188029319047582,-0.248428763296103,-0.950988392015543,-0.0962706627414194,0.14841340965902,-0.0384802867320672,0.647522287642587,-0.670087923778813
94.69,-0.412316214793586,0.38010169064382,0.966676576804079,0.52292857951166,2.18773072912273,-0.371050598033938,-1.53115201977002,-0.256700004006892,-0.141521114729777,1.06879680505568,1.80024397225882,-0.579536707383258,-1.1728058118316,-0.529115786391029,0.214573158330976,0.680178757998623,-0.0108509277590102,-0.256167276427838,-0.961109248822682,-0.0840363490751636,0.229123276494825,0.123090774582231,0.628251976430282,-0.715009117261319
94.695,-0.411973017014852,0.426717899408965,0.947149640587926,0.509444989976663,2.31253282761828,-0.452372368749687,-1.5032488682499,-0.231735476124806,-0.137592918351917,1.07870179384048,1.70636019375811,-0.547136808626916,-1.21173248042519,-0.529859561765574,0.0595009685725912,0.568357674136504,0.161514591460022,-0.269829382976642,-0.967463201465118,-0.0720204140958447,0.309361619439837,0.329375581421161,0.56781364727482,-0.748248934562835
94.7,-0.417827191898334,0.425559503728611,0.935247555495385,0.460773361036808,2.44341869197577,-0.57557704322788,-1.45263912407189,-0.230261766189022,-0.128872589358468,1.00583313744256,1.64135762115659,-0.503680605855826,-1.24753578769961,-0.538651918531462,-0.0511839554203579,0.605324323917258,0.240581328522499,-0.324145911639536,-0.973501633048655,-0.0690908333907315,0.35859319089013,0.482412040851592,0.487602913017518,-0.75679714916719
94.705,-0.472384954373149,0.370942170932723,0.902860501030297,0.426017212578126,2.55231366159911,-0.650130194386384,-1.40156480725832,-0.225284985757156,-0.124326549950595,0.926086913193952,1.57264886464547,-0.485922836464913,-1.28659510569411,-0.512475939445173,-0.128493147473486,0.666893771269612,0.27229637482526,-0.35358080272769,-0.981505589385361,-0.072104001176082,0.390211480224091,0.632771693297334,0.361556350981885,-0.742598073269351
94.71,-0.543267307440277,0.345604304646224,0.865956641056981,0.384715347728235,2.67574222674087,-0.772033556567727,-1.33256244706583,-0.201172907260784,-0.128475092353389,0.894393944642782,1.51418829077881,-0.480319098728907,-1.32045273381504,-0.449826591052564,-0.227731688620549,0.789089326163077,0.223214058500177,-0.367405862068682,-0.984845447750563,-0.0765449067165272,0.395830761111376,0.711346960369127,0.243926249896789,-0.710283099934579
94.715,-0.605913682369168,0.343039871731063,0.841378658329229,0.342584005272504,2.76338470717561,-0.91288450645208,-1.25554171503541,-0.156282965850228,-0.143498609265969,0.864557718824909,1.47698880440647,-0.448697287886173,-1.3376934934453,-0.383770589330816,-0.311757919844926,0.944460110420731,0.134239447962684,-0.368221609496121,-0.989509305361239,-0.0879860500371263,0.391239679264526,0.747134266142028,0.117962925147318,-0.665234244538745
94.72,-0.643611166690694,0.353933714949121,0.812736925983652,0.306952913000137,2.85291259275713,-1.09666687031152,-1.18648603217195,-0.11317840827152,-0.165761738596742,0.84288406675302,1.42255594924534,-0.391428673069291,-1.33827691291816,-0.306074805586309,-0.331294330397416,1.09220311730301,-0.0432419004485034,-0.369206924620383,-1.00012175269552,-0.0934031828704796,0.360259025457534,0.719299210216706,-0.040813217645385,-0.591616377148769
94.725,-0.682902541380594,0.383977176559926,0.801596640408085,0.219178287251856,2.90780624483127,-1.20316364221955,-1.14434043362281,-0.10144682404517,-0.216625674284129,0.811592676369934,1.38055170458529,-0.331904529223182,-1.3140917135706,-0.26333284599825,-0.30084281117871,1.2086880077137,-0.277312581548478,-0.364662071656072,-1.00669370354907,-0.0937323896358528,0.315644952233656,0.648811818459566,-0.147697644551275,-0.527718409709697
94.73,-0.720663467717211,0.437126576597865,0.786880066309094,0.0265781137000892,2.98532507141804,-1.2478474527577,-1.11059487194058,-0.124548631840122,-0.304604342697299,0.716686427941537,1.37210941592901,-0.300288081168084,-1.30623436722798,-0.225781737012818,-0.311978719394666,1.22868073885079,-0.468903293172105,-0.34712888401406,-1.0063577680989,-0.0867158544654727,0.265954642162144,0.528190449781428,-0.265273752619886,-0.457563690070604
94.735,-0.710296078893368,0.421830640740165,0.77549445227121,-0.117117640429332,3.04446199257286,-1.22362815541652,-1.1078655233688,-0.149961449254718,-0.341554855221803,0.588337806886957,1.42686188258343,-0.291330085775724,-1.25557201807412,-0.199463824169158,-0.300534189853319,1.24805558860778,-0.675968503638736,-0.319402665642682,-0.995768026871023,-0.0707710582173775,0.216127927385657,0.405484383202706,-0.324095454955517,-0.40198049084447
94.74,-0.698794499270745,0.410746548439116,0.785377186280636,-0.230405762116485,3.10591289919314,-1.18986463120568,-1.06612620986846,-0.109596264992997,-0.326707416669367,0.532087201827417,1.4409201578173,-0.296820278637008,-1.20281382736171,-0.179659024320593,-0.305637909405277,1.28435926577459,-0.839545466901898,-0.306445922898087,-0.983214787137805,-0.0480033510879601,0.177840510391416,0.295821169847757,-0.348739649184545,-0.361834430058795
94.745,-0.690154390445729,0.3973074046321,0.772471219444408,-0.337513344783658,3.15470309329938,-1.12697064946747,-1.05319200369383,-0.085470931776722,-0.312686034086189,0.497673064672169,1.42798370549592,-0.290008270502613,-1.13328926033595,-0.154622055176518,-0.324403629571005,1.31113173389524,-0.955969389331708,-0.293631322381413,-0.961256222322427,-0.0257341367762617,0.150716455481988,0.223157633791885,-0.338088041137406,-0.33357334772083
94.75,-0.681601355954262,0.367616253393751,0.7594523228218,-0.316279269695911,3.22349256261358,-1.05475953858257,-1.00665351743452,-0.0579733667602245,-0.34479279255358,0.330234749259629,1.40996151148336,-0.292534348997472,-1.07754475868097,-0.115980769543243,-0.323614813138394,1.29417929034837,-1.03535882314322,-0.274213454566622,-0.94920055228878,-0.0170119258739309,0.127821039428475,0.201671922858605,-0.309375847603615,-0.327626645565033
94.755,-0.671805035616453,0.375937118961173,0.780474248700797,-0.307239298456634,3.26464653015137,-0.967734579942354,-0.978884291316745,-0.0464664916115027,-0.352611368211058,0.136245878944568,1.39958065310886,-0.302864804687561,-1.0291402990417,-0.0809076559529225,-0.31906165895053,1.22900405908554,-1.08886756259266,-0.236007058878793,-0.940027312869665,-0.0110695925104312,0.107518658933957,0.234189994369694,-0.265077609070276,-0.331210425909172
94.76,-0.657355787096696,0.338668950319229,0.797965821161693,-0.291882865794349,3.26415269679583,-0.885267436788042,-0.947306038609186,-0.0461958868594334,-0.312792491016988,-0.0604431440979113,1.38448288661126,-0.320545654843279,-0.979422184637895,-0.0554908150164967,-0.33792618217067,1.12950424509675,-1.07682850376214,-0.210543759888599,-0.937221652949418,-0.0124403029111539,0.103050291917208,0.285823445167472,-0.215432292641504,-0.356768284136414
94.765,-0.634971593352752,0.289270859011835,0.833625536442135,-0.221533363547367,3.23285298324844,-0.81721204349681,-0.924649643005221,-0.0441750780315185,-0.296532957245737,-0.236911238889315,1.327813047337,-0.332426405856049,-0.940083591078505,-0.0410569467027028,-0.365696590812557,1.01648153169195,-1.02273932621116,-0.178812964436658,-0.941574346934135,-0.0222338582335714,0.0963869367143849,0.354949536126721,-0.167408686459614,-0.392800835336093
94.77,-0.635613984075976,0.256570405403308,0.866409908628091,-0.106581332521722,3.14849652108476,-0.765036977279904,-0.891756198521305,-0.0438478479596308,-0.303562644309654,-0.437211500291168,1.24777312984223,-0.340373561462583,-0.920725813378638,-0.0333696137583733,-0.390822893285748,0.896952444087797,-0.975820596108541,-0.155484780365529,-0.954930091120144,-0.0317113656728887,0.0881074005979555,0.424103269964405,-0.128064758647137,-0.418092357101014
94.775,-0.652367682509507,0.278239913761898,0.872672069488594,0.00455744805326007,3.04075524566719,-0.742310950976937,-0.855888946886876,-0.0496858990836776,-0.309791167641504,-0.554356232100449,1.18177249831363,-0.338865896965216,-0.908101522749792,-0.0458264795633417,-0.420675188905175,0.729493080843721,-0.913732386258958,-0.141053884445276,-0.98391173801026,-0.0411354683908039,0.083837044082982,0.518882965726498,-0.0832863840477619,-0.444593451574688
94.78,-0.647669120497451,0.290161672183988,0.866309086807946,0.0891256911512169,2.93128464500187,-0.706225419368069,-0.814968595683308,-0.0817950413103731,-0.318658140332842,-0.741684176226774,1.11504828743328,-0.341699750833048,-0.903358540780421,-0.048877007188889,-0.439102892270518,0.565846235427908,-0.859978165804381,-0.117258331930497,-1.00101488211403,-0.0658062327518535,0.0658272414738735,0.589946550133314,-0.0549101494972657,-0.458142243040354
94.785,-0.635075312491955,0.309594626900849,0.886718759083117,0.169428017187935,2.75726391419086,-0.627781279703193,-0.785313628390076,-0.108732116544823,-0.338306191754357,-0.923405069991776,1.04699469925408,-0.341225597093328,-0.898666743649098,-0.0511364518230819,-0.463125460184655,0.373376144328466,-0.78004607486447,-0.0915491075164163,-1.03037508147844,-0.0891620527245494,0.054683513785135,0.660988453006794,-0.0309061649979894,-0.463346804954459
94.79,-0.631332686073067,0.323991607780617,0.904196421740662,0.183113573801745,2.56497660890554,-0.544165730506589,-0.747348494915445,-0.129661684677947,-0.361684786678807,-1.07057117287651,0.971915013406661,-0.341486727951563,-0.897388330363206,-0.0519170409564856,-0.484058979053499,0.198794301331133,-0.718546289562356,-0.0745118172996668,-1.0516864165047,-0.109655899396966,0.0943238302551608,0.718513607883241,-0.0133572341079481,-0.448574099766412
94.795,-0.635018898645086,0.357290259853425,0.96715276063716,0.0896425702126961,2.35041054015976,-0.451424527140888,-0.711487500152366,-0.143884653026093,-0.373582765150407,-1.13242886004818,0.922297637543629,-0.322714365226082,-0.900896858860994,-0.0558400935854006,-0.490310028965416,0.0391481817625238,-0.678412673395873,-0.0553693891435476,-1.07623811530992,-0.132281277134499,0.113798090816267,0.764390168976401,-0.00524981776285928,-0.421773193477997
94.8,-0.628479654076454,0.415297534105975,1.26177785680317,-0.0592517985964945,1.98393245198158,-0.299355036777912,-0.687379031258719,-0.149873989998953,-0.37307215053607,-1.17216943553075,0.839844422766791,-0.31237196281089,-0.901462806829058,-0.0719317788930197,-0.495349938157912,-0.145428503427899,-0.65546504893972,-0.0275222618314114,-1.09007281262636,-0.158447170253556,0.134094539550493,0.793523482239141,-0.00799390862443477,-0.381533395803409
94.805,-0.534902762414615,0.662087282234889,1.40739305555718,-0.00889136044928621,1.46834115175563,-0.0668356812930254,-0.667079708252068,-0.18334331371467,-0.273939831360183,-1.15842253368275,0.75583879607147,-0.294313567818513,-0.91156865994605,-0.0883433322602867,-0.487173756353343,-0.322260747462597,-0.66954056464226,-0.0100368429538667,-1.09461568310576,-0.175836010234149,0.158587204361306,0.78107630691305,-0.0142584894419112,-0.342800087847863
94.81,-0.425503779189363,0.849938649217654,1.15680910943718,-0.010885982813067,0.920104656605936,0.298911009700568,-0.669526952940602,-0.18062783017138,-0.214430386881989,-1.16062780951273,0.643569148962355,-0.296444188235676,-0.913136596733356,-0.104005443062035,-0.475789740638888,-0.44845371391319,-0.702161906952839,-0.00118320003163261,-1.0938855346052,-0.180892357851465,0.179884041274626,0.746548093742611,-0.00286498013502182,-0.301838121360189
94.815,-0.378517551561133,0.746823095190277,1.05700536820167,-0.293630420845568,0.668918433451619,0.680485664370201,-0.688787935800325,-0.145505354738245,-0.221448361228737,-1.1909954474039,0.495617883754928,-0.273619857519911,-0.917078114035766,-0.117861669684514,-0.463511787885291,-0.552493729018791,-0.747903217070294,-0.00218878267244257,-1.0826530168165,-0.179699927110843,0.202832440126477,0.686793072174694,-0.00563319454386439,-0.266468861592081
94.82,-0.320983002127267,0.576285757272578,1.01744063416223,-0.440527170131201,0.449103693886443,0.997654693122245,-0.695711692812636,-0.123838013627139,-0.230515288669675,-1.10441442104324,0.381652300254184,-0.24467501757756,-0.918218845925697,-0.125179719917489,-0.457512322161067,-0.627392926111346,-0.792024052982052,-0.0266701157656966,-1.06099489388638,-0.178408062485913,0.225100101318309,0.591369448217297,-0.00273759100911936,-0.22422370624991
94.825,-0.215766844771483,0.370834821971205,0.944618308028011,-0.451011596638155,0.169083868990701,1.16849359950089,-0.689574778792336,-0.125556487670315,-0.133671023420471,-0.892439204196066,0.256821347575378,-0.191159345722314,-0.913944892759335,-0.1327547120015,-0.456625683395109,-0.666226380289707,-0.814473420954907,-0.0631968226360825,-1.04744943546755,-0.168910196725786,0.23857345525807,0.488640164966388,0.0147353585063504,-0.177036591247731
94.83,-0.0324192589052956,0.159022027834664,0.783785003179925,-0.404207010531798,0.0062774872660933,1.13944213913969,-0.696260148419988,-0.118670078603322,-0.0361813267889059,-0.815640322542049,0.124370618791346,-0.161199925944173,-0.910328855374701,-0.124324950769395,-0.448412003002438,-0.685260153120794,-0.809136328767406,-0.104822812629583,-1.02597731239403,-0.155473783605188,0.248870672449964,0.393723824752138,0.00164226442575455,-0.128463929587346
94.835,0.0288815283689565,0.110678484520834,0.710453481132211,-0.286081055910572,-0.013358630652789,1.05584752233611,-0.708134931527015,-0.0946306564385746,-0.0261008398849981,-0.85013819640838,-0.0677526090558308,-0.143207798620359,-0.909248481957107,-0.122579999082979,-0.456982638666865,-0.703824601867324,-0.77575340076105,-0.152806469405163,-1.01204243530548,-0.140361070713266,0.25483421323061,0.316857328678053,0.000559872793379066,-0.0961190090143872
94.84,-0.035461690152697,0.155910587875663,0.744656116891826,-0.233380202979357,-0.0095864327710635,1.03790736416914,-0.69996900034374,-0.079557215670797,-0.0676155627552131,-0.900339441519653,-0.216725043729061,-0.117916670907682,-0.908289823806863,-0.118754364339566,-0.453489109685626,-0.718034186129665,-0.727052411632423,-0.188548694307987,-1.00100374483736,-0.125639240558699,0.259828847511129,0.239996136566664,-0.00381293696595716,-0.0676319830042775
