Header,foot_Accel_X,foot_Accel_Y,foot_Accel_Z,foot_Gyro_X,foot_Gyro_Y,foot_Gyro_Z,shank_Accel_X,shank_Accel_Y,shank_Accel_Z,shank_Gyro_X,shank_Gyro_Y,shank_Gyro_Z,thigh_Accel_X,thigh_Accel_Y,thigh_Accel_Z,thigh_Gyro_X,thigh_Gyro_Y,thigh_Gyro_Z,trunk_Accel_X,trunk_Accel_Y,trunk_Accel_Z,trunk_Gyro_X,trunk_Gyro_Y,trunk_Gyro_Z
29.725,-1.60716863396188,-0.261453346097719,-0.242155126520694,-0.914795266847381,0.892874934571916,1.38896334356515,-0.952372119170155,-0.558469796757234,-0.810999506835696,-2.40185817642263,-0.219174554242824,0.0454251575877301,-0.625161416522695,0.196816476086131,0.84337232481318,-0.104168397527607,1.70133055527181,0.211322626330051,-0.987678018655067,0.0213701753603818,0.460683309388663,0.893932636785713,0.0367878208143622,0.232592999464299
29.73,-1.55109929958574,-0.0185024680297387,-0.166267523747145,-1.00903856527754,1.34102444290137,1.45998992521345,-0.909933187346496,-0.549053619920393,-0.77577549547595,-2.39083233814062,0.0151674146887307,-0.00895759705661397,-0.74748222076332,0.160178347872814,0.786487161918891,-0.524316831607702,2.14279938803131,0.154835764360531,-0.988838703620935,0.104160583648298,0.455494210568493,0.91125238580801,0.0790554829225734,0.239565982447561
29.735,-1.65557466097274,-0.0185195639562539,-0.197440373530504,-1.31918091240897,1.64940164698876,1.42213010000102,-0.872980000753373,-0.523221167452279,-0.717933701853344,-2.32677753436504,0.21935270196356,-0.0635152968245929,-0.860949724128391,0.122955330666152,0.736623082035494,-0.869891566041092,2.44655553426253,0.0877015091398584,-0.990581207054594,0.13662617767982,0.434151846395753,0.939649274819566,0.143848089417727,0.253876517507898
29.74,-1.71757036376378,0.164218826174215,-0.0164566439722462,-1.88717061294752,2.05448414097597,1.46308892861584,-0.850944347350227,-0.506884857918086,-0.618031370608481,-2.16935685851395,0.435127596531336,-0.159083881452689,-1.00675599855434,0.0773105336709484,0.70383916245713,-1.03368050518749,2.46370078022522,0.0295262329308329,-0.992106538087506,0.161366202727217,0.420947921623979,0.954244085283467,0.184319856196502,0.274606260277193
29.745,-1.67450689488337,0.602406023395782,0.375560155286524,-3.18208942644167,2.55993103975715,1.48782383397563,-0.857902147952625,-0.529887863088597,-0.387492572476886,-1.93767848328762,0.5580014606979,-0.27001900763514,-1.15809161331613,0.0204919489907032,0.713273723277302,-1.14061775530879,2.29913988418265,-0.0700573472963424,-0.990691831237599,0.190944514301428,0.399272909543765,0.977983552230088,0.210201521071346,0.310200017839024
29.75,-1.41316020928358,0.717829132630669,0.788204571667684,-5.5716741050763,3.01980625281949,1.55019961263098,-0.930118556975188,-0.533516367688713,0.0402339407517208,-1.519449164016,0.597767439760024,-0.426785601212549,-1.25935625834636,-0.0241274015500335,0.764463676651072,-1.15334300855249,1.97633308422915,-0.195716587187658,-0.971298839350124,0.209706129454328,0.384030901854302,0.982168829460817,0.22162041598045,0.350998917308059
29.755,0.346423782308191,-0.0708939258112931,1.33170071850905,-7.33488463273975,3.54844439253636,1.438622714737,-1.19860423389902,-0.432373041195547,0.911355001408357,-0.659975912094513,0.497768891573912,-0.481399292755348,-1.32610116184711,0.0625779610460779,0.986253853431122,-0.954827070442307,1.56618902749666,-0.326922376122411,-0.954503636995825,0.224250708081574,0.365484069718512,0.968637287937089,0.224662807754671,0.37802650911733
29.76,1.42105738320039,-0.677160957264608,2.55588105834972,-6.88144144888194,3.71329443627107,0.766570853039423,-1.63966013373482,-0.106497187172685,2.32591816542702,0.874394971782525,0.237855102458367,-0.391304831125188,-1.38455511622816,0.212707418382037,1.1566597983,-0.69380432231397,1.36425499962501,-0.353851153114226,-0.964438669446173,0.241534475206441,0.349781871230321,0.968670198336475,0.211776440386762,0.455362888423765
29.765,2.14497836649729,-1.0062351416977,3.75133939484106,-5.72339436779927,3.33044491486879,-0.361442348124007,-2.33551759986544,1.03445201903678,2.77590074072945,-0.0246311015210576,-0.0510268176970727,-0.118843628104862,-1.62938403147968,0.493842894809592,0.896022389721838,-0.91010022136108,1.58604908681665,-0.313300849981258,-0.971581339486827,0.255427450726824,0.325468346412418,0.97656127792057,0.186934282945208,0.56379471271916
29.77,1.41128559180202,-1.81701420182668,3.21171382961793,-4.28320402032309,1.96431201515564,-1.36692531038411,-2.62287739605309,1.67705596905393,1.47784002835505,-3.91707139588427,-0.0598286356371222,0.087572332651541,-1.99197962001579,0.700876720446087,0.384528366736221,-1.48869135586379,2.15139388928972,-0.264790077600945,-0.965566721869124,0.270232103436064,0.308450657712274,0.972917557286265,0.169483979487691,0.649863608492055
29.775,-0.16373756844584,-2.31757275417352,2.28530291485851,-2.62123358192359,1.08393736431457,-1.89056368259133,-2.26825111884129,0.975240711079705,0.783412677336506,-5.77942869046652,0.285432383401427,-0.186628005263549,-2.20174755037567,0.693029128203927,0.0576469385244497,-2.2685269130733,2.55596006813476,-0.253559512442699,-0.979570546758109,0.269217532889689,0.284628146466985,0.888354822193027,0.152343026131011,0.735432143381144
29.78,-1.38967554899872,-1.78386922450169,1.22762939559922,-1.61938101226892,0.567950842772831,-2.48047403205229,-1.50796783198738,0.0371586866448681,0.27364077506671,-7.49092943311388,0.62837589894012,-0.523231889273038,-2.07804179503922,0.411989120233091,0.435981243587546,-2.8996579092177,2.002976422559,-0.222676664979306,-1.00574972581316,0.264033201036259,0.281502550112915,0.795334508680654,0.154183918334189,0.781251521381704
29.785,-1.69298888784638,-1.07708734048281,0.452052315948585,-1.34855107456125,0.712097392415501,-2.72009339065962,-0.928650152901015,-0.595646538255426,-0.212432189564491,-8.18755758936314,0.819218246247184,-0.450717382097317,-1.841537703558,-0.125212622564118,1.05801083076409,-3.68462897153159,0.735366255727124,-0.237448220505697,-1.05694765173927,0.249068786946688,0.291714368090123,0.667883586130543,0.176665102372299,0.821259956871682
29.79,-1.25198707912701,-0.039722723427197,0.361462341313613,-1.66949199091352,1.42042467291923,-2.57118702385097,-0.480722005954364,-1.51510249464876,-0.745444645945496,-7.77042995645877,1.11364090243095,-0.511383920411772,-1.60838144815564,-0.805761234059382,1.36084316929713,-5.20767815636346,-0.736996269805322,-0.33194099989809,-1.15371731561268,0.20840845554246,0.302353146964685,0.49535674634812,0.212640118660833,0.847722257290823
29.795,-1.41396044147264,1.09160473872377,0.827545411881254,-2.52572911673078,1.89779903249786,-2.03237109908242,-0.504106667101079,-1.89468712828893,-0.913245273817281,-6.52052523614596,1.27664384429855,-0.705919259137041,-1.37209109458933,-1.38757956513159,1.05113144171699,-6.12557647991514,-1.08713750067506,-0.346365245596225,-1.24013997555445,0.147862774392218,0.279180339741565,0.369026544995406,0.24697914107063,0.848088111180917
29.8,-1.74878580331052,1.43673437323131,1.10505428302464,-2.82086134934527,1.57703200564483,-1.44863506732678,-0.787177621166722,-1.65746251778014,-0.877561051243773,-4.95198611234533,1.42129401574067,-0.865405929217672,-1.18830998911134,-1.49718556369306,0.66194757193693,-6.50528978276465,-0.965436562314552,-0.201220079275509,-1.34896702165603,0.0571318315083882,0.23991752470618,0.244418071803248,0.30217767626573,0.840816431399053
29.805,-1.72275488091133,1.25947917043302,1.12392968647041,-3.04781477244974,0.852843536354158,-0.847307238619925,-1.18632307311527,-0.965180763257732,-0.549657950478038,-2.7317173345908,1.55044031546465,-0.96693959053417,-1.0265484093873,-1.40743010032394,0.373444327711392,-6.15130815916485,-0.737554705661264,0.111599663750057,-1.41805555014707,0.00326841598804098,0.199281015291651,0.139536875397054,0.345834701169925,0.861071823702296
29.81,-1.22881773472129,0.834730812399097,1.0189724886356,-3.02921625399072,0.360318124790814,-0.356181000312752,-1.2179260087674,-0.374331458905573,-0.32925099671482,-0.868905316050302,1.63271549770939,-0.903035187481153,-0.950848333999693,-1.26200011707701,0.28461569851212,-5.47562890338412,-0.596568446068203,0.415798191517259,-0.0419376192915226,-0.00171488589914328,0.00507400991719284,0.00140332989299136,0.00991207537603528,0.0283880777697694
29.815,-0.73743967505036,0.429146982652337,0.98988198882662,-2.42417841013542,0.230174940957767,0.111477679900379,-1.08688953831709,0.0237621981212436,-0.240020997045869,0.239893470963912,1.80054917175566,-0.673460665350869,-0.87411373194677,-1.08587155183842,0.13817216918916,-4.79298601068611,-0.365907291152435,0.585762126147827,-1.39200164843545,-0.0832061404217322,0.139548376367788,0.0165129228652231,0.279430080663654,0.922824053281662
29.82,-0.543573980311597,0.0192203214093625,1.07705679431291,-2.01687561769777,0.289474355292925,0.253863107693963,-1.0506379504089,0.283186888462089,-0.169201571532389,0.908499767451524,1.94944599971703,-0.385715783048607,-0.716554151109511,-0.865775095945567,-0.0725990038742173,-3.98395081382525,0.0417655623838434,0.574041849342905,-1.32476695362089,-0.0992234351872451,0.127248421111836,-0.00666662716609625,0.174799954675799,0.964896930551881
29.825,-0.536134068831511,-0.472433186010049,1.25386365791239,-1.52343764139215,0.25285799463416,0.154671524282623,-1.03864478357543,0.272082023526564,-0.139378048634689,1.05568539712982,1.98411522338678,-0.119032328180492,-0.575795832366436,-0.689781249726285,-0.227418765434879,-3.22308887361867,0.434344316589839,0.47207740180157,-0.283110682136687,-0.0206499017854216,0.0304613677511505,-0.000112382787656745,0.0325533372388752,0.215666842407651
29.83,-0.560647730454013,-0.73445898265057,1.28203226425106,-0.908825667777714,-0.0292861660387833,-0.104010326464875,-0.929040457512153,0.0561394229965905,-0.182403499948605,1.13879609989782,1.93919067964856,0.00438988992522492,-0.440588527811713,-0.516701828781454,-0.350815783956723,-2.41029610167295,0.785484240012416,0.291530071250771,-1.24011935892255,-0.122413172731189,0.14453223068442,0.0312951784974781,0.0136095351052104,0.912784475557615
29.835,-0.539679273171815,-0.352095946666982,1.05266557645844,-0.222304096802082,-0.34492410783182,-0.357964818069218,-0.881143629500193,-0.106122684602009,-0.284145362343697,1.27879801139974,1.92241453154412,-0.0692131318978378,-0.433809899297104,-0.476280587165977,-0.544973202189275,-1.93564918970151,0.887124738221683,0.160243897552705,-1.2246842143053,-0.145102767865165,0.146747504886243,0.145960377275086,-0.0303583461081087,0.825458255354869
29.84,-0.662088787929039,0.332396836383033,0.786787430733551,0.204646125435829,-0.493820552679247,-0.440914268448418,-0.876361826308238,-0.162921227051584,-0.414834719194045,1.59408122052988,1.92757793645617,-0.166120117430948,-0.494594341003777,-0.371565492860738,-0.684514531871249,-1.50346912118297,0.942956128678523,0.107342236390242,-1.20068765066391,-0.17062682505502,0.143397500120797,0.266526375114716,-0.00139937587619102,0.705260750966696
29.845,-0.767028065146707,0.798536675017363,0.548961343212948,0.0737415251236521,-0.471978252226998,-0.371813287468621,-0.927456268321101,-0.118533009244305,-0.479331805198916,1.63266789783514,1.90338002662303,-0.238423813784681,-0.596303647296332,-0.24775280504942,-0.822580957325791,-1.0001763510661,0.945230756707394,0.0538482945585691,-1.16566065604058,-0.18626050984818,0.133460984661077,0.404545416168083,0.127558731940409,0.55955860068743
29.85,-0.79738616287886,0.886044899585779,0.495032759163251,-0.234970908072881,-0.399904642646938,-0.235329396435668,-1.01244643298042,0.0119851383042779,-0.491596014645117,1.98634188516866,1.8024269263488,-0.278916143028539,-0.695400709642448,-0.139961770745956,-0.888569323914167,-0.565371207534948,0.869635720526135,0.00813026081710625,-1.12831046637391,-0.201178393519461,0.129126613337141,0.507587501188966,0.26587474114024,0.461220233029256
29.855,-0.73670061031778,0.631305961159619,0.649993306274726,-0.620094328929393,-0.36101098683289,-0.0631951364221452,-1.0629170679806,0.18580052565843,-0.454694616144505,1.74149338764566,1.57622199341191,-0.292399707829478,-0.799188697311251,0.0222222738822858,-0.960510693973317,-0.150343483289595,0.766773612104488,0.00388577970914509,-1.09082062328036,-0.207030615900461,0.134370654810072,0.559009333877389,0.432380320251282,0.402006866292499
29.86,-0.592394474331257,0.4238964679965,0.744354700171669,-0.797313805921319,-0.403751306979799,-0.0427813285824416,-1.06613110498105,0.303681137526088,-0.361125745180237,1.2623064587918,1.34961697142536,-0.231785538832406,-0.867164699006854,0.169517304793699,-0.922907034033742,0.239538834697267,0.712781601814202,-0.0358781488044726,-1.05027238061046,-0.205145272128175,0.142722318308675,0.572145772532409,0.566535360381847,0.374111144431323
29.865,-0.45512686839609,0.314238820343232,0.818951815631945,-0.8454392265056,-0.46971138344993,-0.100173023603218,-1.05467233839746,0.426135873267096,-0.226240265366764,0.364454088728722,1.00788024107172,-0.129206006090541,-0.966805911769085,0.318562307196815,-0.822078377867866,0.715715450185381,0.577176439904592,-0.149227395972565,-0.22904718374102,-0.0434924065194537,0.0350104143800072,0.129887574541601,0.133716976561477,0.0847079767289884
29.87,-0.421918977828014,0.316713682474541,0.81570736329397,-0.812826869072672,-0.544173205347587,-0.170709716311076,-1.03099194272564,0.447801529958172,-0.18440600237846,-0.439462196094027,0.726993455846528,-0.0535307444766356,-1.01221079763615,0.384963675911328,-0.763527669815887,1.02440271251632,0.512312143725074,-0.242073044662361,0.00285692396573722,0.00285692396573722,0.00285692396573722,0.00285692396573722,0.00285692396573722,0.00285692396573722
29.875,-0.464057352708859,0.364359706568296,0.785741085896517,-0.82010250239629,-0.589694102552419,-0.231657928779527,-0.957750943612946,0.388756923971385,-0.181864009470023,-1.00435055117131,0.52411943620503,-0.03960921245137,-1.06943947133194,0.473967365236687,-0.680716802606472,1.50524010019866,0.497355091406928,-0.360688454121799,-0.250015914526282,-0.0434399353976838,0.0743560463193527,0.110366196448599,0.180304227248638,0.105522366724543
29.88,-0.502542871557742,0.391878714227522,0.778034064049305,-0.868291684549931,-0.629926855250512,-0.255024801829413,-0.929961888193554,0.311379499893055,-0.204185339217166,-1.3447262787949,0.445033274360563,-0.0254264698589563,-1.08439478117497,0.446624454614969,-0.60322129155254,1.81239751972917,0.500262217902725,-0.396367839721912,-0.919270571901954,-0.166436374024567,0.284327350486901,0.3749079020738,0.570897174390574,0.351474304783146
29.885,-0.609836821939404,0.22988753985912,0.623669040010946,-0.934563938895893,-0.604273014481366,-0.199717224142404,-0.933078190748219,0.203816064043284,-0.214741709053684,-1.47900272520806,0.422198654755797,-0.0281619538652685,-1.07021262547239,0.336744589978768,-0.554502678504715,2.04859938050652,0.525163584183143,-0.37231485036154,-0.900075493501891,-0.151289148801101,0.322354621196951,0.337137782033382,0.371347738406849,0.273097903947749
29.89,-0.702920028732917,-0.165458199084326,0.925397305029232,-1.10067406041458,-0.606427888199456,-0.186792287484118,-0.939019314900648,0.0785376279016135,-0.257270797267255,-1.71436442219412,0.426681407331332,-0.0424961335194057,-1.04739711349785,0.215210687593691,-0.495304685539121,2.26416544675532,0.567781782520605,-0.282000381305063,-0.860717436194341,-0.172249570811913,0.360086768460878,0.230055206520881,0.0627611533578229,0.139128263634518
29.895,-0.28573786110041,0.43215511336415,0.867447297295804,-0.60164036841557,-0.688929471286711,-0.167369431445342,-0.97140166226532,0.0250944589141502,-0.33090525281647,-1.93684377051559,0.408925287066764,-0.0981616417460276,-1.03385408632054,0.129501483025558,-0.323238329717014,2.42319171765294,0.56271712055966,-0.144000873298604,-0.833778225562284,-0.197457788422834,0.366832508197411,0.0986101031058065,-0.250518179589104,-0.12464590982207
29.9,-0.545327700739429,0.639000524782306,0.904066216747472,-0.632357046268177,-0.546059588950065,-0.167527873240162,-1.07213495962571,0.0415327754197869,0.01196745784194,-1.27377181262939,0.319674923063403,-0.113956698561169,-1.09019805330455,0.086547692441371,-0.0835259687237209,2.66452074783217,0.495352695042328,0.108985306241885,-0.773618829758163,-0.209819964886114,0.326832875458434,-0.101446971179012,-0.458426531665978,-0.568624471359141
29.905,-0.392431729169774,0.254296017243997,0.845241886904767,-0.664167611983011,-0.524806045779141,-0.115472030146286,-1.13577971165254,0.0132257895955882,-0.035362724505611,-1.23797903596427,0.316516830481096,-0.0490018109683841,-1.18427446145034,0.0899406342325287,-0.0383033954541228,2.70979884507146,0.559585808079696,0.361705437044002,-0.736534668899196,-0.155730600356227,0.313199220146101,-0.175517573103324,-0.494951932086909,-0.879000720361561
29.91,-0.453620901506233,-0.000493881759173472,0.862079126486457,-0.601841231637118,-0.410074184254106,-0.117443391207319,-1.2040600556483,-0.0111188497220092,-0.0929587813124912,-1.31413123751549,0.297631202003893,-0.0958533098896334,-1.29529870273914,0.140196118514687,-0.0298075521151397,2.48452818744532,0.680653427749785,0.533551096687089,-0.712916629192354,-0.0621001452397538,0.311220833488229,-0.181504432194689,-0.544683995217132,-0.982653495808302
29.915,-0.438241338648196,0.0215406057833769,0.88765945379723,-0.434436219861191,-0.374573950384284,-0.0933951498393092,-1.20728137675267,-0.0963736797362803,-0.165178571063243,-1.36811986754234,0.295226798913094,-0.098115511238575,-1.3861539260601,0.125182479693655,-0.0223877317067069,2.15317854055383,0.676840394513337,0.420109253091412,-0.709484138729506,0.0334546422558269,0.311128810297664,-0.0658437189895728,-0.694958976482258,-0.842706867724768
29.92,-0.427439963812107,0.0825429265151859,0.8696847024632,-0.24525663477613,-0.359648393020086,-0.0587598869699444,-1.18685389000111,-0.255317119274796,-0.208782559246921,-1.1045219463644,0.317551630167346,-0.0171174630018123,-1.34002676759081,-0.0369352769160539,-0.0432314034954757,1.94530224992577,0.581183140945745,-0.132871412420642,-0.710187212400692,0.0910879725803562,0.292981442073662,0.0767598396600128,-0.830363205816665,-0.580647676071844
29.925,-0.437638480263887,0.126161068622087,0.819240550313059,-0.265780182944183,-0.248499789064423,-0.0790428959592327,-1.15568771813037,-0.336846620898988,-0.157225725797529,-0.74821461990797,0.344884559329077,0.0151108069820387,-1.14889130268737,-0.143574506139416,-0.108381018674367,1.86430886568557,0.723862325896052,-0.635485195038699,-0.728119100639093,0.0948716784163315,0.255840304148858,0.212006115812269,-0.817110536779192,-0.290381149542365
29.93,-0.448187633726641,0.218421083552948,0.85701346362409,-0.11202173633954,-0.273410238813439,-0.0184758937564085,-1.14232639158193,-0.32051928308683,-0.192394717134858,-0.358134353572024,0.357912588560086,0.00829209422921564,-0.942822919457331,-0.0053135728068868,-0.0702736535394684,1.54350788678179,1.29736409425395,-0.459281947242145,-0.653616767339004,0.0692456917168971,0.180635891431529,0.259236628079446,-0.526826334607579,-0.16176073548362
29.935,-0.439356008570336,0.212464676326436,0.839952280873768,-0.173654435800479,-0.190721261785912,-0.0478548641254349,-1.09658816842313,-0.220921974989347,-0.159166911417548,0.13666246206223,0.312846686131626,0.0148978038458704,-0.882425169813104,0.12422509608271,0.0422524825464849,0.835686009699958,1.53258126177851,0.294312274595485,-0.323097261385999,0.0408511094639665,0.0666543362889645,0.170178352831579,-0.0664086496952477,-0.0652457124435497
29.94,-0.458621230126018,0.192539173397683,0.893586734857048,-0.104995350386208,-0.152447079770778,-0.0264868188839391,-1.0479760048437,-0.116693264127336,-0.158352261479203,0.374457310873625,0.253769615711092,0.0375938586738617,-0.931771141507103,0.10294078178277,0.0697779804248832,0.260839538537789,1.25104927581472,0.705516795421386,-0.886790420742517,0.113551781017027,0.172802284910646,0.507536573370565,-0.0584932354523173,-0.20635982146544
29.945,-0.46516369708048,0.190226438490664,0.896266767928172,-0.0301598131079719,-0.117424480128005,-0.0119123014118687,-1.00124620766003,0.00254001515271593,-0.159286605009393,0.567033734218997,0.217056502589714,0.0859052126985602,-0.95321624474689,0.0435934010222714,-0.0614573609468217,0.122941916052633,0.902259707519417,0.540638294571884,-0.957252535723883,0.127143436753245,0.16896859270264,0.611726233881948,0.055013102619005,-0.2785846480012
29.95,-0.428604636052673,0.246721697381754,0.794071057364839,0.0194570714221841,-0.0910075971074132,-0.0114964866205982,-0.99721131648477,0.0892519934726725,-0.157976591610698,0.676670619191931,0.170895676641561,0.109371658048921,-0.929935553374314,0.0623856022289488,-0.154097438537523,-0.00987504550294949,0.884563622093289,0.428966517668886,-1.03621618746782,0.137117328947392,0.164187618708267,0.700718403084687,0.0123077639761678,-0.404162230871991
29.955,-0.493443506964864,0.280757410582994,0.889095715410209,0.064866270090067,-0.0498895662651731,0.0198024970965062,-1.01921442232497,0.152820588932007,-0.15611166133421,0.826836797968845,0.115345797512379,0.129310758924819,-0.988998978389686,0.0254355076027687,-0.117154891528183,0.0171484996675171,0.982302659311475,0.518283239644221,-1.08822737518347,0.140176392378557,0.162848072791945,0.750180963234409,-0.127066337250013,-0.502313725007075
29.96,-0.453036769385249,0.31561701049844,0.830300935271848,0.0679910408281965,-0.0221913077491415,0.0164851693611323,-1.0264183619327,0.19490733664455,-0.127456326896762,0.951228564538968,0.10269185316344,0.126534920440127,-1.03127570308113,-0.0568113971908812,-0.108835195688625,0.176596139884739,0.962026155427938,0.505288062371,-1.10643100988835,0.137683065355171,0.159774550160694,0.795130322596846,-0.319923820432442,-0.581010155228261
29.965,-0.458821641983899,0.322469821247721,0.85995029903475,0.0895104205806037,0.00811393931503798,0.0219550539454502,-1.02940382405361,0.244488662030275,-0.118064599426181,0.962004709360657,0.150530263462023,0.0981922257830313,-1.04515616344214,-0.0766086084663328,-0.128427209503116,0.388774040113391,1.06281964241646,0.47736430880933,-1.12385394793286,0.125465668506196,0.16564506020232,0.84297223433435,-0.493809097550529,-0.604172369219542
29.97,-0.455784820458963,0.299226665537242,0.830543200567398,0.106327600582308,0.0264873806190682,0.030755769733362,-1.04888423646913,0.281287388492244,-0.115894655010066,0.845091690507237,0.184246207801846,0.0556672985203932,-1.06717561035478,-0.0293450001538452,-0.130411814877737,0.639454572239144,1.23052491607369,0.490704122217789,-1.14478697162451,0.112498465414464,0.171855724176293,0.879907983415006,-0.666069871795129,-0.596753047867208
29.975,-0.456838693250799,0.316355555399847,0.831003581603726,0.1100433885662,0.0413145253874179,0.0240381440044855,-1.06404068286705,0.286157784594976,-0.113409746087578,0.70181618834189,0.16796692296488,0.0196143877352765,-1.10031068832942,0.0233588669513173,-0.126152309998344,0.855505571063193,1.29264659147769,0.467565557343355,-1.20424530195091,0.049447805093409,0.167518655840288,0.931979502537589,-0.793466043974707,-0.594461467231688
29.98,-0.467865750061809,0.327114028412839,0.841438819483148,0.106089358629062,0.0560964771837391,0.0348997415051054,-1.0678577241001,0.260568446463106,-0.117252233337711,0.57749959985831,0.117160525044313,-0.0188531235313895,-1.12900842455349,0.102445804440255,-0.138134585955197,1.12998276721793,1.24836190382739,0.375329966259874,-1.28292073445883,-0.0345721421502206,0.183883034590731,1.03725867000865,-0.863783322051283,-0.688996062879241
29.985,-0.439541523289654,0.30026249943816,0.807174771624423,0.0795437056533471,0.0668622716377209,0.0224977406682577,-1.06050423065545,0.226122487667133,-0.0988737636908424,0.416120870110935,0.0621831264166083,-0.058029612734902,-1.12363338424569,0.157965949791362,-0.14345723739041,1.31011313008257,1.10778292579373,0.288836434603275,-1.44057095496496,-0.0558658857582594,0.181826860476491,1.2213089228078,-1.0070986010739,-0.900820271194231
29.99,-0.461313922352347,0.286387754241024,0.842522949686269,0.0809823920221033,0.0679818518648762,0.0173964131252378,-1.052349921774,0.198136181874083,-0.0924610715670278,0.295851787650425,0.0361043228293184,-0.0757621756108907,-1.09998797050195,0.184227159307087,-0.10196911795821,1.46306740712383,0.793946476239521,0.17671542805299,-1.51268371890195,-0.022108311648562,0.125059403990533,1.23232759084111,-0.956956452860535,-0.908383612653189
29.995,-0.457494979482166,0.276474096691728,0.829827090983655,0.0826608884859539,0.064316432450603,-0.0013832251651991,-1.04023305895152,0.157270679602316,-0.0826474834144684,0.13966975196786,-0.0140410274732428,-0.0970048440196781,-1.05825301811865,0.206376440657197,-0.0589502573317798,1.53693906630874,0.446361936810511,0.0470805119473164,-1.53341886426372,-0.00910396556484081,0.0912116899290137,1.17014953631814,-0.825657324067993,-0.756785064235649
30,-0.441996021506687,0.273695205855701,0.826429888330124,0.071954030437289,0.0711370706558228,-0.0175837028850215,-1.02902500733103,0.110127139539662,-0.0796747782996295,-0.0156469440432323,-0.0662119554320889,-0.108198932002215,-1.00190236755662,0.220701589598804,-0.0419445002236453,1.57797857531912,0.1368594564562,-0.0721081380038705,-1.53459940414591,-0.0118776393200554,0.0798330201958037,1.02113545923579,-0.358351499062437,-0.548868096441106
30.005,-0.448092856733368,0.275826037322328,0.835800615059024,0.0687076622347825,0.0761314028198033,-0.0278216824466247,-1.01353888753924,0.065235535769675,-0.0927911214893163,-0.121233509771137,-0.128435001383368,-0.120216838835611,-0.961320657228531,0.2353045566388,-0.022243441464061,1.59935605763161,-0.062561181927803,-0.150149213968091,-1.49617710317491,-0.0257257396994026,0.0924459346773258,0.942903542384773,0.135786343832143,-0.309846545260018
30.01,-0.432685488674382,0.264524659850078,0.816964796786086,0.0677271132765512,0.0762023138977469,-0.0448773426695454,-0.995186149961137,0.0358079084493779,-0.0906730850102683,-0.0923136742137144,-0.164702135030898,-0.114793122548677,-0.933297907763733,0.252724222565551,-0.00616038579202301,1.56133747465961,-0.235547932899489,-0.245257140772412,-1.41862296707347,-0.0306777524843079,0.120258243504383,0.935871581576241,0.387399717178626,-0.147967111826952
30.015,-0.452763464615955,0.29092017691923,0.838273317987762,0.0650038853834341,0.0810803465656428,-0.0498191226776004,-0.972474159529201,0.00828654336637382,-0.0997432029518707,0.0247965251019175,-0.175108017827339,-0.112238810787391,-0.9321506449243,0.259145007234992,-0.00363540733583006,1.52273959111062,-0.294039170040018,-0.279633984922113,-1.32588398845571,-0.0438561547312289,0.151709124649829,1.02233680243327,0.604795615692048,-0.0114200846225215
30.02,-0.446063875634142,0.289102984853424,0.816535885009515,0.0692939291513231,0.0701327597939744,-0.0592415525915006,-0.958704431282939,0.00624202689024573,-0.0936120722248736,0.188019039905149,-0.19234070669144,-0.117595286078233,-0.945760045602385,0.243922795164144,0.0058664542981729,1.43512906563498,-0.333404835062633,-0.29149296811889,-1.22900484471601,-0.0381370637107867,0.180800189678961,1.09508764327805,0.735822582458951,0.0756897347142522
30.025,-0.450986901856761,0.296909684385961,0.816075293240959,0.0804919882000235,0.0665303599699914,-0.0614507636360615,-0.961181971676948,0.0203750119281136,-0.0927579755401644,0.417832009980882,-0.174813720779115,-0.108915391148997,-0.965400605822248,0.217213254205953,0.0317103809848538,1.18745269638573,-0.240878851507438,-0.327673350335929,-1.14468726419688,-0.0320417616021881,0.215740011338115,1.14244660892466,0.818887997263371,0.135585588248665
30.03,-0.445687688161847,0.303407147344228,0.817821576161037,0.0966925590104931,0.0597986737461015,-0.0580849205241166,-0.965333547207064,0.0345861986393867,-0.0898908879737443,0.588689878508205,-0.167406668595452,-0.106667369604111,-0.978575389530713,0.229524513930821,0.0629007204534491,0.797820832681704,0.0484265113242243,-0.373989825981407,-1.08179802057605,-0.0203168572653266,0.232358653394207,1.13996861518434,0.833465235054395,0.179581761867621
30.035,-0.439562578514312,0.298911836217702,0.811939075041415,0.109063807300367,0.0529567283307763,-0.0558493728914671,-0.97465588937299,0.0569982821103349,-0.0731653953166934,0.836516403944371,-0.138894999130795,-0.0932476237299753,-0.975021878606744,0.142425302742812,0.0746944957178172,0.448253161792809,0.370945121119468,-0.411543301460637,-1.00917594019559,0.00923758054316938,0.250643093180612,1.118105719762,0.789319531216015,0.21025457339748
30.04,-0.439510502310836,0.296906288186091,0.816114276467966,0.124706362996657,0.0531647327668694,-0.056890749672302,-0.987636789651336,0.0877440409314791,-0.0632244742143741,1.07330734323262,-0.140097811818123,-0.0953714228941937,-0.973354588163344,0.0957665775264388,0.0732066904966336,0.0242727816763576,0.74497228567684,-0.426859154849213,-0.941631823609491,0.0151881128766701,0.252474184931067,1.10342035495183,0.699427998872726,0.207959158588506
30.045,-0.447147950192263,0.313388049568874,0.819186848177995,0.143545995254073,0.0406049812214249,-0.0700576512848591,-0.99589367059289,0.117942507747954,-0.0355484990755168,1.22014396273313,-0.135692234428066,-0.0984560908874898,-0.969314903029022,0.0580931247855878,0.0681481834278184,-0.30370948601675,1.02153016162383,-0.415342022326053,-0.870846385430885,0.0371089425292136,0.255338672676019,1.11738051389433,0.611579215654931,0.170034188907082
30.05,-0.439608897423718,0.293179930588763,0.827991314684752,0.154190790402701,0.0271299505468452,-0.0873354223819771,-1.00383318536331,0.152611475327662,-0.0247778867894621,1.32098664144946,-0.130672388854979,-0.0996853496465666,-0.97292572249283,0.0177366750950532,0.0671180081543389,-0.588115203985712,1.24253915117005,-0.370310113940924,-0.799383432588234,0.0591423923381005,0.242374326881586,1.14030045568036,0.518505709559876,0.0957464684181085
30.055,-0.43828494502428,0.28117193151372,0.816002118063172,0.164266059909299,0.00529384475982989,-0.114012726463979,-1.00497987981724,0.18200085919737,-0.0107722843555838,1.36640686090346,-0.145747994697594,-0.0989990896555558,-0.983181114820725,-0.0164757384623696,0.0715438619039973,-0.8216832778725,1.41282870159781,-0.32604001958694,-0.736233526338408,0.0815780291417787,0.233262574035232,1.156649365026,0.434660625355571,0.0107779916626372
30.06,-0.446166349764961,0.293307185282109,0.818490824388367,0.204405406808456,-0.00636212108872473,-0.139263958672494,-0.999479626687695,0.204199628413945,-0.0038451257336478,1.34085429265773,-0.151025880931699,-0.101579082448853,-0.99468722963295,-0.0318409878842005,0.0742453880413339,-0.982465227359798,1.55346274283937,-0.286847971442653,-0.692379607991624,0.101009268562073,0.233048129939893,1.19266071671155,0.382817240384164,-0.0735029473522614
30.065,-0.434763407284376,0.314584461541711,0.810676386407205,0.19383197305465,-0.0381757565129008,-0.162405050613942,-0.983491396641647,0.221623998696847,0.00488567071677126,1.25707223839684,-0.138288389197015,-0.0974009901916262,-0.99311894457142,-0.0310500625947299,0.0748014203488637,-1.10390728194912,1.71945895458924,-0.251288922798078,-0.657842239655713,0.123791872989118,0.229279684846908,1.24115636268659,0.314375011166705,-0.158859917819768
30.07,-0.424985009514652,0.327769929257354,0.808328769688655,0.168135367377228,-0.0747453583199238,-0.193464119101855,-0.966682857795802,0.234876017191915,0.0148984889093357,1.07865476449175,-0.13729420475492,-0.0997378524395545,-0.989308503979267,-0.0248247262312098,0.0710612245291619,-1.12358101952219,1.82447922251523,-0.216432216873131,-0.61742315647346,0.14430132988466,0.229282700144249,1.28298240725626,0.279502695468077,-0.206932873062488
30.075,-0.423925351649306,0.341852549693004,0.798659833625601,0.124085220191587,-0.109260788440327,-0.21853724825368,-0.951890223271604,0.256841440664063,0.0169646317721696,0.874299614331454,-0.126607864611332,-0.0953823013416612,-0.981610440848415,-0.0107648566868311,0.0760707109285672,-1.12229000767582,1.91581877567176,-0.19153581343185,-0.573689359536902,0.168474937147829,0.220465869170441,1.30141632824671,0.250828944403208,-0.234966334747087
30.08,-0.431933849626073,0.359347273629079,0.782802645906442,0.0473506180924777,-0.150944967596871,-0.247171357673122,-0.933899838472273,0.275314637142932,0.0172505378276727,0.700841106267444,-0.137878408710359,-0.0976166604360932,-0.957228441524987,0.0128940306726129,0.06590089278032,-1.07048417049107,1.95505177835413,-0.164269387268902,-0.532542944648593,0.189190475130613,0.20634947449068,1.30705073775016,0.242628725905363,-0.231538431676023
30.085,-0.434104718486643,0.374333092638737,0.782566777586826,-0.0369676210856155,-0.187053009948658,-0.273734232305371,-0.918348984944546,0.292559964154948,0.0220306632144924,0.487458333688229,-0.141767360535013,-0.101970503694854,-0.929301111552757,0.0356777792534248,0.0664899444877836,-0.955496696452294,1.93832456941786,-0.133884727327844,-0.509420217163424,0.203451157856119,0.193273654433577,1.2870882565212,0.248642031986719,-0.200905564713103
30.09,-0.431849335622932,0.388037618657973,0.783867799628297,-0.121206179725264,-0.236703437157253,-0.290865848688547,-0.907706209031664,0.292457024925518,0.0223033827386046,0.238106875308032,-0.143749056216005,-0.109041605745847,-0.905168811168821,0.0435859317823298,0.0389527176769858,-0.741118964072562,1.83023528932436,-0.0892212913973137,-0.505401556444931,0.217134326755796,0.177588118646047,1.28869322902633,0.24505148644851,-0.169448983924716
30.095,-0.432248730986549,0.385497571456018,0.777820779090858,-0.200352577508524,-0.262242875603618,-0.313657160047793,-0.912659131040092,0.286848106259482,0.0243660554473906,0.0642605543215284,-0.144594132067857,-0.109640742979834,-0.912518915234791,0.0431891796907511,0.0497590339121736,-0.566788514153754,1.66809169726961,-0.0721705802336433,-0.53058398005291,0.227210769372754,0.171577182743969,1.27489601554189,0.24618405201538,-0.107739722106998
30.1,-0.436785435820359,0.37505605396269,0.788853162403988,-0.253247041688472,-0.283743765819607,-0.331214371765446,-0.918596269207805,0.262898243521307,0.0221170095397168,-0.109451332771698,-0.1727887308505,-0.123030869796855,-0.922923633734491,0.0439170169196754,0.0731452639140324,-0.426105714856435,1.46881785302786,-0.0715902374038228,-0.578725700454272,0.228179981746956,0.165755464092371,1.2711627738406,0.211695823713918,-0.0266372787117583
30.105,-0.443634453941018,0.359565371689037,0.799197349110482,-0.312233216201309,-0.314934658452996,-0.354595588850344,-0.927794828899664,0.238121951904977,0.0145310756857598,-0.201121855787497,-0.180868843065361,-0.120872585607907,-0.93573499915161,0.0518743476164172,0.0783093800838554,-0.380227229674605,1.28724769450592,-0.105636087614152,-0.636795066321448,0.222182634481252,0.164082751105798,1.29031925262398,0.159047209992189,0.019610558786674
30.11,-0.440164874064697,0.345249877338645,0.804774586069537,-0.370752703126937,-0.321288938103048,-0.381847520056162,-0.936522446219092,0.202789386549005,0.0114286814058925,-0.261901416046054,-0.186791329183592,-0.115933648013207,-0.963717829466015,0.0658933114288396,0.0594455404313083,-0.375660541335274,1.11216033158495,-0.183320239017675,-0.677396280132388,0.184685408926576,0.157668828462363,1.3700774057767,0.0792049571230886,-0.00122411894618018
30.115,-0.450437198211255,0.335960318391005,0.804723465276767,-0.402157376894377,-0.349821593844722,-0.395296917155194,-0.945393055053916,0.172976699213837,0.00179913837416927,-0.27244932455038,-0.201177610366198,-0.117658107023701,-0.976380540304989,0.0745958571887175,0.0531222774493792,-0.371039001591941,1.01052217264124,-0.26681379140408,-0.687605198809005,0.147731643142686,0.146319738235499,1.47124258700895,0.0438696212539572,-0.115811487149747
30.12,-0.442497046272753,0.324133578245093,0.810061392271054,-0.438660902109874,-0.348100337700062,-0.411130007787533,-0.950997518724713,0.120406127265013,-0.0105133406027915,-0.291878304249663,-0.183857190181465,-0.10355772954633,-0.979276711367889,0.0454854700518725,0.0475516756300501,-0.267313347014272,0.931912927334084,-0.339765739176258,-0.708673499104139,0.136341215493848,0.139992467148547,1.57935894820167,0.0708066856743712,-0.295851882711951
30.125,-0.449930293490307,0.31575155648089,0.816185680022696,-0.455488405603662,-0.347447864000943,-0.41220198124113,-0.959621990600214,0.0888331478116143,-0.0195499027631431,-0.259630713886031,-0.170012860510538,-0.100558899343014,-0.981668633858381,-0.0145576362572342,0.0359121744796701,-0.118406420840797,0.914845240704166,-0.347173835298461,-0.715899571188016,0.148981608482812,0.138391117491625,1.57860599018759,0.17494235235585,-0.394072544620351
30.13,-0.448449194833849,0.305491822219752,0.817516523032848,-0.458345771253848,-0.351774663058812,-0.406622230262916,-0.966352292019678,0.057248682438979,-0.0306660732927234,-0.190901622474884,-0.158969388766769,-0.0991033197499762,-0.998474649799827,-0.0627558447929013,0.0287769258183124,0.056973951305048,0.934300668627115,-0.327111917542773,-0.729231178403057,0.15851932174769,0.151772866739681,1.52383097578575,0.276097583324244,-0.416570736901758
30.135,-0.449865616809854,0.285962372086447,0.814303768274564,-0.456262451859047,-0.339211495974314,-0.38895285732949,-0.98347108322643,0.0341167901880349,-0.0339219611161983,-0.118971256486156,-0.131896586819314,-0.105984548374081,-1.00800730949159,-0.118365676972235,0.0195745809172289,0.269749752372493,0.981878086198968,-0.294025433623943,-0.735793246543473,0.167242472079062,0.176820590891902,1.4560358428529,0.312028193937653,-0.361695719835619
30.14,-0.439060861571668,0.266003452441549,0.825920018755189,-0.451537199238029,-0.349725143219428,-0.371543793464348,-0.998274669328849,0.00754830916695716,-0.0308531260994012,-0.0464753688241898,-0.091937734175683,-0.10788906365633,-1.03161439900062,-0.140001814281097,0.0141263776072145,0.411686854712795,1.0042681878166,-0.243792094129006,-0.757677787318103,0.156341705248962,0.204440806317856,1.41745781898499,0.282438411540121,-0.281784258530221
30.145,-0.426545150625108,0.233495924568573,0.837349108976455,-0.440944054540765,-0.333674357017821,-0.351335346378177,-1.01448410576081,-0.00855702754933849,-0.0349649062802651,-0.00961936642628502,-0.065309258535289,-0.10834049136645,-1.05120262208666,-0.142204907886606,0.0048439324445038,0.580781698653611,0.975772349473685,-0.183750598386772,-0.799236086378733,0.124123863929452,0.227139203592123,1.41745781898499,0.201034759013394,-0.242641935021025
30.15,-0.412474952747949,0.221657118615998,0.850323722847435,-0.41626122847384,-0.327853244466516,-0.333279475708675,-1.03214038990752,-0.0256438573778796,-0.0381231528251565,0.0532232467443094,-0.0509800591146494,-0.108905992220082,-1.06413866410261,-0.158394576771961,-0.00638510586123831,0.780361834194208,0.944664463771608,-0.111494945911787,-0.850177684094318,0.0942425220797358,0.248891010421004,1.40931936664192,0.108627394509942,-0.263275406235751
30.155,-0.413501561760435,0.204617410862049,0.855731578339871,-0.39357310369968,-0.31428277544704,-0.311400959691781,-1.04565248891249,-0.0384713404672791,-0.0349757407050122,0.106656394755611,-0.0429608688967227,-0.100949835938454,-1.05640295590453,-0.173643525491291,-0.0180924105262937,0.979034663417161,0.966166429868972,-0.0663287694955666,-0.897055324354917,0.0837500621141794,0.253365705506203,1.37643038405083,0.0648620815198946,-0.301021995591667
30.16,-0.413460008347046,0.197977548693148,0.853344325478376,-0.3653684221123,-0.32032198087232,-0.291139723579733,-1.06109294960374,-0.0469499954468475,-0.0409050333219394,0.172851889370117,-0.0313577054226989,-0.0959425788464602,-1.04025156823373,-0.166959829150679,-0.0336615530813392,1.19436124480882,1.02223833084897,-0.0449269367126182,-0.950662396591241,0.0784251805871535,0.268423595027724,1.34944549868405,0.052748141787824,-0.336593113694247
30.165,-0.416323525424982,0.195795871923585,0.856814167041094,-0.333154382543921,-0.287937786496637,-0.281252492850068,-1.069739795108,-0.0512108955069503,-0.0436327896738248,0.241510340291325,-0.0186870864828982,-0.0877103840015411,-1.02179775389634,-0.15357864332285,-0.0560406773236502,1.32188605246992,1.04334447324211,-0.0466448125221109,-1.03815999995882,0.00398144070067855,0.299749865259404,1.34298213902127,0.0107341526745951,-0.389297750104086
30.17,-0.414121509913781,0.203604255482062,0.851952902107737,-0.311535325725049,-0.291471321746372,-0.256953958520256,-1.06869176231281,-0.0464332614001996,-0.0459384444276743,0.297164755559305,-0.00526660576646399,-0.0735036950661264,-1.02248347291509,-0.13127185869539,-0.0638315902972221,1.43550567375374,1.01807911007169,-0.056871108568553,-1.00730135115189,0.141039346384815,0.311177621808594,1.36846448088597,-0.0643212066745384,-0.395662943211514
30.175,-0.411564761899703,0.198255031568376,0.867004519734303,-0.279474058728383,-0.270417968963066,-0.241986176158068,-1.05955416103381,-0.0349576526953898,-0.0496737789398452,0.384381440113261,0.00234261752745073,-0.0691158075517883,-1.00458240316005,-0.114919289241005,-0.0865573167802636,1.50412093570703,0.982569491732667,-0.0571343674415478,-1.10419100608199,0.0758283445181543,0.362264358385007,1.30138413988481,-0.292021376446354,-0.261951169706735
30.18,-0.413236412481216,0.190550168049022,0.867251129596593,-0.2514637035908,-0.249208002054256,-0.229165008896403,-1.05275965872704,-0.0296269015637513,-0.0556002445991093,0.443977494919955,0.0173830432469181,-0.0503700544614977,-1.00942120846691,-0.104370146452925,-0.0945132804869381,1.6284360974166,0.952926397389998,-0.0315288491520859,-1.05445130994743,0.0262341975493225,0.346537858240025,1.28067473369856,-0.581072638648087,-0.359404087664589
30.185,-0.42693772168946,0.183324827202871,0.860449688156779,-0.227040378412415,-0.22781306012582,-0.201842841184245,-1.04441011929012,-0.017547170741785,-0.0628846614656733,0.538970464967545,0.0194621099282219,-0.0408565577699438,-0.994140688286849,-0.0951781367482665,-0.115336461419147,1.77426298281463,1.00518772429056,0.00968428998031188,-1.10248876932244,-0.106986973429495,0.32594623741531,1.37367516806192,-0.663883847051619,-0.544314124792877
30.19,-0.426305152936885,0.171880427912128,0.866475829725328,-0.17084989400716,-0.208147212289406,-0.191626815724389,-1.0368676175905,-0.00192376824656997,-0.0674033032023043,0.614101120135946,0.0218988434674983,-0.0409809378707964,-0.932565259931117,-0.0390840369398174,-0.178863615552162,1.77498418100119,1.03895587134736,0.017450900507688,-1.14622441128008,0.119484671317557,0.320370783899841,1.35415311347704,-0.77415277303743,-0.467284854318441
30.195,-0.436789211814985,0.21342050252212,0.866641823870463,-0.0985547885551351,-0.212841971378205,-0.198328995760783,-1.02146643899205,0.0153693366871349,-0.0632331207611736,0.691612060670639,0.031727809129868,-0.0453350362770487,-0.987381588363389,0.0234089265693786,-0.123815221625262,1.77241888444193,1.10422071048177,0.0300428948621598,-1.05675445853378,0.0314293496190507,0.230189718391492,1.21029201844763,-0.698671596484222,-0.359883207646149
30.2,-0.416103419198764,0.212384180364204,0.858884362872572,-0.0936016987516168,-0.193167424643002,-0.186523565041855,-1.01911104663336,0.0306369599233842,-0.0724435378481478,0.71140208871193,0.0313604995810996,-0.0440542553328186,-0.901110666232143,0.0508285092987044,-0.193421145940843,1.8297952004038,1.2018586488845,0.114545111097905,-1.04148150350871,-0.0457201270072922,0.193325048089506,1.27225842330038,-0.152280504846202,-0.533284622847308
30.205,-0.417997139983454,0.184116300365021,0.884451669710234,-0.0561815848211568,-0.162509664012978,-0.168513331152934,-1.01214042941842,0.0521565968412786,-0.0794064847954133,0.725850966434469,0.0243116628214406,-0.0536152127499208,-0.924192338539663,0.0684388724603564,-0.207274603034947,1.83485981879539,1.12823931031371,0.206125282906908,-1.12806992413071,-0.0281484079579671,0.291717278179362,1.38085656031603,-0.0839092157986179,-0.696810204020802
30.21,-0.411563745456081,0.169873474411007,0.877880046226579,-0.00779130826094724,-0.135189065404575,-0.160807304923083,-1.00932722429865,0.0642806025916821,-0.0847905499628046,0.709847475307535,0.0240438514139958,-0.0587042019615372,-0.895453475887567,0.114792504213033,-0.165021655101227,1.73235435532946,1.26151579982344,0.263908247620228,-1.1148512594237,0.0049386117192719,0.264956304684984,1.45567743687945,-0.178182846665003,-0.870454821405448
30.215,-0.41691094456622,0.168928293209449,0.877212415275261,0.0338942985215309,-0.114097574445076,-0.156952708226369,-1.02197661557847,0.0792818750703142,-0.0958697499620715,0.668289697412464,0.00851671664566887,-0.0734860783354532,-0.870418734774874,0.161749310082354,-0.139658785020556,1.5382405940183,1.65514607095251,0.243677820544696,-1.11883814350548,0.0612285154580281,0.250480328898707,1.46647318074221,-0.112605661682379,-0.90838800121772
30.22,-0.43060022478184,0.187608420541387,0.866873000822881,0.067899665917721,-0.0860916548167246,-0.158148908620302,-1.034981269693,0.0924792012111541,-0.0948155561507837,0.637649996369355,-0.00909973435601534,-0.0905085837228114,-0.894216108052737,0.191237095611238,-0.130700749569695,1.32993319473425,1.79436306205857,0.204363615728754,-1.16077090299161,0.0946381969626364,0.291345531694477,1.48216794367345,-0.0656662204814991,-0.864775145273723
30.225,-0.432404065469323,0.222792588549025,0.855718653550215,0.0984264301634948,-0.0922183312124847,-0.158719371742846,-1.04340279080749,0.111152057316586,-0.0907841421969439,0.589744372948971,-0.0247097215556387,-0.113572844846761,-0.93614936726618,0.226351779452288,-0.133752173843489,0.956504352538298,1.55677454819832,0.183943380170395,-1.19270215246511,0.0930397793978913,0.321272484821434,1.47813889029319,-0.213757022835086,-0.839218647713988
30.23,-0.433323560098806,0.24478744311134,0.854569123546283,0.105191272312716,-0.0848666327485356,-0.14887401514362,-1.04705267513946,0.129932562003695,-0.0896967956600416,0.500874665022726,-0.0319286416566806,-0.131306254376765,-0.973892520973657,0.235868535528308,-0.12565659050042,0.591923654257383,1.29045026794442,0.208453893353949,-1.17869699030423,0.0907172827469987,0.327989952147615,1.47770643802221,-0.37465246699356,-0.916175444406552
30.235,-0.428840569982144,0.241219965017841,0.856367956656503,0.0929906575484437,-0.0709743693725985,-0.144910428341562,-1.04334593445303,0.143752665519748,-0.0741717330857729,0.407334781826117,-0.0517918231730728,-0.140170893606424,-0.998233211481492,0.191676198425899,-0.134072009256741,0.329074435899246,1.02748214024207,0.187281224800357,-1.16049153521902,0.106428370069425,0.328088755589899,1.49049151357447,-0.478374525777073,-0.992886899768574
30.24,-0.424145604951964,0.226970656944525,0.862356208509586,0.0885639436351515,-0.0541254040286287,-0.143775120377541,-1.03062648473656,0.147727605912481,-0.064958108405014,0.294560163652335,-0.0715145534899782,-0.146330358750346,-0.974149010083739,0.143612298960742,-0.147590237500117,0.0748357158210416,0.746188391818121,0.159065236202506,-1.13159740491161,0.137818010988556,0.311796914383115,1.52024464955509,-0.555531745913452,-1.05390645254659
30.245,-0.427943779818772,0.195312347788836,0.87031591343884,0.097409868451423,-0.0553498531654278,-0.137014244633422,-1.02113029985697,0.139544420515375,-0.0632649204747761,0.192745109820119,-0.10292327196066,-0.149287052618284,-0.903230896332174,0.117321597494274,-0.136879375665467,-0.0881476613852383,0.630952306425713,0.16912654766917,-1.11571950083686,0.17144057118809,0.301980650303756,1.55552648090557,-0.555433287389714,-1.06429892617842
30.25,-0.42693310638064,0.196764788139112,0.857039281387919,0.123093564006066,-0.0464963550277987,-0.141156355754793,-0.998165172916418,0.113596897810568,-0.0669423236569603,0.064106125328299,-0.130782166218275,-0.163277272873608,-0.838733158335827,0.100263580097125,-0.0946845975953459,-0.160011796122978,0.731519709889897,0.232771549187794,-1.10030554395949,0.199999891555363,0.301705707595679,1.60860592552213,-0.504438905165746,-1.0330232101102
30.255,-0.438203793165058,0.207999981045828,0.846145841094546,0.131344452500343,-0.0422304094498543,-0.15417944475195,-0.992394164339444,0.0847491673859815,-0.0634632112388296,-0.00674545426989507,-0.139019460909067,-0.183490781553091,-0.790777833867591,0.0781113146485433,-0.0399517747365724,-0.143588277459119,0.88024582365419,0.306237713835374,-1.06705254032505,0.215654210736554,0.294383040729242,1.65053572122113,-0.469880650042024,-0.995239186548521
30.26,-0.441132615416982,0.226999030910304,0.845105919258298,0.127658980056649,-0.0356768488731216,-0.159846233322652,-0.988877834387962,0.063160583718158,-0.0507926750434605,-0.0321865581293108,-0.12527466000959,-0.196141898294561,-0.788424072244228,0.0664833401936572,0.000626202431453389,-0.129056220363028,0.995185434018528,0.38297430989779,-1.00850756324845,0.234705057895771,0.286149742051918,1.69134710806874,-0.420241608956557,-0.948126624243779
30.265,-0.440663901819684,0.262793595142677,0.835520955388591,0.128435909948125,-0.0444339267562873,-0.156066531794475,-0.988158380600219,0.0529690471475759,-0.0383565767585092,-0.00528577018268289,-0.105674801742238,-0.203648357677223,-0.822153505137745,0.0611922447827178,0.0415105576467817,-0.0781792768562957,1.03310700536913,0.488035213255354,-0.957648273670505,0.250256376680797,0.278748101448042,1.71616901376108,-0.378711072989126,-0.906131056957047
30.27,-0.430707964705783,0.284306711101147,0.828573826377961,0.10649283118603,-0.0426246035046942,-0.143380395864163,-0.984023062616824,0.0470749213828853,-0.0125698375850686,0.0814234275832783,-0.0793292289808863,-0.200563855779107,-0.872268219852443,0.0439636662364025,0.0720178655862785,-0.00202341028495762,0.984450600918446,0.571594047073451,-0.917238813950403,0.277145729749798,0.267418306220385,1.74443537962632,-0.303738474524735,-0.833343432260838
30.275,-0.419612153753246,0.261602435666012,0.83443574792504,0.0885759271867959,-0.0461502160713332,-0.129100937817914,-0.964112653512267,0.0395504016501807,0.0173539029471868,0.178105135061104,-0.0586118948243087,-0.192904468689797,-0.957805150271288,0.0370387669067431,0.101553575237147,0.149940439456764,0.839812504006415,0.659350399550258,-0.883036902997794,0.294431082448398,0.262280029279045,1.74308489085813,-0.241320964932114,-0.763934814546137
30.28,-0.408520420321619,0.273318759878919,0.831466840486789,0.0830211483231472,-0.0492662124046399,-0.12178461253643,-0.940287956337341,0.0434207380898952,0.0479821653764106,0.314642621328774,-0.00977235342486042,-0.185148329831998,-1.05145876043275,0.0534058621092301,0.167916296449608,0.383332799290219,0.645553566226424,0.705916885847477,-0.845068417692104,0.314236529838443,0.25891486596495,1.72861770411797,-0.131733835000945,-0.642928868884856
30.285,-0.397863651111319,0.287344332804551,0.839654816356865,0.0800752007274285,-0.0557515021926345,-0.117065489613396,-0.916171804980868,0.05788749083196,0.070865410702217,0.44512999079856,0.0460536247016916,-0.188520908355713,-1.16066035354272,0.102834892137146,0.167839343538389,0.754479972971866,0.385746634837535,0.754209864043304,-0.825919885731639,0.322317478622264,0.258946398871817,1.69196412924382,-0.0457641815198257,-0.534391284248325
30.29,-0.389920549017617,0.289711263651038,0.841381316017652,0.0729461579742215,-0.0675092966270253,-0.111173135668637,-0.895613634853981,0.0965800094081423,0.0998627265503284,0.602695039337151,0.141331641719934,-0.185052555609419,-1.25760925396647,0.163383986559156,0.074093842705715,1.06195750644853,0.241115949335476,0.765261030797695,-0.803146617799983,0.318820231691449,0.261702404938712,1.65926548974736,0.00366829319096118,-0.459605451771782
30.295,-0.382091662641986,0.291592685954691,0.840142152022881,0.0647315875917039,-0.0683682292592759,-0.110789358615875,-0.885173616388442,0.140788652863699,0.119835635131987,0.73837067607267,0.206132156789695,-0.198265531128364,-1.32011462495053,0.12299685220338,0.0436401549647971,1.30010043245143,0.200010191910167,0.71268080624622,-0.77533317145914,0.320575093310154,0.264450451250215,1.60258999008278,0.0643859747606245,-0.39088822071815
30.3,-0.379991715750273,0.2918121186299,0.833809523794746,0.0681714384696099,-0.0820699351775525,-0.113835451028257,-0.889614293183214,0.172792704670866,0.132813753367631,0.785595215980767,0.291742856159375,-0.204059618511993,-1.35018612288117,0.042327736251133,0.0694504580645934,1.32262414121173,0.224761251289805,0.618684877141871,-0.775814559473798,0.317686416696572,0.264762707902224,1.53052283165821,0.134892659135341,-0.342349187881741
30.305,-0.388712643027129,0.287484771950051,0.844502291139907,0.0570910283056587,-0.0915542376911069,-0.110892332239718,-0.906078520525923,0.2013839184675,0.132306526369349,0.764325453786122,0.365248807768783,-0.226840295061722,-1.35662431301712,-0.00219744376813372,0.118571722973712,1.19252295961809,0.311354890327821,0.512340051250982,-0.777318051668166,0.303600749229691,0.272080841638779,1.45840250128415,0.196705448556456,-0.32716825682437
30.31,-0.399398402794271,0.281316536231851,0.847989857122075,0.0499584972956583,-0.10187597484445,-0.117938507318853,-0.923407649139594,0.218854716019276,0.11505885284704,0.694507248582939,0.452910174244037,-0.253214059315266,-1.34519422685816,-0.0288178711409408,0.171111491813409,0.961025891254348,0.390137870083155,0.407188531596874,-0.782193116338596,0.29279315901272,0.288584232258069,1.41171435896688,0.211727224188183,-0.344524645892375
30.315,-0.403716891352689,0.288910451138447,0.852170507444499,0.0428687435692323,-0.116533932570547,-0.125963397133274,-0.942217520546336,0.213995712596416,0.0992164484183557,0.624011478853933,0.50934357486776,-0.28336218995277,-1.31372456347443,-0.0327032307024643,0.19168970933184,0.653254434327574,0.350766836903363,0.302760084380116,-0.783272500352068,0.277178691140621,0.307282068342095,1.36121999497557,0.14155251566413,-0.375363250492347
30.32,-0.406335358153149,0.29205546402787,0.846446469011196,0.0237762730160593,-0.118380591552535,-0.130181460348038,-0.961720330762076,0.196157895984285,0.0846547205126153,0.527956555530444,0.570856436262084,-0.32257700203647,-1.2883230319877,-0.0103278763248551,0.179625098131292,0.406307948223512,0.214377974970984,0.208173288638048,-0.795660065063957,0.270814252071583,0.329672739900296,1.29587143625329,0.0123183048202668,-0.399848557311923
30.325,-0.403154931868408,0.272982211646417,0.860528464940982,-0.000135059033579983,-0.104955712577939,-0.132590314634756,-0.98302139696459,0.172746006185006,0.0730376748660026,0.434227908336224,0.615186047567455,-0.34733355759463,-1.23630937641564,0.0270768279523616,0.140403282716883,0.261386457633019,0.0217342158375258,0.0815664361954559,-0.800346189460116,0.251387917682923,0.346797458486033,1.2024785178689,-0.199835305374317,-0.420010012393994
30.33,-0.410457425250892,0.265424198566163,0.873343440226755,-0.00804884793564881,-0.0854727188705004,-0.129192405338583,-0.989950357157712,0.148934944657881,0.059672791893818,0.332439991529544,0.665215058309892,-0.368066963507608,-1.19572667887096,0.0643509285506799,0.114214861960192,0.271523200813774,-0.03785555497441,-0.0179323365131615,-0.794344972077169,0.231003258110494,0.356042803562801,1.09364159386097,-0.357027215881665,-0.444117571963153
30.335,-0.417361929322848,0.251845972807704,0.876915888323045,-0.0133200558969067,-0.0591847139494945,-0.126883959184351,-1.00356705098858,0.122555638535728,0.0474281731781667,0.250351723009571,0.70999138321596,-0.39138790358045,-1.15097336609294,0.0968551171678266,0.115785992936309,0.416122594411086,0.0227918341275628,-0.123666232797707,-0.794612608317854,0.210419767155937,0.356934207953963,0.981961072502968,-0.471705915524542,-0.466516012431946
30.34,-0.41769186980038,0.250941811484861,0.874503753249526,-0.00636016519535845,-0.0384448958424741,-0.122359941135354,-1.01098639691183,0.102645328372397,0.0377656937234279,0.20914786450048,0.756952804206078,-0.419989779744823,-1.11730777762879,0.120289431400439,0.1382488249019,0.603748850335616,0.15791054292807,-0.207076734498652,-0.793356169616886,0.190507141165375,0.357811352833848,0.866849865473926,-0.512417050241331,-0.491375531439299
30.345,-0.419684254803308,0.270140706913262,0.864350013532306,-0.000696949849604201,-0.0101835661402857,-0.113429553984401,-1.01735976932382,0.09469876309964,0.0360405450254246,0.223281879196804,0.807384727231611,-0.442382288291647,-1.09231371585891,0.151547701439473,0.173398727200755,0.836317046648144,0.376854700075952,-0.252018392086029,-0.797040618150355,0.173931456366543,0.355714532479395,0.80257375707592,-0.513666577034493,-0.509293751646958
30.35,-0.402266744579099,0.294945994990141,0.848205042185837,-0.00120602858784211,0.000888516610347137,-0.118119530379772,-1.00806622915755,0.0971671723148656,0.0537147845683088,0.289569240568299,0.883168422466521,-0.469936665359557,-1.08289389131024,0.172276857188991,0.200822016278736,0.99267114673986,0.555488937774419,-0.243404617897293,-0.832245445381068,0.149076270402834,0.37035646568516,0.70834235832608,-0.482363255154678,-0.526691386656103
30.355,-0.389697814593335,0.304005255047977,0.844020086366083,0.0131593434297374,0.0179082225608228,-0.110357302526375,-0.97138847681291,0.102479247782722,0.097030745136041,0.365643721369492,0.966835380010695,-0.487170827760529,-1.09239756140325,0.162516266772375,0.22888255562191,1.1023180278289,0.678669018355286,-0.184884123032149,-0.89064743391919,0.118402044743145,0.391179471230978,0.642566670617891,-0.46884474656421,-0.536507593664696
30.36,-0.391184317050146,0.274766730568026,0.866978880337226,0.0334058446999706,0.0477725877877396,-0.0994207226674574,-0.938623387813155,0.120089656204596,0.112634746487034,0.396896116279331,1.03544352955377,-0.486888901736458,-1.11844268452191,0.120128533355902,0.263038309672522,1.13956071525277,0.713135398903058,-0.101708462671192,-0.96672109658067,0.0846914280680122,0.406463981568812,0.6032758182272,-0.483886670479519,-0.554500507809093
30.365,-0.383431280691337,0.22676337740852,0.867916722549099,0.080033312862608,0.0744356587097255,-0.0871495647571856,-0.931936159283536,0.114569963611486,0.109857968147462,0.403311717578941,1.11194468216341,-0.486458168194759,-1.15553271350703,0.0613843009692202,0.28871450341048,1.10429868511228,0.651595853693669,0.000847331957339934,-1.05565312242002,0.0518388852437322,0.411157768209581,0.589767922323192,-0.507699650831619,-0.580059024179811
30.37,-0.383070804615114,0.213749460082766,0.880092863402643,0.147664647940979,0.111444581103867,-0.0675245160540419,-0.940993857262804,0.0852392692362811,0.0948060768583415,0.420985413417631,1.18395418418759,-0.506021938937094,-1.17432896276795,0.0140004667117171,0.296664710024653,1.06870050830365,0.549553266751373,0.088717103017712,-1.19062843050978,0.00882232115614869,0.379859966495506,0.607279966830793,-0.505780749280068,-0.629424392722405
30.375,-0.380001919357654,0.217939147036955,0.867785075105223,0.221601635214322,0.143142945067354,-0.0533647104001568,-0.946433776372184,0.053113157841351,0.0842905536166769,0.457766724909738,1.28912897888777,-0.525754008656251,-1.18779982600248,-0.0295417773454533,0.314513620950391,1.05839961428344,0.414294077367019,0.167668771490744,-1.29655838710605,-0.0402775445178725,0.324014540473677,0.627353799881754,-0.4327771974339,-0.668474670511465
30.38,-0.389430043260231,0.231687077006107,0.86979176347328,0.285127966794821,0.175103239287845,-0.0311793296741958,-0.958816633399997,0.0308794291644529,0.0863975360953053,0.510956960980758,1.39681760385891,-0.557419179612238,-1.18897934696616,-0.0692076783704802,0.324824047135753,1.10193156900825,0.277731479430725,0.20413467475003,-1.42580052185724,-0.153686993391172,0.228746507164706,0.608626388867302,-0.258971825249392,-0.718621140929539
30.385,-0.396888318233834,0.248112660303514,0.871614011497442,0.338181757072914,0.207545124499519,-0.018587786029779,-0.97193142697297,0.00773268275418293,0.0887960687634244,0.574854689399528,1.52360022163778,-0.612241217501346,-1.17768507295361,-0.12417916573766,0.344809938494709,1.18946700054491,0.132107883594928,0.218836798413444,-1.50374306054894,-0.270973303721869,0.140154117995166,0.531934223430433,-0.0709819930517957,-0.769301177178857
30.39,-0.387507090651908,0.237342915346286,0.877451224148485,0.375958690768873,0.236883178149459,-0.0145235541839217,-0.974106384840761,-0.00387294068067041,0.106086670499026,0.62537582821368,1.60743245362083,-0.643393347765257,-1.17239354955655,-0.197928214654045,0.379692273311573,1.30068248283078,-0.024167523150172,0.202550332303825,-1.56802979301789,-0.369204849009922,0.0671880991929469,0.439767112253642,0.103791025501382,-0.811477458849602
30.395,-0.378016893749862,0.214835663048751,0.884654193148524,0.41678702426506,0.267504428271598,-0.00702281711245142,-0.965650746979798,-0.00686352517867699,0.112561256911336,0.6522942699189,1.67927390184268,-0.644197159156936,-1.16188588682541,-0.25639178047878,0.400219146694013,1.37711685528682,-0.160158158116938,0.172325927294257,-1.61325987442486,-0.470441096831208,-0.0345445266219446,0.309944573287359,0.367697650651439,-0.870860406126582
30.4,-0.368263611532038,0.19017471068015,0.890112581386884,0.464726392828091,0.306900860391372,-0.00276335686915795,-0.978812757895481,-0.0237478564277607,0.122503174125827,0.626585440550935,1.73458506832086,-0.63811863062067,-1.15052997501085,-0.306552205134424,0.401249180654688,1.41727622803115,-0.295262565235831,0.14154801763166,-1.59822018448404,-0.529364020621853,-0.104804596756546,0.178258562726332,0.614726068314242,-0.908976973358371
30.405,-0.337764056644058,0.168959629207608,0.871992003631174,0.542064510197672,0.356104448642092,0.00274885307425931,-0.972868448007445,-0.0475270096699796,0.137310530213765,0.559031416096931,1.8019123296563,-0.622684723920316,-1.12335683538109,-0.336594088686644,0.386680875611657,1.42018562152807,-0.458434007766201,0.0900307337135933,-1.50120733678338,-0.574809958930177,-0.136035887369784,-0.0336409102053275,0.862692329696844,-0.92870032787323
30.41,-0.292501565551558,0.205191718993221,0.922208790548501,0.666670158005263,0.433072024381763,0.0276280823266583,-0.965840652839008,-0.0700396780639034,0.145515022717214,0.489952269171212,1.84848958063615,-0.605980441976089,-1.08308393157422,-0.341875481307752,0.360959129889801,1.40277733598598,-0.612615219977032,0.0380144039514556,-1.36606402197047,-0.586509436674256,-0.139254144050861,-0.263024355402598,0.99945086559499,-0.916172499224189
30.415,-0.268384093869571,0.190864695090955,0.942192485798684,0.752243564188488,0.49902078134228,0.0509784366739315,-0.964529019676987,-0.0729246082743513,0.131072457945823,0.430802372446128,1.89722479021125,-0.591528514259685,-1.04654629448974,-0.332058387981538,0.31906140423782,1.37438310061207,-0.736457194925759,-0.0121379939286685,-1.23954502449631,-0.575763396260623,-0.13703357253765,-0.540066616014512,1.08806408397227,-0.908157959262744
30.42,-0.268668881173917,0.182194318071991,1.00366430286013,0.825761993381415,0.569232843842234,0.0312364605840158,-0.975873253515483,-0.0726008538177636,0.10278400285079,0.387804301913135,1.91537022666391,-0.579117717936142,-1.01248220788766,-0.323813392357558,0.290546795090986,1.37990013436517,-0.822244145192235,-0.065311059867498,-1.10922478912877,-0.516768428974348,-0.106471343760218,-0.681344738782247,1.09269784406588,-0.911802533993102
30.425,-0.259790043263197,0.237204831820609,0.881972877873873,0.993401543017573,0.672600641849737,-0.00288686399085566,-1.03091969131683,-0.065020312212518,0.0403133466185042,0.338257335688919,1.95583533296062,-0.542817283405956,-0.972006438827472,-0.325666791032212,0.23384346127376,1.40775797613389,-0.848196475939682,-0.126675787878392,-1.02963002806186,-0.461798445640227,-0.0710217684510902,-0.688983873510437,0.996860914310813,-0.923642698857641
30.43,-0.313982335594082,0.235747124100321,0.95891991343685,1.00312539719798,0.797312021919864,-0.033639283209668,-1.06977650639157,-0.086346534864338,-0.00772571351930157,0.339377565942646,1.99136107700066,-0.510033360579449,-0.958166555759941,-0.342594566661625,0.1749134237326,1.4656536868246,-0.813667084271147,-0.165965623669202,-0.97934929627505,-0.391226163867156,-0.0211495600886864,-0.56630187887308,0.814242508408524,-0.954433732789137
30.435,-0.341415789452418,0.222257214015428,0.959844700644008,1.08550186960216,0.864044287869499,-0.0839533459211669,-1.11449846164592,-0.12035721660143,-0.0741459412895033,0.310059344803763,2.01093649306943,-0.484491443364623,-0.955436363764814,-0.379129012916314,0.121225152160094,1.56625164575593,-0.718074901328997,-0.210254670440679,-0.973755491059735,-0.314169026101404,0.0348702714413717,-0.355814460400542,0.58829783444844,-1.02182065292042
30.44,-0.321868147822497,0.326159274069775,0.896947316911469,1.18799284660956,0.96908121178071,-0.114686878672283,-1.17052559915319,-0.149040208973073,-0.153232619938682,0.358241769971702,2.03608027447053,-0.452990883285409,-0.985421957833676,-0.419819923276402,0.090389639073579,1.6634158937479,-0.623739435126923,-0.235833173843306,-0.987223785638431,-0.243711760411537,0.0799878105639283,-0.0908366065259073,0.347220780936684,-1.07630766026862
30.445,-0.355592339269034,0.271690191169924,0.958249591351182,1.18421744896639,1.13715840629012,-0.151239707689891,-1.21745706881734,-0.162069776394078,-0.193322005189711,0.497568830170942,2.04818622453144,-0.428889479408056,-1.02082508506436,-0.448132512508407,0.0357165250278159,1.76127150207228,-0.524393921882059,-0.250295946343562,-1.00309599186955,-0.144750217072117,0.176260741991943,0.329179847317233,0.0237565286443529,-1.270711872379
30.45,-0.405301779388585,0.251311738177422,0.965594335266532,1.23122228117254,1.24855001460123,-0.240087131303109,-1.2672270748785,-0.169947284426658,-0.236995974100925,0.67706652694749,2.06039566444699,-0.388393745537931,-1.07237507325086,-0.467825516960677,-0.00778430004406043,1.84818197644897,-0.463464362319467,-0.247491152933047,-1.03682887856511,-0.0434790368249559,0.271585715502595,0.613809032063328,-0.286531207356352,-1.23893626205821
30.455,-0.471472899927296,0.311249785397676,0.914645937739565,1.35630231082692,1.37241168573004,-0.352470751404225,-1.33244885166497,-0.186411614782552,-0.283709560654688,0.863702416227941,2.07263234860919,-0.348080342858314,-1.13025582452044,-0.486586652285468,-0.0449514159479577,1.95249900639849,-0.416333320324359,-0.242276248027703,-1.05537458210309,-0.0790942586860318,0.332967153505925,0.873303746253367,-0.598646434082591,-1.33877619106899
30.46,-0.533159182334668,0.337493100919537,0.872722097749332,1.39998205932733,1.51901965084605,-0.393484483885153,-1.40892683702561,-0.219395138266664,-0.317578872802464,1.0917627369734,2.06678419257655,-0.29827108248862,-1.20440889695919,-0.518957688793436,-0.0698940050935499,2.12475490982006,-0.377711463548447,-0.219061983808965,-1.03213381156523,-0.0755345299512901,0.363169840502968,1.18600343330093,-0.666259696578141,-1.49229077500609
30.465,-0.531735247087655,0.260349083188718,0.958501854857832,1.46336118090367,1.72190821564813,-0.450790052385379,-1.47394350042829,-0.233717842755304,-0.360714387605812,1.28178026787657,2.03055621007063,-0.250826219885257,-1.2546829840049,-0.496517832209763,-0.0994306554030446,2.1097047801212,-0.412509066825722,-0.274037157244709,-1.04263119195346,-0.0685430504463312,0.414913137182038,1.44758491663151,-0.565395676815183,-1.58241916251349
30.47,-0.486299340122599,0.228118137957157,0.957961851431269,1.64494123251116,1.86305919820641,-0.429433334999643,-1.55546730799843,-0.200214132461971,-0.419948865189559,1.59637549313824,1.96529540874099,-0.157827985630895,-1.29791072392622,-0.48962476321903,-0.0915292613318167,2.18456939757167,-0.494994966093483,-0.358093553788812,-1.00577744210363,-0.0670270270846852,0.464910394283076,1.7142092125031,-0.452762578146839,-1.57595200351773
30.475,-0.503484339268016,0.215494005530342,0.916309569914813,2.04383809575021,1.99759484820044,-0.480529819565773,-1.58891165606858,-0.164284515984177,-0.340104673581389,1.99386336268196,1.89721226988477,-0.0668423997224376,-1.37636064531764,-0.522573315336593,-0.0368678889364704,2.48787966276372,-0.6073894356185,-0.37539372795858,-0.969829214268893,-0.0893590580084807,0.484027103854791,1.83430859970014,-0.35230515734605,-1.50838216986484
30.48,-0.388660803488408,0.50177859982094,0.915327123941277,2.35323751389975,2.15256802059229,-0.827493504505944,-1.59382325588221,-0.127395052117368,-0.174020882867868,2.4059928478905,1.76390980747366,0.0645109394501787,-1.43930740246101,-0.545755037664446,-0.00974129408076042,2.88814894829049,-0.715380169510778,-0.334517980879929,-0.936582604816614,-0.113184819796036,0.495718617347916,1.90399056676542,-0.229748095726695,-1.42992186327924
30.485,-0.373700833375757,0.537499863511964,0.914816190997555,2.16337858410077,2.30492233454089,-1.10362204409207,-1.58184640844559,-0.165761920269794,-0.0297230452140399,2.36317416475877,1.48278589240299,0.183997234424303,-1.48021734623873,-0.53624861512985,-0.038036760830149,3.26591878989614,-0.796131747365237,-0.310412832430463,-0.898268078544331,-0.115083718267337,0.495389107701005,1.90286233421783,-0.142883825989529,-1.33573616691125
30.49,-0.365234324857795,0.358368545774181,0.846270872490915,2.23716985261504,2.49307788327718,-1.27957486188475,-1.56816120337782,-0.271398456961951,0.00178832092880944,2.2383140497116,1.16293286039567,0.242610310914036,-1.5103436405946,-0.51369412693994,-0.11180442473967,3.66419234637955,-0.910341665642663,-0.340996261034133,-0.869018555954475,-0.112953121127949,0.485010152985734,1.87327026091302,-0.129309955298428,-1.26535127469175
30.495,-0.503988982671993,0.415145643476648,0.826596894023977,2.71611876777061,2.6039990317238,-1.44965536630122,-1.5024217591992,-0.297562644027332,-0.162879449275772,2.35640903964426,1.01541820392856,0.258198497018197,-1.47284707344474,-0.484901437758326,-0.195947273859225,3.79965590049033,-1.02851724442246,-0.375267018065659,-0.828313026779432,-0.100581603715023,0.449533075337308,1.78105992375758,-0.148620800056716,-1.12469172442941
30.5,-0.689310700532183,0.529651812424832,0.852715381661323,2.91436319813106,2.65724189995452,-1.59625690439644,-1.35116377353443,-0.195386668814949,-0.352542548068154,2.98494638888207,1.2207038590905,0.29035315969753,-1.3848387301509,-0.443029064294933,-0.314567903248992,3.75552390295951,-1.07541371388514,-0.379267870134018,-0.80721179789607,-0.0967640990649486,0.40173362376149,1.65670959658364,-0.178393872033799,-0.980921151383206
30.505,-0.699458524535687,0.60131259603421,0.82508990448213,2.97412124322547,2.67109784016119,-1.69132506440587,-1.25925524297021,-0.0892340012736206,-0.345394044211715,3.45467232869807,1.53181134238003,0.327975810604227,-1.26208536482757,-0.380994566558765,-0.363874588934047,3.68955813638979,-1.06779289790997,-0.36090950865805,-0.789774390596933,-0.103508283945661,0.343946005814342,1.52563531059062,-0.222956089956673,-0.858598603318181
30.51,-0.645028478864079,0.582338530933981,0.817652228364374,3.09955262090564,2.70134442274786,-1.78828919468312,-1.20224897611945,0.0278447622801896,-0.227827441068403,3.55260020073199,1.76215038477274,0.304876218601058,-1.17879342531566,-0.37120372917543,-0.320694925443846,3.68525227559411,-1.03961255550438,-0.332833977554095,-0.781209320331951,-0.120368861631559,0.281150489479422,1.39693823279192,-0.269646572238459,-0.77226812894171
30.515,-0.600380932262135,0.531749561456942,0.828548569743777,3.10078994226739,2.79840791594376,-1.86270803333134,-1.16513123259174,0.121430315520712,-0.117818515281829,3.35311260841102,1.86808947632363,0.317182466073752,-1.1633752755377,-0.423072417136288,-0.278441070379139,3.58115867521278,-1.03009161480951,-0.325482569954514,-0.766679376614658,-0.135492463643897,0.192028260686998,1.31580583671634,-0.298952873538515,-0.728418891078533
30.52,-0.527155039139539,0.482309891589982,0.885915028712142,3.11103807298616,2.9073821495011,-1.93279082166531,-1.12787013706593,0.15624648950282,-0.155132793960846,2.88352904590206,1.90729261869083,0.412837310994137,-1.14224365508591,-0.49078912578993,-0.24857006147617,3.30720826261216,-1.05310740487663,-0.330464242648673,-0.764807433348955,-0.134069365140401,0.113041731280748,1.25861471150066,-0.320320058706683,-0.703710089526479
30.525,-0.541068227001324,0.408775367881388,0.975913626608379,3.19056259167026,2.93326664300323,-2.0053181459329,-1.10376351676469,0.0949816758735518,-0.241464180986006,2.52708621904564,1.93354113786623,0.505527720686242,-1.08368662993678,-0.531513043824399,-0.270036300735368,2.88431643502582,-1.04518419561999,-0.337520212778241,-0.767578993249066,-0.132310335285014,0.0270990796932785,1.21400476554303,-0.307267002054715,-0.682547806188009
30.53,-0.518263038762739,0.303057832490759,1.01160327231749,3.34275986265442,2.82844957757477,-2.09740842693087,-1.08389409390552,-0.0239082090960897,-0.259248735484156,2.50135173119903,1.94752088036549,0.553466074781798,-1.04387852868619,-0.527548219116318,-0.327986119901567,2.6000577538711,-0.948128395687804,-0.350730500898699,-0.770316717602648,-0.133921023933807,-0.047799771463683,1.19967057545843,-0.237714247032024,-0.676233121395138
30.535,-0.522331036367063,0.257953138118634,0.909875714640343,3.61887550147937,2.72889421706676,-2.19109784897498,-1.08486126510966,-0.132300940310234,-0.239877405300636,2.4518485780016,1.90905847036425,0.556871464010309,-1.05584260714253,-0.47769047613736,-0.363255704915235,2.49082771277193,-0.839922479920147,-0.376423758531107,-0.785472303308167,-0.130790292861979,-0.106788355294583,1.20882725195627,-0.151091747806919,-0.682984272435551
30.54,-0.516533163272221,0.360104834566475,0.852736471488089,3.8291181015752,2.66328062320794,-2.18410308983593,-1.07255017354121,-0.196759233993668,-0.254830135726806,2.23419688784797,1.78355133694298,0.517018010107517,-1.07773148282495,-0.485049423971842,-0.403919016097914,2.4773327682947,-0.857275555859636,-0.407192016935297,-0.810122012062856,-0.119340078440942,-0.157236187505092,1.24066834599288,-0.0391165793780954,-0.699323196334243
30.545,-0.65026182171969,0.471831624107128,0.778818330373042,3.82423731825795,2.63947243393711,-2.16580498311818,-1.03505125731756,-0.193159430711431,-0.349213374923569,2.07001934363547,1.65725412446452,0.480994734905956,-1.05746492428009,-0.505545568316817,-0.473052982366799,2.32339491675694,-1.01430716057723,-0.429269397981284,-0.842232593231782,-0.105168737980926,-0.168579293523261,1.2613035895814,0.0760470660674802,-0.714893485914861
30.55,-0.734627774531436,0.437459003560722,0.716330535968574,3.69026439592495,2.58788737685392,-2.09790511973334,-0.975596419533941,-0.197942082067529,-0.417286397028827,2.06078311278088,1.59280639695648,0.500687530784329,-1.00703883254405,-0.493376563476586,-0.512206213816813,2.18167469583295,-1.1598792538574,-0.387039373957664,-0.875831642985363,-0.098580176893181,-0.16249933895242,1.28717947755232,0.231643489869696,-0.726898099850229
30.555,-0.764209627997373,0.455145261276415,0.709414264628893,3.60970041787565,2.50713841789626,-2.06251621419361,-0.934904685080687,-0.212348879753169,-0.47874443915608,2.0721461787868,1.53731770646577,0.525175873578393,-0.950350769426085,-0.448871151591817,-0.559169225664209,2.07264018016667,-1.27798271676026,-0.332246057912594,-0.927720082237036,-0.11048065357219,-0.141427837806733,1.31617804029859,0.394869466893,-0.731488287823746
30.56,-0.773386701827296,0.472338953257831,0.752411912592789,3.53030753939024,2.37880378054476,-2.03255824387053,-0.91023569193622,-0.229950687998868,-0.507212107867619,2.1838096612205,1.46796666796208,0.528955286835693,-0.911483156367503,-0.393856237826602,-0.608360527918909,2.10006867212355,-1.30460034388405,-0.310141389390672,-0.981310160204023,-0.11839845140871,-0.0932881799664303,1.34933073066263,0.531438642369355,-0.722700919992779
30.565,-0.655653622348438,0.330510735036927,0.9896717602746,3.41734520591046,2.08812522737972,-2.05873647265602,-0.891361385036618,-0.228895558496669,-0.490194829753493,2.37569769902084,1.39721708984966,0.526480507914534,-0.883766685327987,-0.31529844848088,-0.648775319053708,2.23213906759579,-1.24017443937148,-0.335801742225111,-1.02162437025627,-0.130511343059676,-0.0435015380525465,1.36764607854947,0.626544714162251,-0.69934469910275
30.57,-0.548440355449201,0.248172978856079,1.17349600426212,3.21089399050941,1.58915296594318,-2.25824182209631,-0.874472171285518,-0.16065679711765,-0.41554232108636,2.70393974451807,1.32047547855011,0.528408255873523,-0.856034569198468,-0.268953609521721,-0.673280415482227,2.35839483611352,-1.14614335773412,-0.36590268030312,-1.02104020296741,-0.166824234103427,0.00848866933556719,1.38186047781361,0.696963507876322,-0.631344920054843
30.575,-0.529940790953921,0.101344844481917,1.28928174438604,3.17232054166627,0.907814654398774,-2.46569507050811,-0.860637130387025,-0.0333573920277163,-0.362419122178688,2.98417218887866,1.23231379222398,0.539509280510137,-0.842848928525763,-0.235122300818002,-0.686686370198455,2.48919771548189,-1.03299742118314,-0.388221757689268,-1.06711263716481,-0.176553572383446,0.0810465645169709,1.35757178386253,0.689146756597971,-0.524296421053426
30.58,-0.558421634871181,-0.0683731813322629,1.35856175307806,3.39504917588276,0.421766808359141,-2.65219717453839,-0.842014485614425,0.0726827353509136,-0.344402171704981,3.11208841261307,1.14681084957597,0.557522173092044,-0.840085652527642,-0.227113468223789,-0.698022003095912,2.58376595766067,-0.9228253177206,-0.402176901066073,-1.14878780742839,-0.182613081390467,0.165758818051219,1.28477028273316,0.698349184259081,-0.526753260667816
30.585,-0.507909400861864,-0.215091448203246,1.44187214419509,3.72645057577535,-0.0789070979270975,-2.95931659281316,-0.800662965307724,0.135943883875557,-0.289304956467864,3.27177743337518,1.03920541672155,0.599845705794569,-0.837970085080782,-0.222652830492206,-0.715894646370196,2.65384994426572,-0.779760719147457,-0.408605787216741,-1.17861351402495,-0.186561669594261,0.220202911158768,1.15958213416893,0.731130379642835,-0.568592579884155
30.59,-0.582309942274219,-0.135458107877422,1.31302848040128,4.21403706030385,-0.770923312978791,-3.28036640986289,-0.753527875356458,0.147893207966916,-0.305470063729846,3.0818927558343,0.911349081594398,0.667291561096908,-0.850143627852099,-0.230802182279932,-0.719296878493434,2.7088948071113,-0.624041466097993,-0.400250534496811,-1.18279640804608,-0.194205695205565,0.261934582959652,1.06247651157084,0.744606497251837,-0.559488648650833
30.595,-0.712237248315382,0.245578984407948,1.000491898843,4.48190852521143,-1.5145762589053,-3.4990790385118,-0.71645236660143,0.109707700871677,-0.379303895237582,2.82650648087802,0.790528763987576,0.718090640927378,-0.883097597768205,-0.26521949726108,-0.701689147260516,2.74717160272808,-0.511685699344168,-0.371592837245108,-1.16614603376845,-0.206088431730623,0.310652899026143,1.00145657827478,0.735342965019179,-0.483904845763589
30.6,-0.797167735236104,1.30611981585315,0.744427569908619,3.88132124224326,-1.73670007869354,-3.58774245940332,-0.654141899474864,-0.00336389431536518,-0.400265542518319,2.88684539933105,0.694136699450295,0.794897758185221,-0.918279978171167,-0.29569210713288,-0.684235362497433,2.71906224496231,-0.46838769668767,-0.335828726901289,-1.12933537859552,-0.236236502634972,0.331793188640029,0.968511710197992,0.671518857037337,-0.291997066835783
30.605,-0.573197900682453,1.74095777688558,1.11708848975651,2.24482814069428,-1.75513007368438,-3.29863395446827,-0.608852088479512,-0.105965760295915,-0.307645333922411,3.41746175801247,0.542167055298377,0.90634580008945,-0.966051500967093,-0.318648365572119,-0.634017322009125,2.6531565542132,-0.506994569558565,-0.299229133584552,-1.11557610830679,-0.189888346317399,0.365236701153971,0.891698868713456,0.506065977857217,-0.116076827147977
30.61,-0.214588158801142,0.815653941641991,1.40497989527301,1.1028523685078,-2.33939757224147,-2.59238618326428,-0.612166491195958,-0.169642370985051,-0.181145085695364,3.82440447379373,0.354323225716005,0.942768216133118,-1.0045953807189,-0.33407838714986,-0.595858176566457,2.6102496771261,-0.613932609866595,-0.28999359638006,-1.16041256533576,-0.172269350733642,0.376797559433207,0.881057877589622,0.384303600949183,-0.0167648131339254
30.615,-0.111311796576195,-0.189200064585465,1.2750146454253,1.27403034743377,-3.04764027604738,-2.73496410676311,-0.650777091193432,-0.165985434160019,-0.122046362518294,3.98426715801598,0.141229873953729,0.916560289761049,-1.03283841063291,-0.338194041251796,-0.613790819566179,2.55759623446441,-0.59173948598175,-0.324092522623623,-1.19816056526724,-0.125857456326384,0.388727466252881,0.799170398243539,0.285191333436133,-0.113756199288409
30.62,-0.0936971661202445,-0.496112828949751,0.90036648820911,1.62020456575311,-3.53918227653883,-3.25564577031428,-0.663734946585329,-0.118468991322965,-0.051053446576217,3.97783295113108,-0.0461091109256546,0.907206471217222,-1.02265618641398,-0.307823047620339,-0.685642567916509,2.52827977134967,-0.828344847723542,-0.370613017776523,-1.16905745357461,-0.0988349059740062,0.383821505558166,0.720367343702094,0.207906403692198,-0.323961617585278
30.625,-0.159507399660146,0.0231166465846609,0.561000857404983,1.93703132337509,-3.54750385639814,-3.50789605407308,-0.668420894138394,-0.104320931996009,0.050880990454844,3.63506587357021,-0.259533692656274,0.95378448335339,-0.99539030996983,-0.238605632630462,-0.743112769990878,2.54557276520812,-0.951216440082642,-0.391603936048801,-1.11896770028673,-0.0792932302288755,0.370098798232671,0.715859424168756,0.108586538365505,-0.39908429279551
30.63,-0.185199979438122,0.289993590095435,0.502698724891033,2.00972832996287,-3.3610328787205,-3.37374634070619,-0.631479501882639,-0.13630130166159,0.0323780854219112,3.24757753176456,-0.438275036505674,0.974688304699577,-0.954205026678863,-0.119236084857713,-0.775005454049192,2.57924162281326,-0.96696793835396,-0.408068768295874,-1.0490651114931,-0.0656081546654733,0.345540682963387,0.745870482071357,-0.0320133878711852,-0.366908691613601
30.635,-0.189703425560565,0.312349619980346,0.543205394242388,1.87109540457993,-3.25507397292572,-3.14981690620009,-0.573758704315614,-0.193806628276513,-0.0569583884624136,3.12656869550967,-0.589594441092149,0.957316425666233,-0.920890052021903,-0.0286107229040084,-0.782089809595612,2.63165662148827,-0.990136479463173,-0.442998526680021,-1.01370828988053,-0.0622154928621144,0.331241469628359,0.767972920548813,-0.18427106942396,-0.296784678630067
30.64,-0.193543038528427,0.327317544079575,0.55368952293468,1.709487407794,-3.33596782698154,-3.07291097236092,-0.516846930851355,-0.248389506850244,-0.125383687940535,3.32942667323295,-0.692366331255324,0.946307970495654,-0.886036169510823,0.0162517529453294,-0.759285451527367,2.6629182634268,-1.00803160952379,-0.493929254722289,-0.972360568236156,-0.0529526710730455,0.305202143982844,0.782154130478067,-0.319941723475567,-0.22586876833725
30.645,-0.217929606472005,0.382328336862384,0.529086359129268,1.5363834821004,-3.44937098651693,-3.03597421767772,-0.499576345421645,-0.255940566612697,-0.115064419287254,3.59393094081589,-0.77972704460345,0.941153101445948,-0.845523138387492,0.0313675704422186,-0.735540290937631,2.69106592810141,-1.0036693304342,-0.532911685343433,-0.931610947537182,-0.0295885471485402,0.278062726995571,0.794066715072019,-0.3571730153613,-0.13285915540885
30.65,-0.22929555225612,0.413781703526608,0.501342868518106,1.34482441905549,-3.49867180066244,-2.92182931327486,-0.501477951100341,-0.231667022076757,-0.106988447265646,3.7101087912633,-0.874792553309547,0.935817409207375,-0.803966742244294,0.0334617472982531,-0.724400780717819,2.66189751899392,-0.983168470635427,-0.538047535619272,-0.909430976811367,-0.0117342329766569,0.259654536985605,0.796965018910884,-0.31488355603479,-0.0429401894658406
30.655,-0.204718803507475,0.398835156437103,0.482672497393218,1.18635179073229,-3.47968645635834,-2.77229585020532,-0.504285026910716,-0.207446542494175,-0.117459361698893,3.77103182646659,-1.01886739817806,0.928154669601581,-0.757299229772391,0.0364584725364886,-0.689635248359595,2.60130032780025,-0.932360972785221,-0.504470015185465,-0.90153261993128,-0.0143876425836219,0.258719592589005,0.795615315437317,-0.223695273851484,0.0472616329402738
30.66,-0.178856726954346,0.349145933887513,0.492274000188658,1.06791687899767,-3.39057596041146,-2.57040776501025,-0.492977075623143,-0.198181954252959,-0.115060527567546,3.88135332560411,-1.12700938621051,0.924141556611839,-0.709996083684705,0.0434935369796294,-0.668544580131599,2.52119150198167,-0.863123865265535,-0.457214813599299,-0.910109923846194,-0.030622191129577,0.257915686358913,0.793075168544531,-0.158012711258622,0.0836206916237907
30.665,-0.16192887705588,0.313043687776699,0.507863639211312,1.05940944152627,-3.33752957311645,-2.40673130904851,-0.477623644545512,-0.205472882758765,-0.0894392535196557,3.98272771379714,-1.21792643984237,0.914573625419474,-0.675311871270961,0.05867362647922,-0.640299752317041,2.44543365252954,-0.764529622450308,-0.406585224593628,-0.913840061458592,-0.0399632403497647,0.262866362777009,0.778701449465612,-0.119260094773017,0.109314868774239
30.67,-0.174770761399809,0.306327371281685,0.512037555361054,1.10219461345628,-3.30317927319016,-2.2322755016153,-0.487464308856972,-0.199557333145756,-0.0696522404550525,3.96845221324417,-1.3003924158985,0.900562147930447,-0.65110285340328,0.0702101448181077,-0.622448560274808,2.39882296781171,-0.697134041306538,-0.371843947922018,-0.925129998847908,-0.0551401517181562,0.26602183606621,0.755199066018859,-0.103118921422357,0.129107977410608
30.675,-0.193499076868715,0.348120625143653,0.514326906842846,1.15057264222276,-3.25024713877804,-2.05607418085608,-0.506377827879396,-0.186814668994807,-0.0732875580520909,3.86505424294278,-1.39141601243175,0.882758372317955,-0.632711358886388,0.0857516555553535,-0.606192371750918,2.3568766652985,-0.642480429497885,-0.360601763208944,-0.934186157673533,-0.0726763392961286,0.271362695957349,0.731324229849378,-0.0999777978003584,0.14338398099361
30.68,-0.215893750688598,0.404532935319026,0.52285517228403,1.16203048337138,-3.20439019816731,-1.8640075390425,-0.532673444882635,-0.167725330610965,-0.0742720031176189,3.74650936681169,-1.49249874962433,0.874940351042929,-0.623360896844803,0.109031759419372,-0.59152815280105,2.3179779164907,-0.595722589085375,-0.356318924173809,-0.941212674206321,-0.08510153576608,0.273913796691561,0.696403619757753,-0.128364451127456,0.149676955042581
30.685,-0.219790698221892,0.460691854304535,0.544784929234445,1.08988509153068,-3.13922759773141,-1.62232637464358,-0.559610078951393,-0.154665800722168,-0.0827432463096387,3.60742983832394,-1.59798401824728,0.868355086010185,-0.622652704329807,0.131162828689344,-0.57232842100148,2.24172162159395,-0.54770790671618,-0.352834450409538,-0.953842963573193,-0.0969579888690107,0.276321971438248,0.675080853835681,-0.147570185751796,0.128698996473426
30.69,-0.240982200140649,0.487822140516093,0.569457446440796,0.983313920426623,-3.08637262442619,-1.43224413557769,-0.600752264604555,-0.132365523999633,-0.0754451211510031,3.43453415725461,-1.69380001450542,0.875133922692566,-0.623578288351007,0.142048484664393,-0.559116671913844,2.15703999803521,-0.512971857541329,-0.337208328472654,-0.962658187720153,-0.118620726506454,0.272062859750008,0.662472199756373,-0.222224711188287,0.0829346741250374
30.695,-0.263767455975159,0.50609083710495,0.597162675218837,0.863815046506603,-3.03372664123592,-1.24647378341358,-0.645345087278136,-0.102105585152168,-0.0725780250983463,3.18152786263995,-1.80028855297319,0.882899425644381,-0.631524539904314,0.148607675049371,-0.543919761839996,2.03237864213785,-0.476537502189284,-0.31071796255522,-0.963913417701653,-0.128313677911572,0.265967468780939,0.657113450877796,-0.287702571306589,0.035841314013236
30.7,-0.290896243488397,0.52014215987389,0.627348971611486,0.74403662148966,-2.98554752336295,-1.03424315118731,-0.687864092594645,-0.088399355791045,-0.0701445952350704,2.87108839406167,-1.90427486993955,0.902148527572946,-0.64226903553584,0.149507549842738,-0.526190040287909,1.89566581357308,-0.439233104029876,-0.282991558391874,-0.963574714047636,-0.140300424572438,0.260651228446195,0.652769725235841,-0.34290917865914,-0.0200628277785817
30.705,-0.316595997001253,0.534825557283953,0.639607098506539,0.625055709437257,-2.93097230037314,-0.800009021289197,-0.730061978615385,-0.0860455779626303,-0.0787763636326693,2.55382561007791,-1.99097576097774,0.925874986136479,-0.66135463410362,0.143308624776463,-0.49502088246797,1.71118529711304,-0.39010668806721,-0.250412581501203,-0.963669509183355,-0.15715431588515,0.244833497406719,0.64705215249667,-0.384947916699301,-0.0653358474108327
30.71,-0.346852912291686,0.554677941692191,0.659277612375534,0.525100827762156,-2.89403899490589,-0.591692113650611,-0.772828177454864,-0.0797073539063823,-0.0955800048558548,2.18318061807059,-2.10282694647786,0.935425057153444,-0.688238888287581,0.137885695117668,-0.476548495135156,1.52600477621019,-0.332939334390091,-0.214335691621839,-0.95998033721993,-0.17130276759617,0.236638705364053,0.634847008781693,-0.396030743567403,-0.101192733046509
30.715,-0.369908424508927,0.574920924995026,0.668028015480479,0.402217541330246,-2.83648405443756,-0.347952993803183,-0.800554450178468,-0.0777784326568989,-0.100460719450625,1.90584466274503,-2.18175728852414,0.933169304975239,-0.710457514028181,0.117336265477066,-0.458120070224176,1.27697425996338,-0.266001305241312,-0.18619011971667,-0.953753976741445,-0.186884709858858,0.231429083027902,0.599859038559335,-0.380248021040102,-0.136178129742671
30.72,-0.393551281110171,0.592022520792434,0.68365477222322,0.303089892032687,-2.77027338174362,-0.141811920112409,-0.855531807868243,-0.0775209655529803,-0.113574274889889,1.57665953994766,-2.27317947361379,0.925132822634729,-0.729135423592223,0.1101293019181,-0.44612249346314,1.06660927588866,-0.210080407802801,-0.158839303352253,-0.943070511203379,-0.197811829414982,0.230805544124899,0.572405033862629,-0.341837600185776,-0.154093543466477
30.725,-0.435074736285751,0.609208437778295,0.696109863206167,0.190797644054075,-2.70464638080688,0.0927756858951643,-0.897649005669384,-0.0764743544813745,-0.128928291792071,1.28927701704993,-2.33727180503209,0.914870331349394,-0.750985381062893,0.103033948670443,-0.44108257226631,0.790031094850302,-0.134532891766245,-0.124558620751571,-0.930356382746957,-0.213148583998788,0.233354281024563,0.544586900124573,-0.2971868330213,-0.159305644582703
30.73,-0.468966274578435,0.601071926217684,0.711557410174683,0.0684626354688198,-2.6288990377382,0.335058241616472,-0.94431174598743,-0.0812796395638388,-0.15097240415819,0.96337109730228,-2.41305843499479,0.890633114036051,-0.7667765799777,0.0938737839122515,-0.429452579402372,0.564413131902658,-0.0639533596283197,-0.102033490013714,-0.921921200636298,-0.225042049516377,0.241921141443044,0.503564767502879,-0.237573562285528,-0.142257551777953
30.735,-0.511896593516859,0.570553035073706,0.727419078062104,-0.00554429985969041,-2.56634482575796,0.534786767855214,-0.997980013132589,-0.0816630628434477,-0.16452143085059,0.6807382365899,-2.48011712261262,0.868034857044828,-0.790997338088986,0.0863404629556118,-0.408013092953821,0.343711422772365,0.0112280221920097,-0.080201287973628,-0.907904476986591,-0.237392588837723,0.250963643762733,0.458500179646322,-0.182918244081505,-0.121194136525362
30.74,-0.543422393582617,0.567696540926123,0.719802830478068,-0.0822508145972327,-2.49287050438167,0.751782428878697,-1.04346587565834,-0.0929361303166009,-0.191972778422052,0.342897874801967,-2.54129509050504,0.842028793401488,-0.802976998340295,0.077852760388027,-0.388988524528296,0.195863585155434,0.0746108615794886,-0.0638644949858773,-0.897091592295203,-0.244922837477064,0.264896525961861,0.399578223555799,-0.115293462043955,-0.0668366827125132
30.745,-0.565313598109448,0.545723280137925,0.718907427129549,-0.160795680661956,-2.40063474726196,0.939488315718947,-1.07497990809184,-0.108103173519981,-0.211885606418698,0.0482324441050608,-2.60223714837449,0.81555834503667,-0.827047681390817,0.066411537601672,-0.351809245445976,0.039838380530529,0.148093450161169,-0.0511389433878907,-0.887455344528832,-0.245947711466009,0.278761406761045,0.344443260302766,-0.0668121838583858,-0.00514939645220036
30.75,-0.59201374166157,0.499300454007403,0.72180668069456,-0.23423629819457,-2.29342939293632,1.12484023035449,-1.10654893305017,-0.13126945587566,-0.238659790015753,-0.276769314907618,-2.67485391424942,0.77413800442275,-0.849758396785511,0.0482163778671794,-0.319167367172487,-0.0761502149766815,0.192095888167782,-0.0358158764393929,-0.874749017258485,-0.251419041052829,0.297513614926073,0.277874931549993,-0.0162222950281103,0.0741784568513208
30.755,-0.624576112913552,0.459604852180252,0.732766292227468,-0.285112848510615,-2.18494130426029,1.26882483166339,-1.12903401500229,-0.157003183547568,-0.257734611539083,-0.54274824465079,-2.72591655739621,0.723686181335796,-0.86588457239304,0.0320969038578553,-0.289677599933276,-0.194656006616236,0.246522187540882,-0.0177476757752844,-0.871499990341463,-0.255343651935406,0.305050567225884,0.222881313321532,0.0229750167693484,0.156472909905313
30.76,-0.675054654006265,0.434332630111004,0.751598553349603,-0.320193204534273,-2.08033333780493,1.37829990393689,-1.14547041101343,-0.179800185117119,-0.273753869633732,-0.773028990128097,-2.79101505742462,0.656789858167823,-0.879659862450021,0.0197322795761271,-0.248764424111585,-0.309109377070669,0.307969231371468,0.00368138437014429,-0.86610278426451,-0.261949416897806,0.313734787862428,0.175307219228098,0.0563919738308996,0.233175623958775
30.765,-0.738802512635737,0.408017500058319,0.785551965480387,-0.346430351111172,-1.97410563081594,1.4691226566699,-1.15772438063144,-0.19677492074956,-0.308129330818627,-0.918729332133508,-2.82863403122169,0.606850366026221,-0.889830181824704,0.00876132876939052,-0.219628980340251,-0.41518508689078,0.34531421641362,0.0176347461992673,-0.861481643492854,-0.264238697715082,0.317109550050477,0.114444617032413,0.0760111232106325,0.317912853952723
30.77,-0.78607549352348,0.392367160268235,0.782713863067045,-0.35956317180262,-1.90221127618786,1.54724237000772,-1.15602429413686,-0.218650620469852,-0.3536455168337,-1.04949789413271,-2.84995958645912,0.546586086353741,-0.903019567664438,0.000612427867007563,-0.174635289127432,-0.495377210926518,0.397640819168601,0.0384295379401842,-0.858953001430618,-0.269470378351823,0.313671619614864,0.0719013047611298,0.0834957957267761,0.378568985558924
30.775,-0.834094685663353,0.379428401040784,0.747277092009218,-0.371592775183866,-1.84458228288753,1.60855469146957,-1.15968135634026,-0.23320247917738,-0.369430552718115,-1.12370402540229,-2.85180924506322,0.505338972019731,-0.918569594722347,-0.00180235566195934,-0.137849808959863,-0.575752316036778,0.43273641213243,0.0524277534159106,-0.859334187156758,-0.272203149633562,0.316180768362656,0.0275255448292651,0.0831679642574875,0.442281542860667
30.78,-0.858986771003584,0.373985417211317,0.686248021560758,-0.404553548772044,-1.76539907799269,1.65094241407585,-1.16293462532271,-0.24559622263475,-0.387289035790891,-1.16296492304791,-2.8516402248171,0.450081732572725,-0.927151501248283,-0.00410184299027527,-0.0811680129958331,-0.66418111457986,0.463634579879971,0.0652261786805065,-0.866663410651634,-0.269962274347734,0.319264852828326,-0.00945156721081093,0.0770071068696828,0.492049345272353
30.785,-0.875166251109722,0.368069285130002,0.617734232845044,-0.466078510244168,-1.63416354676228,1.68005857804,-1.16096458221544,-0.244643778440733,-0.402126418705628,-1.1498257785427,-2.83000976596128,0.409740705923649,-0.943736669905968,-0.0101826629885761,-0.0316650093265779,-0.754976900798638,0.476882561112539,0.0721322687793264,-0.872510513861819,-0.267330294219647,0.324595224831096,-0.0312181155195234,0.0704424592052559,0.524289114058421
30.79,-0.897689170504837,0.346708088290195,0.55180459997839,-0.551445164103113,-1.47915855027301,1.68995850992178,-1.15968069957965,-0.234254954313428,-0.413880759724904,-1.09277136487749,-2.79136412974755,0.373744965882865,-0.95700553339135,-0.0158030836491779,0.0151853981105987,-0.847663536742314,0.481625684457745,0.075057804227679,-0.882448433116484,-0.264903580777983,0.327276867151988,-0.0533169787054944,0.0754465260845036,0.550626312187637
30.795,-0.919995316385591,0.310026728714092,0.50005350378561,-0.621817773745279,-1.33538444260705,1.66808113784258,-1.15513863875162,-0.213156555836248,-0.425903500466214,-1.00111851666576,-2.71790016224725,0.348539775949671,-0.977692471381805,-0.0337142069229823,0.0541277851582825,-0.977352060732067,0.475695164727778,0.0656365437237608,-0.893869848174397,-0.264059549887455,0.33297299489089,-0.0660279455237167,0.0652948894998791,0.556805468711299
30.8,-0.950288686099384,0.251323821897868,0.443629737192175,-0.70169373908747,-1.14530183688804,1.61657811084961,-1.14828510995126,-0.187375968612393,-0.441631717681272,-0.905906691347668,-2.65581700665797,0.326496922364993,-0.988233875750726,-0.0481241308542136,0.0955359228813982,-1.07312931167661,0.462767317836648,0.0581827195402529,-0.911461885085351,-0.248358963880334,0.332643046813759,-0.0823191813338928,0.070814993153923,0.552287382917651
30.805,-0.963509925388427,0.162721850412441,0.386821379417399,-0.765749480484566,-0.954599160821197,1.52157152819526,-1.14236342158736,-0.156143041735716,-0.470859875416321,-0.821001685627056,-2.54377041827717,0.321755901282189,-0.99865659401389,-0.0670425311929193,0.143785880549342,-1.23008591437358,0.43478956972559,0.0339943684175125,-0.923253039958634,-0.23920050954986,0.332553703763871,-0.0871040238432717,0.067933543214424,0.540211075636121
30.81,-0.980077071848322,0.0972555840192674,0.345531146622143,-0.792194520630188,-0.799137065877124,1.40689318822816,-1.13407743372845,-0.132895925842819,-0.494255018284788,-0.744028952262271,-2.44538174055167,0.320925712585449,-1.01335030151482,-0.0805567464797982,0.182723130238803,-1.37540282729184,0.383784101747139,-0.00225297205029596,-0.941758322968195,-0.229952738253614,0.331727219570077,-0.0958515759110154,0.062171842750876,0.513677124606495
30.815,-0.997849822828307,0.0376915177571417,0.308724756221399,-0.834063372581644,-0.595439039270298,1.22858142288802,-1.11755469104111,-0.100904529087639,-0.512716776036894,-0.664712951774725,-2.31304719567019,0.331448240793625,-1.02811925743854,-0.0960131702382449,0.218297122195161,-1.52639636999517,0.316243823772943,-0.0580831413832162,-0.953418425671462,-0.230611280076205,0.334631822122999,-0.0871884394825053,0.0524720585691406,0.472339504413316
30.82,-1.0137283210341,-0.0197900651133032,0.250224096888378,-0.875418948459282,-0.41084224470987,1.038251911001,-1.09184253519322,-0.0652377905426582,-0.522645221492258,-0.600795528265798,-2.20048791232261,0.341118892615157,-1.04415003062734,-0.112555948483173,0.248574119028286,-1.67182344457967,0.255802554536417,-0.101612842594043,-0.96622751202812,-0.224182462150642,0.333791105841356,-0.0690697712641595,0.0412776724235626,0.427034246660092
30.825,-1.02928442586964,-0.0632531272112781,0.216721673805006,-0.90346961179588,-0.190925053730709,0.783043379653676,-1.05507540651763,-0.0400219008457473,-0.525913488828529,-0.5382989740811,-2.06727497194666,0.367004444136272,-1.05617849422199,-0.12859091535903,0.263075777423567,-1.81468371209836,0.178398239518417,-0.158406138030953,-0.971718138279064,-0.223028950092791,0.334014546373048,-0.0502296659880251,0.0313048110934445,0.363495514455908
30.83,-1.0323209641315,-0.127392868336806,0.150254088929058,-0.901409240991019,-0.0156954856129448,0.512371621232763,-1.01917943307305,-0.0280472060617516,-0.527461280168926,-0.499375533725776,-1.95038794138998,0.388344787797427,-1.07807989989754,-0.153657511462786,0.273379189098427,-1.90774930341226,0.0857237058270128,-0.198027200825889,-0.973281879532325,-0.21437549784341,0.327500584997883,-0.0291080350670585,0.0196488470629669,0.314877980073084
30.835,-1.05837247212292,-0.203396971118936,0.0604257351707989,-0.88081725380509,0.206315571120552,0.190416246936563,-0.968776850972835,-0.0251231286645003,-0.542754182953867,-0.487247181869049,-1.79709091037951,0.411383602021362,-1.08596153377882,-0.181796008177083,0.286061483209133,-1.97198062279604,-0.0331314760389495,-0.212314073698894,-0.973425437899504,-0.210158772168521,0.32603196645878,-0.0172589828867286,-0.0038047320350982,0.277372862951316
30.84,-1.11836291813291,-0.291874263671817,-0.0173120007122819,-0.83537907390455,0.466624554205122,-0.0914405723012713,-0.93669007865413,-0.0410972097143065,-0.570429728224754,-0.486726772033208,-1.65096794687948,0.433932385983558,-1.08930656533704,-0.206159718655501,0.305989857311088,-1.9969020021751,-0.149602469628664,-0.205553840285139,-0.974034815413472,-0.206527850377337,0.321699403752398,-0.0156811323205366,-0.0297333757334587,0.259266445903589
30.845,-1.22075859818611,-0.296257647022641,-0.08851391144303,-0.813755362505093,0.810285040465292,-0.467096123663357,-0.90789302330889,-0.0661145702302168,-0.615277108729696,-0.481019544994785,-1.47401725422821,0.444203629766281,-1.09639171063711,-0.23869247699106,0.336370800006597,-1.97644843093968,-0.318870315043596,-0.176219481140653,-0.974628595765859,-0.198154816457043,0.322948081433886,-0.0210552224288552,-0.0816891547060237,0.258304420899251
30.85,-1.33543197649636,-0.254957560158099,-0.135293453799633,-0.95298461552875,1.08431731607438,-0.831283845959676,-0.89090526967985,-0.0951574518448267,-0.66850156876159,-0.469377159928055,-1.32295245814383,0.439564947129796,-1.09166508137906,-0.258867013901907,0.369202032043275,-1.93852886982862,-0.493856038779724,-0.127346224690464,-0.973359061870771,-0.191721305361758,0.319789642560705,-0.0295618719375982,-0.135877826480864,0.263918633371892
30.855,-1.53478392168378,-0.418048809733706,-0.239652195269147,-1.28036092581643,1.39586270919184,-1.17989781911342,-0.874189572483491,-0.144744881469576,-0.758467822529261,-0.455876144561053,-1.13792902205925,0.425171936686764,-1.0792295950182,-0.273946685676628,0.38573156717738,-1.87186972252397,-0.603008542737365,-0.0823252119325918,-0.975054522408875,-0.193770719687032,0.318046224741359,-0.0348250748464509,-0.199953205001966,0.292694202320098
30.86,-1.88437579367311,-0.525037292249162,0.0949352063857011,-1.87408901082818,1.59464615689752,-1.54353918341941,-0.841841042278463,-0.201894827115619,-0.914545170741003,-0.477781886723762,-0.902817059473418,0.381628184231838,-1.05460925615377,-0.277246398464784,0.423389538187281,-1.75651751716044,-0.699554635477137,-0.0308727182215615,-0.980025245854099,-0.194562960070781,0.31464898780347,-0.0246472694642494,-0.245379135631197,0.307949513609784
30.865,-2.42408429645705,-0.341683106904289,1.36301685877325,-2.99469881237306,1.42144610550699,-1.83572417004544,-0.808640813187014,-0.252900295057461,-1.12601455453906,-0.568730289043939,-0.621715494289394,0.337731808224908,-1.02696905711828,-0.275852912136381,0.454496740860953,-1.61956181558285,-0.760778239322967,0.0171785476532258,-0.984913100958171,-0.196228164615288,0.302594515660082,-0.0186615742946007,-0.291197725788046,0.326440579569241
30.87,-3.22990479121397,0.243717395673164,2.66986845141537,-3.40582817342654,-0.134940866262708,-1.71008609361393,-0.781243243829933,-0.341360346724207,-1.30229567007934,-0.745765166486657,-0.316319001956688,0.283318828199782,-0.994319430228683,-0.265051574440622,0.490786674244,-1.43826103656085,-0.769690600023221,0.0615310877718733,-0.989641539014046,-0.192597841517231,0.296645903123419,-0.00931623280692468,-0.334515437689413,0.344424269314072
30.875,-3.14715843115327,-0.254388938955654,1.81947216939387,-0.631960906016228,-1.70692893557626,-0.922882118382273,-0.780068804993123,-0.537176720898955,-1.26189260134411,-1.00697826230249,-0.0035308250605107,0.188904568293067,-0.975045601850332,-0.253563906231907,0.526283063457582,-1.26659884639321,-0.747647421733017,0.0965375192038101,-0.981786628021063,-0.191527620400869,0.284094851785762,-0.00477338552100034,-0.359025708456963,0.367666424404462
30.88,-1.39794702480313,-0.876157287061446,0.286531219376444,1.43381464022689,-2.05433869646849,-0.221643656276932,-0.890254761575502,-0.710563136747604,-0.922807134402273,-1.01002380875334,0.191266377241473,0.0484121286595782,-0.95192889075356,-0.215675429977055,0.51672150522144,-1.03632335054855,-0.661493613444908,0.148809323653587,-0.984352439192414,-0.178527958786496,0.27970917819559,-0.0042046811481395,-0.355872351666276,0.391665468027249
30.885,-0.259082026527508,-0.167732428847739,0.351121779385926,0.349476686905857,-1.5237830716083,-0.311645307376591,-1.13952666560758,-0.732714881619349,-0.354732263416246,-0.851342204876923,0.149951635639439,-0.121554622171276,-0.91573405576257,-0.188870709664423,0.428959902513543,-0.893677516278928,-0.484116435997009,0.20099877315619,-0.979074511648205,-0.170946055547069,0.275722855994964,-0.0103924706397622,-0.344349885035935,0.429861267022392
30.89,0.252481100033691,0.661714179723977,0.985587513207128,-0.358440153802681,-1.11078672086211,-0.454310043503133,-1.31717027294747,-0.66645178401926,0.0873833772450884,-0.486597323301329,-0.0164963488309244,-0.276775058927881,-0.874184111516187,-0.187296422547698,0.289150545593237,-0.806719584713345,-0.186044141452034,0.25533577214105,-0.969773993791953,-0.164875200021357,0.283769166371175,-0.0177082704427274,-0.340660894228406,0.46885815156881
30.895,0.227106522540023,0.490005161898867,1.53592601031557,-0.0727405939108965,-1.10448996553648,-0.364916424135129,-1.47856647405867,-0.591559720984419,0.400574330939311,0.446759480260257,-0.157723613012511,-0.370545910340257,-0.844977303000203,-0.2177719579112,0.131269431612787,-0.723969147979238,0.193077524140679,0.302733491628691,-0.965427351670305,-0.1545091847799,0.288074570776811,-0.031465097326507,-0.343791293280244,0.512577410461064
30.9,0.188724414193012,0.275261519572243,1.38345779142248,0.334174679206085,-1.15473542212474,-0.31140657395351,-1.55509285113256,-0.454554412771784,0.508258980258363,1.05196520974063,-0.174878061732345,-0.347758183048865,-0.828961185376322,-0.255197591460848,0.00123516869344377,-0.630586071282091,0.582129319246921,0.343943354616469,-0.961558112921324,-0.14313720077816,0.303476105723656,-0.0466028387946326,-0.349830222483937,0.55584872807085
30.905,0.187895819803751,0.482475049297476,1.10895145047682,0.447509640284376,-0.862491283681401,-0.295077445787532,-1.59144759609484,-0.210353276004467,0.671978811330731,1.58544815066609,-0.131078394462006,-0.114604818144683,-0.83256558684152,-0.32649908416285,-0.169652856492282,-0.514441246688692,1.07797243633823,0.403719121690815,-0.972077786132806,-0.137151886851187,0.316895191624584,-0.073909213446924,-0.348351659790967,0.586629168639919
30.91,0.0543972672398016,0.54894133445771,1.13081830860543,0.597490123738602,-0.731997878662862,-0.297061973438817,-1.55292951655697,-0.032769220885575,0.730887543485378,1.59980394826629,-0.245549703741219,0.1391923278019,-0.865568065815173,-0.410040716619466,-0.319342135472201,-0.365937979531581,1.53556443876232,0.433059412809634,-0.982955753342574,-0.12247498122339,0.327243846721734,-0.0995595621460942,-0.353509511375696,0.604250831206686
30.915,-0.274732807094948,0.527762777405804,0.97218815999502,0.645064919659324,-0.705394142645957,-0.346185202000406,-1.3833084114883,0.104643351781469,0.49219869409056,1.31320161458699,-0.415205616185221,0.345597767424886,-0.938807659121778,-0.512905270668879,-0.461386221546092,-0.183150460044381,2.02854403598605,0.436227172894289,-0.998366152787276,-0.10583829725459,0.339966816350454,-0.121609485943977,-0.355016033365574,0.607637863339717
30.92,-0.656824603432507,0.496780716599458,0.736036554167469,0.472691349212608,-0.59968518718671,-0.354184950554919,-1.14394590104001,0.155855104691177,0.125170766622715,1.10521941068356,-0.396319461298235,0.432848720658216,-1.03016511159279,-0.607772638559335,-0.503235702042662,0.022599466415302,2.34877056795807,0.398033218602176,-1.02353297454672,-0.0769958070356367,0.352287937309034,-0.149232231183375,-0.365711182571062,0.595937641233367
30.925,-0.954079617450209,0.43908219021948,0.708866710741728,0.177610545634416,-0.458460076016167,-0.24609991388641,-0.953695617713247,0.122078072866709,-0.131565969188054,1.17203257567012,-0.22811710287172,0.439755766304438,-1.18677123632458,-0.741116572419593,-0.462525511603191,0.258239128338403,2.49403856105205,0.335714194808966,-1.04558338732426,-0.0525026937598736,0.357375134928915,-0.184284354218429,-0.378338271310621,0.574989949354219
30.93,-1.04835889973323,0.296706601872884,0.747716688894256,0.0162548170203665,-0.408283213754753,-0.138147768039654,-0.849728482954737,0.0134074556138531,-0.220450615779497,0.496787319584904,-0.117156334187077,0.378475573939982,-1.3438334907094,-0.813133714929504,-0.339988870219051,0.382078394839987,2.36199963240462,0.286753364330683,-1.05581861041698,-0.00709134105304701,0.352908092418786,-0.227772109006083,-0.410781711473763,0.540930075373742
30.935,-0.841523772051022,0.175369252018335,0.787690554680434,-0.12069366605446,-0.375676717158008,-0.0613551981095127,-0.843552091499651,-0.125889264703203,-0.20182633251396,-0.397537336878546,-0.0660557686859812,0.255821480297304,-1.51056699762244,-0.845609705613617,-0.156120508629536,0.38766144059441,1.85665589352591,0.257698764286046,-1.10851830374937,0.0234700552789094,0.342531524603834,-0.245244737786082,-0.444133967717569,0.523123460392086
30.94,-0.613597747622496,0.115840380630525,0.846167595477698,-0.22107149059656,-0.299676278195552,-0.00184937756478966,-0.89243268020227,-0.241547846111413,-0.163063088211132,-1.09500252732724,-0.0332426242990372,0.174544144525388,-1.61418920072051,-0.776622668362552,-0.00283616227022328,0.295610068082773,1.26296957836635,0.206183202402018,-1.14025543469512,0.0610577047694187,0.320572114768415,-0.285055275517461,-0.487360506360018,0.51047717031717
30.945,-0.438357930267299,0.0748678500249383,0.901025979455302,-0.258347278179662,-0.220136001602542,0.045981990807729,-0.992088251588706,-0.351804993013423,-0.0811917087588918,-1.63393509614912,0.0132818356116367,0.105823506590889,-1.64585529092582,-0.622365365279982,0.126096904412316,0.108135784408767,0.629489955535608,0.134744892509746,-1.15534984390696,0.0987780286466767,0.281670025527983,-0.326492443783852,-0.524730870069015,0.496518214723296
30.95,-0.350558123850474,0.0993368581501557,0.917304657954261,-0.273312244228861,-0.150573245485103,0.0689415314903252,-1.08645614197415,-0.3880169025709,0.00796565113474749,-1.89383705688373,0.0569884064869768,0.0682282398729752,-1.58188498573926,-0.454471893226115,0.188553841247547,-0.0970355230665814,0.262353336977958,0.105108118269234,-1.13372447376501,0.133493584400939,0.236348809732242,-0.354479040158314,-0.533704736095682,0.48358342500895
30.955,-0.328746675958343,0.152361287588222,0.909944594079927,-0.275642855864998,-0.1016956433496,0.0874491038509301,-1.14709320369049,-0.303545801117911,0.11258503001972,-1.95285940579927,0.0470853380040946,0.0776507336943608,-1.42013969302953,-0.28462860740553,0.209295392472025,-0.364900441478211,0.0937028219051377,0.168332489303721,-1.11746203025262,0.169154425829553,0.183870626452732,-0.373114371769346,-0.507374601748486,0.471649550493126
30.96,-0.349565448962532,0.203549082718209,0.888759244615725,-0.250509583147503,-0.0662371970479639,0.127980127712826,-1.15933740352564,-0.193914709061299,0.148981885076005,-1.9409234082084,-0.0094980800446946,0.162788426151312,-1.23432309398115,-0.190044447240263,0.190079229457126,-0.607851701692947,0.0878717153390995,0.307611722548294,-1.07886227407986,0.184176206484066,0.136605246455649,-0.357663337792597,-0.450579044684744,0.488669051162152
30.965,-0.377730199103235,0.218136694001651,0.876742006846286,-0.207056093875879,-0.0572858613956797,0.14796818928037,-1.09116204624048,-0.0902718476589436,0.137066624008136,-1.83132815821727,-0.159377165569529,0.294238271579784,-1.02727641373587,-0.152091360234838,0.145582164361339,-0.899953073753324,0.188266647376309,0.521505749491745,-1.03810702721133,0.197111455947704,0.0972004555309895,-0.324094485155425,-0.349088773392145,0.501731417875219
30.97,-0.415262213483333,0.234872441496287,0.862746737577506,-0.130852508317894,-0.0485722923909058,0.171572293668005,-1.0104267595323,-0.0882690504420568,0.0767167109178644,-1.70987549277021,-0.269369077740099,0.405937331098408,-0.819631936115088,-0.173592104190512,0.0813981208592725,-1.14120221918623,0.35907165037393,0.750638521305193,-1.0339996390555,0.198640505812513,0.0650903458258739,-0.254389405464463,-0.231845200588106,0.544861316270033
30.975,-0.440588342360593,0.243995533971881,0.848049988212312,-0.049733792166348,-0.0577044507149691,0.1850016111148,-0.912828612046511,-0.118341474574181,0.00249182652065083,-1.52093630409002,-0.33797593692898,0.44073805523035,-0.65785261666013,-0.232471791079532,0.0164607610381088,-1.27517479511908,0.586395554419253,0.92357598167946,-1.00678035012067,0.191941721151437,0.0501426636995269,-0.163106683429198,-0.117836504774676,0.570453529352345
30.98,-0.453690116484961,0.274346269613598,0.837827747093239,0.0325727256469234,-0.0576422352591137,0.178407954766665,-0.849632186986817,-0.171328722722331,-0.0499272630309774,-1.27760082968258,-0.316430646843847,0.417033476962317,-0.55488526376393,-0.324535505498593,-0.0508288349127709,-1.29296575599461,0.816986527713771,1.01082920695899,-0.984873552409727,0.193772516291602,0.0503313284696108,-0.0691196755445544,-0.0261263369623574,0.560897434908684
30.985,-0.467938813201518,0.313842830012805,0.823326635184588,0.0693343190374527,-0.0622054039431664,0.154591935743212,-0.821663174830708,-0.221219851044822,-0.0621044723366916,-0.725371745472285,-0.201013251210552,0.343711365075978,-0.528104571836267,-0.40028728078692,-0.101444387801229,-1.16260302234808,1.11955681012493,0.996700816799189,-0.952313003450758,0.187107440226479,0.0550351252849448,0.0480648312579092,0.0946175990577018,0.551440734825805
30.99,-0.477860342169071,0.352499590804221,0.812189650790694,0.0724781229109168,-0.06769400165357,0.134992286529072,-0.850990786047649,-0.23049798113852,-0.0436480801257889,-0.20692899340252,-0.0587667519409699,0.315415460542552,-0.577168294012859,-0.41643516311256,-0.120786093379045,-0.962956986076094,1.35834572653199,0.919276535222881,-0.934088163338941,0.184921292200514,0.0701950611897559,0.158479537318959,0.199314455828624,0.547888496921984
30.995,-0.457096322288396,0.347873717204562,0.815550160288839,0.0536379005816509,-0.064808346935886,0.12880733332601,-0.911176551961353,-0.178444413151087,-0.0141899360115873,0.19655844846083,0.0472545040886187,0.30685452943387,-0.661541242518154,-0.385063261565315,-0.130951416559219,-0.699558466045789,1.55987713097197,0.795362506846427,-0.917473276929391,0.173185139481075,0.0899220760825132,0.268734473263664,0.293477532436643,0.548423878720899
31,-0.433790561266702,0.328194408176053,0.824991975385045,0.0362265441646517,-0.0708421284699431,0.128924777103926,-0.982726013413637,-0.0880151825383656,0.0124635485249811,0.405700305722465,0.0525195249603484,0.322403894237155,-0.768041369310029,-0.289061734859559,-0.124128340721364,-0.387155234360162,1.66026566907203,0.646666188771367,-0.903590718436676,0.152221310629895,0.11059686390909,0.352983310677279,0.392990119619445,0.536290462822985
31.005,-0.418648096140748,0.288263060053557,0.840052178621108,0.02630624098726,-0.0801745920872963,0.121717024533834,-1.05827337485274,-0.00111706737435048,0.0503031244967615,0.549711317316576,-0.028544643551941,0.377483419662121,-0.874504155427701,-0.160211563171289,-0.104997117352081,-0.10494297218798,1.66016740843957,0.527726990600632,-0.900864836544082,0.132010706841417,0.127812758471991,0.394538945370308,0.461666469996801,0.520978845881753
31.01,-0.421570951967898,0.270915734083622,0.850751261690477,0.0165492230818782,-0.0720214389050845,0.0898211209119576,-1.11781980688331,0.0877878307278084,0.0958787023151728,0.610492862633707,-0.145451940416702,0.437597309908666,-1.00006329804931,0.00313632856531017,-0.0784503386809542,0.160986306255674,1.51940682867114,0.441096005279651,-0.884531683835249,0.120946075078971,0.152347183007277,0.437844952399638,0.549891931816332,0.475280131358145
31.015,-0.438210508804076,0.281391142508976,0.840095552204877,0.0123737817732992,-0.079917070825383,0.0581137825570021,-1.12804936001254,0.139009686740279,0.0941664027182389,0.524465598467133,-0.301306066541819,0.495616146840365,-1.09766186676389,0.135552049718229,-0.0632033420633716,0.278476279978181,1.33607176231189,0.451856522269442,-0.877832196844146,0.114126961376773,0.17817447791735,0.441792482394923,0.611431296886748,0.463352138147026
31.02,-0.449182540525904,0.317747859543249,0.818935034505371,-0.0247561541324598,-0.0901014920103498,0.0313511832380313,-1.10067354143243,0.151565793804551,0.0388358595757901,0.258507588462484,-0.383283566038338,0.506236191775572,-1.18767603799837,0.261139343358902,-0.0726704296623556,0.270436267774074,1.08053802547517,0.541737633833425,-0.879961334262556,0.108847806550907,0.216845722381378,0.416227742877551,0.64791864156723,0.476579488486001
31.025,-0.448939902944362,0.340998016544806,0.817461534759779,-0.0916196871170565,-0.0956246073403302,0.0376475054693206,-1.02659983645398,0.161286795990935,-0.0124277223094659,-0.0749090339442072,-0.399719924011704,0.476488354516714,-1.25474569740181,0.329263412863678,-0.103893293157567,0.0601420604774126,0.781895321991877,0.692847007130105,-0.884981090487965,0.0971167700070785,0.247918473950206,0.359688213070908,0.628513769715221,0.509700462815526
31.03,-0.436118507461635,0.337043647427794,0.824637420624941,-0.16827777809412,-0.110997766672572,0.0491073415031168,-0.940934502986477,0.174659399356522,-0.00332137754021105,-0.362686134055399,-0.364446319180498,0.405443093740626,-1.2958079202024,0.350152779857569,-0.146298618780567,-0.288457747777956,0.435489524548575,0.841400892828641,-0.888691367845083,0.0850360247900982,0.27357759150151,0.284569829000886,0.570091448290009,0.55181957138548
31.035,-0.436889890948462,0.338209358360876,0.82572007453703,-0.240808519967292,-0.14151453922715,0.0471179250169245,-0.894990639243749,0.171362139078822,0.03463243560509,-0.621193769511991,-0.285565998871762,0.355010654051406,-1.31370911068559,0.31966818407753,-0.194770791818468,-0.668274825355374,0.0699111242226118,0.905895816955692,-0.900988627083981,0.0616540124594723,0.298196147789921,0.163137404106089,0.461185450411723,0.612296041214488
31.04,-0.432495831144758,0.339470350429116,0.817946569825074,-0.312631904904574,-0.15195833454911,0.0265368109043685,-0.899797261702462,0.125766202977499,0.0731928807647919,-0.832004451111694,-0.223115441559642,0.322085408204468,-1.30855750172594,0.265545886286316,-0.247045654429553,-1.14094057788405,-0.388932986836721,0.839735946097185,-0.911402779659401,0.0538146285792908,0.311295038503649,0.0475663762479911,0.359032402927253,0.647065718855171
31.045,-0.420083497457136,0.331222717354865,0.827636739196358,-0.379772984441033,-0.175815014743153,0.016387425511793,-0.910492371292519,0.0965661006101084,0.049411422682968,-1.04582720985313,-0.188585598201196,0.312210919113245,-1.25569480972126,0.208645046261694,-0.30244519590835,-1.45064843396087,-0.678579123306239,0.652617112378119,-0.926222706118467,0.0245081407906087,0.321059380117512,-0.10736593233807,0.201832408562787,0.677921701904279
31.05,-0.402359361683526,0.320756014979644,0.831522533255484,-0.427319353261906,-0.19211972420651,0.00950260764283802,-0.93238720859615,0.0558671560279355,0.0149577817617156,-1.18931781416995,-0.172367108107312,0.322231873219934,-1.15591049081978,0.153655803925821,-0.336229055090664,-1.61526604382641,-0.85964637426742,0.377649016147556,-0.921858860498294,0.0121182461887496,0.320079711015999,-0.253618533958353,0.0477499620301278,0.696125750331679
31.055,-0.392897060924172,0.291778238595161,0.834489133107229,-0.45974060627878,-0.207105505399898,0.0118168853089649,-0.960084869959162,-0.00322211944037485,0.00143840516754751,-1.22678970415897,-0.170112633046743,0.348184804147507,-1.05726821756251,0.135270494425248,-0.333721708457885,-1.58214912670099,-0.876315979065001,0.0930144035186881,-0.902651082417933,-0.0016846887640528,0.310397667927814,-0.384760256362806,-0.0766831947756611,0.697347817736013
