Header,foot_Accel_X,foot_Accel_Y,foot_Accel_Z,foot_Gyro_X,foot_Gyro_Y,foot_Gyro_Z,shank_Accel_X,shank_Accel_Y,shank_Accel_Z,shank_Gyro_X,shank_Gyro_Y,shank_Gyro_Z,thigh_Accel_X,thigh_Accel_Y,thigh_Accel_Z,thigh_Gyro_X,thigh_Gyro_Y,thigh_Gyro_Z,trunk_Accel_X,trunk_Accel_Y,trunk_Accel_Z,trunk_Gyro_X,trunk_Gyro_Y,trunk_Gyro_Z
0,-0.502541502564046,0.0554235959130054,0.861061969150921,0.00868070973846177,-0.00800744965095249,-0.0151716899476167,-0.982865562486644,0.0926718840866945,-0.146667240906413,0.0164109561434218,-0.015362405059444,0.000582883022498029,-0.968707069923198,-0.152057303043516,0.187975650411758,0.0214276487147647,0.00145591789259,0.0207560798284542,-0.994894965798446,0.0171544436635684,-0.0486145134042568,0.00759740825214099,0.0661183237621634,0.111815245174791
0.005,-0.502381418314176,0.0553414338517423,0.859606213824647,0.00917399973016208,-0.008192053178822,-0.0149326186448338,-0.981217148778366,0.0919892317869467,-0.146974473102834,0.0167285857105293,-0.0152542027426664,0.000785683318554928,-0.967359670979166,-0.150305025296977,0.189136593565231,0.0216598492733103,0.00164712424446545,0.0202599824760884,-0.991295539305261,0.0264651706958366,-0.0539490634086029,0.00791218228720417,0.06446569560068,0.109334350021298
0.01,-0.502096170780751,0.0554620548640928,0.856950668238312,0.0102534902028433,-0.0085494908685881,-0.0142562243686706,-0.978480928220903,0.0910995945329593,-0.147298742313456,0.0173370112215712,-0.014860529503952,0.00125847435202563,-0.965220063362415,-0.147037873938578,0.190653734340648,0.0220232856093794,0.00208625955807399,0.0189116956729149,-0.985276752351107,0.0425284167271442,-0.062222428612797,0.00861380397085969,0.0599760203760607,0.102489260397641
0.015,-0.501852301815747,0.0559365107802016,0.854813502964404,0.011493951853297,-0.00879781077478121,-0.0131914909628062,-0.976786128811147,0.0907859981290694,-0.147295106940624,0.0179173486634191,-0.0141510291215773,0.00183033320430912,-0.96402791193598,-0.144353118205624,0.191115796136546,0.0222335196310644,0.00260617098179494,0.016984952372771,-0.98145132531355,0.0539398486712804,-0.0671174462919692,0.00936045195273492,0.0535384812270952,0.0925586196214592
0.02,-0.501664396639484,0.0565416260157914,0.853156663737499,0.012853309183229,-0.00878733024092591,-0.0117510112570169,-0.97594485568733,0.0906642721971291,-0.14733093557374,0.0185152199390566,-0.0131967763785314,0.00244197556665438,-0.963513239947512,-0.14250994505248,0.191138516619209,0.0223800557660287,0.00315552054841153,0.0147242032993166,-0.979498843719812,0.0604730262073476,-0.0696540835949576,0.0101129070820182,0.0459198425417637,0.0807989496766782
0.025,-0.501502393267938,0.0572368444382601,0.851945510806408,0.0143061206193692,-0.00841889741848258,-0.00994965174288309,-0.97577119569169,0.0906783853143345,-0.147368664581879,0.0191694168800392,-0.0120592949720411,0.00305158950369368,-0.963520879036974,-0.141316516093367,0.190875843942443,0.0225380093534858,0.00369901308779056,0.0123294645449349,-0.979011851737231,0.0630852592768978,-0.0704124426900604,0.0108145574360088,0.0377449573550172,0.0682374872225124
0.03,-0.501344809335612,0.0579655689210441,0.851135839766772,0.0158441066899343,-0.00764290573925137,-0.00781811748786471,-0.976080459374309,0.0907781602673683,-0.14738230855238,0.0199198148766628,-0.0107899281622893,0.00363501416100902,-0.963897826929979,-0.140595184099553,0.190450614784949,0.0227753035596051,0.0042175459142474,0.00995173814293875,-0.979589549969159,0.0627552428592285,-0.0699374621744152,0.0114045326700619,0.0294775337919845,0.0556416143723962
0.035,-0.501186361781206,0.0586764667521966,0.850697641729909,0.0174692747222542,-0.00645472043594403,-0.00540305583493091,-0.976719235013672,0.0909251976909625,-0.147355869326911,0.0208049697612422,-0.00943196621625438,0.00418018203218283,-0.964518318153328,-0.140206761689412,0.189948294900686,0.0231515852324554,0.0047028353293884,0.00770002873670732,-0.980898034203708,0.0603256097254216,-0.0686572521770434,0.0118273737048198,0.0214460273185278,0.0435584933242994
0.04,-0.501036983475778,0.0593321506786946,0.850606963305749,0.0191855285626759,-0.00489132809413322,-0.00275950597595318,-0.977563592294299,0.0910969071552267,-0.147276360084964,0.0218525149172492,-0.00801992109994473,0.00468238913200821,-0.965283252281156,-0.140041234779213,0.189426607998599,0.0237094467052105,0.00515275212615166,0.00564778037121589,-0.982669986379685,0.0564849876666736,-0.066890248628966,0.0120365497921084,0.0138688573493179,0.0323540834495258
0.045,-0.500911232917261,0.0599026968876425,0.850830035996555,0.0209876932429412,-0.00301961174477762,5.16740471568581e-05,-0.978512065673166,0.0912899058455087,-0.147126753688587,0.0230688659535722,-0.00657860434982284,0.00514084506647756,-0.966113346014538,-0.140017492343982,0.188915393167046,0.0244650588208362,0.00556795839925489,0.00384038739912904,-0.984695939316854,0.0517661641679169,-0.0648497367066037,0.0119927647271051,0.00688070834293674,0.0222533023031837
0.05,-0.50082394495557,0.0603541181052685,0.851329589169249,0.0228498403928457,-0.000921826617715119,0.00295717693988077,-0.979481876599404,0.0915176040106141,-0.146885014011336,0.0244324899059419,-0.00512501323448805,0.00555571155272224,-0.966944547328026,-0.14008815861449,0.188417256617424,0.0254027754689178,0.00594909009046934,0.00230276461058472,-0.986814182179014,0.0465653236499149,-0.0626514912787178,0.0116621688567337,0.000559840887236783,0.0133793038763887
0.055,-0.500794781929212,0.0606523140481129,0.852083021854494,0.0247165703044974,0.0013095709810135,0.0058623818188834,-0.980411416734758,0.0918056619934605,-0.146525389529902,0.0258897813682643,-0.00367146247205496,0.0059255481768364,-0.967729843250036,-0.14023618409423,0.187916030287794,0.0264723127339325,0.00629434101463543,0.00104539438312064,-0.988905788812363,0.0411735886587951,-0.0603435770355854,0.0110173509692219,-0.00504828949047856,0.00578600209431951
0.06,-0.500847456181234,0.0607854553187597,0.853084164894243,0.0264971113692441,0.00357233358777171,0.00865328137427883,-0.981263830961491,0.0921853060200907,-0.146015616078907,0.0273481167351659,-0.00222621239880897,0.00624511107274755,-0.968441314945566,-0.140460242945657,0.18739198134622,0.0275828208415605,0.00659737411627917,7.09639908480261e-05,-0.990892019222926,0.0358084306294583,-0.0579626051445703,0.0100409832011006,-0.00991638144019517,-0.000519024182981972
0.065,-0.501005165094083,0.060775188226866,0.854334600684518,0.0280622336614666,0.00575960215299293,0.0112161889441861,-0.982025675986329,0.0926858806678133,-0.145317011723222,0.0286648767817629,-0.000789973841425055,0.00650352915667742,-0.969068031994354,-0.140761704862685,0.186834736019696,0.0285926526734703,0.00684561808395646,-0.000616568162374651,-0.9927290935637,0.0306312570042081,-0.0555708261877156,0.00873220548177998,-0.0140321980703457,-0.00556130385948775
0.07,-0.50129235443215,0.0606543790883694,0.85584121865948,0.0292459673823046,0.00776556136628358,0.0134557258828901,-0.982698252961013,0.0933366720641565,-0.144392284474117,0.0296427392619347,0.000647162938115182,0.00668390504524472,-0.969610790478175,-0.141145599053499,0.186239920087621,0.02930515874426,0.00702001392521386,-0.00100499616162289,-0.994398825672847,0.0257469774001362,-0.0532292772938015,0.00711346192685601,-0.0173986847697112,-0.00939073141934061
0.075,-0.501729754315098,0.0604450731140542,0.857602308342265,0.0298497621633601,0.00948578451582205,0.0152869265746919,-0.983287528509628,0.0941640705203152,-0.14321855001313,0.0300379727919629,0.00210370242967447,0.00676476972420496,-0.970076520054199,-0.141613763992607,0.185603747351759,0.0294774263225055,0.00709664047130856,-0.00107254611865735,-0.99589753513053,0.0212102181168112,-0.050969220493805,0.00523296722227047,-0.0200261236007387,-0.0120703114821677
0.08,-0.502300006773549,0.060175715986634,0.859551826549104,0.0296619703948047,0.0108249406564985,0.0166273782296044,-0.983798551681577,0.0951472196284716,-0.141824095000899,0.0295899483425043,0.00360330922150555,0.0067238598816799,-0.970473568038503,-0.142119218982162,0.184945739315229,0.0288496174679817,0.00705077007311457,-0.000792253965598938,-0.997224681838938,0.017071150247272,-0.0488548899397924,0.00315460970059542,-0.0219285578875312,-0.0136701290614784
0.085,-0.502915007444199,0.0599015850197327,0.861512596102815,0.028534801510669,0.0117271351299442,0.0174313604787725,-0.984232915073844,0.0961673345100772,-0.14033515606154,0.0281109547887251,0.00517161126484432,0.00654803272395842,-0.970807822070492,-0.142533251071873,0.184333600522359,0.0272328447937077,0.00686745582358202,-0.000148056676448103,-0.998374340931214,0.0134299191376633,-0.0470646115538786,0.000930674541403011,-0.023151277931385,-0.0142848381583883
0.09,-0.503452448718224,0.0596784766158566,0.86326493946676,0.0264858454451929,0.0122054053779881,0.0177335297666689,-0.984589371858875,0.0970533312320146,-0.13894153159686,0.0256037830337813,0.00682879894090171,0.00624538306824025,-0.971081884187427,-0.142712674511915,0.183852169539202,0.0246245611460822,0.00655446886118077,0.000843120460263318,-0.999338590198495,0.0104086823739012,-0.0458181242276425,-0.00142148750183991,-0.0238099028066015,-0.0140601693020534
0.095,-0.503837492311464,0.0595239071386876,0.864684244368491,0.0236956476719743,0.012327724466142,0.0176337884536802,-0.984868384747708,0.09769903002224,-0.137779235916662,0.02226323520177,0.00858193984250402,0.00584424412175287,-0.971298012944172,-0.142606232664246,0.183542476534202,0.0212108822474425,0.00614122732601924,0.00212897336619616,-1.00011982190561,0.00805548338248199,-0.0452046207146951,-0.00391212777774061,-0.0240797070924502,-0.013183329388332
0.1,-0.504070437519423,0.0594205208225582,0.865778062187604,0.0203943918197753,0.0121724553577053,0.0172408985421803,-0.985075056726181,0.09810432599465,-0.136872143460235,0.0183470276151924,0.0104263350428637,0.00537838843534014,-0.971460225597411,-0.142261701112766,0.183389978821848,0.0172405345368887,0.00566298896641408,0.00364329738765739,-1.0007339263404,0.0063138415008149,-0.0451458792740346,-0.00655525791000538,-0.0241390733344686,-0.0118399016577304
0.105,-0.504190285446497,0.0593406879248956,0.866614059428586,0.0167717410793264,0.0118014998484478,0.0166414769825276,-0.98521609229281,0.0983198595580165,-0.136181644169014,0.0140685651571565,0.0123535201201211,0.00487524035180352,-0.971572246580778,-0.141759161237156,0.183357806680364,0.0129194544219178,0.00514829473176216,0.00532611259990941,-1.00120013915229,0.00508356081843971,-0.0454986723952695,-0.00935693605337899,-0.0241317579613784,-0.0101850809009627
0.11,-0.504241282049548,0.059253996456302,0.867262135500999,0.0129610735146447,0.0112564522487618,0.0158979453893642,-0.985295498701935,0.0983985521715163,-0.135671469379671,0.00957696896149326,0.0143553152559397,0.00435372468770616,-0.971635524944107,-0.141185026758037,0.183406938880726,0.00839094986714302,0.00461671050996734,0.00712866994920375,-1.00153143636086,0.0042756403222476,-0.0461112420600839,-0.0123144392865952,-0.0241632207184544,-0.00834183328130486
0.115,-0.504264849921665,0.0591268942505389,0.867783680494533,0.00905206304648901,0.0105578717682713,0.0150467869962614,-0.985313544994054,0.0983898046843545,-0.135333627179793,0.00497358836204204,0.0164192959545987,0.00382603774103983,-0.9716508652658,-0.140651072648802,0.183494821484315,0.00375209396648932,0.00408066620952768,0.00900799556007381,-1.00173352084755,0.00381923844518594,-0.0467986366756424,-0.0154128380711349,-0.0243017687748387,-0.00640643659541492
0.12,-0.504300717780052,0.0589268878232396,0.868229419050569,0.00510429376441849,0.00970327937594171,0.0140938325356551,-0.985264162623991,0.0983397105533696,-0.135186040029388,0.000330186175265012,0.0185198801461559,0.00329996248226789,-0.971616720418305,-0.140282267779743,0.1835784205217,-0.000928170435853116,0.00354774264344322,0.0109170248228958,-1.00180791726543,0.00364803209675422,-0.047359845982062,-0.0186190172403253,-0.0245742117938794,-0.00445184505004423
0.125,-0.50438305699347,0.058631409226643,0.86862959115,0.00116144996850122,0.00866622255853317,0.0130162594665139,-0.985133373618356,0.0982783365897819,-0.135249892808503,-0.00429485053084577,0.0206175412256535,0.00278152913369328,-0.97152397195864,-0.140155637115916,0.183629849850806,-0.00559330568513623,0.00302340390652692,0.0128005158759806,-1.00175535107046,0.00369537646285297,-0.0476761127864243,-0.0218880202833055,-0.0249714491892154,-0.00252984248127108
0.13,-0.504523216575827,0.0582465633258689,0.868981097931476,-0.00273864072102098,0.00740500779701255,0.0117804947444429,-0.984912384377226,0.0982122937098736,-0.135522126187006,-0.00884952600466983,0.0226713164470484,0.00227645868540373,-0.971363314102915,-0.140273428826609,0.18364736155975,-0.0101929465607386,0.00251269583806717,0.0146031761931233,-1.00158090963308,0.00390628708709194,-0.0477452870927358,-0.0251841988021245,-0.0254691581375321,-0.000675067408018613
0.135,-0.50469639100939,0.0578191275695771,0.869246762283401,-0.0065658687963527,0.00588888685101944,0.010370709381631,-0.984616447607967,0.0981365239353289,-0.135970473359751,-0.0132970971532312,0.024648915044751,0.00178895583306603,-0.971142788468242,-0.140611379412514,0.183647864758356,-0.0146919707427543,0.00201915612207499,0.0162788613450969,-1.00129907803102,0.00425096666162699,-0.0475929884385182,-0.028491566746128,-0.0260402891102129,0.00108816571959665
0.14,-0.504857904799338,0.0574142264644216,0.869377130776399,-0.0103045633189066,0.00412505510873634,0.00880605879062525,-0.984283126343483,0.0980477727259375,-0.136554043934344,-0.0176267915705262,0.0265243943794658,0.00132010440587678,-0.970890018522559,-0.141161523880885,0.183652789369626,-0.0190807137861259,0.00154313269511261,0.0177915703597621,-1.00093347663679,0.00472078736774771,-0.0472138552151647,-0.0318031069802279,-0.0266504717890146,0.00273906212838564
0.145,-0.504974159638494,0.0570741060888102,0.869340399685453,-0.013950958991119,0.00216207101968274,0.00713382378792133,-0.983952147478836,0.0979448973737163,-0.137244879376248,-0.0218474780953519,0.0282733320213044,0.000868909687020167,-0.97063645245062,-0.141922065378387,0.183681023966246,-0.0233682148401166,0.00108287237473261,0.0191135153724531,-1.000512007338,0.00530764284337752,-0.0466034546434009,-0.0351091478608878,-0.0272553128078467,0.00425706657034919
0.15,-0.505032484559717,0.0568024677425831,0.869136683732645,-0.0175015216272415,7.14047369866399e-05,0.0054073560166719,-0.983653039326631,0.0978242854974744,-0.138031765128213,-0.0259671847477952,0.0298718579424764,0.000435298296998789,-0.970405978345496,-0.142881438817726,0.183747611428787,-0.0275617326215795,0.000637735099254596,0.0202244973363118,-1.00006280752271,0.00598945658946403,-0.0457838929267337,-0.0383944188819997,-0.0278065872108645,0.00562295580637288
0.155,-0.505027646961639,0.0565845285801903,0.868790270673785,-0.020942793116064,-0.0020717853556606,0.00366968926018349,-0.983408984077224,0.0976780960900354,-0.138909027256629,-0.0299767821388229,0.0312959271272548,2.21729773994643e-05,-0.970216522101057,-0.144022808085906,0.183866340854741,-0.0316504597860984,0.000210395016100639,0.0211111746833313,-0.999613042369793,0.00673510798473201,-0.0447920898428135,-0.0416377223393156,-0.0282576008121189,0.00682117622758855
0.16,-0.504953553204531,0.0564085778759363,0.868335793506073,-0.0242494871492819,-0.0041954437691448,0.00195414951390842,-0.983240953233606,0.0974962032722634,-0.139865328448938,-0.0338490022901233,0.0325205927817144,-0.000364711372834151,-0.970083120092987,-0.145324925032817,0.184051942714013,-0.035604470397357,-0.000193297261463445,0.0217667854074904,-0.999188429653144,0.007511182414379,-0.0436702876846815,-0.0448127516031369,-0.0285639940987094,0.00784028314142222
0.165,-0.504814664101833,0.0562635759290085,0.867818815127026,-0.0273887833316746,-0.00623322109696078,0.000290362345099261,-0.983159133289077,0.0972730173975996,-0.140882784254162,-0.0375467553694064,0.0335223828796001,-0.00071794143305772,-0.970013250327082,-0.14675138855553,0.184312802878322,-0.0393833051267027,-0.00056560560760066,0.0221915537784269,-0.998811643244805,0.00827169349528742,-0.0424617011182236,-0.0478925343909483,-0.0286848369067861,0.00867346882098881
0.17,-0.50463571809241,0.0561276941793251,0.867300580552687,-0.0303264713197836,-0.00813887042013442,-0.00129885865891334,-0.983153763302654,0.0970119355944014,-0.141941473524443,-0.0410318260996479,0.0342837296669878,-0.00102981303546777,-0.970001060291576,-0.14824702890966,0.184641574788679,-0.0429456393775254,-0.000898457066278342,0.0223901135064208,-0.998499739208259,0.00895099786964609,-0.0412051823864723,-0.0508588266574458,-0.0285865001761791,0.00932331235149213
0.175,-0.504445470124244,0.0559712996419492,0.866833902392401,-0.0330322321417725,-0.00990097620997563,-0.00280411530684631,-0.983207373072218,0.0967161813784943,-0.14302233438753,-0.0442706175235107,0.0347961601636448,-0.00129379093152315,-0.970034034296288,-0.149749632662189,0.185021913813447,-0.0462559167843008,-0.00118505633190735,0.0223682439804951,-0.998262119853666,0.00949463624611351,-0.0399417159410652,-0.0537091738870086,-0.0282469491219117,0.00980636185461181
0.18,-0.504253185262192,0.0557703690823759,0.866426068777378,-0.0354802333280499,-0.0115277239057978,-0.00422576481242098,-0.983316826829396,0.0963762699161999,-0.144110413142596,-0.047232193423885,0.0350608576415639,-0.00150540356273901,-0.970106809308888,-0.151203950734274,0.185443903959671,-0.0492819991416818,-0.00142064925844852,0.0221363854099224,-0.998100103188634,0.00989960653796936,-0.0387190157311022,-0.0564479114622048,-0.0276566560797064,0.0101475515154228
0.185,-0.50405373116361,0.0555092199942369,0.866044535994139,-0.0376449542208117,-0.0130138813606545,-0.0055637428107957,-0.983490420007743,0.0959747507804426,-0.145197760393085,-0.0498799808291039,0.0350877285539995,-0.001661993135144,-0.970220372634883,-0.15256155116046,0.185903401870488,-0.0519858075186497,-0.00160197747881938,0.0217166212780168,-0.998007203035816,0.0102014177994999,-0.0375795257814777,-0.0590674980538115,-0.0268151970179451,0.0103689078471471
0.19,-0.503850230939585,0.0551705031223683,0.86565814480483,-0.0394977918081343,-0.014333635175182,-0.00681666537953248,-0.983724852371558,0.0955011628374421,-0.146281591128806,-0.0521664401946612,0.0348954723601406,-0.00176195043100007,-0.970367465477946,-0.153771631757591,0.186387749668745,-0.0543177737975508,-0.00172640264879567,0.0211444911222858,-0.997969661471088,0.0104264372656426,-0.0365529543098008,-0.0615423997906674,-0.0257281178513883,0.0104872959949103
0.195,-0.5036586509133,0.0547328155250243,0.86525488680641,-0.0410071597702184,-0.0154598101274251,-0.00799004930372973,-0.983996324296819,0.0949570944620811,-0.147360796915935,-0.0540337666090608,0.0345123113437779,-0.00180443552516155,-0.970526403066241,-0.15478362790873,0.186870771049572,-0.056218057495451,-0.00179171370946704,0.0204659842442996,-0.997968911149001,0.0105732688800232,-0.0356625905001094,-0.0638369425501922,-0.0244071376796449,0.0105212690275965
0.2,-0.503490451230875,0.0541878026207494,0.86482258864378,-0.0421401791277027,-0.0163773723996353,-0.00910016669108249,-0.984273639927531,0.0943490915240609,-0.14843876668421,-0.0554175778949412,0.0339745683295598,-0.00178951620943255,-0.970670403141295,-0.155569117000425,0.187322159600265,-0.0576205820495405,-0.00179640122869425,0.0197333898812521,-0.997986015082498,0.0106298125458533,-0.0349193977285387,-0.0659128219786424,-0.022871182824777,0.0104964599933997
0.205,-0.503332280412263,0.0535631245398712,0.86432745917359,-0.0428611710549822,-0.0170769050028297,-0.0101620626712149,-0.984537066048448,0.0936786135279818,-0.149529673688628,-0.0562496737352432,0.0333207282183753,-0.0017184412104472,-0.970781773071423,-0.156152405956043,0.187720361934085,-0.0584556911807815,-0.00174008726815267,0.0189996038473641,-0.99800602671009,0.0105979219402705,-0.0342961768678561,-0.0677270655574135,-0.0211429071787532,0.0104446206867487
0.21,-0.503153645443468,0.0529121210019282,0.863732419417763,-0.0431302926272956,-0.0175371150051588,-0.0111648874283941,-0.984778419184445,0.0929494650166014,-0.150645815552077,-0.0564644950225123,0.0325809569476403,-0.00159468548625261,-0.970853888704448,-0.156615873430316,0.188058402581943,-0.0586563428128494,-0.00162485622406872,0.0183086541785718,-0.998022824276189,0.0104941380778596,-0.0337463762991436,-0.0692251997403611,-0.0192403962418875,0.0103972889565453
0.215,-0.502943212127039,0.052269724351498,0.86304454148592,-0.0429241891494755,-0.0177285128734788,-0.0120737848239972,-0.98498103791252,0.0921926689325712,-0.151768775737597,-0.0560282994310218,0.0317704056786529,-0.00142535889271701,-0.970879153285833,-0.157062383331895,0.188339299919649,-0.058187862614469,-0.0014572158191966,0.0176838059570282,-0.99804302099922,0.010323439736941,-0.0332815740760915,-0.0703577992383749,-0.01717951516325,0.010381622013177
0.22,-0.502711153571561,0.051649187576312,0.862309965997501,-0.0422695936472661,-0.0176410820970556,-0.012865212070108,-0.985124668860177,0.0914611478949258,-0.152855138464959,-0.0549765151153799,0.0308910148367364,-0.0012212353597524,-0.970851683790074,-0.157578957966303,0.188570083707199,-0.0570864116908224,-0.00124860451052477,0.0171208459907948,-0.998081209347081,0.010086118325959,-0.0329683150674578,-0.0711136321416526,-0.0149894842842886,0.0104213210961519
0.225,-0.502460987503856,0.0510758083268728,0.861561973231905,-0.0412367962147894,-0.0172832550929702,-0.0135324346397184,-0.985216857275417,0.0907931956041008,-0.153875937137133,-0.0534032710404195,0.0299340874124577,-0.00099473236498172,-0.970786807750683,-0.158213483182329,0.18875881756521,-0.0554479775714076,-0.00101306951881958,0.0165950523545176,-0.998147871285417,0.00981794120911406,-0.0328289449523769,-0.0715088435689202,-0.0127135004658783,0.0105320896592962
0.23,-0.502203900475885,0.0505712880041928,0.860828179476641,-0.0398969511220076,-0.0166574298764926,-0.0140665045249955,-0.985286799424772,0.0902070014093763,-0.154823497244367,-0.0514065234830275,0.0288863784809018,-0.000756308387859832,-0.970714960358102,-0.158946740198828,0.188909135106964,-0.0533717774162882,-0.000762673061083058,0.016081280331105,-0.998244629679042,0.00956997234246339,-0.0328282112727026,-0.0715431961302638,-0.0103916980789745,0.0107142910102324
0.235,-0.501975084148507,0.0501290278185658,0.860168994086544,-0.0383041247160489,-0.0157725566971075,-0.0144691333557482,-0.985349153622841,0.0897200586078086,-0.155686598651357,-0.0490600243985421,0.0277421596713336,-0.000511836821354306,-0.970653480852142,-0.159716639767516,0.189018567889822,-0.0509319465493461,-0.000504251950010851,0.0155694669132379,-0.998370537081294,0.009349315850914,-0.0329433235598822,-0.0711987746113154,-0.00805426713457673,0.0109600003340084
0.24,-0.501793228688248,0.0497467538329435,0.859644749531282,-0.0365067842300425,-0.0146698795224606,-0.0147628666287307,-0.985407029373451,0.0893435968715769,-0.156446525444933,-0.0464293508331087,0.0265046363522479,-0.000263990635699558,-0.970607008687241,-0.160484667809942,0.189087055968956,-0.0481942823087066,-0.000241044722651135,0.0150606262510447,-0.998526739643275,0.00913935846639446,-0.0331689722572694,-0.0704686853839094,-0.00572564576739862,0.0112665600397208
0.245,-0.501635248849105,0.0494475913664268,0.859263962993787,-0.0345502507725601,-0.0134030219973978,-0.0149673175727365,-0.98548211439697,0.089068652905629,-0.157089635508262,-0.0435807387166668,0.0251769517657722,-1.49512896400906e-05,-0.970592124261061,-0.161237174668564,0.189123838221733,-0.0452249062222339,2.43114965119123e-05,0.0145582010525198,-0.998713852801702,0.0089685333089315,-0.0334807503711383,-0.0693527350216675,-0.00342567803928355,0.01163290047148
0.25,-0.501470767076401,0.0492519021616656,0.859005207751153,-0.0324674209435229,-0.0120012622972362,-0.0150847058101488,-0.985609672174494,0.0888755730815848,-0.157608909126706,-0.0405662566424813,0.0237608941181781,0.00023366100944365,-0.970637056093181,-0.161941534277243,0.189144322965951,-0.0420749682932926,0.000290017762341822,0.0140703101288631,-0.998929040683193,0.00890198857714697,-0.0338441188407559,-0.0678335173197056,-0.00116951105303275,0.012044497817084
0.255,-0.501291821358931,0.0491622231080133,0.858864350835103,-0.0302769813358191,-0.0104725063684524,-0.0151108147643785,-0.985806646966097,0.0887489073778427,-0.158000314433681,-0.0374173822022267,0.0222620696673655,0.000482243840894771,-0.970756722888888,-0.162549524660893,0.189164943014385,-0.0387747574178316,0.000556639002096116,0.0136114949551458,-0.999165996167508,0.00897705013744096,-0.0342461785096081,-0.0658816375822285,0.00102953086267839,0.0124712632211639
0.26,-0.501097631715691,0.0491854711118203,0.858845243738486,-0.0279891760372096,-0.00882962337281276,-0.0150402468816898,-0.986063056323984,0.0886748400026057,-0.158265026144356,-0.0341570378982312,0.0206906461236241,0.000733169761122881,-0.97094282272389,-0.163032152887305,0.189203214018948,-0.0353467555376423,0.000826769534769207,0.0131958350978312,-0.999414539963596,0.00919167257686298,-0.0347026918803521,-0.0634787231196011,0.00315528157518462,0.012876727501383
0.265,-0.500881111034996,0.0493374310361604,0.858927816602653,-0.0256089818094342,-0.00709337036808299,-0.0148510519058737,-0.986352356832958,0.0886376001116341,-0.158411184256722,-0.0308115398956416,0.019057794989441,0.000989255120073688,-0.971172036383733,-0.163378162663858,0.189278785745995,-0.0318180464109713,0.00110321338710784,0.0128295141077159,-0.999660025037515,0.00952988050459521,-0.035253657125135,-0.0606206108289262,0.00518338044292505,0.0132206331942221
0.27,-0.500653562833193,0.0496031316707721,0.859080648820142,-0.0231374999283127,-0.00528427432543974,-0.0145069446097608,-0.986628463971998,0.0886327829747843,-0.158447657128074,-0.0274103698816232,0.0173755752898312,0.00125447546511153,-0.97140849330046,-0.163554082189468,0.189411980182874,-0.0282204192334211,0.00138962492412543,0.0125082544234167,-0.999884540910946,0.00994918797128261,-0.0359730232475321,-0.0573184512247636,0.00707563972506998,0.0134579910315001
0.275,-0.500457225341687,0.0499239647470617,0.859287312625404,-0.0205777145906148,-0.00343473965079402,-0.0139966666208826,-0.986820855880459,0.0886761248941044,-0.158375109972792,-0.0239814462331218,0.0156620831063288,0.00153807762160625,-0.971602245629312,-0.163494735814918,0.189626120587565,-0.0245865360561664,0.00169460759320729,0.0122163862525953,-1.0000694490328,0.0103600997317666,-0.0369703487163406,-0.0536264215574135,0.00877525810524699,0.0135447977971963
0.28,-0.500332890786098,0.0502494641669506,0.859537396909809,-0.0179438897648872,-0.00160334090300008,-0.0133567179989002,-0.986848852854934,0.0887922184372862,-0.158183684896534,-0.0205591756816003,0.0139428390218605,0.00185688668679655,-0.971697447150608,-0.163144126924328,0.189953977430691,-0.0209589164117054,0.00203380868746395,0.0119213750783488,-1.00019863145491,0.0106491983958224,-0.0383673605764149,-0.0496726717203443,0.0102046647061532,0.0134434131062904
0.285,-0.500290027797023,0.0505848017995672,0.859805210412818,-0.0152677477065274,0.000130334696317274,-0.0126486481116007,-0.986642150494549,0.0890014476282538,-0.157856623449001,-0.0172027400045759,0.0122456544517826,0.00223372622830183,-0.97164570606872,-0.162478571480771,0.190437722469398,-0.0174085272272934,0.00242801378119319,0.0115657621580196,-1.00026005573111,0.0107222344591923,-0.0402769083204158,-0.0456628180927446,0.0112645216629737,0.0131194044754094
0.29,-0.500315314063049,0.0509765868835592,0.860049874005391,-0.0125961574996379,0.00168139900493083,-0.0119242475207959,-0.986147708441342,0.0893199738846011,-0.157372875752656,-0.0140047987344474,0.0105970044411038,0.00269526169911191,-0.97141259855984,-0.161478088020431,0.19112245240454,-0.0140431851501846,0.00290090498245521,0.0110653177142868,-1.00024397444157,0.0105223870110912,-0.0428030331608619,-0.0418558274573555,0.0118302263554221,0.0125317272687451
0.295,-0.500403920171889,0.051463220882546,0.860234440228896,-0.0099849742677756,0.00296901836150738,-0.011219215121888,-0.985320658872359,0.0897707030143363,-0.156707504933726,-0.0110839187807951,0.00902434823360037,0.00327260134659177,-0.970974274488304,-0.160092072939503,0.192054850047747,-0.0109997159420516,0.00347984596447282,0.0103136571114314,-1.00014278153303,0.0100052064666767,-0.0460519237137474,-0.0385441767170898,0.0117477430807247,0.0116240374431496
0.3,-0.500573309065475,0.052060741432672,0.860339975432331,-0.00749764640331873,0.00391138686837873,-0.0105786430894356,-0.984114524644452,0.0903908453771871,-0.155833714161251,-0.00857444614773642,0.00756014942598539,0.00400498165579235,-0.970311473154479,-0.158251590397543,0.193289814614207,-0.00843415197136249,0.00419968555552419,0.00918437376896945,-0.999955413846607,0.00910118534297015,-0.0501339307617364,-0.0360664393051695,0.0108335799306231,0.0103241641122803
0.305,-0.500843215926416,0.0527954450988597,0.860361992199785,-0.00520848612852859,0.00441686250121117,-0.0100701723119525,-0.982484274638243,0.0912236399552727,-0.154726616449648,-0.00663005147088768,0.0062406224239081,0.0049425165778588,-0.969408013085286,-0.155914511438763,0.19489259048374,-0.00652581022674409,0.00510533934185497,0.00752577338176265,-0.999689715239987,0.00771485653785177,-0.0551494903842331,-0.0348326480120755,0.00887944820647415,0.00854820917024257
0.31,-0.501210310470831,0.0537226722254087,0.860302681015687,-0.00320397867493437,0.00438223925839973,-0.00976647728309838,-0.980397481902455,0.0923008328337652,-0.153365571801907,-0.00543437272868711,0.00509933049905169,0.00614492025443334,-0.968252270533348,-0.153086721398836,0.196923552627996,-0.00548773337080988,0.00625030171585013,0.00515536057848748,-0.999358100526133,0.00576016806965535,-0.0611736932023164,-0.0353255171630427,0.00565780198898983,0.00620274475464058
0.315,-0.501640858239084,0.0549124697939268,0.860167674202746,-0.00157823396856678,0.0036966494878059,-0.00972014490582568,-0.977844516675105,0.0936279477787692,-0.151732722627774,-0.00520095713613488,0.00416239154217902,0.00767647211999864,-0.966839238982811,-0.149804075080955,0.199417818364907,-0.00556519688270438,0.00769175513425515,0.00186532616059634,-0.998971554935963,0.00319156700899532,-0.0682472573511182,-0.0380609970022854,0.000923963094917166,0.00318540860438814
0.32,-0.502083632436203,0.0564201128667867,0.859965841534357,-0.000427321726851938,0.00224987885608683,-0.00994247847130181,-0.974845399532164,0.0951785932020695,-0.149810993655968,-0.0061652554875143,0.00344970492650863,0.00959886057799681,-0.965175223793364,-0.146101626460493,0.202383890396385,-0.00702571959108122,0.00948386098632841,-0.00256123399721776,-0.998538176871876,5.01625585404568e-06,-0.0763677502893576,-0.0435295478541019,-0.00558248627587904,-0.00061326283814508
0.325,-0.502499736068894,0.0582385389728789,0.859715794370851,0.000152439196069662,-5.70377253802604e-05,-0.0103991929404163,-0.971455689473879,0.0968977543255024,-0.147591542180933,-0.00857454973374185,0.00298094015211397,0.0119656804302017,-0.963287105079123,-0.141991195051419,0.205817030107123,-0.0101474974299241,0.0116727027797217,-0.00833242619262157,-0.998065779931262,-0.00377288077729553,-0.0854794029486507,-0.0521610520659432,-0.0141289137760758,-0.00530568250381147
0.33,-0.502885552067549,0.060254234365267,0.859456878512541,6.72443115583817e-05,-0.00330328439446593,-0.0110406345494508,-0.967773634263743,0.098703115975799,-0.145091312328732,-0.0126641148528857,0.00278213153577902,0.0148213847393507,-0.961230738219436,-0.137467566170621,0.209700610660751,-0.0151944340961616,0.0142956533969958,-0.0156313819383454,-0.997563953691098,-0.00808106860532429,-0.0954533729248319,-0.0643208191920678,-0.024970859743936,-0.0110023921630172
0.335,-0.5032589712826,0.0622530281520096,0.859254369578191,-0.000767282898687065,-0.00754295189531652,-0.0118436797405924,-0.963943999025736,0.100473465619664,-0.142369698366013,-0.0186220988345864,0.00288819266431628,0.0181999835055361,-0.959087737108932,-0.132565523097582,0.213986106391338,-0.0223792160498127,0.0173805355129792,-0.0245993253804514,-0.997042909140558,-0.0128122197406037,-0.106050046833433,-0.0803005725934571,-0.0383254944767781,-0.0178042943507752
0.34,-0.50362346638889,0.0639607163273261,0.859193639682553,-0.00241882484703586,-0.012802584030183,-0.0128194083000728,-0.960157262856769,0.102032151866776,-0.13953978496634,-0.0265646877026606,0.00333584707935326,0.0221164448033166,-0.956956176253649,-0.127434904097815,0.218576296754827,-0.0318354121588506,0.0209373972082812,-0.0353199218245657,-0.996511914555738,-0.0178021606808622,-0.116889084962201,-0.100278901790729,-0.0543392485901091,-0.0257863156134501
0.345,-0.503953273220175,0.0650632484345516,0.859369775908483,-0.0049296058944716,-0.0190764484620637,-0.0139929587783021,-0.956654282333222,0.103145027553095,-0.136772145610795,-0.0365197234901873,0.00414763502017469,0.0265545754171398,-0.954953565446181,-0.122363151048312,0.223322474841039,-0.0435976021606489,0.0249465769857124,-0.0478104349040631,-0.995981212983096,-0.0228141573359724,-0.127437644401056,-0.124282619893098,-0.0730515640895924,-0.0349780314840469
0.35,-0.504202196797902,0.065216930050349,0.859883937910498,-0.00830512052823941,-0.0263135497066231,-0.0153912393651061,-0.953739095968945,0.103540951445404,-0.134285267640646,-0.0484025540619583,0.00531779875661508,0.0314568555034012,-0.953228648645121,-0.117752538898144,0.227993455303035,-0.0575734912577531,0.0293489613112237,-0.0620092231420384,-0.995465331303125,-0.027524524700254,-0.136961719356283,-0.152160672107668,-0.0943518009104642,-0.0453454229733788
0.355,-0.504308458529149,0.0640954895130005,0.860840584907956,-0.0125052243135587,-0.0344001448887547,-0.0170318676227627,-0.951785281452143,0.102953946865641,-0.132327234720576,-0.0619880641994007,0.00680766912527835,0.0367106832756958,-0.951965871099748,-0.114109445781216,0.232202745696844,-0.0735099145870129,0.0340336014302516,-0.0777365938891783,-0.9949853962896,-0.0315180276181882,-0.14443240650872,-0.183502066809753,-0.117921739826197,-0.0567607200487515
0.36,-0.504191896775786,0.0614738243503093,0.862325620663673,-0.0174360477074588,-0.0431415794557486,-0.0188988631580978,-0.951223498739268,0.101188354218769,-0.131161593760726,-0.0768847647292412,0.00854615931359388,0.0421304009498683,-0.951383599977226,-0.112047932251106,0.235346749182839,-0.0909581247499023,0.0388221155726141,-0.0946307179647615,-0.99457401245739,-0.0342821464575718,-0.148467730296321,-0.217483452266282,-0.143164323028027,-0.0689564330441702
0.365,-0.503755692476048,0.057329583066765,0.86436191039815,-0.0229344789901553,-0.0522397322335915,-0.0209175179334852,-0.952515972666219,0.0982036675505726,-0.131064244924192,-0.0925040679507816,0.0104278056988457,0.0474450014886445,-0.951736085305633,-0.112286089158066,0.236580002029451,-0.109233574434091,0.0434593117095586,-0.112082372245143,-0.9942826281022,-0.0351761984495261,-0.14733859681927,-0.252720692506321,-0.169127426988159,-0.0814775382099964
0.37,-0.502897846240266,0.0519572370481895,0.866854929653422,-0.0287369948144879,-0.0612622889571366,-0.022935560245598,-0.956132678142177,0.0942060934058288,-0.132334705417301,-0.108016308160519,0.0123055631624845,0.0522982086803896,-0.95332464651335,-0.115636117734121,0.234811497458594,-0.127363074699487,0.047616596248522,-0.129181174338386,-0.994184174238753,-0.0333509515666067,-0.138997179415905,-0.287159237528075,-0.194429272238681,-0.0936480217575163
0.375,-0.501527479144728,0.0460800135449479,0.869540491455366,-0.0344246565843464,-0.0696018532429297,-0.0247061832454184,-0.962525169247049,0.0897357613274019,-0.135307294637762,-0.122285923983886,0.0139783441762921,0.0562631246677137,-0.956503728558833,-0.122994731667151,0.22869371663527,-0.144012186433168,0.0509105093806942,-0.144675987760883,-0.994373317484498,-0.0276782510417035,-0.121099694443577,-0.317991757893157,-0.217190067374495,-0.104568472958855
0.38,-0.499601478681253,0.0409157100110731,0.871952537970494,-0.0393591660965667,-0.0764310633783031,-0.0258683982914246,-0.971911575682915,0.0857342576111324,-0.140228780225852,-0.133803277545137,0.0151777056977909,0.0588649518165011,-0.961549761118978,-0.135096265112464,0.216865978373249,-0.157409889540874,0.0529300395314586,-0.156940883620534,-0.994958786618689,-0.0170859786384774,-0.091630139162193,-0.34158475359393,-0.23496867800893,-0.11312328552231
0.385,-0.497233332350828,0.0379852331919353,0.873490497527652,-0.0427172795421988,-0.0807640433947215,-0.025961619472703,-0.983606061256896,0.0834284470822979,-0.146832518775598,-0.140823087140863,0.0155899512787852,0.0596503342510218,-0.968219634224534,-0.151544526492252,0.199149788556215,-0.165508860399719,0.0533036679087028,-0.164116244712499,-0.995999667181064,-0.00177307815529782,-0.0513881909384362,-0.353803024582522,-0.244978875458568,-0.1180698270366
0.39,-0.494788210268996,0.0383869630945636,0.873694617895013,-0.0437775259379664,-0.0818229398309871,-0.0245729517853482,-0.995539201813162,0.0837680720435845,-0.153993448004632,-0.142040099186845,0.0149704032398042,0.0583930891119457,-0.975387949698726,-0.169841429887618,0.17802286025146,-0.166773330839145,0.0518782397907049,-0.164810952074237,-0.997404369730059,0.0156839510144129,-0.00654823964461012,-0.351569716544939,-0.245153443877775,-0.118481041658688
0.395,-0.492736101355446,0.0419835280668726,0.872569635442864,-0.0423123904113419,-0.0795206411542719,-0.021570577207989,-1.00519720057325,0.086734741847292,-0.160217143711449,-0.137415034071628,0.0132882739506628,0.0553078953248491,-0.981540597897646,-0.186327777641811,0.157853248240018,-0.161152647318021,0.0488913124426394,-0.159018907774749,-0.998944061404579,0.0314057578928515,0.0336682371366398,-0.334877338945207,-0.235510743804169,-0.114355521756413
0.4,-0.491347236305353,0.0474811284986729,0.870573794229264,-0.0386488948130876,-0.0744838429448733,-0.0171686579847544,-1.01128456453605,0.0913478222924797,-0.164615985718745,-0.12814137986214,0.0107327776575372,0.0509684280905011,-0.985778946400463,-0.198537124723077,0.142015324523614,-0.150052002383792,0.044880331394907,-0.148121872104049,-1.00040362651604,0.0427789411117937,0.0630511833508465,-0.306785236121636,-0.218146505239321,-0.106630122488143
0.405,-0.490599833624406,0.0533075113745917,0.868283473529348,-0.0333608039223098,-0.0676005622834971,-0.0117685720405332,-1.01408225795137,0.0963615550849831,-0.167187199086098,-0.11579782064516,0.00758080426597651,0.0459950328725311,-0.988113503951894,-0.206088324075612,0.131420526909142,-0.135340440641559,0.0404023017031843,-0.133963600871163,-1.00167913590444,0.0494143866551148,0.0807939885776645,-0.271394849365932,-0.195851698589374,-0.0965557167505525
0.41,-0.490334451825571,0.0582853155837629,0.866127802209735,-0.0269977817153367,-0.0596547436926929,-0.00580316280145563,-1.01451795474731,0.10083164951744,-0.168331824210019,-0.101706683592777,0.00409295445522063,0.0408559218372907,-0.988974608826587,-0.209687577067865,0.125477049721089,-0.11859429796847,0.0358649881091627,-0.118123264953923,-1.00274530907037,0.0520907772545271,0.0889518409311975,-0.232274809016257,-0.17103831838287,-0.08519804409926
0.415,-0.490390401236766,0.0617903606374795,0.864351370200577,-0.0200113976551874,-0.0512458081774566,0.000319421906894799,-1.01344563508962,0.104233659413791,-0.168453587004913,-0.0868202618580002,0.000490029310043334,0.0358555916934046,-0.988804252541739,-0.210200346354986,0.123280726641384,-0.100959430259765,0.0315238894436872,-0.101771805695749,-1.00359803792909,0.0517868395756323,0.0899093413017063,-0.192149917951598,-0.145527018190533,-0.0733403844797783
0.42,-0.490638413943723,0.0636896648569472,0.863071770716489,-0.0127523590369494,-0.0428099429635329,0.00625641113671899,-1.01152183299619,0.106381097489152,-0.167885314994256,-0.0717959170207921,-0.00305325812287042,0.0311787055483824,-0.987980120293734,-0.208466100984306,0.123999815567274,-0.0832341236126585,0.027525673196125,-0.0857412550897202,-1.00423187041008,0.0494918787408256,0.0857260409486304,-0.153010640602598,-0.120627874648584,-0.061554021583436
0.425,-0.490982525116561,0.0641842390667824,0.862314553989602,-0.00547390229626919,-0.0346468131523414,0.0117789732304817,-1.00922740432761,0.107319850627091,-0.166899658582474,-0.0570795918184431,-0.00641904973642303,0.0269279123768756,-0.986808046973132,-0.205273823545538,0.126897864277494,-0.065961553421162,0.0239443400171165,-0.0706049695563754,-1.00464001799068,0.0461314514500153,0.0781265893366126,-0.116224692067907,-0.0972254145107242,-0.050283089858617
0.43,-0.491362632742613,0.0636078450007671,0.862020222108869,0.00165293706450138,-0.0269480107106242,0.0167816615341329,-1.00686191663333,0.107238111197231,-0.165700928613531,-0.0429704217159994,-0.00954215956626226,0.0231493264345327,-0.98549007174039,-0.201266493778087,0.131291154325514,-0.0495028524090477,0.0208051743779199,-0.0567367635691758,-1.00482284839138,0.0423925078600442,0.0685116479855707,-0.0826564020438186,-0.0758581792052288,-0.0398759431268377
0.435,-0.491756988665065,0.0622819674634971,0.862066249716415,0.00851682209865406,-0.0198248352441651,0.0212440843507989,-1.00456573842188,0.106399043465584,-0.164425686283853,-0.0296565359800111,-0.0123902919650938,0.019847649471003,-0.984124998968159,-0.196885984809148,0.136535142717699,-0.0340800414197723,0.0180990284780105,-0.0443426441418022,-1.00478955905126,0.0386661469116916,0.057981635333736,-0.0527863369302901,-0.0567890391921708,-0.0305619720087332
0.44,-0.492180093081274,0.0604600338332493,0.862309626313493,0.0150498540061447,-0.0133319279264187,0.0251718201869642,-1.00237826663231,0.105087961460042,-0.163161047709681,-0.0172281785092502,-0.014944787117214,0.0169998926839605,-0.982747811576117,-0.192399284578118,0.142065737325413,-0.019795257840312,0.0157954934938302,-0.0334845288170444,-1.00455128895653,0.0351417030074828,0.0473670197957926,-0.0268111974289448,-0.0400677641669484,-0.0224380221039753
0.445,-0.492658801800967,0.0583489059163474,0.862626993145362,0.0212177046299362,-0.00748540931501049,0.0285514388542214,-1.00029504791108,0.103565754436296,-0.161960496414723,-0.00568801262028211,-0.0171901453134659,0.0145686158321179,-0.981368233818293,-0.187978541157035,0.147445868045886,-0.00664666165285747,0.0138552933644473,-0.0241091268383855,-1.00412150522151,0.0319104244779382,0.0372593527079864,-0.00472014770558178,-0.0255878820279878,-0.0154873465388156
0.45,-0.493197738128416,0.0561603692057286,0.862937760175353,0.0270061133265402,-0.00227872381212478,0.0313596519756777,-0.998304517262181,0.10203691119139,-0.160851803274608,0.00501168751454906,-0.0191154055364537,0.01250859698794,-0.979992549017832,-0.183785401896848,0.152384742674945,0.00542899774959198,0.0122351496123524,-0.0160886845471853,-1.00352555788564,0.029020294601679,0.0280375392443913,0.0136444117080134,-0.0131408715365714,-0.00961430480905925
0.455,-0.493775884535824,0.0541068032567662,0.863198158897786,0.0324065060768916,0.00230481101427972,0.0336065198981444,-0.996402879173644,0.1006457154217,-0.159844248885201,0.0149184051682676,-0.0207235577072802,0.0107685857886784,-0.978633885240692,-0.179979451947316,0.156721311017841,0.0165009511632304,0.0108872422467779,-0.00926674303171702,-1.00280537843818,0.0264999212929793,0.0198865226476155,0.0285428834771902,-0.002468674127511,-0.00468239059896122
0.46,-0.494376544042024,0.0523393824324197,0.863382697781243,0.0374080434208225,0.00629033220718038,0.035345171594612,-0.994591904811804,0.0994933034652423,-0.158929186955734,0.0240576633645764,-0.0220337708080561,0.00929468229645643,-0.977313592295852,-0.17665179719275,0.160384545808387,0.0266189706917344,0.00976122163172992,-0.00348760882626607,-1.00201459992954,0.0243615020410038,0.0128171136100225,0.0403098715868439,0.00668869160797603,-0.000545855250437571
0.465,-0.495013202332211,0.0509096178810103,0.863492100742995,0.0419898627720175,0.00971346584486367,0.0366368741208785,-0.992869950897604,0.0986563857845486,-0.158074200242025,0.0324358808230344,-0.0230710371117159,0.00803516815828457,-0.976055002060102,-0.173791645958113,0.163357906629236,0.0358133870382865,0.00880868193154351,0.00139474252713448,-1.0012101226291,0.0225919607785361,0.00670846684194326,0.0493242295342087,0.0145561917178469,0.00293168039898937
0.47,-0.495723792052971,0.0497968008620156,0.863573921186754,0.0461073437257941,0.0126067369119314,0.0375096700955594,-0.991229175665499,0.0981936653294998,-0.157224954512554,0.0400364369639789,-0.0238555019471145,0.00694312206964111,-0.974876978577146,-0.171336547989627,0.165664387946301,0.0440890189334102,0.00798546272666637,0.00551291327785896,-1.00044536310655,0.0211507785288978,0.00137546874345628,0.0559686834143978,0.0213047937101973,0.00587130545937772
0.475,-0.496537495922354,0.048974065031522,0.863710211326888,0.0496798176163509,0.0149800911963064,0.0379499569673456,-0.989665716481364,0.0981391894341503,-0.156315629754435,0.0468013895654401,-0.0244018786390533,0.0059760222525978,-0.973796378778407,-0.169242206657827,0.167368529497131,0.0514056926852822,0.0072506033012902,0.00897778069871954,-0.999768190633874,0.0199873504495973,-0.00337426557685942,0.0605966181386939,0.0270500016072261,0.00837647335296024
0.48,-0.497452617226102,0.0484405213154323,0.863983237048838,0.0525871084259561,0.0168198972341512,0.0379311875566105,-0.988189801132204,0.0984991933487701,-0.155278028903154,0.052611988444128,-0.0247258974181362,0.00509421970790585,-0.972834521762105,-0.167500555515924,0.168573232537168,0.0576584228142537,0.00656416505224637,0.0118687957666356,-0.999221411532638,0.019062108627132,-0.00771863509327956,0.0635222393578849,0.0318565918703467,0.0105252130830418
0.485,-0.498444701027293,0.0481966285649696,0.864448961934216,0.0546733342278347,0.0181019538660596,0.0374341069415042,-0.986822552872821,0.099253215464981,-0.154056079772254,0.057286365661656,-0.0248492414521423,0.00426094146488353,-0.97201527739204,-0.166103512255798,0.169400340322464,0.0626753631795942,0.00588711970903314,0.0142306654111149,-0.998837112396325,0.0183463041802415,-0.0118048033497053,0.0650254531386099,0.035743163381226,0.0123615955587549
0.49,-0.499474985178756,0.0482230336520759,0.86510385620348,0.0557697161698024,0.0188059251984707,0.036444679886511,-0.985585079294336,0.100332550258013,-0.152642310617889,0.0606145095998522,-0.0247975591556081,0.00344517800667873,-0.971351603084439,-0.164979865670217,0.169971116129598,0.0662537174430076,0.00518519919032683,0.0160832807056728,-0.998617429669429,0.0177954565443835,-0.0156955222087959,0.0653575241315817,0.0386965935635887,0.0138974496637466
0.495,-0.500483988333623,0.0484880607558367,0.865857842690807,0.0557650917704873,0.0189343431452581,0.0349670731298551,-0.984489809270944,0.101592713868067,-0.15111027590071,0.0624531657641054,-0.0245885482990278,0.00262803326099123,-0.970832245041069,-0.163961812532279,0.170397210527378,0.0682565756102589,0.00443783191599304,0.0174508740941554,-0.998518383399758,0.0173276277731132,-0.0193234074996781,0.064741877599055,0.0407123174247846,0.015131300867753
0.5,-0.501397610427819,0.0489506368129551,0.8665783157687,0.0546861183962623,0.0185300611243474,0.0330508478030428,-0.983538498370221,0.102849757510248,-0.149582769108477,0.0628280341113679,-0.0242207821798059,0.00180821245373728,-0.970428105060258,-0.162869597116073,0.170774831446081,0.0687170378749065,0.00364625363790535,0.0183902474476462,-0.998473395618031,0.0168591402837697,-0.0225677344479522,0.0633694597170109,0.041837784474592,0.0160716765868114
0.505,-0.50215781900022,0.0495514734568788,0.86718237839071,0.0526827967149268,0.0176701411805205,0.0307876300654906,-0.982725132740142,0.103970781980362,-0.148155344622847,0.0619168288354937,-0.0236841150178345,0.000997847046316265,-0.970114519643227,-0.16165663118121,0.171176763089428,0.0678207645826785,0.00282847465681759,0.018975020181668,-0.998443881692126,0.0163734975344272,-0.0254107223028554,0.0613904539552203,0.042161548266683,0.0167353845771367
0.51,-0.502742701718424,0.0502188143629761,0.86766069774416,0.0499276663515311,0.0164393696612193,0.0282719619457499,-0.982040286327471,0.104911555189823,-0.146865661161106,0.0599265276364627,-0.0229844045964523,0.000211276904578129,-0.969880493620974,-0.160425889670491,0.171646792318571,0.065780784757699,0.00200440308423977,0.0192479983118521,-0.998433580344669,0.0159223420649859,-0.0279636878102749,0.0589108707657636,0.0417560764586221,0.0171238035276778
0.515,-0.503147756962601,0.0508967859185943,0.86801297642393,0.0465505905068503,0.0149169465428682,0.0255749418421753,-0.981475906251614,0.105667029334583,-0.145721654977226,0.0570155315278893,-0.0221520340065686,-0.000541667819120418,-0.969715552541649,-0.159306454810265,0.172202133183108,0.062759235378832,0.00118729093602998,0.0192071152130678,-0.998454696223437,0.0155450069389082,-0.0303279396754483,0.0560109499757375,0.0406525734910826,0.0172152537261909
0.52,-0.503359012136039,0.0515622742301269,0.868195142221488,0.0426520573973168,0.0131903466111538,0.0227606546511235,-0.981026623981966,0.106214661219542,-0.144735371175328,0.053309926305212,-0.0212270252331282,-0.00125600436488267,-0.969596471007901,-0.158359031550367,0.172841540354694,0.0588865155908233,0.000384725622433503,0.0188431177327005,-0.998497201809285,0.0152147503709293,-0.0324889499798837,0.0527819187326613,0.0388760581135344,0.0169881535743529
0.525,-0.503361946837209,0.0522020675083068,0.868142885040396,0.0383436601502347,0.0113709873775933,0.0199123402455288,-0.980686008255294,0.106515202271403,-0.143939651208582,0.0489521136155078,-0.0202428368632408,-0.0019295060339858,-0.969493804413086,-0.157590176479255,0.173551143177181,0.0543126859077017,-0.000397349695227856,0.0181784355989553,-0.998533571907904,0.0148801987869262,-0.0343618188236892,0.0493430513580653,0.0364896979576608,0.0164472426130413
0.53,-0.503170066328974,0.0527875777864044,0.867831012354483,0.033766565254451,0.00958397079549017,0.017123214843417,-0.980445281451263,0.106551115587634,-0.14337836492472,0.0441265703909849,-0.0192265090422657,-0.00255981533556452,-0.969389843558833,-0.157004210429122,0.174304867943009,0.0492327748263619,-0.00115138672523072,0.0172643400850216,-0.998543448021503,0.0145322198996198,-0.0358940228485445,0.0458208816725352,0.0335977213085998,0.0156235753183294
0.535,-0.502826620897192,0.0532900351284015,0.86729429909882,0.0290768320310851,0.00794167136019394,0.0144687764780749,-0.980298290121794,0.106345769964385,-0.143074773533082,0.0390443804435751,-0.0182057087444136,-0.00314355909265827,-0.96928563180216,-0.156612067076577,0.175065471532711,0.0438690777748251,-0.0018683114562615,0.0161567226979015,-0.998527231543693,0.0142030971461007,-0.0370944192879233,0.0423259583570791,0.0303165662994952,0.0145574910787449
0.54,-0.502380646716428,0.0537067736439525,0.866601362319527,0.0244221354745703,0.00652880347524778,0.012000754731422,-0.980246244452716,0.105948705794581,-0.143014669412664,0.033910911729724,-0.0172076235727638,-0.00367825605521195,-0.969194192550478,-0.156410616413655,0.175791025167871,0.0384378186731678,-0.00254021931392549,0.0149091725542547,-0.998499630147234,0.0139214361084585,-0.0379865827737098,0.0389547793591834,0.0267558182316534,0.0132907918021948
0.545,-0.501871857030751,0.054059964853052,0.865830123914005,0.0199321538264916,0.00540335351833216,0.0097571170402658,-0.980297901158417,0.105416713949346,-0.143156424669064,0.0289088898798159,-0.0162538706297594,-0.0041636945099795,-0.969134505822991,-0.156376520864014,0.176443805194718,0.0331326401567756,-0.00316182370737835,0.0135812229244342,-0.998478686045223,0.0136962888157055,-0.0385719017683884,0.0357999859631478,0.0230217023197271,0.0118703641154319
0.55,-0.501338682424865,0.0543765003458315,0.865069951569495,0.0157178746675026,0.00459940214207386,0.00776660904032488,-0.980466380078815,0.104809146389806,-0.143445772256899,0.024195284167325,-0.0153587329238599,-0.00460142796265331,-0.969132350141282,-0.156469024352566,0.176997294617097,0.0281217147945898,-0.00372988239559096,0.0122419647842908,-0.998482800536918,0.0135427323535622,-0.0388527939923103,0.0329482022371145,0.0192241148906025,0.0103491862621112
0.555,-0.500834908396211,0.0546689579748665,0.864429206282918,0.0118685307075442,0.00412162813535764,0.00604247091104752,-0.980763141905516,0.104190049003924,-0.143827242200203,0.0198970862626555,-0.0145291253723152,-0.00499343299823878,-0.969220741352669,-0.156630435727545,0.177438976774078,0.0235423583209878,-0.00424214738472647,0.0109615690039292,-0.998531919092637,0.0135098460195738,-0.038880442946595,0.0304623797126591,0.0154672299330953,0.00877607250932874
0.56,-0.500423961688803,0.0549344924285779,0.86401646227744,0.0084473525585069,0.0039354925745186,0.00456968700024257,-0.981191450093377,0.103622387022402,-0.144252594451365,0.0161071120346538,-0.0137650407417628,-0.00534036093262675,-0.969431254336543,-0.156799051313631,0.177767785202685,0.0194948526564535,-0.00469609680018788,0.00979630552890642,-0.998644594780856,0.0136703264491987,-0.038755614778173,0.0283611337627588,0.0118281674657002,0.00717980413716626
0.565,-0.500138086901506,0.0551807403180662,0.863892172612729,0.00549080382385135,0.00397024381333987,0.00330438344361102,-0.981743192784184,0.103150733887915,-0.144678684625696,0.012883287413503,-0.0130617450542441,-0.00564117308272333,-0.969777627212249,-0.156941679096488,0.177988038647892,0.0160409963816082,-0.00508877846495109,0.00878075596919131,-0.998832659871621,0.0140726132086631,-0.0385782171284051,0.0266156362587013,0.00834739454677977,0.00556402751916822
0.57,-0.499946562260944,0.0554462375792314,0.864034803829308,0.003006889442673,0.00414650805948687,0.00220184751373178,-0.982398369238585,0.102787848860917,-0.14506294204797,0.0102423708999924,-0.0124147880315876,-0.00589680672762994,-0.970244490930689,-0.157078903619204,0.178105543753663,0.0131991975671704,-0.00542043646157096,0.00793204885798409,-0.99909836755145,0.0147016454846707,-0.0384044912532634,0.0251701820073847,0.00503912858682419,0.00392047580582131
0.575,-0.499790199137265,0.0557707859292736,0.864373644259946,0.000973554522334125,0.00440760575524253,0.00124843829874078,-0.983125620745627,0.102520985111679,-0.145374723779736,0.00815356543236945,-0.0118253743864451,-0.00611457626944877,-0.97079360280873,-0.157261363418246,0.178130762432143,0.0109399899923034,-0.00569878244368481,0.00725756986723736,-0.999430981580679,0.0154924670776116,-0.0382458323525794,0.0239696512390841,0.00190829911050216,0.00224747592999472
0.58,-0.499650046885324,0.0561453234460303,0.864856200266837,-0.00065272184944188,0.00471778890494689,0.000455037051786715,-0.983883926750537,0.102330974656058,-0.145612592352845,0.00655227173715587,-0.0112996618095422,-0.00630658598095391,-0.971380799304885,-0.157513924860555,0.178083572987753,0.00920004749527558,-0.00593708050746431,0.00675798483692645,-0.999802533687453,0.0163810370619138,-0.0380950833156924,0.0229671582564356,-0.00104039483978224,0.000553403270255181
0.585,-0.499560549538985,0.0565120340597214,0.865459254835262,-0.0019214060714468,0.00503479189597828,-0.000177908870703285,-0.984624140328112,0.102202799950596,-0.145802378866498,0.00536747346684661,-0.0108421653651626,-0.00648356594366707,-0.971963014778264,-0.157817893700687,0.177990832667425,0.00790829877723059,-0.00614755935419192,0.00642598115277669,-1.00017045190872,0.0173259569932869,-0.0379500520153949,0.0221101517721565,-0.00380311383104312,-0.00115418732679008
0.59,-0.499557171864933,0.0568140182989373,0.866136486337643,-0.00287965111535625,0.00529999726529164,-0.000676736939462071,-0.985292199954647,0.102121048688641,-0.145974491379075,0.00453629778108121,-0.0104510373825209,-0.00665144779891274,-0.972493364103348,-0.158142076953438,0.177879789096625,0.0069996955666552,-0.00633775790454514,0.00624606297961643,-1.00048957451239,0.0182847603987516,-0.0378265190810288,0.021332098798153,-0.00637984136025466,-0.00287465206653323
0.595,-0.499631040585908,0.0570313250119933,0.866788718102081,-0.00357664744539946,0.00546201147136018,-0.00107725857012134,-0.985837187946067,0.102064160848404,-0.146142751696553,0.00399691540975415,-0.0101181193965983,-0.00681332726421091,-0.972921087002552,-0.158471718246768,0.177773211937347,0.0064086379649486,-0.00651252184230634,0.00619807638713734,-1.00072499507812,0.0191947458595334,-0.0377597801284701,0.0205632955712577,-0.00877783688881177,-0.00460938949075528
0.6,-0.499743482112591,0.0571673934353444,0.867311226091608,-0.00407033600600105,0.0055031675682938,-0.00140235801156697,-0.986220404410621,0.102009920076361,-0.146307135173128,0.00367752053238714,-0.00983230181780277,-0.00697292324682779,-0.973202748326603,-0.158810586452249,0.177687137845882,0.00605904562267895,-0.00667753972363652,0.00626113147767005,-1.00085571367104,0.0199826612360996,-0.0377755942336103,0.0197482322829718,-0.0110143318035773,-0.00635490483887328
0.605,-0.499874479789882,0.0572164889958591,0.867663554428225,-0.00442272415167358,0.00543070685863294,-0.00166529356516331,-0.986420222846304,0.101947134428062,-0.14647300611878,0.00350197994206174,-0.00958399767585572,-0.00713436063899643,-0.973314890438006,-0.159168114936128,0.177631917421242,0.00587060340547372,-0.00683901187301624,0.00641327203795702,-1.0008713529533,0.0205822331617751,-0.0378520746385614,0.0188492462254769,-0.013110735483925,-0.00810063679751253
0.61,-0.500036025814314,0.0571634159477082,0.867871151841283,-0.00468704425449118,0.00524423488115634,-0.00189025618620691,-0.986434120241099,0.101879533199207,-0.146655434876976,0.00340673403910301,-0.00936756885600247,-0.00729869735573103,-0.973258245609102,-0.159549162637707,0.17761373861203,0.0057756069440709,-0.00699992489456086,0.00662903701141167,-1.0007730337054,0.0209432203552645,-0.0379281072906602,0.0178355339573391,-0.0150807428195559,-0.00983053908661378
0.615,-0.500235506369333,0.0570173023869077,0.867962820942729,-0.00490206732268451,0.00492525077272772,-0.00211782392089427,-0.986281536567471,0.1018181238131,-0.146859164201634,0.00334761476143936,-0.00918083244704072,-0.00746246613097637,-0.973055358528115,-0.159948627342164,0.177634240756717,0.00572583346992525,-0.00715843509799863,0.00688063329772803,-1.00057963071991,0.0210383377951634,-0.0379530876468314,0.0166772915622297,-0.0169257308763714,-0.0115246224225671
0.62,-0.500443343989524,0.0568329395941374,0.867928202301617,-0.00509917049605988,0.00446291458124668,-0.00238358659285118,-0.986003265577032,0.101772924500182,-0.147062351131215,0.00328867343706147,-0.00902221212858522,-0.00762063780921719,-0.972745756189307,-0.160350803639807,0.177689828666473,0.0056817055940579,-0.00731090337427294,0.00714303304625652,-1.00032889973742,0.0208676231605209,-0.0379152388213034,0.0153524936928719,-0.0186431364346141,-0.0131612657380091
0.625,-0.500609888869601,0.0566859368803457,0.867745445421205,-0.0053105476031065,0.00388240219330287,-0.00269477687768378,-0.985650748389473,0.101755030674298,-0.147231408313084,0.00318954983363678,-0.00888931692862612,-0.0077702044182935,-0.972377480125084,-0.160744273431044,0.177769615829672,0.00560001512230563,-0.00745561359761138,0.00739757934744086,-1.00006794795314,0.0204451477644107,-0.0378090783488343,0.0138574257097223,-0.0202369110994272,-0.0147200353833656
0.63,-0.500706578056789,0.0566294789362256,0.867432016442569,-0.00556622653481343,0.00323677861151451,-0.0030356180694256,-0.98527328884886,0.101782294947284,-0.147347378761566,0.00300999443377076,-0.00878255323346079,-0.0079099931095406,-0.971998415237683,-0.161135947042664,0.177853763527438,0.00543876564724507,-0.00759252712662869,0.00763052815942358,-0.999840929604816,0.0197794630787117,-0.0375869492854844,0.0122091761926572,-0.0217131477122846,-0.0161797398262123
0.635,-0.500734389086886,0.0566828479831902,0.86704457955886,-0.00588654795859231,0.00257777008288355,-0.0033898293821159,-0.98491360035645,0.101874399771891,-0.147407355881511,0.0027224675022797,-0.00870825119943851,-0.00803859562064025,-0.97165095248456,-0.161540796519812,0.177917794439548,0.005169962877829,-0.0077210095949549,0.00783146996385457,-0.999682494581456,0.0188700352687995,-0.0371598347236069,0.0104382222831321,-0.0230656229624301,-0.0175130775494668
0.64,-0.500702608690357,0.0568473153920338,0.866643170411095,-0.00628160641684019,0.00194394545552975,-0.00374938298379253,-0.984606137018779,0.102041497787719,-0.147411260043484,0.00231473494511882,-0.0086766889024407,-0.00815434823391566,-0.9713672684675,-0.161967715333457,0.177941614121722,0.00478226304096,-0.00783969890343133,0.00799588984351964,-0.99961465376214,0.0177147965659198,-0.0364302045949061,0.00858108484593112,-0.024267048702357,-0.0186830782348122
0.645,-0.500615544256707,0.0571153404183365,0.866266252753571,-0.00675538119413917,0.00136289849831356,-0.00410928866815952,-0.984374319429223,0.10227826056747,-0.147360582359374,0.00178346123786831,-0.00869937109612212,-0.00825662073684332,-0.971168010973761,-0.162416922198599,0.177919069454639,0.00427419198527338,-0.00794792787461993,0.00812512211822448,-0.999645571189196,0.0163394225784501,-0.0353476960043342,0.00667488948019854,-0.0252697531504102,-0.0196445836755563
0.65,-0.500469193309796,0.0574684390656046,0.865917750324652,-0.00730837180604851,0.000858668928708283,-0.0044632704965614,-0.984230995686292,0.102562992731721,-0.14726395903457,0.00112999615055522,-0.00878861871259772,-0.0083458118803739,-0.97106569418838,-0.16287881107619,0.177863233582796,0.00364867056174767,-0.00804605860720159,0.00821740715961871,-0.99977205965429,0.0148379463717582,-0.0339761330964817,0.00475514227745579,-0.0260286224051312,-0.0203613035210296
0.655,-0.5002537899875,0.0578752408452297,0.865578302177472,-0.00793758495917407,0.00046442905254766,-0.00480336871546463,-0.984177551738385,0.102859635041592,-0.147139545764788,0.000362128719329139,-0.00895829609657954,-0.00842234542074895,-0.971060927147811,-0.163346446494504,0.177799226655831,0.00291344168139144,-0.00813474597336211,0.00825741357415105,-0.999978597206882,0.0133399289056055,-0.0324438866478717,0.00286125972470144,-0.0265371933951197,-0.0208309011263903
0.66,-0.499965769663831,0.0582925433332599,0.865238355169624,-0.00863511257918528,0.000219008416859476,-0.00511917142977784,-0.984199514727748,0.10312354828365,-0.14701367143052,-0.000504873089873421,-0.00922509449304889,-0.00848697888273238,-0.971132011239306,-0.163835002155398,0.177749366082573,0.00208233462715569,-0.0082152146720197,0.00821648590315192,-1.00023178327156,0.0119146771047589,-0.0307943597973801,0.0010397500270668,-0.0268229011478113,-0.0210824452435746
0.665,-0.499617139779275,0.0586671081373912,0.864900797112602,-0.00938826070458429,0.000147546347516125,-0.00539629937832262,-0.984270608526876,0.103308916982175,-0.146909360010672,-0.00145197094006882,-0.00960729347843782,-0.00854252124512769,-0.971239090585579,-0.164356097854614,0.177728339882419,0.00117297290812083,-0.00829071804997238,0.00806422679619512,-1.00048505019844,0.0105554102210822,-0.0289796022399101,-0.000661956876010672,-0.0269028935765696,-0.021147034811479
0.67,-0.499234162686063,0.0589410134704744,0.864553754725991,-0.0101851421582576,0.00026079648345108,-0.0056184781985703,-0.984365461000665,0.103376019888427,-0.146831441998991,-0.00246143136134682,-0.0101148285164691,-0.00859481593844422,-0.971342954439082,-0.164866174244881,0.177748873361082,0.000202299184651331,-0.00836723112774202,0.00778350831491127,-1.00069408966522,0.00925091025135688,-0.0269977773062087,-0.00220329353610708,-0.0267684875253678,-0.0210437112121487
0.675,-0.498850741331484,0.0590660188935295,0.864175104477719,-0.0110211790287619,0.000571896376411184,-0.00577195082506627,-0.984463446373708,0.103297232941145,-0.146773805414637,-0.00351924215799913,-0.0107364480120486,-0.00865208385940191,-0.971412261288838,-0.165286119921695,0.177822401932697,-0.00081621847123986,-0.00845257993267954,0.0073816198445955,-1.00082301203524,0.0080058100664779,-0.0249084402602815,-0.00355346663993932,-0.026405201154277,-0.020787086402152
0.68,-0.498501713132398,0.0590195301956821,0.863769778995732,-0.0118943890919728,0.00109320878415441,-0.00584507667477701,-0.984541622916932,0.103058939334669,-0.146744495182442,-0.00461142730230859,-0.0114408118213056,-0.00872320466259312,-0.971414844634077,-0.165581702585088,0.177953094804662,-0.0018686476582126,-0.0085546212518592,0.00689121227198596,-1.00083747274065,0.00679092159791842,-0.0227036000156271,-0.00468657402060732,-0.0257931006735009,-0.0203872021144675
0.685,-0.498219069124568,0.0588046980368165,0.863381763051121,-0.012790633206891,0.00181036921415673,-0.00582249486718613,-0.98457375871875,0.102662969160319,-0.146770938906702,-0.00571585337418665,-0.0121905730161342,-0.00881584430378247,-0.971317532496415,-0.165789709388823,0.178135438880935,-0.00293129581066758,-0.00867934148296539,0.00636355135867162,-1.00070570320301,0.0055348277723105,-0.0202767029126194,-0.00557129979678671,-0.0248785217946241,-0.0198358668166237
0.69,-0.498030022884747,0.0584285350919989,0.863063641022988,-0.0136780901580138,0.00266797902792844,-0.00568684101480976,-0.984540023232679,0.102136972780239,-0.146875802370522,-0.00679972649576699,-0.0129537793681201,-0.00893508686940622,-0.971105643355682,-0.165972299763628,0.178356965169918,-0.0039679861569928,-0.00882968430512533,0.00585801375302563,-1.00042027891014,0.00420250832777486,-0.0175834600199439,-0.00616855924270671,-0.023566681488186,-0.019103214080135
0.695,-0.497955821558151,0.0578798917360535,0.862846568370784,-0.014526713138805,0.00358589896138983,-0.00544433030565547,-0.984434594777038,0.101544616378453,-0.147055026964052,-0.00783229392716986,-0.0137108545465209,-0.00908250668396541,-0.970800452205092,-0.16617560021127,0.178601743061747,-0.00494500817594151,-0.00900551853326181,0.00541784000598734,-1.00001829311029,0.00287082214139091,-0.0147997244048923,-0.00645076011577536,-0.0217734571063676,-0.0181630583272437
0.7,-0.498015625665043,0.0571414868928821,0.862754158143219,-0.0153361557624463,0.00448470307328552,-0.00515770090375529,-0.984263013393112,0.100970127249716,-0.147283775877018,-0.00880325307099786,-0.0144599895316117,-0.00925547410778343,-0.97044746090154,-0.166420908510077,0.178853863385812,-0.00585268333128285,-0.00920410615588322,0.00504077643149384,-0.999564382203993,0.00168458596925916,-0.0122386207217438,-0.0064290666194465,-0.0194967356519481,-0.0170279117333738
0.705,-0.498228951508321,0.0562272767421724,0.862836494309862,-0.0161344557667844,0.00528359153393169,-0.00494244650037346,-0.984036759912126,0.100483259934382,-0.147535358913309,-0.00972335906361949,-0.0152140856393191,-0.00944686580440844,-0.970087296585917,-0.166708577016506,0.179101350338073,-0.00670615975234778,-0.00941978918736815,0.00468100100591245,-0.999110514687059,0.000736303370159163,-0.0101135001756766,-0.00615422311666844,-0.0168205873899638,-0.0157513564282191
0.71,-0.498599263596914,0.0551999751975951,0.863154576287551,-0.0169515143008091,0.00588063653517258,-0.00492509852648155,-0.983777210192875,0.100120956914764,-0.147778885640385,-0.0106104034652545,-0.0159896341471673,-0.00964596234750229,-0.969747500068386,-0.167022576166144,0.179341172672295,-0.00752848186582608,-0.00964371639948024,0.00428274897455501,-0.998685831307365,2.46367421729021e-05,-0.00846160516801944,-0.00568986117439859,-0.0138546332757659,-0.0143985966964322
0.715,-0.499094615276561,0.0541553783538462,0.863727651575111,-0.0178103799837837,0.0061653426910722,-0.00520338372243821,-0.983522071173776,0.0998940174582224,-0.147963443332108,-0.0114897867514083,-0.0167977343679975,-0.00984137307051137,-0.969455492318982,-0.16733220355318,0.179583578848206,-0.00834875204336253,-0.00986604177450856,0.00380754292498895,-0.998317442348738,-0.00049373495310144,-0.00725892201396063,-0.00508930455534724,-0.0106927965468985,-0.0130254908293886
0.72,-0.499662715852402,0.0531884454657234,0.864529128135339,-0.0187396095321197,0.00605641272290403,-0.00582755884834106,-0.983314863424905,0.0997977385478781,-0.148029629614174,-0.012408487710621,-0.0176397485237147,-0.0100242161158401,-0.969239930491707,-0.167594419392212,0.17984836062691,-0.0092157186571118,-0.0100791938596127,0.00324118696874659,-0.998035198845332,-0.00086391059577904,-0.0064933162817587,-0.00438822045903138,-0.00741452769318782,-0.0116777861925879
0.725,-0.500256490663031,0.0523580073025351,0.865518588805962,-0.019774307483366,0.00550980406655105,-0.00680361044805764,-0.983185626606733,0.099816068139283,-0.147942248525313,-0.0134323726709702,-0.0185063155001327,-0.0101884057090784,-0.969118352590616,-0.167776989623394,0.180153635050283,-0.0101957493237772,-0.0102782396005644,0.00258992302526182,-0.99785773131257,-0.00113247662948008,-0.00613260829356938,-0.00360654519253161,-0.00409077361506888,-0.0103940177894861
0.73,-0.500828693014741,0.051674972762628,0.866638371361848,-0.0209461623083393,0.00450782358844932,-0.00811361526417064,-0.983147007894836,0.0999224150465998,-0.147701814272147,-0.0146263932748762,-0.0193851532286701,-0.0103290548777328,-0.969093379112972,-0.167889039435548,0.180509370653056,-0.0113535146119679,-0.0104592173238496,0.00186883364186811,-0.997790058635832,-0.00134871238933801,-0.00610188151078993,-0.00275326067380005,-0.000779564205704024,-0.00920427867077537
0.735,-0.501334070429709,0.0511205056364301,0.867811933656147,-0.0222799287062144,0.00306581903623537,-0.00973434470843472,-0.983199353063521,0.100080138544398,-0.147333230030359,-0.016039766206171,-0.0202724761045883,-0.0104419114169371,-0.969156837371997,-0.167953593709814,0.180919049834935,-0.0127372342802269,-0.0106185999830389,0.00108925362413605,-0.997826816759788,-0.00154988861013453,-0.00632318536876394,-0.00182959179727462,0.00247704155899336,-0.00812883215303659
0.74,-0.501757453288278,0.050668996154822,0.868979408143437,-0.023786478027955,0.00122710793734935,-0.0116375917821479,-0.983329582347404,0.100242802505592,-0.146876056236152,-0.0176966354269932,-0.0211686935771575,-0.0105232606265158,-0.969290021202947,-0.167940966074903,0.181381611516319,-0.014369908913823,-0.0107530209794187,0.00025932786027972,-0.997947558766414,-0.00174683669345909,-0.00676442489505108,-0.000831363044173914,0.00564554171027723,-0.00718164823373343
0.745,-0.502101012641022,0.0502965928143144,0.870092006456846,-0.0254477995653738,-0.000964196113731379,-0.0137787326049202,-0.983512414150498,0.100354737679235,-0.14637947892687,-0.0195859224441836,-0.0220626166068663,-0.0105696389302121,-0.969463619315936,-0.167781339112113,0.18188943638236,-0.0162401725146316,-0.0108585751098939,-0.000606161368881654,-0.998121740340345,-0.00193647648516541,-0.00743342195168369,0.000247223694573692,0.0086890458502177,-0.0063753512726368
0.75,-0.502332612400584,0.0499808011443919,0.871056158679782,-0.0272135640468151,-0.0034610250722655,-0.0160910808624325,-0.983719298612212,0.100356194748874,-0.145898843683204,-0.0216574666299752,-0.0229320592700807,-0.0105789746263108,-0.969642949744641,-0.167453983451963,0.182424936653084,-0.0182985149736913,-0.0109318952583578,-0.00148711971000545,-0.99832755825527,-0.00213128383845547,-0.00833252070366726,0.00140937842662932,0.0115635181807101,-0.00571783734138074
0.755,-0.502382307522685,0.0497008679296002,0.871732183122212,-0.0290112577431609,-0.00617974173816574,-0.0184908289681841,-0.983925042313809,0.100195179879471,-0.145496853664769,-0.0238253543948278,-0.0237625094397367,-0.0105523925157671,-0.969795506532001,-0.167022868702144,0.182961212753058,-0.0204597476586645,-0.0109723008588938,-0.00237219403698608,-0.998560510147398,-0.00236494540007368,-0.00943792470015882,0.00265292299594547,0.0142229496113669,-0.00520233664865457
0.76,-0.502190111470566,0.0494415099541008,0.87199705884009,-0.0307512732604015,-0.00898988649920657,-0.0208865093925591,-0.984109273536358,0.0998360496418308,-0.145243629367585,-0.0259696648475087,-0.024560205754339,-0.0104937078894126,-0.969897281633733,-0.166577890531508,0.183467354189985,-0.0226041735646148,-0.0109815080892656,-0.00326863593679326,-0.998825575483252,-0.00266859316439456,-0.0107219925390392,0.00396998690324905,0.0166243083187513,-0.00480327444539258
0.765,-0.501732969406607,0.0492018103475448,0.871778268168537,-0.0323193310069285,-0.0117361632599725,-0.0231833542212547,-0.984258308689505,0.0992521530737119,-0.145208926009478,-0.0279314053616105,-0.0253483603672545,-0.0104068936943629,-0.969937071557446,-0.166141116005467,0.183911833957482,-0.0245727813799395,-0.0109609009034363,-0.00419977843269986,-0.999130054897005,-0.00304630480986033,-0.0121986202326219,0.00534736514633481,0.0187249177785148,-0.00448147161607489
0.77,-0.501014069629211,0.0490017502747125,0.871037425068741,-0.0335569692246044,-0.0142585331741544,-0.0252733745258951,-0.984366881385392,0.0984098790393198,-0.145457155255842,-0.0294954755827592,-0.0261496410143344,-0.0102937563292925,-0.969917021159349,-0.165610078673689,0.184260967603257,-0.0261510534823372,-0.0109085186099899,-0.00519183672486683,-0.999484651126055,-0.00346984785472878,-0.0139607506570954,0.00676623464413444,0.0204671560095171,-0.00419303622691634
0.775,-0.50005475778154,0.0488720801301404,0.869769675740979,-0.0342339187990243,-0.0164006165171942,-0.027020739971547,-0.984437575639647,0.0972794682657122,-0.146036353422483,-0.030361133101531,-0.0269679720724163,-0.0101517351450015,-0.969849284765713,-0.164812056681574,0.18448232433996,-0.0270401213638525,-0.0108158253935192,-0.00625864530314148,-0.999901585540907,-0.00389285513620628,-0.0161403481280891,0.00820591838833783,0.021757162336134,-0.00389607765006318
0.78,-0.498926089503088,0.0488318506382041,0.868074041499269,-0.0340606993130973,-0.0180228581156712,-0.0282717326774118,-0.984483460484386,0.0959072221599085,-0.146912061186822,-0.0301588674870688,-0.0277853588084671,-0.00997346116366155,-0.969755364803813,-0.163672966545659,0.184568641898772,-0.0268731807812854,-0.01066732153025,-0.00739490477567125,-1.00037400694386,-0.0042636395003517,-0.0187418124001421,0.00965079205295213,0.0224706388246615,-0.00355430980043996
0.785,-0.497787192266506,0.0488752915930251,0.866226234749913,-0.0328197089244128,-0.0190384454071428,-0.0289115640976426,-0.984532082955613,0.0944876703024218,-0.147890421152082,-0.028614945193395,-0.0285728411680502,-0.00975263317222718,-0.969668219525823,-0.162347660618481,0.184563697568322,-0.0253780263813325,-0.0104496987826097,-0.00857591996071214,-1.00085262697593,-0.00452684812916614,-0.0214896679777146,0.0110900547238727,0.0225227410991821,-0.003144592512055
0.79,-0.496835705301055,0.0489805809260441,0.864589225198379,-0.030539547973004,-0.0194541669368602,-0.0289330328149822,-0.984615662731814,0.0932962664624122,-0.148686892996113,-0.0257705998832111,-0.0293027200996536,-0.00949257776580965,-0.969623803195526,-0.161127725221336,0.184538999845592,-0.0225940676017582,-0.0101651064338203,-0.00975867314478275,-1.00126445614098,-0.00463546400387606,-0.023942030915711,0.0125105405708686,0.0219577301495423,-0.00266673303279448
0.795,-0.496192074695744,0.0491280146477546,0.86340425741423,-0.027496617273769,-0.0193638199088873,-0.0284394314673384,-0.98475080373996,0.0925180473990172,-0.149109959526684,-0.0219808558977185,-0.0299542205965529,-0.00920661666236736,-0.969643218292228,-0.160207957131597,0.184533930500253,-0.0188712361985827,-0.00983204390632022,-0.0108887832633235,-1.00156298033784,-0.00457131676150618,-0.0257954636410227,0.0138948276227775,0.0209480986839045,-0.0021399666340482
0.8,-0.495860118614948,0.0493115453778748,0.862713497359656,-0.0240435077190134,-0.0188961824824661,-0.0275822722362848,-0.984933304834482,0.0921791932383833,-0.149127318345902,-0.0176928614884453,-0.0305120665489942,-0.008910254608053,-0.969727288709904,-0.159580109896577,0.18453755892006,-0.0146504472109775,-0.00947345909287389,-0.01191100447926,-1.00174407834134,-0.00434053457256024,-0.0270153565799941,0.0152273907039703,0.0197041479492734,-0.00158741537115363
0.805,-0.4957792758769,0.0495445379259678,0.862449210316439,-0.0204779452990448,-0.0181733290954447,-0.0265041295322396,-0.98515023783045,0.09221618169435,-0.148781918911276,-0.0132801245449588,-0.030958827747844,-0.00861574308269043,-0.969865741869083,-0.159120465302882,0.184522904557189,-0.0102995984597314,-0.00910791502206758,-0.0127711841839022,-1.00182009950722,-0.00395410580724477,-0.0277091783533986,0.0164969799441867,0.0184035516961708,-0.00102773203777868
0.81,-0.495868654791603,0.0498520686329181,0.862517704334956,-0.0170230942234899,-0.017295816904189,-0.0253104880677912,-0.985386768658383,0.0925449308581369,-0.148129292087628,-0.00902380426729889,-0.0312709271112556,-0.00833272562556565,-0.970041768914416,-0.158727680061797,0.184473928472916,-0.00609542049718921,-0.008749755020241,-0.0134158792861629,-1.00179958672597,-0.00343130618504797,-0.0279726982748062,0.0176920342256075,0.0171815381412143,-0.000475528253327392
0.815,-0.496047438678001,0.0502435882879956,0.862830571066879,-0.0138396899669318,-0.0163407576962138,-0.0240648744114357,-0.98562486766612,0.0930813254926937,-0.14723777067072,-0.00513181863938913,-0.0314288460809386,-0.00806971966730387,-0.970231812596835,-0.15837166420776,0.184384760011539,-0.00224232133834185,-0.00841112283861446,-0.0138018551630677,-1.00168528708351,-0.00280509102427168,-0.0278545264411134,0.0188026999423585,0.0161447641197816,5.99680633806016e-05
0.82,-0.496255948165141,0.0506989021920447,0.863319094116316,-0.011029494721634,-0.0153701554559908,-0.0228057625058943,-0.985846902152754,0.093747136434753,-0.146179068965565,-0.0017393533922319,-0.0314256830794673,-0.00783307188004377,-0.970412190640654,-0.158035405532317,0.184254734068029,0.00112761027417931,-0.00810094534588593,-0.0139014327666338,-1.00147580258786,-0.0021004343774185,-0.0274040897122067,0.0198296318797864,0.0153793248151191,0.0005750150202123
0.825,-0.496450263414148,0.0511902235838875,0.863919455661771,-0.00864219547714489,-0.0144371814953216,-0.0215609249492159,-0.986042598971594,0.0944728053879957,-0.145005918015445,0.00108681692559008,-0.0312594360682916,-0.00762620368664364,-0.97056636231266,-0.157680454639557,0.184090906431832,0.00395030073017712,-0.00782397633697682,-0.0136939317571726,-1.00117053057827,-0.00132172568076243,-0.0267014299785805,0.0207837024985381,0.0149488700334601,0.00106618656879426
0.83,-0.496578858590724,0.0517034997864635,0.86454776531923,-0.00669513139849102,-0.0135728839375139,-0.0203424948165805,-0.986209625945833,0.095198922331276,-0.143754622082923,0.0033233964489912,-0.0309279525708868,-0.00745163696527771,-0.970684205043368,-0.157297571953612,0.183909725513531,0.0062045984268332,-0.00758322844510411,-0.0131619704575707,-1.00077729511057,-0.000470851833187638,-0.0258351822219544,0.02168085050189,0.014892600462266,0.00152651240405632
0.835,-0.49659839006846,0.0522291622899589,0.865119114023204,-0.00519165592223397,-0.0127705907583404,-0.01914372799748,-0.986347763091062,0.0958819048840752,-0.142463767126589,0.00496717041792213,-0.0304373113952981,-0.00731248388344223,-0.970759970850629,-0.15691666191805,0.183731550210404,0.00788904045679017,-0.00738214191175669,-0.0122998151310435,-1.00031234470673,0.000439426073025426,-0.0248857549581813,0.0225450620889263,0.0152275769631046,0.00194547308190524
0.84,-0.496510343736482,0.0527470763831231,0.865590036243327,-0.00412265124187418,-0.011998001246071,-0.017950751561657,-0.986452574174467,0.0964974590218654,-0.141181404297105,0.00603341335433424,-0.0298022054778395,-0.0072104620967309,-0.970791987932276,-0.156546055228125,0.183572099157182,0.00901995061223131,-0.00722267135019311,-0.0111158160220916,-0.999793225268524,0.00138694324307904,-0.0239284785447087,0.0234070322981392,0.0159500910366857,0.00230876679495043
0.845,-0.496354391247952,0.0532258678256797,0.865962793125238,-0.00345851372915978,-0.0112270007064901,-0.0167550620816752,-0.986512058347802,0.0970351073844127,-0.139964406598921,0.0065642363290351,-0.029036429586586,-0.00714335749427388,-0.970778637890842,-0.156166557230554,0.183436259925309,0.00963894094073044,-0.00710244555456758,-0.00962787179932854,-0.999235930591826,0.00233707093962973,-0.0230251842171568,0.0242917809120863,0.0170369462391679,0.00259982541051622
0.85,-0.496177282721689,0.053630943484917,0.866255918901543,-0.00314371147301367,-0.010452236174501,-0.015561187422437,-0.98651097879056,0.0974910035997297,-0.138874110371217,0.00663476418431847,-0.0281535145913983,-0.00710432515497457,-0.970717690192147,-0.155764571929714,0.183319242049595,0.0098188687056425,-0.00701394852902045,-0.00786551966384003,-0.998659637484209,0.00324753122232813,-0.0222312949616427,0.025213441530751,0.0184483548560975,0.00280464694467101
0.855,-0.496017025912118,0.0539408718352902,0.866478242444424,-0.0030976001987936,-0.00968996523894217,-0.0143883570029488,-0.986440188196023,0.0978644049435121,-0.137963886820876,0.00635322793174308,-0.0271692479970219,-0.00708219669652148,-0.970612395369574,-0.155329592303832,0.18321420926269,0.00966409315008195,-0.00694482546081495,-0.00587145870972305,-0.998091608111507,0.00408138399436001,-0.0216163537030943,0.0261773059978717,0.020125281526576,0.00291279262915739
0.86,-0.495891387860427,0.0541579737107556,0.866618984826232,-0.00322200568625065,-0.0089646002908704,-0.01325901334722,-0.986297209410369,0.0981547397919806,-0.137275156268037,0.00584956884279504,-0.0260994135228666,-0.00706309968702037,-0.970470040625457,-0.154866104188372,0.183115293353412,0.00929908220922271,-0.00687970959309338,-0.00369946392993154,-0.997565547294857,0.00480228367830814,-0.0212467343492052,0.0271783290012998,0.021986594205526,0.00291631075919489
0.865,-0.495796039891099,0.0542981938765646,0.866655759014821,-0.00340841462567563,-0.00829766913907846,-0.0121871131045968,-0.986082910821241,0.0983609560737765,-0.136837851359172,0.00526371978700439,-0.024965169938943,-0.00703257788575523,-0.970297700717303,-0.154401725832022,0.183016381391399,0.00885698930336454,-0.00680271191203549,-0.00141849602581223,-0.997115800015859,0.00537536456839901,-0.021173793946895,0.0282022402405915,0.0239331086625324,0.00281251371232681
0.87,-0.495713892899501,0.0543864539919008,0.866564879491532,-0.00354333800110352,-0.00770262586276293,-0.0111780088573796,-0.985811478334968,0.0984859225656797,-0.136651937503822,0.00473996368859262,-0.0237950143661732,-0.00697646631415454,-0.97010955182805,-0.153958680210229,0.182917745630942,0.00847455502930746,-0.00669838577758048,0.000888962691626441,-0.99677213035552,0.00578641942773486,-0.0214342401800294,0.0292295156594844,0.0258498467724454,0.00260301731935517
0.875,-0.495614736494006,0.0544638224035472,0.866321900402404,-0.00352547486991449,-0.00717007390790762,-0.0102252096414268,-0.985518709445999,0.0985405087496631,-0.136676864789623,0.00440662354009489,-0.0226176390318194,-0.00688234148085638,-0.969930616292786,-0.153568146267277,0.182832710968684,0.00827310165196027,-0.00655324739860791,0.00314376877678244,-0.996554816767744,0.00603724728902089,-0.0220012978458624,0.030243772256127,0.0276202972425983,0.00228992719647026
0.88,-0.495467678516807,0.0545698825909216,0.865915219759848,-0.0032869218415288,-0.00665346980028188,-0.0093054588389685,-0.985245435462341,0.0985412747042362,-0.136857548792849,0.00434896024331643,-0.0214627653942473,-0.00674169773333514,-0.969785331640841,-0.153287857822545,0.182778307475331,0.00833329542480104,-0.00635829060496639,0.00528229431732331,-0.996471419458419,0.00613060686925231,-0.0227771198976646,0.0312462234747958,0.0291568442226124,0.00187802937390923
0.885,-0.495271932240314,0.0547153552112774,0.865370880228562,-0.00279445124213596,-0.00608499885612466,-0.00838840938253629,-0.985017424078148,0.0985049501473315,-0.137147065716216,0.00460835680304969,-0.0203629426975414,-0.0065501474429198,-0.969687625071874,-0.153154100444003,0.182762933518598,0.00869425025132749,-0.00610930758423057,0.00725381285074385,-0.996514763869249,0.00607597755413795,-0.0236544929079008,0.0322528700200394,0.0304076412158343,0.00137610083972752
0.89,-0.495060436077959,0.0548838891415751,0.864752374144394,-0.00204339707819281,-0.00540557193394564,-0.00744816079469795,-0.984846711685987,0.0984469601032755,-0.137501050807357,0.00519018828528283,-0.0193445017099531,-0.00630727837115003,-0.969640553836532,-0.153166515609388,0.18278813005665,0.00936015795796072,-0.00580660887931296,0.00902120955310395,-0.996660546094766,0.00588617288450611,-0.0245156989427432,0.0332773623986524,0.0313498790543831,0.000796013260863422
0.895,-0.494878311925691,0.0550406964586421,0.864135497996077,-0.001061059386099,-0.0045789744372497,-0.00646768414453155,-0.984735608319023,0.0983808788241324,-0.137881633645019,0.00605909995195303,-0.0184217300856204,-0.00601748085626132,-0.969637348713502,-0.153324434016027,0.182850761128844,0.0102958163408726,-0.00545578230473905,0.0105689340195466,-0.996874244266743,0.00556865535594572,-0.0252301763517292,0.0343293129392574,0.0320024892203272,0.000156856979462244
0.9,-0.494764694462699,0.0551374042286209,0.863581203134285,9.93119578052868e-05,-0.00359709406208317,-0.00544744849471188,-0.984673391137301,0.0983121843628275,-0.138274516751187,0.00714954668159691,-0.0176011103823983,-0.00568915461120766,-0.969663686162613,-0.153629612705534,0.182938676261162,0.0114370513599739,-0.00506676782821065,0.0118978228814627,-0.997126983096365,0.00513846462650983,-0.0257285510292989,0.0354163818579118,0.0324205203024185,-0.000514325651628149
0.905,-0.494737884749771,0.0551356121713763,0.863118453434205,0.00137585982165172,-0.00247804515335895,-0.00440628454045217,-0.984643859732319,0.0982345316668603,-0.138681136412583,0.00838977347981033,-0.0168864336576285,-0.00533335410527888,-0.969704539728816,-0.154072892379136,0.183035075186424,0.0127132051844736,-0.00465233920095491,0.0130090649592996,-0.997401150521199,0.00462430397439043,-0.0260136981080976,0.0365365956704524,0.0326620681395014,-0.00118900864830574
0.91,-0.494795791191652,0.055023997369387,0.862747613137788,0.002705453066395,-0.00125055780112749,-0.00336537066898672,-0.984638848511588,0.0981370522574415,-0.139095917242477,0.00970820193922924,-0.0162797370331644,-0.00496394852083528,-0.96975073270742,-0.154632180200874,0.183128787653083,0.014053104888197,-0.00422820653560595,0.0139001656659128,-0.997683874912576,0.00405608339108173,-0.026099314544313,0.0376787368338761,0.0327759960755918,-0.00184054792600108
0.915,-0.494937733313969,0.0548007663763008,0.862461227312734,0.00402299670077838,6.08563827224835e-05,-0.0023384002311571,-0.984657713918512,0.0980142922620089,-0.139503520643721,0.0110308274414352,-0.0157773749737715,-0.00459704825380291,-0.969799086752904,-0.155263799658415,0.183214398268867,0.0153832707327523,-0.00381222141542614,0.0145752705740674,-0.997963782462707,0.00345937130790678,-0.0260035112904908,0.0388319717188116,0.0328105035950263,-0.0024437000454629
0.92,-0.495177512520526,0.0544516498578386,0.862262802339105,0.00526431458757975,0.00143506169400121,-0.00134081832168604,-0.984695258707146,0.09786939424908,-0.139892019087564,0.0122878151411354,-0.0153653266339236,-0.00424876160899205,-0.969846655453847,-0.155906410644338,0.183283363844029,0.0166347674267923,-0.00342177703098759,0.0150525911227204,-0.998234587860813,0.00285676431267069,-0.0257838347601014,0.0399885467346197,0.0328122140660022,-0.00297503862788859
0.925,-0.495526657228691,0.0539624674822633,0.862165294540476,0.00637171219923761,0.0028417431466541,-0.000403259922010139,-0.984739082014243,0.0977087813416704,-0.1402562438759,0.0134230158874226,-0.0150211354263773,-0.00393339863222853,-0.969887883590355,-0.156507245266813,0.183323911802186,0.0177520236012634,-0.00307196078428701,0.015357577429056,-0.998496387734644,0.00226684919820327,-0.0255283163592222,0.0411360831263916,0.0328119649077989,-0.00341385580977487
0.93,-0.495972805556025,0.053348382672397,0.862175469837074,0.00729742718239243,0.00423928529689634,0.000435843696436552,-0.984781988002762,0.0975347039594784,-0.140588217655538,0.0143937581313013,-0.0147203105060302,-0.00366335581022729,-0.969919870495942,-0.157037668725513,0.183332767858459,0.018692330359674,-0.00277566890395758,0.0155138436199133,-0.998751341569448,0.00170305591163484,-0.0253035256759828,0.0422551945823716,0.032819234815172,-0.00374343265963656
0.935,-0.496490252327706,0.052644398519774,0.862295419265948,0.00800421986937301,0.0055866558869948,0.00115077344264745,-0.984825189628919,0.0973485933700896,-0.140875766312873,0.015164145666181,-0.014439757860287,-0.00344950134519141,-0.969945700901802,-0.157480289644714,0.183315078519759,0.0194197297093661,-0.00254412300708842,0.0155436780460677,-0.999002719657313,0.00117323688907743,-0.0251448514164865,0.0433282202720544,0.0328329771048524,-0.00395229978273379
0.94,-0.497058996738308,0.0518777421206401,0.862534566595108,0.00846690405881661,0.0068429432068016,0.00172410889129705,-0.984870673494541,0.0971581750723423,-0.141107091769753,0.0157080436137357,-0.0141584360390636,-0.00330002484364808,-0.969971985158743,-0.157811597575992,0.183276087955721,0.0199080077485053,-0.00238565745482291,0.0154676050268168,-0.999256473469649,0.000683010021031323,-0.025089440398843,0.0443410895094968,0.0328430402341392,-0.00403475080093174
0.945,-0.497652893410308,0.0510831741489985,0.862898321557056,0.00867452499282551,0.00796302963390575,0.00213434151724992,-0.984927246188914,0.0969717332594015,-0.141264514135028,0.0160154834528765,-0.0138576168494046,-0.00321866782266335,-0.97000983391762,-0.158006866119494,0.183229600362293,0.0201469537387987,-0.00230382336905276,0.0153033786825221,-0.999515420596995,0.000240288667959676,-0.0251558826069735,0.0452815459856853,0.0328261661745341,-0.00399260730463539
0.95,-0.498230347095331,0.0503199185820555,0.863373352325234,0.00862969666262226,0.00891239023728098,0.00237074724459023,-0.985016068266157,0.0967913452592736,-0.141324329191969,0.0160875113351945,-0.0135203153513508,-0.00320448715428073,-0.970074798818243,-0.158055014618076,0.183203423057238,0.0201382007667924,-0.00229705681801905,0.0150739052457815,-0.999773371937105,-0.000151877716225423,-0.0252969968099996,0.0461493185487462,0.0327622909657546,-0.0038371140253197
0.955,-0.49875312213275,0.0496434149934477,0.863937433798289,0.00834722613291323,0.00967846400325653,0.00244593420254843,-0.985156239712946,0.0966171189823831,-0.141271422430734,0.0159313021405677,-0.0131311255263914,-0.00325246760841192,-0.970178353330672,-0.157959663296747,0.183222791636143,0.019891163061146,-0.00235923962298951,0.0148133471026436,-1.00001829957754,-0.000507933442305809,-0.0254162631962101,0.0469649470689154,0.0326547741906418,-0.00358558571176644
0.96,-0.499197556851093,0.0490818980177621,0.864572636033284,0.00785361138358087,0.0102629704414224,0.00238458307066554,-0.985352115077895,0.0964515167962285,-0.141103542368649,0.0155638784853494,-0.0126772995264763,-0.00335406041772634,-0.97032175615659,-0.157728380454196,0.183297712814952,0.0194264490488813,-0.00248024431544545,0.0145636492377572,-1.00023899081961,-0.0008564537152898,-0.0254275708665625,0.0477653075223208,0.0325324910606645,-0.00325445977040394
0.965,-0.499548209890883,0.0486458087420452,0.865264690354612,0.00718508073323266,0.0106722111836949,0.0022114208863209,-0.985595407855193,0.0962998366222114,-0.140823746978034,0.0150139600574455,-0.0121495797822129,-0.00349800794071875,-0.970499190187589,-0.157364873872254,0.183425630290907,0.0187769673313253,-0.00264689925256999,0.0143680268303474,-1.00043039605949,-0.00122594334062447,-0.0252949735991489,0.0485936341826909,0.0324378540054336,-0.00285617011039121
0.97,-0.499796147147539,0.0483378234166659,0.865995846246239,0.00638464434638339,0.0109132175828977,0.00194746699175102,-0.98586923552908,0.0961704729462542,-0.140441739104084,0.0143196410735692,-0.0115425842618143,-0.00367120338083567,-0.970701424430709,-0.156872568930286,0.183594777979385,0.017984786864474,-0.00284409528033369,0.0142643307107163,-1.00059521824488,-0.00163997679227105,-0.0250307481251609,0.0494910623730756,0.0324106738691587,-0.00240019183235464
0.975,-0.499942204760905,0.0481510436426002,0.866738398582843,0.00550021901104815,0.010992278606028,0.00160730889908875,-0.986148771283028,0.0960728069749032,-0.139981839774447,0.0135274444800721,-0.0108556379314044,-0.00385937219336862,-0.97091493736528,-0.156264468267122,0.183784792353063,0.0170994345889205,-0.00305567612703032,0.0142784265079827,-1.0007404908463,-0.00211929703675083,-0.0246732985417025,0.0504924476411664,0.0324763445862528,-0.00189357343872063
0.98,-0.499994855616888,0.0480699045425985,0.867454505077263,0.00458333814143762,0.0109148367618091,0.00119690149578905,-0.986404117507356,0.0960138324395069,-0.139481894846807,0.0126925229870137,-0.010093791520338,-0.0040479509191977,-0.971121899985681,-0.155566902956456,0.183969394062324,0.0161776441975682,-0.00326543825520633,0.0144196071104419,-1.00087464566456,-0.00267907395512572,-0.024277357002571,0.0516260621123835,0.0326401670895658,-0.00134018575415931
0.985,-0.49996440428006,0.0480766496825898,0.868102467526218,0.00368688683169435,0.0106866447490615,0.000715134760337861,-0.986606118063315,0.0959966157711602,-0.138983933779966,0.0118762640963455,-0.00926810870940655,-0.00422329703806921,-0.971303665855429,-0.154815225388591,0.184120493613624,0.0152808571506464,-0.00345843505678915,0.0146792870239289,-1.00100793051216,-0.00332339477851561,-0.0239144232303735,0.0529133228902197,0.0328842596616534,-0.000740463204253911
0.99,-0.499859626683806,0.0481530968430974,0.868642010693655,0.00286207698688139,0.0103152024330994,0.000158033143773403,-0.986729521890149,0.0960195235197999,-0.13852860363255,0.0111416906117846,-0.00839527369679681,-0.00437401275358088,-0.971443090084336,-0.154049300355431,0.184210503649836,0.0144706972627222,-0.00362239550111939,0.0150317028094392,-1.00115158985406,-0.00404339294136923,-0.0236646085960484,0.0543667161994441,0.033166162495189,-9.18651251264179e-05
0.995,-0.49968750850121,0.0482783679358407,0.86903579975772,0.00215639504717014,0.00981047729309717,-0.000478752674607231,-0.986753205779295,0.0960760394394693,-0.13815493435237,0.0105506569001871,-0.00749739676870378,-0.00449201083320166,-0.971524786299781,-0.153311268704444,0.18421297037111,0.0138062722848912,-0.00374883875506164,0.0154346951314964,-1.00131489357565,-0.00481741674462469,-0.0236022952934573,0.0559876541448478,0.0334199915529166,0.000610505005681169
1,-0.499455713317544,0.0484329953130223,0.869251025541059,0.00161287679952567,0.00918548229248741,-0.00119909269367461,-0.986663939905967,0.0961556126755863,-0.137898223461331,0.010163225782882,-0.0066018294303537,-0.00457310582056438,-0.971537426118742,-0.152643874145778,0.184107465380553,0.0133437093620745,-0.00383364813874547,0.0158309787849306,-1.00150191133144,-0.00561170458769412,-0.0237780967939453,0.0577658151321247,0.0335599139132701,0.0013727806222932
1.005,-0.499180062806501,0.0486076102950932,0.869267132402903,0.00126796032465542,0.00845880039925145,-0.00200115196185684,-0.986464514232453,0.0962445912449437,-0.137783378523377,0.0100329962777946,-0.00573857714567841,-0.00461723896065587,-0.971477573841349,-0.152089225780805,0.183892389828775,0.0131320558870886,-0.00387722617121853,0.0161550858994497,-1.00170561439777,-0.00638544144721099,-0.0241877688292013,0.0596848261625887,0.0334916507853114,0.00220047685283661
1.01,-0.498893050948769,0.048800271671677,0.869092864019822,0.00114566659795296,0.00765600757126711,-0.00286783018641789,-0.986175901367943,0.096329606122035,-0.137818778286974,0.0101943440261867,-0.00493376761467904,-0.00462820074113003,-0.971351188751581,-0.151683459274802,0.183591521241636,0.0132017614263489,-0.00388409559206227,0.0163495006608,-1.0019049886614,-0.00709625931758411,-0.024760795572064,0.0617358958777554,0.0331384821384286,0.00309658049912579
1.015,-0.49863849767309,0.0490022829757851,0.868773924852722,0.00125240005981609,0.0068013694554187,-0.00376739915900766,-0.985827348395813,0.0964029697788884,-0.137995484723214,0.0106522802062844,-0.00420390787179384,-0.00461248179085913,-0.971170870172648,-0.151448541300563,0.183240402782339,0.0135554346577157,-0.00386164780656809,0.0163775762503226,-1.00207367442537,-0.00770060692180218,-0.0254017307908139,0.0639212914918926,0.0324630080692496,0.00405975809727774
1.02,-0.49844864386793,0.0491966036275718,0.868368735282859,0.00157574941429883,0.00590683199336251,-0.00466678489817559,-0.985445681483994,0.0964627431147827,-0.138288189964938,0.0113834843389238,-0.00355640306442204,-0.00457817458055598,-0.970950183026835,-0.151393213160075,0.182869237655729,0.0141687099543839,-0.00381905225689402,0.016221942589461,-1.00218878762988,-0.00815650654924181,-0.0260272816638686,0.0662408525733297,0.0314658383630678,0.00508357909195991
1.025,-0.498329381582512,0.049371472556166,0.867916127542871,0.00208329920589952,0.00497648428890842,-0.00553816549136462,-0.985054361579933,0.0965082887507053,-0.138658324661294,0.01233905211852,-0.00299326332645669,-0.0045351507245014,-0.970701442502202,-0.151518010100699,0.182501179447938,0.0149928008793639,-0.00376749062194866,0.0158790814769294,-1.00223208051202,-0.0084258772293832,-0.0265709948046203,0.0686848684415871,0.0301774677980064,0.0061577495704224
1.03,-0.498272427675829,0.0495248695897229,0.867434355413696,0.00272291871229651,0.00402036182587523,-0.00635554386208479,-0.984676475161823,0.0965396004991285,-0.13906678232095,0.013446646020173,-0.00251281825521025,-0.00449516950331381,-0.97044002717337,-0.151812491085559,0.182156985700928,0.0159565884378957,-0.00372025709294052,0.0153570352143434,-1.00219444735701,-0.008465833642288,-0.027007381486622,0.071236353688214,0.0286509054626942,0.00726746666673625
1.035,-0.498272625798327,0.0496570511903906,0.866940847738988,0.00343064047310756,0.00305750255544445,-0.00709494454424801,-0.984334469521301,0.096559095190487,-0.139487779957208,0.0146207316509781,-0.00211054952622117,-0.00447021857795498,-0.970186998851389,-0.152256030255301,0.181855101698776,0.0169761338146026,-0.00369100991836007,0.0146695444584197,-1.0020802471139,-0.00822616788109266,-0.0273656264530598,0.0738661401882124,0.0269446836890782,0.00838849683445929
1.04,-0.498325747893584,0.0497697334036937,0.866459269541301,0.00414240270227694,0.0021090224787651,-0.00773901642415688,-0.984047929425822,0.0965707473949286,-0.139906057147221,0.0157772943430579,-0.0017815138779223,-0.00447027876812682,-0.969964112825255,-0.15282579244263,0.181610425071163,0.0179687145089812,-0.00369137541880412,0.0138289200657318,-1.00190039167211,-0.00766781990703562,-0.0276864144232688,0.07652797591087,0.0251095715073769,0.00948440608425923
1.045,-0.498417730404087,0.0498761691061497,0.866011509258789,0.00480113637399513,0.00119442819159994,-0.00827697071018005,-0.983831296964898,0.0965789913318567,-0.140301554550586,0.0168417275685361,-0.00152224496853659,-0.00450232331574612,-0.969786623257196,-0.153496115523109,0.181435080848026,0.0188609332503793,-0.00372975708113389,0.0128458623618976,-1.00166357762769,-0.00678246915783117,-0.0279892900925266,0.0791652070701289,0.0231909706611045,0.0105102182181227
1.05,-0.498525234632623,0.050005757007792,0.865611553583338,0.00535744094782058,0.000333201978055341,-0.00869708467244735,-0.983691282466628,0.0965897292253834,-0.140642644109598,0.0177467257782625,-0.00132904623081525,-0.0045705478583575,-0.969659725933556,-0.15423235940572,0.181338440057565,0.0195872412086854,-0.00381144330198801,0.0117358991892012,-1.00137515415502,-0.0055965896557521,-0.0282856946431721,0.0817227070043684,0.0212342154746214,0.0114189298605295
1.055,-0.498625094125974,0.0501904515093161,0.86526686049554,0.00576787851903795,-0.00045461678056134,-0.00898008254881726,-0.983624907267674,0.0966113963009343,-0.140895037603079,0.0184275093679405,-0.00119474904964329,-0.00467695757677761,-0.969579312788548,-0.154993971989054,0.181323596905016,0.0200854852789861,-0.00393916474487495,0.0105251175600354,-1.00103907943047,-0.00416431451807083,-0.0285860829946727,0.0841543203552629,0.0192853889265815,0.012167795269348
1.06,-0.498701062234672,0.0504455946841277,0.864980483931827,0.00599475062606255,-0.00115116847906784,-0.00910368715770483,-0.983619700234653,0.0966544460984453,-0.141034552328249,0.0188234247566166,-0.00110852441191592,-0.00482155772568579,-0.969534956171251,-0.15574367064882,0.181383991897878,0.0202983421675979,-0.00411328584725066,0.00924912337528376,-1.00065929705509,-0.00255577688632816,-0.0288930322362871,0.0864210534552739,0.0173913525960654,0.0127236092961822
1.065,-0.498744706315547,0.0507667341694492,0.864747954263534,0.00600774319120395,-0.00174366359784174,-0.0090543632523291,-0.983656109734536,0.0967289128563773,-0.141052335116686,0.0188851335094894,-0.00105841376673881,-0.00500205719177555,-0.969512302819609,-0.156451522415185,0.181505536335949,0.02018009677088,-0.00433149960268891,0.00794739370467153,-1.00024041933766,-0.000845305263469193,-0.0292081796049428,0.0884843757273404,0.0155987571159864,0.0130658493147501
1.07,-0.49875323290796,0.0511401839507117,0.864553207457357,0.00578542537291806,-0.00222368943633051,-0.00883275420534259,-0.983711006714791,0.0968411723740019,-0.140952821554144,0.0185795665815144,-0.0010326658007776,-0.00521377049963606,-0.969494532644202,-0.157093329542148,0.181672168463485,0.0197012415988854,-0.00458873362541724,0.00665927585447447,-0.99978736107396,0.000896458171793331,-0.0295431474840551,0.090304162186167,0.0139504338678306,0.0131868563320626
1.075,-0.498727305045989,0.0515491582257857,0.864372613268592,0.00531596275870819,-0.00258430311563883,-0.00845105009049122,-0.983761581747706,0.0969918824657477,-0.140750414705391,0.0178907926368098,-0.00101937968664344,-0.00544997207732881,-0.969464719640185,-0.157650004257928,0.181869576951618,0.0188490967644539,-0.00487753972671498,0.00542248926555822,-0.999305202388226,0.00260481620955579,-0.0299140265969794,0.0918422207138186,0.0124814240925093,0.0130900778432464
1.08,-0.498669274343059,0.0519730486429002,0.864185689518619,0.00459818575557029,-0.00281917106809391,-0.00793041766639496,-0.983790049129455,0.0971758329815892,-0.140466407275033,0.0168208623031346,-0.0010068585664161,-0.00570227065221916,-0.969409899874289,-0.158109240473979,0.182086093674001,0.0176284899989729,-0.00518850210341001,0.00427148280792834,-0.998800826814632,0.00422248442366833,-0.0303291180959445,0.0930664619094097,0.0112176243401198,0.0127881246818177
1.085,-0.498581602227418,0.0523897161843447,0.863982625012934,0.0036429357553424,-0.00292377843045922,-0.00730028744132007,-0.983788503935574,0.0973834923548948,-0.140124942306037,0.015391348382501,-0.000985074194936974,-0.00596095097157744,-0.96932550112718,-0.158465909010176,0.182312450511904,0.0160632707321238,-0.00551059232459114,0.00323562992333343,-0.998285747948654,0.00570575926234015,-0.0307891619070024,0.0939538571931651,0.0101763301970042,0.0123007161178998
1.09,-0.498466504354981,0.0527805654797221,0.863764883306916,0.00247341017133954,-0.00289592649337824,-0.00659601143321169,-0.983760941702535,0.0976027906495193,-0.139749554179065,0.0136430387649388,-0.000946799578265523,-0.00621551608585141,-0.969217126656574,-0.158720398860326,0.182542181209702,0.0141960915921588,-0.00583173242203817,0.00233858112258426,-0.99777747983049,0.00702936154823575,-0.0312956225451942,0.094492097756755,0.00936623452560933,0.0116518375778342
1.095,-0.49832630642238,0.0531320519421233,0.863543291043171,0.00112418675382432,-0.0027352874878006,-0.0058547044169185,-0.983721057020113,0.0978197334359063,-0.13936088428273,0.0116332033158519,-0.000887798327781301,-0.00645531721223867,-0.969098383851103,-0.158875907579887,0.182772618818784,0.0120857594628116,-0.00613947576312812,0.00159856135265973,-0.997297630895319,0.00818286831418723,-0.0318510939187427,0.0946802947833458,0.0087870448979214,0.0108667527564439
1.1,-0.498163392120056,0.0534348371550435,0.86333733851131,-0.000360883374191917,-0.00244357105044911,-0.0051114539879112,-0.983688999487148,0.098019073924983,-0.138974554352586,0.00943133391753496,-0.000806346528217359,-0.0066701949078518,-0.968987964685103,-0.158935949079058,0.183004594096687,0.00980300793807017,-0.00642172587322023,0.00102898516104267,-0.996869021924052,0.00916489202049418,-0.0324524624594492,0.0945295199455551,0.00843021395306204,0.00996992041775713
1.105,-0.497979996492031,0.0536841834149337,0.863174699607928,-0.00193160526949181,-0.00202541482321868,-0.00439635193264581,-0.983689824616965,0.0981857256928115,-0.138600624439916,0.00711402675914914,-0.000702575566307471,-0.00685118435308608,-0.968908627802531,-0.158904695635893,0.183241486444707,0.00742538227055822,-0.00666753959520164,0.000639024132862658,-0.996514830181898,0.00998122237725209,-0.0330880426420051,0.0940625433896178,0.00828074205230856,0.00898367941215246
1.11,-0.497777904821903,0.053880379688367,0.863088246316916,-0.00353416549812775,-0.00148916693774171,-0.00373186556163494,-0.983751656234358,0.0983056021246054,-0.138245372606807,0.00476010384791198,-0.000578351107014072,-0.00699104943974067,-0.968885754382338,-0.158789703639893,0.18348921402956,0.00503234255828518,-0.00686777056659336,0.000433465443587476,-0.996258290349016,0.0106440696955384,-0.0337423032610031,0.093311464481384,0.0083190681532904,0.00792714076589151
1.115,-0.497559055131245,0.0540274306345254,0.863108186745118,-0.00511308676683896,-0.000847092858718358,-0.00313086131990269,-0.983900532867841,0.0983665186536422,-0.137914197125874,0.00244686128027737,-0.000437658717971134,-0.00708446163260309,-0.968942884457183,-0.158602061776368,0.183754605292775,0.00270150464252335,-0.00701534127950138,0.000412166826799308,-0.996119622666396,0.0111703215362111,-0.0344013204069288,0.0923139665595876,0.00852236248755286,0.00681533093140878
1.12,-0.497328569956771,0.0541297859943245,0.863250808103875,-0.00661275075782078,-0.000114388557397367,-0.00259623368256344,-0.984152531314374,0.0983601170571651,-0.13761552521669,0.000247896360477796,-0.000286324997308991,-0.007127964275898,-0.969095376107384,-0.15835283092979,0.18404044207763,0.000506409964029169,-0.00710525853410922,0.000569909076815765,-0.996110323684764,0.0115789987243241,-0.0350508109084736,0.0911104238475732,0.00886509230934533,0.00565894656509421
1.125,-0.49709680884215,0.0541880507466644,0.863512749954143,-0.00797902380218408,0.000692620483246841,-0.00212279014178276,-0.984507880646042,0.0982827171601932,-0.13736268421709,-0.00176769801243534,-0.000130604259737763,-0.00711994979952793,-0.969345433337222,-0.15805065301556,0.184341625577972,-0.00148449757592131,-0.00713461767953863,0.000896302329454136,-0.996229011044839,0.0118872257210867,-0.0356717430615399,0.089742820756907,0.00931939805779304,0.00446502147173583
1.13,-0.496876030607722,0.0541970970607953,0.863874441383028,-0.0091615703108776,0.00155716363430654,-0.00170073638007614,-0.984950903423509,0.098133609174229,-0.137170411193759,-0.00353638638852312,2.42373419000932e-05,-0.00706080356521535,-0.969681056961357,-0.157701908555682,0.184646702199207,-0.00320912928293461,-0.00710277938737485,0.00137576210214608,-0.996462222627193,0.0121059523844291,-0.0362450855934157,0.0882545234888676,0.0098554723321077,0.00323859372176687
1.135,-0.496674815649626,0.0541486161769629,0.86430221656213,-0.0101163504619065,0.00246221295918059,-0.0013186078181077,-0.985453689313095,0.0979122592705364,-0.137051068220632,-0.00500201875321874,0.000174614640569781,-0.0069530318058615,-0.970078431062598,-0.157309653455142,0.184942715905576,-0.00461360110731921,-0.00701152970500419,0.00198805152106941,-0.996788161593983,0.0122384663269493,-0.0367627453675064,0.0866886882238934,0.0104413071332047,0.00198476635802175
1.14,-0.496496213979069,0.0540343573152197,0.864745908313692,-0.0108066847520218,0.00339348095345786,-0.000963731176006208,-0.98598006299807,0.097616141051388,-0.137016119992018,-0.00611657784754334,0.000319192328515446,-0.00680104206211061,-0.970505526425376,-0.156872725837522,0.185218415441684,-0.00565301076054705,-0.006864872501767,0.00270869265179567,-0.997179813917078,0.01228336332002,-0.0372325457587533,0.085083091741016,0.0110415615493359,0.000710118578755425
1.145,-0.496340656939507,0.0538472738774647,0.865142278329815,-0.0112026875454213,0.00434415807630515,-0.000621017527191147,-0.986489665574677,0.0972408118775925,-0.13707992398092,-0.00683912107542071,0.000459376989423402,-0.00661081579085638,-0.97092586670502,-0.1563903580124,0.185463526801169,-0.00629046757477491,-0.00666868711849747,0.00350890434334106,-0.99760719226526,0.0122396819354823,-0.0376731286262613,0.0834639151582678,0.0116165703117557,-0.00057673023084942
1.15,-0.496210888506832,0.0535826079693147,0.865429019610146,-0.0112804132028729,0.00531699032745069,-0.000271718078542941,-0.986941477704705,0.096784494071132,-0.137259411726136,-0.00713474299718486,0.000599191685587929,-0.00638985072942691,-0.97130192178091,-0.155869485856019,0.185666353522138,-0.00649597458736127,-0.00643063761880548,0.0043560810269202,-0.998039174912971,0.0121076149643947,-0.0381017444837602,0.0818446427394058,0.0121228625531695,-0.00186475713189829
1.155,-0.49611763918028,0.0532361838530337,0.865569592824491,-0.01102197352919,0.0063200952809062,0.000104981427162399,-0.987296684746674,0.0962565419902393,-0.137567078014512,-0.00697543085354469,0.000744321145453539,-0.00614686607170772,-0.971598581427511,-0.155329217643296,0.185813462103804,-0.00624696143661097,-0.00615985697484691,0.00521518011700474,-0.998445272372819,0.0118820652595944,-0.038518369660537,0.0802306044980188,0.0125162579085866,-0.00313981827001401
1.16,-0.496083297436448,0.0528009624805101,0.865574190805773,-0.0104179610069632,0.00735293859254849,0.000522212775650261,-0.987523859823507,0.0956829369670653,-0.138002528564109,-0.00634359303503433,0.00089997356847467,-0.00589070664421969,-0.971788476725774,-0.15480111385595,0.185892105199078,-0.00553126394515306,-0.00586586986592968,0.00605058865832733,-0.998799207854567,0.0115485503035088,-0.0388964886031241,0.0786253397866979,0.0127585059990594,-0.00438353394065952
1.165,-0.496134578290486,0.0522752277482305,0.865487062549871,-0.00947236154002743,0.00839166238845648,0.000973981476874619,-0.987606634342615,0.0951015222200299,-0.138548900412855,-0.00523834550436385,0.00106894581100244,-0.00562933370976973,-0.971858376769401,-0.154321874882357,0.185893413435897,-0.00435279905667302,-0.00555764601650564,0.00682862578314953,-0.999084188264389,0.0110921021874307,-0.0391929213047982,0.0770359227550598,0.0128247276231792,-0.00557274604603748
1.17,-0.496285973813588,0.0516780075168883,0.865352617989603,-0.00820745262861114,0.00939205305811296,0.00143832223500111,-0.987549234383886,0.0945500296088672,-0.139173662623738,-0.00368297975549335,0.00125213742796452,-0.00537020229965183,-0.971812937784589,-0.153920913049973,0.185815455018703,-0.00273869488273334,-0.00524406589819692,0.00752045217956089,-0.999296157101379,0.0105119057750743,-0.039367491785448,0.0754736344177353,0.0127064052705041,-0.00668097157856439
1.175,-0.496532185150582,0.0510496265231736,0.865203357778738,-0.00666526535126514,0.010305985197345,0.00189225991312693,-0.987375784778137,0.0940576084561571,-0.13983283375044,-0.00172916636323038,0.00145029955419678,-0.00512136855344239,-0.971673326363808,-0.15361342929166,0.185665720923641,-0.000743409933002183,-0.00493506230367947,0.00810437610085055,-0.999442683443821,0.0098255477311434,-0.0393937971964975,0.0739499340049535,0.012410068396146,-0.00768168627433975
1.18,-0.496853955073986,0.0504392150986515,0.865068151861257,-0.00490382373177746,0.0110925906291847,0.00232177916890062,-0.987123443355672,0.0936443404449175,-0.140477966777784,0.000546273125178342,0.00166474742080963,-0.00489151635119966,-0.971471378563556,-0.153401108007373,0.185460598726013,0.00155457279826104,-0.00464152898477887,0.00856724509918641,-0.999538615711677,0.0090632785915787,-0.0392619269477009,0.0724729003444921,0.0119550666084509,-0.00855192899186261
1.185,-0.497223753423935,0.0498962323427621,0.86497427705119,-0.00299014784829601,0.0117212109182267,0.00272351134490304,-0.986833667130565,0.0933240449323332,-0.141061216876555,0.00305002980388228,0.00189714223832748,-0.00468882998872686,-0.971242334286587,-0.153275085595498,0.185221101357893,0.00406151337063859,-0.00437396143816042,0.00890526155388979,-0.999601493218769,0.0082628552645636,-0.0389824811954407,0.0710459334741416,0.0113709054925361,-0.00927515965770292
1.19,-0.497609400156074,0.0494653080972894,0.864940383349858,-0.000993971226391618,0.0121730544811104,0.0031040789635851,-0.986545430082054,0.0931051853765547,-0.141539943431897,0.00568093773319644,0.00214906311899961,-0.00451998361722412,-0.971019046367014,-0.15321957408059,0.184968715689594,0.00667712050575744,-0.00414122770622016,0.00912433929009076,-0.999648844465627,0.0074644069526905,-0.0385874849342385,0.0696667360180663,0.0106932630756493,-0.0098427803406438
1.195,-0.497982680338528,0.0491777143173144,0.864968395627437,0.00101671598186811,0.0124436129050033,0.00347827486588539,-0.986289653838597,0.0929899718355659,-0.141886421664162,0.00833733661998494,0.00242184763691411,-0.00438959700669398,-0.970827570264961,-0.153217212390987,0.184723587451987,0.00930177718811539,-0.00394987741515118,0.00923909155449535,-0.999695930740737,0.00670163605410012,-0.0381200056345863,0.0683270172575396,0.00995952221855906,-0.0102541841570392
1.2,-0.498325568813378,0.0490450978562354,0.865043000390395,0.00297932765812425,0.0125442853387702,0.00386486091178803,-0.986084851692725,0.0929742306788921,-0.142094428151731,0.0109244528848792,0.00271673527209681,-0.00429978418986978,-0.970683478070046,-0.153255953173872,0.184503238900181,0.0118434456564593,-0.00380361210252112,0.00926961973318041,-0.999752825323897,0.00599581291901821,-0.0376219161268462,0.0670144805530807,0.00920532834743212,-0.0105157684261831
1.205,-0.498626042021592,0.0490603956274164,0.865144560355718,0.00483980992757105,0.012500283059317,0.00428120816417726,-0.985936601959777,0.0930483436008348,-0.142173436047317,0.0133607387602773,0.00303390199418795,-0.00424986818475592,-0.970590336195612,-0.153335039691334,0.184320584094696,0.0142235985952284,-0.00370296457524919,0.00923756628022698,-0.999822645898393,0.00535803036064742,-0.0371300456488805,0.0657159364279765,0.0084624620758418,-0.0106393901007809
1.21,-0.498875017308014,0.0492003319175196,0.865260646255702,0.00655458474503909,0.0123429089507931,0.00473840654616252,-0.985838527764072,0.0931995519638916,-0.142141795655762,0.0155813602265253,0.00336982961788758,-0.00423670171784835,-0.970540210665922,-0.153466769925131,0.184180797919955,0.0163806699420201,-0.00364561937308774,0.00916298604971685,-0.999901448593372,0.00479341388841427,-0.0366743054007378,0.0644192664134508,0.00775806360365095,-0.0106403782850314
1.215,-0.499071030852465,0.0494302082924158,0.865379003858686,0.00809110434000348,0.0121004463547047,0.00523584192266195,-0.985771796035188,0.0934157001006615,-0.142028046174972,0.0175400363518439,0.00371510430070253,-0.00425531869552007,-0.970514451540673,-0.153672281442585,0.184078997596166,0.0182718265124601,-0.00362710121977912,0.00906138633778501,-0.999978624474955,0.00430071781942093,-0.0362764676123739,0.0631137939981146,0.00711451144739293,-0.0105349079581117
1.22,-0.499219517849096,0.0497205955750764,0.865475466734471,0.00942787228021693,0.0117947995438254,0.00575913969997781,-0.98570846922461,0.0936862086274924,-0.141867647165173,0.0192098467736555,0.00405490964384298,-0.00429937835752086,-0.970486397187307,-0.153972332541362,0.18400369357718,0.0198735171867186,-0.00364125192476596,0.00894228585478378,-1.00003812185811,0.00387138143872391,-0.0359541624066187,0.061793191972597,0.00654864983402101,-0.0103374636449341
1.225,-0.499328280127861,0.0500592860746411,0.865522467813133,0.0105536126841215,0.0114443721866177,0.00629104091743859,-0.985620235108653,0.0940021017575035,-0.141692091591069,0.0205784790985083,0.00437264375665791,-0.00436204955838955,-0.97042865273605,-0.154381590730736,0.183942299267786,0.0211766757815074,-0.00368114862506583,0.00881260335996001,-1.00006441374451,0.00349025075053503,-0.0357238235080802,0.0604642322093195,0.00607126202690076,-0.0100597515560815
1.23,-0.499414591710724,0.0504289548955079,0.865511395201981,0.0114630049304543,0.0110627450847005,0.00682043512646536,-0.985483224755569,0.0943610729324978,-0.141526628144183,0.0216387559132351,0.00465251596541274,-0.00443727956159698,-0.970321415791302,-0.154911991253138,0.183879290616997,0.0221771217508735,-0.00374055569757954,0.00867822999907743,-1.0000529129107,0.00313512333432241,-0.0355979015998569,0.0591429003042518,0.00568819595853195,-0.00970872589785888
1.235,-0.499507322598853,0.0507854741151123,0.865450885861768,0.0121484777551646,0.0106496283537203,0.00732594761752722,-0.985279330585576,0.094765430197363,-0.141394208524953,0.0223834632903675,0.00487763663354107,-0.00452032032566191,-0.970155260742076,-0.155569177883338,0.183795259064436,0.0228695403483939,-0.00381480167970341,0.00853554577277653,-1.0000105990973,0.0027850663778613,-0.0355823614705823,0.0578229624337508,0.00540136284115919,-0.00928198640451952
1.24,-0.499625280066666,0.0510910373711982,0.865340708018926,0.0125967407054683,0.01019271727196,0.00776402332531534,-0.985003769193892,0.0952051101529508,-0.141311934227047,0.0228073714323015,0.00503028518252379,-0.00460798276389302,-0.969929344218234,-0.156338491285853,0.183678762404209,0.02324898136107,-0.00390109454640392,0.00836783576352845,-0.99994231290622,0.00243950520962104,-0.0356764076000339,0.0564626571211188,0.00520772459312617,-0.00876871494026147
1.245,-0.499765139241737,0.0513503723951123,0.865173819196455,0.0127986216832695,0.00968420314519589,0.0080968520096577,-0.984671273946194,0.0956525848286564,-0.141288037126676,0.0229122383822186,0.0050980932531744,-0.00469907061322747,-0.969651450493773,-0.157190367904939,0.183534713758551,0.0233169379629105,-0.00399846007729097,0.00815994150741295,-0.999846617327191,0.00211851134133802,-0.035869278730351,0.055026740129686,0.00509921664043563,-0.00815994432562104
1.25,-0.49992250070518,0.0515789724612101,0.864969525815305,0.0127594287733994,0.00912382323116497,0.0083175245485764,-0.984308373214042,0.0960833832757647,-0.141325417854308,0.02270927117813,0.00507599707895577,-0.00479406109941238,-0.969339963222115,-0.158102580266683,0.183374224413564,0.0230849409446307,-0.00410708266212868,0.00790884457252591,-0.999730734103887,0.00183764845074187,-0.0361383003824136,0.0535188453437829,0.00506643901034996,-0.00745426917701392
1.255,-0.500106761370626,0.051760517835232,0.864775452944903,0.0124929415467182,0.00850432536570484,0.00842890986799177,-0.983943745104913,0.0964883452272966,-0.141420945632601,0.0222159414092327,0.00496050763282818,-0.00489404425277824,-0.969022753543492,-0.159057375880573,0.183206669602113,0.0225708155313959,-0.00422758615329858,0.00761344560814592,-0.999616547659269,0.00159851869259645,-0.0364562576587823,0.0519497641956112,0.00510230103117499,-0.00665236925107403
1.26,-0.500327210055313,0.0518618114803642,0.864634492694605,0.0120118748982036,0.00780941859181065,0.00841726756638041,-0.983609510316585,0.0968594990352756,-0.141562919783985,0.021453916103688,0.0047476489992123,-0.00499960532515115,-0.968732384205124,-0.160020528568127,0.183048542139652,0.0217958420605218,-0.00436017945976579,0.0072667558300551,-0.999526561974716,0.00140578556964166,-0.0367997770725514,0.0503067448790934,0.00520196226269825,-0.00575502905957796
1.265,-0.500583199015433,0.0518613044951011,0.864574712935631,0.0113310732308507,0.00702660182960348,0.00825732096787473,-0.983341540898294,0.097181049841008,-0.141734954602482,0.0204534475440425,0.00443689043942168,-0.00510977939026051,-0.968501075152463,-0.160945555316746,0.182927130321511,0.0207895720387972,-0.00450332363028527,0.00686349524748826,-0.999475359208355,0.00127370727501177,-0.0371481732034154,0.0485717591347822,0.00536163377619598,-0.00477024603919427
