Header,foot_Accel_X,foot_Accel_Y,foot_Accel_Z,foot_Gyro_X,foot_Gyro_Y,foot_Gyro_Z,shank_Accel_X,shank_Accel_Y,shank_Accel_Z,shank_Gyro_X,shank_Gyro_Y,shank_Gyro_Z,thigh_Accel_X,thigh_Accel_Y,thigh_Accel_Z,thigh_Gyro_X,thigh_Gyro_Y,thigh_Gyro_Z,trunk_Accel_X,trunk_Accel_Y,trunk_Accel_Z,trunk_Gyro_X,trunk_Gyro_Y,trunk_Gyro_Z
66.715,-2.23397760899522,-0.53190474475067,-0.587744164097512,-0.47882732116485,0.852917209842996,-2.92526740683644,-0.860813890044652,0.260000079042908,-1.17296464058066,0.946887345629496,0.396077874633876,-0.125497389405771,-1.02908539498017,0.640303334706037,-0.045723038126601,0.975616152794655,-0.133006532719579,0.686596425378286,-1.00433807601102,0.204047186056879,0.581838345904171,-0.251276435764344,-0.141566258683904,0.346330268820991
66.72,-2.16791819361891,-0.380762959635925,-0.449090237036251,-0.60377412131177,0.968542393294778,-2.98129311076376,-0.880798040543036,0.314199754438246,-1.09101177309301,0.900744599817667,0.687842958443731,-0.141514348109986,-1.04016203133153,0.582432074245229,-0.0484849001912361,0.88488342170858,-0.152735126499358,0.684216129733973,-1.01602683687763,0.208117609081113,0.612727314785593,-0.282398573685841,-0.0814586829071184,0.284378398705389
66.725,-2.09026360674386,-0.242889522968074,-0.290820994422983,-0.73813432589803,1.05483610932924,-2.99557586443964,-0.907797225103622,0.35492465445707,-1.00192315722452,0.825005105286344,0.959477231453741,-0.158128318794776,-1.05183279415679,0.526956148962492,-0.0498705994007317,0.765594741525274,-0.171656204814035,0.671109303906403,-1.02895008657487,0.212670127411249,0.637526868354557,-0.308603264850641,-0.0146814504097723,0.216854821487773
66.73,-2.00217218462847,-0.123694207413208,-0.118725575596491,-0.87872854592031,1.11067104055878,-2.96881108595293,-0.940511027415498,0.380581438767462,-0.908857176434044,0.722570494423218,1.20970837310571,-0.176411386764613,-1.06422031845132,0.475492896075354,-0.0495543594568777,0.620855285888947,-0.189788727146595,0.647835212716385,-1.04291440233692,0.217938876557415,0.655046469933832,-0.329116321213616,0.0576485157173726,0.14388487414211
66.735,-1.90517224507113,-0.0265979202777517,0.0608856766866097,-1.02146173285111,1.13587158110965,-2.90321368112658,-0.977682936109912,0.390668095764266,-0.814886330176316,0.597755565916563,1.43772305901152,-0.197226803648466,-1.07736100617146,0.429258734025055,-0.0472326055520424,0.455152359150828,-0.20708347292158,0.61521713275722,-1.0577071056944,0.223905844852971,0.664047823397572,-0.343257642311736,0.134171036423047,0.0657193057641843
66.74,-1.8012019870402,0.0469418709345272,0.241657886961785,-1.16149341135307,1.13137533709801,-2.80225652883272,-1.01813076766188,0.38576914229851,-0.722839062382574,0.456089320688123,1.64312873823351,-0.221134978765707,-1.09121623096852,0.38897791171218,-0.0426240495538092,0.274163414818166,-0.223456496478246,0.574324115780964,-1.07310714907947,0.230359626344687,0.663360348391901,-0.350446485030136,0.213269105750615,-0.0171862371354205
66.745,-1.69260545827894,0.0971927632619883,0.417680828012012,-1.29358675393895,1.0992369297692,-2.67043509667665,-1.06075556435254,0.367431822673527,-0.635180471243899,0.303943344820796,1.82590509883188,-0.248332232045261,-1.10569399598045,0.354846520281074,-0.035455522906297,0.0843909225373372,-0.238821010807444,0.526411538970703,-1.08888570742791,0.237001466983511,0.652050597441425,-0.350211348663871,0.293106485238038,-0.104165888806498
66.75,-1.58198563230366,0.125829518366718,0.583806728834651,-1.41250355876031,1.0425279782984,-2.51300076183513,-1.1045242262104,0.337932475634857,-0.553945739918595,0.148110105216899,1.9863480167153,-0.278630089291845,-1.12064934163103,0.326539817888766,-0.0255052630615038,-0.107253182268798,-0.253114784326129,0.472841622627408,-1.10481482099945,0.243450129783608,0.629537536509481,-0.342204626341053,0.371699128034114,-0.194371794243932
66.755,-1.47200613536879,0.135556880046325,0.735872106695107,-1.51342110139219,0.965163564379451,-2.3356785011327,-1.14843729804385,0.300025194828808,-0.480687131599675,-0.00464416909513854,2.12500934253075,-0.311481741292885,-1.1358873746801,0.303241477667254,-0.0126638714183208,-0.293888440040325,-0.266322433821083,0.415009664659386,-1.12067753421505,0.24925602006962,0.595664963985281,-0.326204927940379,0.447004891226669,-0.286789349371908
66.76,-1.36516647097176,0.12974584594479,0.87081686398327,-1.59234480221314,0.871663982792236,-2.14439503139841,-1.19151220485659,0.256667721510165,-0.416458703764556,-0.148031483488983,2.24263361203019,-0.34604907610351,-1.15117798027135,0.283721776492862,0.00304114180353042,-0.469115493878132,-0.278487662054728,0.354261303788318,-1.13627501506159,0.253953997204827,0.550778473616807,-0.302115272998798,0.517023899069342,-0.380280331351845
66.765,-1.26347758642971,0.112239372723444,0.986952153197753,-1.64640365589012,0.766891982256873,-1.9449888796857,-1.23292046687613,0.210794076092669,-0.361569710630079,-0.276606931965297,2.34009478634463,-0.381291751208447,-1.16626000861538,0.266447609657446,0.0214263179121376,-0.627381921753979,-0.289712630574194,0.291811007282297,-1.15142168461709,0.257014325497545,0.495784054076292,-0.269970494279567,0.579917410918424,-0.473634314401027
66.77,-1.16839018198231,0.0870696830630485,1.08378492852626,-1.6739982946866,0.65578243507833,-1.74292122386533,-1.27193479811649,0.165147660112963,-0.315739819554437,-0.386022261154597,2.41834127962455,-0.416065417014194,-1.18083887333047,0.249702936943291,0.0421249621137694,-0.764236987096622,-0.300146784377389,0.228693456561628,-1.16593431809291,0.257801429130584,0.432101413328581,-0.229941681947479,0.634131567457995,-0.56557370425389
66.775,-1.08111059680553,0.057928374955105,1.161003122817,-1.67483304111737,0.543071219607453,-1.54304269406448,-1.30745473189291,0.122109729710641,-0.279037834939512,-0.47318602579125,2.47835019787785,-0.44921769133929,-1.19460353607179,0.231725736240041,0.0645950860189068,-0.876494171819578,-0.30996696271168,0.165734821951137,-1.179633646315,0.255684411851942,0.361538099845577,-0.182336220545961,0.678492779449915,-0.654756724848332
66.78,-1.0025462231412,0.0280076867450072,1.21845082198522,-1.64983272795106,0.433058951682878,-1.34943773874852,-1.33806396448397,0.0836459768365268,-0.251784142444075,-0.536314984125559,2.52108606801243,-0.479667689993623,-1.20725538169746,0.210844558006996,0.0881516791007332,-0.962286584131962,-0.319350891215578,0.103522932053481,-1.19235545443564,0.250175639491922,0.286143754770444,-0.127606115023339,0.71226759915822,-0.739821041412361
66.785,-0.933034694075472,0.000117077917682307,1.25691526058402,-1.60098448727673,0.329415076642621,-1.16536430828706,-1.36254889593227,0.0513605007368134,-0.233689025837735,-0.574900301448379,2.54746993645334,-0.506467004067434,-1.21852336715665,0.185603355409201,0.111988623216944,-1.02103697896951,-0.328449012370725,0.0423897985913179,-1.20394985576857,0.240991359483888,0.208038347558043,-0.066352581228049,0.735183774836903,-0.819442624974055
66.79,-0.872465739407175,-0.0234512018573455,1.27799231166059,-1.53115241868665,0.235012405324688,-0.993286415320018,-1.37996679397228,0.0264787806096086,-0.22391557833531,-0.589626002981459,2.55836856063951,-0.528846706595204,-1.22816683503783,0.154890852209651,0.135219633103104,-1.05337901835058,-0.337359669949258,-0.0175769071546309,-1.21426682103265,0.22807832898875,0.129253117461221,0.000689488150806501,0.747407222215825,-0.892388937317187
66.795,-0.820455179015604,-0.0410533649448999,1.28361681326824,-1.4438469177178,0.151828170371251,-0.834944726233117,-1.38957366988842,0.00977896332832958,-0.221425498506355,-0.582221195279118,2.55460182980281,-0.546246461811401,-1.23598069984533,0.118068242171029,0.156961277791385,-1.0610113946769,-0.346111512260241,-0.0764987975774404,-1.2231470669838,0.211647838323907,0.0516317280495486,0.0726730652009829,0.749488822779048,-0.957571412844123
66.8,-0.776401250142732,-0.051683051522981,1.27585879702157,-1.34294041239357,0.0809449801153179,-0.691422343509413,-1.39089605625418,0.00156011140667862,-0.225064053625284,-0.555234502127643,2.53696150855466,-0.558321652441636,-1.2418026177237,0.0750647538618633,0.176418825927988,-1.04647376398835,-0.354656019630064,-0.134662201101762,-1.23042233320124,0.19219258333471,-0.0232173550604062,0.148649242843292,0.74229462341897,-1.01410465931255
66.805,-0.739570896470477,-0.0549487879210754,1.25680411366141,-1.23237809056726,0.0226342750586919,-0.563216917858942,-1.38379038971188,0.00166874804761188,-0.233615300704354,-0.511767294679553,2.50624077675944,-0.564932864110095,-1.24551368552422,0.0264202497023634,0.192935483964866,-1.01288141613753,-0.362870565657971,-0.192465792053315,-1.23591350445084,0.170446685423688,-0.0939329584248297,0.227568966860296,0.726928149166176,-1.06136241158408
66.81,-0.709186587242751,-0.0510291101531545,1.22851730643789,-1.11593767760507,-0.0235156531468396,-0.450336544852176,-1.36847465791668,0.00956955208179427,-0.24583002397956,-0.455213103612323,2.46327454576236,-0.566126054403715,-1.24703727107145,-0.0267493519686149,0.206004977298392,-0.963666199245668,-0.370570392366014,-0.250356602604165,-1.23943684140214,0.147318057785274,-0.159424696176416,0.308283603031309,0.704654396376951,-1.09901197784054
66.815,-0.684469923706276,-0.0405828281014596,1.19305087763883,-0.997076059048202,-0.0584576458324002,-0.352405493959453,-1.34552779004819,0.024431035841745,-0.260436594192251,-0.389049987249572,2.40897937245827,-0.562113792616622,-1.24634715560581,-0.0828743444038767,0.215265601855998,-0.902371769337775,-0.377527096350965,-0.308768937898515,-1.24083413062845,0.123846351026464,-0.218945497299851,0.389558733895063,0.67681478070301,-1.1270357286635
66.82,-0.664655891649032,-0.0246379733284302,1.15244613220545,-0.878870058990892,-0.0835475341263361,-0.26875993576321,-1.31586469731087,0.0452002454573864,-0.276166127315202,-0.316707431482332,2.34437977457754,-0.553263374597612,-1.24347572127582,-0.140083689174029,0.220496301163948,-0.832525391719282,-0.383490409127024,-0.368083181396451,-1.24000043169972,0.101145397073934,-0.272120977714924,0.470115390323605,0.64472284074633,-1.14575486222757
66.825,-0.649008979989569,-0.00447809976585727,1.10868509301731,-0.763998434465125,-0.100407196927652,-0.198530899604615,-1.28069596240243,0.0706582431348746,-0.291815834813327,-0.241462581221862,2.27062152552187,-0.540082887868361,-1.23850769170926,-0.196329554572109,0.221625884970383,-0.757538316851558,-0.388211095572882,-0.428593949741855,-1.23688415933222,0.0802750308404842,-0.318851325848225,0.548679466992401,0.609572603806419,-1.1558306472552
66.83,-0.636838878037764,0.0184863811949809,1.06361969803121,-0.654709916756829,-0.110780915543956,-0.140711954858088,-1.24146713786593,0.0994768292707172,-0.306325693863788,-0.166317679798618,2.18897536193368,-0.523194424671697,-1.2315717264492,-0.249514685620179,0.218743835686867,-0.680583713197327,-0.391464628626848,-0.490474672221058,-1.23148511363752,0.0621050261652336,-0.359180217939236,0.624010715974725,0.572391943703534,-1.15821485115207
66.835,-0.627510887477204,0.0428475737630304,1.01892699752918,-0.552789056462432,-0.116399346108866,-0.0942050293264395,-1.19977187221609,0.13029581270379,-0.318831304740768,-0.0938824389702725,2.10082568416579,-0.503298784494355,-1.22284748853237,-0.297661373526533,0.212094582408587,-0.604476411831029,-0.39307390497058,-0.553750342984483,-1.22387382607106,0.0472615745028215,-0.393244079613165,0.694920673948121,0.534028149639734,-1.15406753609787
66.84,-0.620456365882482,0.0672974600869465,0.976080675243524,-0.459557325313178,-0.118873448612885,-0.0578551907801079,-1.15724848409261,0.161805158996221,-0.328695828792908,-0.026304558510519,2.00764020974636,-0.481141300984246,-1.21258059737041,-0.339087453527,0.20205701227481,-0.531599311433515,-0.392927170363116,-0.61829397839713,-1.21421903297178,0.0361352613394599,-0.421275830678135,0.760307602387558,0.495139174891223,-1.14467874022504
66.845,-0.615173680071898,0.090694982670293,0.936307082206811,-0.375903383777783,-0.119619165251199,-0.0304839712094641,-1.11547831094629,0.192798875996348,-0.335537599709949,0.0347573532205966,1.91092403473593,-0.457479829185173,-1.20108708871508,-0.372537487890011,0.189126150353812,-0.463870622564157,-0.390989814527035,-0.683845389816101,-1.20280342349535,0.0288744799222219,-0.443590858705748,0.81920767574374,0.456187607558812,-1.13139900849815
66.85,-0.611217456787345,0.112107007120605,0.900543910124399,-0.302310747919784,-0.119803079183239,-0.0109104069089219,-1.07589737358191,0.222202275586982,-0.339240266967957,0.0881455904178043,1.812164896142,-0.433052496002807,-1.18874577779993,-0.397258761710342,0.173896988865008,-0.402724132241121,-0.387311562827113,-0.750041075964704,-1.19002049480112,0.02537776194429,-0.460559518051737,0.870839739429876,0.41745002730015,-1.11556389116414
66.855,-0.608188933263948,0.130817917949197,0.869427243537792,-0.23888920811341,-0.120310591358425,0.00203323336039552,-1.03972480828186,0.249095110646655,-0.339933623281515,0.133195644683736,1.7127751640794,-0.408548610723019,-1.17598605834278,-0.4130356963063,0.157035144512978,-0.349107441413731,-0.382028470240214,-0.816450687499034,-1.1763575702604,0.0253247344345259,-0.4725953474486,0.914644175339502,0.379036790140863,-1.09842367530149
66.86,-0.605725875854308,0.146326866875132,0.843292685858649,-0.185419022155704,-0.121738681652108,0.00948181017463821,-1.00791466340196,0.27271895822306,-0.337966686307897,0.169704040437154,1.61403513128897,-0.384586245660783,-1.16326842078871,-0.420183792032635,0.139243018207732,-0.303504034457662,-0.375359407992344,-0.882616638665123,-1.16236990499546,0.0281968863310396,-0.480124460485965,0.950321279080768,0.340914686971949,-1.08108671470997
66.865,-0.603491851176726,0.158336667892859,0.822190311157354,-0.141380878491854,-0.124406441553523,0.0125327994938041,-0.981135956247227,0.292464921312743,-0.333875032257636,0.197893672192631,1.51704340573994,-0.361694495847165,-1.15105830958517,-0.419496613755679,0.121236316531154,-0.265957351797809,-0.367599791870178,-0.948087224281699,-1.14864712315562,0.033279880543342,-0.483537024702121,0.977852370559308,0.302945464482943,-1.06445868271163
66.87,-0.60118279474485,0.166714341484352,0.805937108013532,-0.105978171483189,-0.128379870861199,0.0122495516209917,-0.959774051489907,0.307881990941602,-0.328312082208917,0.218375726193933,1.42267880049792,-0.340300589358259,-1.13980305772181,-0.412152714015179,0.103712229419003,-0.236098614423218,-0.359111774908583,-1.01244178559039,-1.13577534674871,0.0397136268821168,-0.483183522644156,0.997504341563438,0.264935379312994,-1.04918816747957
66.875,-0.598554924604032,0.171434912451871,0.794200045293148,-0.0781987466358366,-0.1335127759231,0.00963788563465459,-0.943946001052675,0.318719157894704,-0.321948990461374,0.232076412673517,1.33157771652108,-0.320727296534074,-1.12991386568788,-0.39960251835727,0.0872944345922847,-0.213211811495195,-0.35030636367933,-1.07531233701739,-1.12429549988234,0.0465819189237168,-0.479398226237465,1.00983277084163,0.22667508947031,-1.0356468790493
66.88,-0.595442128798839,0.172551296992902,0.786564591432399,-0.0569285992025216,-0.139502771452779,0.00559113756102352,-0.933527651637799,0.324953986635499,-0.3153915932953,0.240118635300438,1.2441295363362,-0.303202941988665,-1.12174193845679,-0.383446244719494,0.0724807159124023,-0.196346372609947,-0.341616796972688,-1.13639936175353,-1.11466022355687,0.0529871010246192,-0.472500297011394,1.01568061626081,0.187971950912122,-1.0239428312806
66.885,-0.591733936843511,0.170217506392551,0.782547233664052,-0.0410594179620845,-0.145949048465566,0.000837750170829162,-0.928187807023449,0.326765299225826,-0.309149357028588,0.243706520115393,1.16048708925353,-0.287874890171466,-1.11553760746973,-0.365294094518861,0.0596223415270807,-0.184428555795014,-0.333470547707962,-1.19547635446139,-1.10720087736672,0.0580958467624498,-0.462796828900988,1.01616314760899,0.148677294651237,-1.01394649277523
66.89,-0.587351337377664,0.164727895082485,0.78159655018211,-0.0295242796098819,-0.152393268684915,-0.00406609833708182,-0.927426639018086,0.324489640374378,-0.303626330245766,0.244068907748977,1.0805902319298,-0.274815789931988,-1.11141395402397,-0.346633027571257,0.0489242295832327,-0.176315044097882,-0.326269104932583,-1.25238141234016,-1.1021063073094,0.0611707381665661,-0.4505889456798,1.01263110554845,0.108697666258344,-1.00531569823392
66.895,-0.582272505071809,0.15651404440749,0.783163225280161,-0.0213081712144807,-0.158356581953791,-0.00871429256603971,-0.930618739147718,0.31863139263492,-0.299080642918257,0.242418550296503,1.00420252322284,-0.264029682057647,-1.10934953248576,-0.328751986968128,0.0404384054869991,-0.170833329108908,-0.320370728810859,-1.30700237453868,-1.09940249450528,0.0616085085265624,-0.43613882835814,1.00661476459729,0.0680013146604893,-0.997527702271531
66.9,-0.576568053294681,0.146119475380254,0.786777020300598,-0.0155148481637216,-0.16339696452342,-0.0128489373031128,-0.937054575810388,0.30988637604867,-0.295583713807852,0.239855472578687,0.930956562161091,-0.25546851831152,-1.10920860424749,-0.312704117812939,0.0340608677740129,-0.166880616537725,-0.316065742336285,-1.35926315869213,-1.09894006917281,0.0589805281733084,-0.419637839488836,0.999763992203696,0.0266394871768169,-0.989933354225118
66.905,-0.570390165883243,0.134192967117038,0.792031376168755,-0.0114395614221603,-0.167163425462174,-0.0163648729300666,-0.945972415439353,0.299101728327826,-0.293040480313775,0.237266816250997,0.860402679815706,-0.249048609041993,-1.11074139501025,-0.299257666487874,0.0295544502759083,-0.163527556479304,-0.313552092024511,-1.40911003947364,-1.10040669667741,0.0530538292482122,-0.401238507979849,0.993786292489043,-0.0152347793036762,-0.981820955890874
66.91,-0.563951383348692,0.121473574853839,0.798539497792118,-0.0085800528131484,-0.169419665992194,-0.019288647978319,-0.956582791153013,0.287211660230611,-0.29123916946688,0.235290498683465,0.79205803553528,-0.244656378696844,-1.11358486364226,-0.288865550228864,0.0265795036815848,-0.16005915776745,-0.312922806799011,-1.45649629888733,-1.10335887159633,0.0437942515760646,-0.381108422567999,0.99037757629372,-0.0573724295114941,-0.972471660726112
66.915,-0.557526229708502,0.108748902146025,0.805934680515171,-0.00662735124728669,-0.170054881641023,-0.0217538875063327,-0.968092534662796,0.275200909155084,-0.289884980836731,0.234305158221593,0.725452923096953,-0.242151157551615,-1.11728832768501,-0.281685720900233,0.0247168124407012,-0.155991113886775,-0.314161587367881,-1.50137021697795,-1.10725650038046,0.0313575105575758,-0.359441495615972,0.991151004300183,-0.0994480284080401,-0.961208623497728
66.92,-0.551441554375061,0.0968198577183408,0.813867598057355,-0.00546500014968583,-0.16909320087598,-0.02398638417682,-0.979731616525851,0.264058574381112,-0.28863888174313,0.234418112598488,0.660170835029088,-0.241369446241861,-1.121346374371,-0.277623506151072,0.0235060775906038,-0.151089339909622,-0.31714220419897,-1.54366832809901,-1.11149254684307,0.0160594755742249,-0.336427395280567,0.997569978211892,-0.141075874304786,-0.947440227678504
66.925,-0.546039487972294,0.0864757228863807,0.821976354873654,-0.00514207652249914,-0.166686686725074,-0.0262742646365581,-0.990780910964013,0.254699663989475,-0.287172738749958,0.235481518243539,0.595879874563107,-0.242124701658674,-1.12522350363389,-0.276367125460258,0.0225025967505689,-0.145361131030345,-0.321634758819673,-1.58331002952436,-1.11542238468568,-0.00166642962627682,-0.312222772819417,1.01088731151913,-0.181815941588965,-0.93068818133578
66.93,-0.541641151285828,0.0784417013517207,0.829872338495729,-0.00580954308824651,-0.163089542207056,-0.0289207454195405,-1.00059532306369,0.247889047591152,-0.285213844334334,0.237149630725583,0.532355287272267,-0.244201947565475,-1.12837607089496,-0.27741833356189,0.0213172713785786,-0.13900499469142,-0.327320849788364,-1.62019239658998,-1.11840518353422,-0.0213027615953748,-0.286968376012155,1.03209071655878,-0.221177137233992,-0.91059923015411
66.935,-0.538522684874281,0.0733012110210794,0.837164367862767,-0.00764945506429059,-0.158628350756797,-0.0322073631169336,-1.00862162293388,0.244196276163438,-0.28255959523829,0.238956538947875,0.469493589634515,-0.247353851500397,-1.13028505318368,-0.280148717524957,0.0196298274108774,-0.132341006670891,-0.333816525303106,-1.65418920028396,-1.11985213756189,-0.0422687399404599,-0.260820334257965,1.06185557427257,-0.258633616737752,-0.886947177329791
66.94,-0.536891020281687,0.0714442104691122,0.843503817032621,-0.0108344987861008,-0.153678427252918,-0.0363792743534563,-1.01441675716612,0.243983397827593,-0.279065545939909,0.240375747248072,0.407314094394228,-0.251305406633299,-1.13050408700952,-0.283897151367375,0.017196548733394,-0.125760259335281,-0.340698173898269,-1.68515870774573,-1.11926068559747,-0.0639353022938423,-0.233928843865822,1.10051719955459,-0.293645997836131,-0.859633415970257
66.945,-0.536856611792971,0.073060973910575,0.848614899238833,-0.0155259935080954,-0.148645262621822,-0.0416410957543794,-1.01766564275102,0.247402167473819,-0.274634470344993,0.240843609637338,0.345944322515467,-0.255766970036825,-1.1286972338129,-0.288046382582953,0.0138601963457947,-0.119709539087125,-0.347526318095452,-1.71295940989435,-1.11623590576121,-0.0856423068013223,-0.206406021999193,1.14807201295047,-0.32566846393898,-0.828690138209176
66.95,-0.538410866027429,0.0781485906778913,0.852293290132953,-0.0218663078834335,-0.143944093154591,-0.0481497552825809,-1.01819298119264,0.25437472300313,-0.269227661507238,0.239788467475529,0.285596705784906,-0.260446578968089,-1.12464579172212,-0.29202772276669,0.00955599233583038,-0.114668284593637,-0.35386989894774,-1.73746598203943,-1.11051246141421,-0.10672144719405,-0.178354589139925,1.20419319564709,-0.354155016048695,-0.794278115124808
66.955,-0.541408721145208,0.0865175728392391,0.854388539076324,-0.0299383005079285,-0.139974106261515,-0.0560005651517336,-1.01597156944655,0.264568652231728,-0.262884679946147,0.236696433078951,0.22654523300951,-0.265057596302764,-1.11824509986897,-0.295303108256487,0.00431588874396959,-0.111087361757503,-0.359334200433381,-1.75858080136239,-1.1019722578303,-0.126514852316184,-0.149915882920716,1.26824792267728,-0.378583424845953,-0.75667425582569
66.96,-0.545555790767406,0.0978113027527857,0.854782137892358,-0.0397069860888997,-0.137084168978463,-0.0652025081751023,-1.01112846804517,0.277387379241697,-0.255738212352488,0.231196519247748,0.169101092647384,-0.269324655788922,-1.10950952109715,-0.297375788442185,-0.00172743385570784,-0.109306956597397,-0.363588924303574,-1.77624378020579,-1.09065108025809,-0.144389792024297,-0.121278944234542,1.33932180269917,-0.398487930223124,-0.716256140823687
66.965,-0.550430947426283,0.111517543474703,0.853393635756966,-0.0509580053471853,-0.135529631589043,-0.0756400069147696,-1.00393954992541,0.29200351388135,-0.248008511713356,0.223146905216838,0.113585842743261,-0.2729903651402,-1.09857845495685,-0.297824311340657,-0.0083533163091887,-0.109471536425982,-0.366392895084255,-1.79044244637617,-1.07672777605663,-0.159751981369841,-0.0926605999253828,1.41625557539388,-0.413488527046618,-0.6734853047567
66.97,-0.555565740306497,0.126971098220906,0.850240128350918,-0.0632762356842233,-0.135446155256729,-0.087054831354598,-0.994806264410196,0.307462311510635,-0.239958870486037,0.212678601258413,0.0603071526544927,-0.275827774293432,-1.08571600934329,-0.296335092847868,-0.0152923311485179,-0.111485989285925,-0.36760947753919,-1.80122123833822,-1.06048602946512,-0.172042003624106,-0.0642773986427878,1.4976963018028,-0.423310658799684,-0.628895743408142
66.975,-0.560529624522553,0.143387734171912,0.845488087460508,-0.0760885377254518,-0.136860430170379,-0.0990736975411908,-0.984220315610522,0.322809462791234,-0.231839886300972,0.200169071405614,0.00954212958687309,-0.277657247153954,-1.07129426908145,-0.292706035539115,-0.0222753160232319,-0.115039874147628,-0.367206866078644,-1.80868737577462,-1.04226977894778,-0.180738109092814,-0.0363283701404407,1.5821592867602,-0.427791109677117,-0.583096489022596
66.98,-0.564975074177408,0.159922865765918,0.83944620694989,-0.0887293228778561,-0.139719233950599,-0.11125942246862,-0.9727228724479,0.337184645857563,-0.2238530933207,0.186186265408193,-0.0384706170258906,-0.278359941181143,-1.05575729485541,-0.286826689361679,-0.0290782344284571,-0.119658732440674,-0.36524818786761,-1.81300721403732,-1.02246315768072,-0.185405172239506,-0.00900231947749555,1.66808752805827,-0.426876412324077,-0.536769765391414
66.985,-0.568647893609051,0.175743893594717,0.832515039321203,-0.100509965476811,-0.143918043474368,-0.123171167760385,-0.960867557654523,0.349878046289589,-0.216134696012963,0.17142650636063,-0.0835317155358884,-0.277886697554005,-1.03958498949314,-0.278665321575225,-0.0355459030050947,-0.124759594623478,-0.361877486965693,-1.81439091751584,-1.00148370136928,-0.185756331479309,0.0175206810607768,1.75390452521674,-0.420619943223572,-0.490646399046057
66.99,-0.571364112899775,0.190131400800166,0.825103755303085,-0.110779746505303,-0.149315358929503,-0.134409942334087,-0.949195833327296,0.360343375792673,-0.208767230454732,0.156653220759025,-0.125478679394189,-0.276260410888062,-1.02326609220429,-0.26825697465532,-0.0415774948538526,-0.129704018189251,-0.357302077144375,-1.81307050935373,-0.979767776750264,-0.181678241653202,0.0430927276418657,1.83806926961567,-0.409170411172359,-0.445469697009106
66.995,-0.572967800278737,0.202562395027729,0.817535986513805,-0.118941254295694,-0.155719783537328,-0.144614870208132,-0.938215022234909,0.368171070015149,-0.201810857089188,0.142667417720319,-0.164182561926485,-0.273567735179362,-1.00726823808088,-0.255667955564385,-0.0471006688208026,-0.133818351622258,-0.351773433180171,-1.80927587601954,-0.957756950957488,-0.173232053366111,0.0675960064600492,1.9191356354243,-0.392752181340915,-0.401960872906792
67,-0.57332815736686,0.212704370973061,0.81002414860578,-0.124420797818106,-0.162858127287985,-0.153429234347734,-0.928368293575941,0.373076148764422,-0.195311932186131,0.130320401486271,-0.199542174485656,-0.269943121654141,-0.992006965062628,-0.240965673628628,-0.0520726779142654,-0.136372682163957,-0.345569780410075,-1.80321320415183,-0.935887143691051,-0.160656150018255,0.0909181076976229,1.99580292007016,-0.371655876711432,-0.36078626535602
67.005,-0.572404895813811,0.220344803270931,0.802770492981605,-0.126663475128583,-0.170368883131769,-0.160493717007073,-0.920004699006537,0.374945498578002,-0.189255864564947,0.120504958879453,-0.231472828689479,-0.265557277471956,-0.977828318534241,-0.22423337578352,-0.0565046567963099,-0.13658369661539,-0.338979187182182,-1.79504503009491,-0.914561276219554,-0.144360807693974,0.11297789298767,2.06695304543918,-0.346229518785426,-0.322525320266035
67.01,-0.570275741376757,0.225359938519068,0.796060858805461,-0.125207475174376,-0.177862132832485,-0.165493151734193,-0.913367315725244,0.373870358916705,-0.183512349822477,0.114059054647513,-0.259888632502588,-0.260616674491977,-0.96500062669203,-0.205575059107681,-0.0604680813634579,-0.133707002837565,-0.332280508070494,-1.78486678012898,-0.894124343549507,-0.124894301521748,0.133743719271079,2.13168238098474,-0.316845586357369,-0.287646000563604
67.015,-0.566936595594179,0.22780230097409,0.790300954937458,-0.119746930276894,-0.184982458682205,-0.168200380701866,-0.908683861530407,0.370070444549533,-0.177709772594106,0.111679183482157,-0.284687289839038,-0.255359457765428,-0.953705852137155,-0.185066279535649,-0.0640590526779934,-0.127120876971194,-0.325727912316992,-1.7726886631772,-0.874879848898679,-0.102900988534602,0.153154570025481,2.18932360300501,-0.283877397575731,-0.25649323732719
67.02,-0.562234996429108,0.227873443787587,0.78587306045836,-0.110094760162082,-0.191391182188101,-0.168463505010307,-0.906159157683278,0.363784570154525,-0.171327050044334,0.113953133896577,-0.305745319274444,-0.250038929872663,-0.944040863988604,-0.162740143979044,-0.06736024275229,-0.116291956448004,-0.319545905725245,-1.75843308588149,-0.857111653575119,-0.0790936108973095,0.171064664068118,2.23945636759918,-0.247718687635631,-0.229282350250202
67.025,-0.556275750605648,0.225645376267291,0.782808032024255,-0.0961510248211844,-0.196739409860963,-0.166191815562885,-0.905709909899459,0.35525697452707,-0.164200837079823,0.121394097088774,-0.322916643577405,-0.244911701924376,-0.936036230358681,-0.1386519414197,-0.0704368640575152,-0.100741703734,-0.313928912074806,-1.74194084033603,-0.841056554253792,-0.0542038274275366,0.187309055765406,2.28191512828016,-0.208800985810244,-0.206097973384891
67.03,-0.549504856776544,0.221040377376918,0.780940339539132,-0.077964424769224,-0.200726535067951,-0.161392419773234,-0.906987957122342,0.344802142791302,-0.156492606577814,0.134360517669344,-0.336029138485071,-0.240238183740662,-0.929678052487051,-0.112919056432819,-0.0733395036789887,-0.0801289964315905,-0.309038244813151,-1.72298202577175,-0.826871938791068,-0.0289078889126258,0.201746217628315,2.31678566155922,-0.167576716625029,-0.186916349950932
67.035,-0.54232168032945,0.214090230986041,0.780283570430198,-0.0557890119946324,-0.203174198286566,-0.154206001983013,-0.909677279532286,0.332814537090923,-0.148199718042333,0.152971750468626,-0.344887457002465,-0.23627955685007,-0.924922458604074,-0.085702714226466,-0.0760910873938993,-0.0543375002747039,-0.305000043130373,-1.70127782037436,-0.814658335739563,-0.00379963440553591,0.21420390910003,2.34438299646461,-0.124512852117327,-0.171645776402313
67.04,-0.534985309147741,0.204984447657661,0.780918170907642,-0.0300691743946037,-0.20402418141445,-0.144900189426734,-0.913528272472166,0.319715569034241,-0.139183253115267,0.177112955635931,-0.349288048922914,-0.233284692624327,-0.921709395459521,-0.0572118930477369,-0.0786755060740011,-0.0234732851830227,-0.301907525976714,-1.67653067711401,-0.804499013312664,0.0205853648003151,0.224457080495993,2.36522670758271,-0.0801131961712239,-0.160157210205904
67.045,-0.52772581904053,0.194004311012705,0.78284227153547,-0.00141032410480808,-0.203297462602485,-0.133849240550058,-0.918290340175795,0.305939157106195,-0.129353757580486,0.206464732869171,-0.349040567295811,-0.231476227496721,-0.919976084574663,-0.0277330933255104,-0.0810399531909338,0.0121627364632046,-0.299824396688231,-1.64845431665478,-0.796463993945606,0.0437732730147808,0.232266962989474,2.38002217689157,-0.0349340778501716,-0.15230198085878
67.05,-0.520772032183653,0.181522539253036,0.786002840588737,0.0294397851273792,-0.201073616104139,-0.121518258270568,-0.923717600061122,0.291939239641161,-0.118688520540412,0.240514924842726,-0.343988456609777,-0.231039277330152,-0.919660096009138,0.00237163582361008,-0.0831071789267388,0.0520838965451399,-0.298786948957313,-1.6168042603201,-0.79059850344225,0.0653838594692553,0.237384382328675,2.38963439031464,0.010411474466875,-0.147934536732689
67.055,-0.514341597704855,0.168013089125745,0.79027262790514,0.0616350330127291,-0.19748032209677,-0.108435446224539,-0.929569487481595,0.278169311856102,-0.107261868237141,0.278590855231902,-0.334027472707256,-0.232109639551356,-0.920688989050337,0.0326953906959365,-0.0847971349134566,0.0956463793441628,-0.298805188143385,-1.58141085151932,-0.786930772683877,0.0851205110603515,0.239509644107562,2.39504970707098,0.0552387906073996,-0.146936531564685
67.06,-0.508634586355303,0.154041091036378,0.795408705910258,0.0943103861596263,-0.192667896340869,-0.0951452864642495,-0.935615828694354,0.265055351302841,-0.0952794886561772,0.319932538784483,-0.319121004759434,-0.23476243319969,-0.922971447469251,0.0627980361466764,-0.0860369827029449,0.142118508344373,-0.299863619568439,-1.54220853794425,-0.785468263192655,0.102743429425695,0.238333145916206,2.39733542326846,0.0987648887667632,-0.14922223878107
67.065,-0.50381930636113,0.140226150564472,0.801053044651461,0.126668152704657,-0.186774382853166,-0.082158958044938,-0.941663839502053,0.252954683970523,-0.0830881370735305,0.363777417790982,-0.299310992915778,-0.239001858763274,-0.926401415047642,0.0921972514499314,-0.0867311973054376,0.190762453231005,-0.301918177977367,-1.49925278183573,-0.786149072231124,0.118087910474446,0.233724980036734,2.39759812349565,0.140119189130642,-0.154735327209714
67.07,-0.499968494138347,0.127160667359583,0.806773913263475,0.15807660772272,-0.179882540720477,-0.0699036967831032,-0.947582033637735,0.242076499749441,-0.0711414807041656,0.409463333591719,-0.274729903470503,-0.244751115162075,-0.930851225311372,0.120389663091637,-0.0867498497271063,0.240936913900265,-0.30488784334951,-1.45271774667714,-0.788832776399087,0.131038656105754,0.225834842798736,2.39693895296475,0.178426125116463,-0.16344977077158
67.075,-0.497079791821382,0.1152960072396,0.812189839311424,0.188154319676583,-0.171990018862436,-0.0586774724076346,-0.953277335663585,0.232488327532685,-0.0599079478261483,0.456528801340297,-0.245609291219384,-0.251858943967579,-0.93615132168319,0.146862859564175,-0.0859954406164739,0.292197473706807,-0.308657150665097,-1.40288309886381,-0.793370337626934,0.141442878001825,0.214923490714616,2.39641611721378,0.212871202474198,-0.175342121099808
67.08,-0.49523623434589,0.104923320807892,0.817156557702844,0.21670658921015,-0.16306030601042,-0.0486608522878471,-0.958662951257033,0.224299772552153,-0.0497415516448917,0.504651209443398,-0.21227060444334,-0.26013315027897,-0.942106478118722,0.171023155083144,-0.0844487457521371,0.344231293904298,-0.313097557627026,-1.35012944060306,-0.799610350067912,0.14916022525834,0.201259974156331,2.39701953061466,0.24269164953889,-0.190349527107748
67.085,-0.494630880141962,0.0962876552404933,0.821790643389689,0.243524170456495,-0.153130382701898,-0.0399995579226802,-0.963665886880506,0.217788058306627,-0.0408170427334839,0.553417361649978,-0.175114162333196,-0.269369558174161,-0.948533096957656,0.192157553663803,-0.0821297839981412,0.396624845752411,-0.318083746148048,-1.29494228763636,-0.807323330717741,0.154192419823613,0.185282604521287,2.39964661696837,0.267194156025301,-0.208383905966882
67.09,-0.495351839589652,0.0896822704511518,0.826227837651852,0.268284789660114,-0.142348067637401,-0.0328715504056921,-0.968233982220677,0.213248888969512,-0.0332191642442932,0.602212854825353,-0.134629439781805,-0.279351711622462,-0.955244740947822,0.20958220393779,-0.0790805181072666,0.448756566759298,-0.323490467138427,-1.23790656683238,-0.816207066831781,0.156618651175328,0.167682281897455,2.40507332775115,0.285835256777217,-0.22936457993915
67.095,-0.497227369709272,0.0854153867278877,0.830403546052592,0.290689156445526,-0.130905321917746,-0.0274459605580647,-0.972318127811424,0.210758273013357,-0.0270888121783731,0.650388598688141,-0.0914036784154519,-0.289840949117413,-0.962009161603648,0.222845592352377,-0.0753909589442554,0.499969056153528,-0.329184597089102,-1.17968060712533,-0.82595938299752,0.156440797745281,0.149268499894863,2.41392615052906,0.298270311980219,-0.253183086033723
67.1,-0.49990980438288,0.0837037687819784,0.834116985572725,0.310662325024696,-0.11896905553109,-0.0237756571741418,-0.975860309958776,0.210133868194162,-0.0226367362982067,0.697498141668577,-0.0461026507692822,-0.300580751022578,-0.968549588847226,0.231762557525386,-0.0711918445989618,0.549809188839331,-0.335025366790445,-1.12095849958116,-0.836290891269562,0.153588182576823,0.130853501406026,2.42665989594446,0.304351985282313,-0.27963886427865
67.105,-0.503034728024167,0.0846039938334728,0.837214910180382,0.328407401617653,-0.106687112659521,-0.0217516765858478,-0.978792164934901,0.211077994344261,-0.0200359069935347,0.743366255690675,0.000562404951874484,-0.311314321230063,-0.974581641392846,0.236319459532356,-0.0666310111372953,0.59809702419554,-0.340871750868824,-1.06243884619951,-0.846903261110595,0.147999112658852,0.113232568848289,2.44354437534119,0.304125837554956,-0.308417584998069
67.11,-0.5062866923601,0.0880201795702209,0.839640922993569,0.344327744472795,-0.0942284071471925,-0.0211444500720796,-0.98103574334171,0.213297544352329,-0.0193478537322804,0.78802147104753,0.0478635469732872,-0.321802243878385,-0.979843486353648,0.236616504608269,-0.061871236999077,0.644858737613889,-0.346590927111219,-1.00480246929532,-0.857503905646146,0.139629013903509,0.0971682146177745,2.46466334715498,0.29782983258284,-0.339098225953161
67.115,-0.509396733683564,0.0937451378314561,0.841383946960324,0.358933034800795,-0.0817955762586973,-0.0216656275258977,-0.982511757798097,0.216532149682165,-0.0205233061237952,0.831621979881095,0.095080547735105,-0.331834075783383,-0.984114682686296,0.23287114522248,-0.0570871447299905,0.690253563143179,-0.352064774601859,-0.948691888571288,-0.867838792700566,0.128425876251403,0.0833481968457546,2.48992237530605,0.285884507312037,-0.371156497949187
67.12,-0.512144669735189,0.101495671413725,0.842446371121884,0.372766665775071,-0.0696139975009534,-0.0230135188376217,-0.983154431166979,0.220546347155855,-0.0234293578739592,0.874402949031171,0.141525603625467,-0.34123518539687,-0.987232292513909,0.225428896244332,-0.0524463177829188,0.734521856832905,-0.357194855825948,-0.894691844442754,-0.877708875133788,0.114341590979102,0.0723384725910083,2.51905901318595,0.268871242761179,-0.40396836505195
67.125,-0.514371190435914,0.110935825954527,0.842836855856735,0.386354120101303,-0.0579173286933448,-0.0249006411723866,-0.982926821925461,0.225118843386366,-0.0278804937805005,0.916637385188968,0.186569202863056,-0.349869856505454,-0.989103323136255,0.214760151469421,-0.048087361941692,0.777945883368362,-0.361905721819992,-0.843312527736833,-0.886972729047461,0.0973674133537227,0.0645471739712219,2.55165563993051,0.247500896082577,-0.436824718953294
67.13,-0.515982147540256,0.121695754381648,0.84256253056143,0.400170331092629,-0.0469303874909747,-0.0270690527505181,-0.981834313186441,0.230034517606476,-0.033665167425685,0.958611239971762,0.229664514708668,-0.357641249795216,-0.989711618067019,0.201440615699931,-0.0441037980020519,0.82082423492938,-0.366146257669242,-0.794975764502624,-0.895546533063566,0.077564611987865,0.0602038459043362,2.5871578810473,0.222576543918415,-0.468956350797103
67.135,-0.516941772577268,0.133391734625209,0.841622497222595,0.414619297648056,-0.0368460956635933,-0.0292969010911497,-0.979935179833388,0.235080037717752,-0.0405627191350167,1.00060769850189,0.270367241591462,-0.364489205091584,-0.989118985266765,0.186119580881138,-0.0405330184291806,0.863455163045596,-0.369889466713868,-0.750004634162148,-0.903401394511574,0.0550848286020775,0.0593536005565457,2.62489688810077,0.194954587866194,-0.499565226393765
67.14,-0.517261563453396,0.145641114786051,0.840014876916451,0.430022670993428,-0.0277987957073841,-0.0313976639240911,-0.977342382345305,0.240040683597462,-0.0483502348831151,1.04289681396525,0.30834893671737,-0.370386607333668,-0.98745566578281,0.169486017704623,-0.0373525370282809,0.90612519984653,-0.373131073096807,-0.708617275407681,-0.910554917640985,0.0301738016610577,0.0618705194672515,2.66411217553211,0.165507816752171,-0.52785949195509
67.145,-0.516993682574651,0.15806496929345,0.837760270225355,0.446612899042766,-0.0198465364786759,-0.0332154637876935,-0.974213425568469,0.244697820103127,-0.0568025615802194,1.08572428291666,0.343404871064722,-0.375336114656315,-0.98489856180433,0.152237560714354,-0.0344867634868457,0.949097066898975,-0.375888562615426,-0.670922903556903,-0.91705811474979,0.0031562133854632,0.067489129668917,2.70397692522655,0.135094102249296,-0.553085226491958
67.15,-0.51622532312805,0.170285813068072,0.834917700932562,0.464525651184733,-0.0129709267909317,-0.0346199880773643,-0.970739503449546,0.248827423294676,-0.065696946079617,1.12929376607521,0.375458048389525,-0.379368925472049,-0.981651413781738,0.135048070612395,-0.0318181672648888,0.992591230383215,-0.378202294891689,-0.636919456937832,-0.922982730614656,-0.0255730750604968,0.0758354308056789,2.74362632016929,0.104531769904285,-0.574550367419645
67.155,-0.515067165560925,0.181932722690016,0.831578416355206,0.483794902918408,-0.0070808312142415,-0.0355025868474795,-0.967140050942192,0.252202460260574,-0.0748227890944659,1.1737514147245,0.404556264249167,-0.382544209411432,-0.977934348241196,0.118535430863013,-0.0291968492418482,1.03676948268186,-0.380137174569761,-0.606498626368329,-0.928411636156905,-0.0555454750922409,0.0864465956101703,2.78218049092955,0.0745775884113614,-0.591646590773421
67.16,-0.513642555480782,0.192653509896382,0.827857127827691,0.504352496688164,-0.00201172195164387,-0.035773742662533,-0.963653694576733,0.254601413992747,-0.0839857683850357,1.21917625366101,0.430862007596764,-0.38494777668281,-0.973972590864042,0.103237331246667,-0.0264501767176757,1.08172438011471,-0.381783245481306,-0.579457559792292,-0.933428814523992,-0.0862246218744345,0.0987883651454763,2.81876248287351,0.0459064150352494,-0.603870405701172
67.165,-0.51207818827619,0.202133879956492,0.823882069940434,0.526029413470376,0.00247105067332623,-0.0353613641545879,-0.960525126227248,0.255819407865674,-0.0930147438086427,1.26557024640289,0.454638416094099,-0.386690237789972,-0.969984708665303,0.089587904444321,-0.0233926042027081,1.12746855747799,-0.38325540135223,-0.555512869498507,-0.938107656205452,-0.117013727336861,0.11227330680311,2.8525176823484,0.0190939083933795,-0.610840515818216
67.17,-0.510493928924133,0.210127133862621,0.819777475520677,0.54856581474152,0.00666907080072648,-0.0342056296141932,-0.957988181762962,0.255683838265149,-0.101773755127541,1.31285546584288,0.476228450520294,-0.387903448996411,-0.966171582712907,0.0778912938876269,-0.0198385426689943,1.17393102739625,-0.384690999269884,-0.53432259445992,-0.942499677136869,-0.147266061101954,0.126287412727406,2.88262805205634,-0.00539983347095493,-0.612315079656533
67.175,-0.50900804152102,0.216474685928791,0.815668038462375,0.571627878848197,0.010944503582192,-0.0322491118135662,-0.956239835209428,0.254081841756156,-0.110155367285368,1.36087470567354,0.496028640156299,-0.388735407976293,-0.962698320525906,0.0683113646737471,-0.0156227377356703,1.22095700663055,-0.386245535564852,-0.515513831473429,-0.94662417002251,-0.176322942584906,0.140232022160649,2.90832338993673,-0.027241393217265,-0.60820387061618
67.18,-0.50776019548183,0.221099498595028,0.81170996838154,0.594812902903087,0.0156924477161938,-0.0294363869853265,-0.955417923295814,0.250994940314342,-0.118054572690816,1.40937542764015,0.514466628807523,-0.389345705788872,-0.959681111066407,0.0608867084800601,-0.0106206229016436,1.26829161586122,-0.388088454494831,-0.498703512149944,-0.950461995490082,-0.20355215479104,0.153553761608645,2.92890124537186,-0.0462248600175081,-0.598568030711795
67.185,-0.506915747340529,0.224000486084309,0.808101421655354,0.617639695994353,0.0212968062214096,-0.0257371521601213,-0.955595107180529,0.246521546115046,-0.125352328089977,1.45798080932114,0.531984011083912,-0.389900493508135,-0.957190805776007,0.0555476379271212,-0.00476124082400539,1.315550959421,-0.390397835102135,-0.483512530079055,-0.953957586371466,-0.228355749245833,0.165749243819694,2.94374899774545,-0.0622692922325022,-0.583615727619255
67.19,-0.506625511880436,0.225279035502862,0.805044852251367,0.639544657246315,0.0280925891546017,-0.0211743573143685,-0.956779500497083,0.240868354177695,-0.131926538741362,1.50617148236919,0.549016445834332,-0.390565657330161,-0.955258873759936,0.0521133996464573,0.00196548468617092,1.36220404301309,-0.393352407594832,-0.469582657570768,-0.957026103557538,-0.250171628072908,0.176376153546998,2.95235839240332,-0.0754179368224877,-0.56369910388638
67.195,-0.506976896774034,0.225169403396669,0.802689258809628,0.659904442032596,0.03634763611612,-0.015823619603192,-0.958913324417289,0.23431574793466,-0.137682109226139,1.55329549780294,0.565966022668059,-0.391499296703141,-0.953875684755665,0.0503005029751589,0.00950823890331254,1.40758334262194,-0.397121956458256,-0.45659994505296,-0.959557820717146,-0.268495820358123,0.185087555252484,2.95433437107977,-0.0858343328581546,-0.539306803337262
67.2,-0.507981606029316,0.224025129831192,0.801092617443165,0.678089504235804,0.0462589892591296,-0.00978836746370304,-0.961876400986504,0.227170171304073,-0.142583223583716,1.59861581321473,0.583175780274352,-0.392842587351491,-0.952988034168639,0.0497901381954288,0.0177649636549471,1.45093345448017,-0.401855303030123,-0.444313213558167,-0.961416733064591,-0.282917437506482,0.19167417115006,2.94940073473269,-0.0937868767395188,-0.511047382516389
67.205,-0.509594964815908,0.222263044043486,0.800234137662514,0.693545786173262,0.0579556887186143,-0.00317155463379631,-0.965503305376416,0.21972027056378,-0.146665192524196,1.64140331718403,0.600920562233957,-0.394707954104036,-0.952505927346092,0.050293750772916,0.0266027477323233,1.49150594303797,-0.4076653318488,-0.432531393072776,-0.962444047985862,-0.293129483571053,0.19608163849018,2.93740461705537,-0.0996168901380743,-0.479624086602292
67.21,-0.511762286484946,0.220292464105544,0.800103719376926,0.705857841673837,0.0714954629550246,0.00394396701843583,-0.969603932092828,0.212261309686099,-0.149983043682735,1.68101807430837,0.619406636336852,-0.39717138004937,-0.952325052305583,0.0515000167243067,0.035867843794788,1.52864238906921,-0.414619342787802,-0.4211130105801,-0.962484603712632,-0.298908401191421,0.198363526450565,2.91832035814038,-0.103704871085889,-0.445812169426426
67.215,-0.514478178040878,0.218454276310531,0.800801797384072,0.714699111783613,0.0868310018224367,0.0114649486206157,-0.973970132087236,0.205188153822871,-0.152521539238762,1.71685793633381,0.638762198064493,-0.40027756894764,-0.952355185237715,0.0529741007358978,0.0453692963723774,1.56172329143617,-0.422743542576385,-0.409979127198425,-0.961430062809744,-0.300111425493641,0.198594332901141,2.8922463752608,-0.106462187275714,-0.410447662846485
67.22,-0.517790452780285,0.217005045422505,0.802511994489711,0.71970000730702,0.103761769530724,0.0192017729448733,-0.978376829412661,0.199009374972441,-0.15418588814421,1.74821279491329,0.659024493707493,-0.404051969660741,-0.952532494433738,0.0541938338564932,0.0548625577341275,1.59002126019731,-0.432032880927773,-0.399142238833038,-0.959239621324946,-0.296699921262544,0.196836358308778,2.85939070260389,-0.108346537818158,-0.374416054494963
67.225,-0.521723603915575,0.216157694152789,0.805363201576905,0.720392975129857,0.121924571003997,0.0268139552366723,-0.982593464870557,0.194215251851793,-0.154899457394014,1.77421641089625,0.680141444106148,-0.408505951941308,-0.952806723163086,0.0546999642783154,0.0640684192264505,1.61265242562176,-0.442451418809245,-0.388715244248826,-0.955917479361015,-0.288747794150801,0.193208784946685,2.82005246105759,-0.109867895684078,-0.338629973112699
67.23,-0.526187155879774,0.216125674226481,0.809320491404324,0.716292648958287,0.140833295443648,0.0338532404838968,-0.986401180580256,0.191102765757111,-0.154711254762902,1.79395825756766,0.701987195490911,-0.413633385732043,-0.953111724292732,0.0542088634881647,0.0727161560958587,1.62868995150142,-0.453924576657105,-0.378889198187053,-0.951475378472307,-0.27644457009717,0.188009145047196,2.77460953921095,-0.111557557449763,-0.303997508828395
67.235,-0.530950506779099,0.217095044923682,0.814179024356669,0.707052600463522,0.159940482750724,0.0398815365588885,-0.989609502994745,0.189663703338212,-0.1538460480187,1.80668866174328,0.724383292616788,-0.419405425373694,-0.953341975582889,0.0526353581144289,0.0805803500342141,1.63737298267934,-0.466333924847168,-0.369888143368181,-0.945923518662788,-0.260118210034974,0.181768295266068,2.72351462199392,-0.113898155552541,-0.271376956356701
67.24,-0.535725542178398,0.219128933609591,0.819664917909895,0.692604201975628,0.178689357290462,0.0445860075705697,-0.992073712588332,0.189611019146754,-0.152671444391916,1.81201608066865,0.747120108787433,-0.425771093136113,-0.953366268674827,0.0500077492742785,0.0874987387341044,1.6383074630969,-0.479523703705405,-0.361923238490401,-0.939303636079147,-0.240238362093382,0.175147253629604,2.66728932827087,-0.117253447487731,-0.241519861967911
67.245,-0.540295159084339,0.222105063160692,0.825564845095906,0.673166480643112,0.196530386760923,0.0478119464947554,-0.993709979706005,0.190531548008936,-0.151600377845126,1.80995565984014,0.769968737794109,-0.432669112718626,-0.953075439589183,0.0463204021510337,0.0933754017123232,1.63151469949165,-0.493321628066364,-0.355180240729491,-0.931726188721548,-0.21736088700125,0.168762712548049,2.60650865183884,-0.121849628232238,-0.215030732775121
67.25,-0.54456725424179,0.225742750934559,0.831764293219383,0.649137254536718,0.212916281607349,0.0495165797225062,-0.994502773913182,0.192013254431802,-0.15101690671787,1.80082390028603,0.792683360586145,-0.440044156474753,-0.952418255523371,0.0414729614857624,0.0981784301740926,1.61732350966301,-0.50756237980451,-0.349834340645108,-0.923372422364509,-0.192058369342631,0.163099258932289,2.54178570977807,-0.127798197944427,-0.192363441094377
67.255,-0.548543674908496,0.229668091005894,0.838195774547693,0.620992843570165,0.227311701584003,0.049713395843577,-0.994502453064675,0.193677645728983,-0.15126314241859,1.78513239934454,0.81500435926343,-0.447855972181997,-0.951408213009298,0.0353139209828032,0.101931126703906,1.59626212085749,-0.522101779784209,-0.346058622699595,-0.914481966099711,-0.164890773377627,0.158489305419917,2.47376201008915,-0.135119250678966,-0.173834772198901
67.26,-0.552281335276796,0.233483248689486,0.844795822546478,0.589234737792097,0.23922390962906,0.0484308500445742,-0.993812161672313,0.195202683139338,-0.152633672601962,1.7635313876623,0.836661612249452,-0.456081460976297,-0.950121378784923,0.0276649954400882,0.104693793631121,1.56900043487521,-0.536823185837727,-0.344027460737251,-0.905348021627525,-0.136395876809757,0.155086249728994,2.40309394074115,-0.143769543964212,-0.159636429700605
67.265,-0.555863383364885,0.236857587051458,0.851511749356074,0.554342088385791,0.248229794896886,0.0456830456823743,-0.992563145774689,0.196356094931324,-0.155355515450877,1.73674301998174,0.857372461196862,-0.464715274287793,-0.948682612599064,0.0183040631601106,0.106546812198561,1.53628176059701,-0.551640533913832,-0.343927845614439,-0.896295855070522,-0.107075900506734,0.152885795338838,2.33043666653918,-0.153681988259293,-0.149850766698097
67.27,-0.559372963500921,0.239588974197397,0.858323186008654,0.516735495493299,0.253977516978084,0.0414801284473723,-0.99088995156142,0.196998854179742,-0.159568413962981,1.70548439392852,0.876837778772437,-0.473770138076598,-0.947236477260176,0.0069857475332373,0.107580100231646,1.49884511565256,-0.566498414526661,-0.345967404355485,-0.887641607283983,-0.0773965775854757,0.151816967080963,2.25643600037883,-0.164787555129204,-0.144469633975707
67.275,-0.562895460429938,0.241559851561755,0.865248668969251,0.476758123486944,0.256174331973299,0.0358491894662689,-0.988921588452351,0.197084497495806,-0.165296226793802,1.67041021048049,0.894746916658324,-0.483275743215616,-0.945925538161055,-0.00647767118645247,0.107876980955926,1.45736882310098,-0.581368729639726,-0.350361595621833,-0.879665345300374,-0.0478038855792,0.151815797801815,2.18173646137281,-0.177008915995049,-0.143409148518069
67.28,-0.566511981477222,0.242677332985006,0.872311086276192,0.434648453228159,0.254580876810207,0.0287997656480583,-0.986786919080242,0.196632932788541,-0.172453653543833,1.63206722125878,0.910798073718745,-0.493276705112178,-0.944880021388549,-0.0221418550080126,0.107512761261733,1.41242684349872,-0.596244637875324,-0.357297733895377,-0.872600304945185,-0.018736234729187,0.152854523367931,2.10700792377299,-0.190244591796144,-0.146519166265091
67.285,-0.570226350036763,0.242923556479567,0.87945312923347,0.390556554201442,0.249029641879739,0.0203021603704233,-0.984624504394736,0.195634307572547,-0.18093363491614,1.59090857346774,0.924718858572787,-0.503825102251672,-0.944211113999293,-0.0399264658898301,0.106603891846991,1.36450520417216,-0.611131900278051,-0.366898328708122,-0.866616988073395,0.00939908910599174,0.154949525341366,2.03296600796373,-0.204350395637187,-0.15359032656635
67.29,-0.573929830546764,0.242417224590261,0.886527983634245,0.34464678870312,0.239473731852655,0.010359234812054,-0.982581615863538,0.194023589967885,-0.190644600200861,1.54739758556423,0.936266481214215,-0.514962947796925,-0.944017365425305,-0.0596764926015784,0.10534657827823,1.31410755822089,-0.626037757072215,-0.379211575809109,-0.861816309013099,0.0362710239106193,0.158116174223104,1.96035482146527,-0.219124631217906,-0.164370953103962
67.295,-0.577489066068284,0.241355402726569,0.893426151419157,0.297145488335978,0.226003176825115,-0.000941587491976814,-0.980790188614021,0.191811783604614,-0.201409151522732,1.50203409265758,0.945218296699664,-0.526709706681931,-0.944392440487295,-0.0812099657433291,0.103964740858905,1.26178149707656,-0.64096221024634,-0.394226987226929,-0.858248158618723,0.0616203045831412,0.162291260220863,1.8899099579457,-0.234320709804314,-0.178600168432878
67.3,-0.580818095191733,0.239925542097912,0.90013860597945,0.248262116133625,0.208796493263178,-0.0134862657427802,-0.979339252393899,0.18917021616395,-0.212896262633231,1.45523688482507,0.95137751942104,-0.539065288763953,-0.945405621968253,-0.104274494173493,0.102628418482051,1.20799935077914,-0.655893384453395,-0.411885242573658,-0.855931936179835,0.0851827407734242,0.167325836300509,1.8223415646241,-0.24968136818308,-0.196033585141923
67.305,-0.583845521840806,0.23830397521235,0.906663826507627,0.198132869455595,0.188078658464053,-0.0272089937257144,-0.978266313086203,0.186359808207777,-0.224692897656461,1.40727450701246,0.954594919531299,-0.552012629812442,-0.947066977356623,-0.128473463378379,0.101431108446451,1.15308848584958,-0.670802298860552,-0.432062409855142,-0.85486196447341,0.10660479211139,0.173059808550757,1.75834073624235,-0.264957650896417,-0.216435233411544
67.31,-0.586465260212328,0.236705350149394,0.912909041871577,0.146855187566825,0.164122220098317,-0.0421052129132127,-0.977563574036179,0.183640758535811,-0.236402309142037,1.35831563033465,0.954790510888301,-0.565511277323675,-0.949312150064743,-0.153272689586773,0.100412670056728,1.09728285150886,-0.685636937955275,-0.454541875890691,-0.855010612593275,0.12541029036965,0.179393347212151,1.6985865993408,-0.279898234201052,-0.239542758646789
67.315,-0.588529306102382,0.235406545137188,0.918670504883807,0.0945503257571252,0.137267358585126,-0.0582003614859606,-0.977188895860745,0.181238902994595,-0.2476909217566,1.30850810145095,0.951965499424467,-0.579489108354965,-0.952011214857602,-0.178065629388609,0.0995826541235517,1.04080323866912,-0.700318848958787,-0.478994652138153,-0.856339221379792,0.141017911228643,0.186303161003652,1.64373796929347,-0.294222441741545,-0.265028443734231
67.32,-0.589866812459218,0.234727720622623,0.923661720817866,0.0414153615015144,0.107939698626804,-0.0755107755849558,-0.977076907305101,0.179339506358089,-0.258298314611335,1.25804316117244,0.946206192628766,-0.593836783080182,-0.954983288418074,-0.202221566419831,0.0989268208993602,0.983921872838686,-0.714743366293459,-0.504971264447523,-0.858813230368505,0.15277786356767,0.19381942803302,1.59440984377106,-0.307593827667635,-0.292465939110968
67.325,-0.590321453668642,0.23498563611244,0.927570226619264,-0.0122433742870516,0.0766583560020646,-0.0940160536522751,-0.977151961082681,0.17810113307603,-0.268016730600142,1.20720271820151,0.937686088769924,-0.60840640774374,-0.958014570967675,-0.225117654132059,0.0984081790536149,0.927009336395771,-0.72878359545463,-0.531896396781343,-0.862412792281274,0.160018031130945,0.202003218800084,1.55114722746894,-0.31959881131192,-0.321301678094958
67.33,-0.589804768787109,0.236434250870146,0.930154417606457,-0.0660184039985183,0.0440276212095068,-0.113662252858544,-0.977343499349446,0.177704198635055,-0.2766311495872,1.15635755562818,0.926668541133674,-0.623016152317523,-0.960889044377471,-0.246191779965456,0.0979762875774308,0.870531704693764,-0.742295671169515,-0.559063405106684,-0.867132732182074,0.162114841696879,0.210937073203904,1.51441041627452,-0.329728556519779,-0.350844183974027
67.335,-0.588279256114497,0.239231762559617,0.93128251192427,-0.119475547514191,0.0106975658716937,-0.134410693755168,-0.977596305598624,0.178347655334369,-0.283886966416709,1.10587682549732,0.913506185248242,-0.637462628544594,-0.963412546204262,-0.264974511469364,0.0975760545587919,0.814957968132114,-0.755121845126969,-0.585636270591767,-0.872996077655366,0.158523711027863,0.220681424302928,1.48456838555856,-0.337365777505943,-0.380287316891291
67.34,-0.585639985205019,0.243464958109435,0.930805489065069,-0.172198788612503,-0.0226558075368365,-0.156258022202668,-0.977868327663702,0.180125636849135,-0.289570269802608,1.0560764362785,0.898626739534114,-0.651534161349594,-0.965409824154952,-0.281052952444673,0.0971423189463688,0.760704920154085,-0.767097283421328,-0.610673621471195,-0.88010366805231,0.148699344528745,0.231164520070414,1.46187800558027,-0.341804088588878,-0.408722514804827
67.345,-0.581702334887352,0.249161544228519,0.928485028417472,-0.223728266469937,-0.0552840116478207,-0.179170964830623,-0.978122106202339,0.182974086857779,-0.293578588740587,1.00731377123975,0.882504487961458,-0.665018299883154,-0.966722448914941,-0.294060035517513,0.0965863058761383,0.708226279723544,-0.778066958297003,-0.633179860727115,-0.888652180962151,0.132053430270956,0.24214897280216,1.44644818046723,-0.342319299513099,-0.43509912889294
67.35,-0.576346342491097,0.256233256523053,0.924134425419925,-0.273543552356597,-0.0863485409373277,-0.203052813299925,-0.978327569299438,0.186756170651464,-0.295873777074007,0.960026473907416,0.865640298469449,-0.677714374833844,-0.967223123262815,-0.303722248060605,0.0958059344532322,0.658045277866629,-0.787902023116763,-0.652150343076306,-0.898872465831927,0.108060219714323,0.25334245199225,1.43822021635609,-0.338222744043665,-0.458199710054691
67.355,-0.569569874518265,0.264442110572251,0.917679935029123,-0.321136949356882,-0.114972105441892,-0.227782129384161,-0.97847668660285,0.191250570012434,-0.296487742220345,0.914654997118116,0.848557549566348,-0.689452099163163,-0.966824360237391,-0.309857012621805,0.0947343322221824,0.610672229280843,-0.796508452443129,-0.666593581090498,-0.910976898658082,0.076347921409284,0.264419467376863,1.43697047612573,-0.328866578360868,-0.47666990284455
67.36,-0.561452496511774,0.273428787357572,0.909057968242988,-0.366013503703816,-0.140255057949036,-0.253206234361099,-0.978594773419204,0.196068464696056,-0.29562156384554,0.871664045757535,0.831791939255585,-0.700098793745448,-0.965489095765336,-0.312353990128043,0.0933874435399757,0.566620638811765,-0.803835504878419,-0.675568611343671,-0.925150842407309,0.0367254009572739,0.27493893231691,1.44230461641848,-0.313682003445348,-0.489050717559596
67.365,-0.552212026295516,0.282714460257235,0.89821231968156,-0.407650541836935,-0.161253660608394,-0.279113144616434,-0.978748437056712,0.200704112298268,-0.293655447582447,0.831612692374359,0.815872739411728,-0.709558619113706,-0.963255428599022,-0.311233241134207,0.0918803075343932,0.526471384900323,-0.809883062407144,-0.678242648660274,-0.941517855775747,-0.0107329611316921,0.284397443803489,1.4536396328985,-0.292239952693943,-0.493816229778077
67.37,-0.542284684484506,0.291696580672107,0.885182366933096,-0.445535512269575,-0.176990574207373,-0.305267539104324,-0.979055020772382,0.204633675134179,-0.291092533804337,0.795111767759623,0.801310345534268,-0.717777437856802,-0.960254968965338,-0.30670336770831,0.0904320479623439,0.490825940084305,-0.814701727391071,-0.673935100375277,-0.960088231590095,-0.0655768003175817,0.292334319380473,1.47020171550195,-0.264265409621491,-0.489453739758896
67.375,-0.5323216869902,0.299716045977352,0.870128039149124,-0.479222655798558,-0.186486447045885,-0.331461869512727,-0.9796825965137,0.207352437533552,-0.288548840771968,0.762747600572241,0.788588871402987,-0.72474581804824,-0.956710290237059,-0.299150098261862,0.0893669345624485,0.460228200101946,-0.81838676421623,-0.662147366630968,-0.980735757941389,-0.126941111744642,0.298338078997179,1.49104903852779,-0.229636340627846,-0.474570008020012
67.38,-0.523150702684448,0.306144309571181,0.853326902034896,-0.508351723771742,-0.188793279745491,-0.357540314639583,-0.980832092863405,0.208414034114896,-0.286742133582654,0.73504895084184,0.778159515217854,-0.730491798437854,-0.952913669259423,-0.289100975301735,0.0890896733503275,0.435131783106752,-0.821067077581538,-0.642584522066154,-1.00318506879436,-0.193573721071552,0.302077076872691,1.51510624170878,-0.188388225168674,-0.447994544983619
67.385,-0.51573004390641,0.310431570687975,0.835185996852003,-0.532659284694708,-0.18304331412626,-0.38342668950927,-0.982719353711732,0.20748900280846,-0.286440114573033,0.712462653871679,0.770436765257232,-0.735068276501729,-0.949205779228016,-0.277197839377827,0.0900434338803993,0.41587895393996,-0.822890069294425,-0.615158532178293,-1.02701091705057,-0.263884062396083,0.303362206532383,1.54119862994873,-0.140688467757048,-0.408866947730217
67.39,-0.511060313359857,0.312156754322355,0.816218751800938,-0.551990373634076,-0.168503533912981,-0.4091645254454,-0.985574622369219,0.204405337191746,-0.288400626055962,0.695328552342828,0.765793332678282,-0.738538235028612,-0.945974060695232,-0.26416546238837,0.0926741645755679,0.402681161275164,-0.824004640980967,-0.579978300117181,-1.05167926250556,-0.335998750758051,0.302103240619407,1.5680878775281,-0.0867988265926561,-0.356708882197255
67.395,-0.510062612986347,0.311103989851505,0.796976586802057,-0.566290111112074,-0.144604227956211,-0.43494179308562,-0.989643622790041,0.199175873259678,-0.293314421940477,0.683872065261953,0.764547338901098,-0.740956803029586,-0.943655131849317,-0.250768522636059,0.0973960653486812,0.395618596326327,-0.824543877013185,-0.537339893995624,-1.07661063948942,-0.407839425304969,0.298212878411439,1.5945198604263,-0.0270711214254578,-0.291481185890447
67.4,-0.513478618271543,0.307321815608099,0.777999647612949,-0.575575134361187,-0.110939365246597,-0.461091997285756,-0.995172116603225,0.192023060929228,-0.30174238931895,0.678212998177127,0.766944444784136,-0.742351077486281,-0.942717454414126,-0.237758038216639,0.104553449980585,0.394657296354493,-0.824607875707257,-0.487714283314141,-1.10122237248132,-0.477215677920216,0.291586139920509,1.6192819254031,0.038035000530619,-0.213618395063532
67.405,-0.521810710736969,0.301135341695155,0.759815944106011,-0.579901902095739,-0.0672674429887501,-0.488086406878525,-1.00238160879208,0.183386075273935,-0.314053404957633,0.678377113862329,0.773141948772483,-0.742700330817216,-0.943629502727079,-0.22581217110345,0.114390225326469,0.399670201673884,-0.824247140600536,-0.431724667125213,-1.12494952599121,-0.541910881596519,0.282131352310421,1.64125429150705,0.10794331134027,-0.124039291919006
67.41,-0.535285521308891,0.29312041601599,0.742951559068952,-0.579340205328904,-0.0135252905733906,-0.516522576901979,-1.0114473770967,0.173898647814235,-0.330378042646159,0.684306266096811,0.783197118081347,-0.741919330174856,-0.946827626478516,-0.215484725098123,0.127033231618759,0.410457154597402,-0.823448506171214,-0.370115170541298,-1.14726649806751,-0.599758921401117,0.2697868729453,1.65944841585592,0.181962293282785,-0.0241358885099274
67.415,-0.553836861433516,0.284048325964783,0.727925149326596,-0.573952884005139,0.0501523807342498,-0.547107809976146,-1.02248033546991,0.164343971814205,-0.350584871140095,0.695867299177844,0.797058768427615,-0.739846744808072,-0.952687764801547,-0.207173177302062,0.142486495371077,0.426763259361194,-0.822125555310399,-0.303716601249717,-1.16771678556294,-0.648721322866491,0.254516056007768,1.67303482671524,0.25928857216213,0.0842566099181248
67.42,-0.577108590562818,0.274809246922615,0.715232951575577,-0.563785084121289,0.123415845733495,-0.580640807034289,-1.03551322046757,0.155599821455723,-0.374273113177018,0.71285623145461,0.814561889162382,-0.736240604632058,-0.961501963181526,-0.201109014624111,0.160626032565903,0.448291542304046,-0.820114932072126,-0.233412781850508,-1.18595594386812,-0.686980546259451,0.236268239062616,1.68136714007776,0.339008097242325,0.198908271711284
67.425,-0.604474148557649,0.266345760209832,0.705349251771725,-0.548868755337227,0.205688808358339,-0.61799318882139,-1.05048848650567,0.148587858195879,-0.400777302919927,0.734990932143849,0.835425149125402,-0.730783561669508,-0.973458149608344,-0.197380271855509,0.181195820638561,0.474701947595773,-0.81718028077259,-0.160114251064161,-1.20179217603551,-0.713025572367765,0.21491668543972,1.68400968758633,0.420080188804853,0.3172658062414
67.43,-0.635098727087266,0.259607035756447,0.698720020757232,-0.529243960431018,0.296147970373232,-0.660082039440648,-1.06722765662142,0.144216042800666,-0.429227087704014,0.761886925411598,0.859249200731029,-0.723096631406004,-0.988614006142529,-0.195974042422036,0.203835610564657,0.505590965578261,-0.813021469367437,-0.0847457238974176,-1.21517399231208,-0.725666299173458,0.190286624211837,1.68076024152702,0.501308759422981,0.436536373718823
67.435,-0.668013607726294,0.255475010780068,0.695724827076771,-0.504979074442366,0.393692710610308,-0.707826664581167,-1.08540926261656,0.143286327911867,-0.458638953434583,0.793038295333483,0.885518141763045,-0.712752720389209,-1.00686657233582,-0.196788187587748,0.22814862076298,0.540476434914504,-0.807282627841143,-0.0082327088366827,-1.2261294097171,-0.724007315667691,0.162309499873407,1.67164728651765,0.581355409107391,0.553758077597198
67.44,-0.702147548265673,0.254644360400422,0.696654838811918,-0.476174952828958,0.496937842186608,-0.762107309181044,-1.10459660336661,0.14639470259585,-0.487955183744863,0.827832761569816,0.913610296953963,-0.699287470814617,-1.02794189025415,-0.199625397036504,0.253743553518059,0.578817705572994,-0.799560406375573,0.068529623010218,-1.23475043862751,-0.707506341532234,0.131107303225055,1.65690873983043,0.65881460481614,0.665860256353912
67.445,-0.736370235479253,0.257525520248513,0.701716347999164,-0.44297925975234,0.604234317969112,-0.82373949852444,-1.12426495634244,0.153881761288329,-0.516072909839366,0.865571414912387,0.942813346713134,-0.682220493752135,-1.05141465991062,-0.204239577331443,0.280206050608994,0.620037258860839,-0.789422410632356,0.144703238911874,-1.24124936403529,-0.676125426745144,0.0969071557386973,1.63698292282126,0.732278035740021,0.769750482881558
67.45,-0.769558839706767,0.264224075645509,0.711028679065142,-0.405633341376988,0.713692236632931,-0.893448388029867,-1.14380534615056,0.165812818972735,-0.541918219528641,0.905453270570149,0.972335018583353,-0.661093748593662,-1.07672958537545,-0.210401616142209,0.307069543124703,0.663500999403238,-0.776436910010232,0.219506620491049,-1.24597934223173,-0.630429122548927,0.0599841916059156,1.61251494278681,0.800350084010753,0.862440059014375
67.455,-0.800644189188149,0.274569270308999,0.724607570082811,-0.364507528247407,0.82320642416372,-0.971826058194402,-1.16253903093404,0.181927185684994,-0.564560376347087,0.946580966819247,1.00131411491205,-0.635509185383976,-1.10320104173773,-0.217889700025314,0.333858997763325,0.70851715345972,-0.760203966045234,0.29220781896432,-1.24935288382031,-0.571553228601189,0.0207367834348411,1.5843483172909,0.861675736668593,0.941177437738618
67.46,-0.82864662668647,0.288161245683667,0.742349096427149,-0.320068156057708,0.930493795651352,-1.05927297552519,-1.17974633700643,0.201604375724937,-0.583317211731328,0.988071259953191,1.02884049944699,-0.605144119127227,-1.13001611042439,-0.226428536722189,0.360155914753181,0.754440862253695,-0.740382336494937,0.362133698071626,-1.25173850173365,-0.501135724543226,-0.0202589676477348,1.55348370401576,0.915013977120459,1.0035644620675
67.465,-0.852708840505322,0.304432525237011,0.764029122507985,-0.272803318835546,1.03313973033673,-1.15594396531447,-1.1947022734266,0.223945436118538,-0.597764149472507,1.02922058567783,1.0539819610249,-0.569749379617528,-1.15628049456352,-0.23569388441433,0.385596932559237,0.800833093842747,-0.716714003957111,0.428684966902818,-1.2534282982739,-0.421302424512581,-0.0622751100325487,1.52102270201571,0.95931180261399,1.04766096057479
67.47,-0.872115893013108,0.322713074540239,0.789309083327097,-0.223184488839252,1.12865562039894,-1.26172282432992,-1.20671592076857,0.247935728080061,-0.607659657195851,1.06959032620719,1.07580770709055,-0.529152470657196,-1.18109774323971,-0.245399227372135,0.409826122600549,0.847536147035735,-0.689046481939357,0.491340685232576,-1.2546498869842,-0.33465422664326,-0.104431539160008,1.48811959185712,0.993754458398391,1.07208622653616
67.475,-0.886297428436146,0.342306010019745,0.817739348803285,-0.17167676137041,1.21455035915974,-1.3762264977782,-1.21517082265034,0.272555138762661,-0.612898994796834,1.10898440908264,1.09340490412243,-0.483270188850461,-1.20363007972011,-0.255329878106928,0.432488688787359,0.894639434093064,-0.657348298627131,0.549655034175613,-1.25554704433593,-0.244165384202516,-0.145686713281353,1.45593645337288,1.01781502843052,1.07610219137639
67.48,-0.894815245580239,0.362600294507409,0.84874769497625,-0.118724761231755,1.28840984369247,-1.49880754373374,-1.21955786276256,0.296804730896687,-0.613543561813354,1.14743637124183,1.10589898790041,-0.432110090504398,-1.22311820563229,-0.26525572037278,0.45328078665655,0.942455160390082,-0.621715978038436,0.603259315534413,-1.2561324280876,-0.153019773271192,-0.184931044570088,1.42558873459645,1.03129776265824,1.05966104140399
67.485,-0.897354526580526,0.383185766531749,0.881614640693494,-0.0646667451300833,1.3479815524789,-1.62853388849122,-1.21949198195988,0.319769479121959,-0.609832819171024,1.18527751488414,1.11248314823422,-0.375746335513757,-1.23889875332702,-0.274869878126424,0.471982123565081,0.991576730696335,-0.582374545743613,0.651869422155595,-1.25627353878117,-0.0644485163501969,-0.221108222909647,1.39808423911435,1.03434254619944,1.02342011949835
67.49,-0.893735706013987,0.403887135616007,0.91548133323014,-0.00964916402958038,1.39126242179874,-1.76418623063812,-1.21471942573393,0.340749974869017,-0.602104250066132,1.2231711522961,1.11244545867807,-0.314288014233323,-1.25044395987567,-0.28385313410114,0.488441526793733,1.04290507013516,-0.539667593424998,0.695288829410064,-1.25571947208529,0.0184430669672399,-0.253227154182934,1.37426604272532,1.02740556556048,0.968719447485074
67.495,-0.883928480575907,0.424723892866806,0.949398461618791,0.0463876874468105,1.41657584171878,-1.9043033256133,-1.2051228534486,0.359325656146597,-0.590707117502243,1.26202193603575,1.10518853249872,-0.247861959708343,-1.25738473783469,-0.291938161189278,0.502568270957572,1.09755178123251,-0.494033817669495,0.733408225043368,-1.25412696092056,0.0928628743717871,-0.280342546064944,1.35476531891135,1.01124962194922,0.897507926411669
67.5,-0.86804687877934,0.445860822287633,0.982356375651347,0.103697644528371,1.42263042138237,-2.0472355413687,-1.19071856049297,0.37530743178234,-0.575989970147013,1.30285240672421,1.09024797227817,-0.176603782268518,-1.25950110711084,-0.298903497159222,0.514346951877115,1.15671090912197,-0.445978058574653,0.766205216685428,-1.25108892712757,0.156484628679495,-0.301618417318912,1.33996601815347,0.986928488833399,0.812229970441038
67.505,-0.846336493684413,0.46754595209006,1.01328319656218,0.16272606900634,1.40857335381408,-2.19118446546944,-1.17164652757555,0.388673051162746,-0.558312099771363,1.34671025351736,1.06730759274026,-0.100649955521945,-1.25671301987296,-0.304576242964878,0.523842427682963,1.22156223389407,-0.396043583240326,0.793736689135474,-1.24619126697868,0.20754536342841,-0.31642150043844,1.3299835122383,0.955741500367217,0.715694799354968
67.51,-0.819168737443753,0.490021955229388,1.04105630840804,0.224090987138815,1.37404467942086,-2.33424677304698,-1.14815971524371,0.399515236896385,-0.538040052988935,1.39457456321221,1.03620634066406,-0.020137735264133,-1.24907901287562,-0.308861116021623,0.531191012943052,1.29317396733887,-0.344785279847502,0.816120551366742,-1.23907927724107,0.244905365163311,-0.324376738203485,1.32465890458348,0.91916616843256,0.610936396277967
67.515,-0.787034723926211,0.51344271565658,1.06453767381557,0.288538958312114,1.31922130350401,-2.47446564320357,-1.12061476215264,0.407976620980088,-0.515551228474901,1.44725805792243,0.996938627293354,0.0647854398003909,-1.23679023705176,-0.311756677354864,0.536593658433691,1.37240180009282,-0.29274409012296,0.833512004868864,-1.22950999023819,0.268075987812039,-0.325396064128582,1.32356832286108,0.878781965495026,0.501068280085714
67.52,-0.750527931498434,0.537824217641957,1.0826077115654,0.356890767575983,1.24484662977897,-2.60987465928809,-1.08946628718871,0.41417455330949,-0.491258677651312,1.50533069033827,0.949649236069404,0.153947086450036,-1.22016122998403,-0.313355257150961,0.540312001257255,1.45980953109017,-0.240426059448642,0.846077550799682,-1.21739144487904,0.277206587658986,-0.319695837378778,1.32604851885891,0.836188291383603,0.389143065259539
67.525,-0.710327790710528,0.563026293834815,1.09420120897658,0.429992701934388,1.15225060312449,-2.73852186399383,-1.05525994746123,0.418149603989309,-0.465642049172,1.56908202619538,0.89462257644138,0.247133748219247,-1.1996199258983,-0.313839862975066,0.542659618951982,1.55562860504274,-0.188289110138405,0.853968115374946,-1.20280266648965,0.273040895555197,-0.307784911118681,1.33123862137897,0.792919705662673,0.278028632726944
67.53,-0.667179613876286,0.588736718012125,1.09836268345657,0.508669595891435,1.043349217095,-2.85848681610817,-1.01860005969521,0.419859496919824,-0.439244756899643,1.63851257186114,0.832267855611752,0.344076719422899,-1.17569553313101,-0.31348288857566,0.54398079232753,1.65974734589372,-0.136734979990167,0.857294595109983,-1.18598468026912,0.256859615621702,-0.290406083851892,1.33812938841278,0.750371857422833,0.170301665923037
67.535,-0.621867677366466,0.614461442569441,1.09433759561848,0.593665651172629,0.920603022420613,-2.96791319719009,-0.980110116378285,0.419200351884886,-0.412641643014024,1.71333384968912,0.763100759642131,0.444439382798553,-1.14899739477549,-0.312631701294864,0.544613521534692,1.77171046929946,-0.0861023272641722,0.856108938683475,-1.1673097945018,0.230383578336263,-0.26845470922087,1.34561358683557,0.709749754631435,0.0681564758424597
67.54,-0.575199800894888,0.639545267703268,1.08168613939707,0.685578144421906,0.786925023965905,-3.06505402565927,-0.94042357490343,0.416029076363688,-0.38641586773684,1.79298174689837,0.687723456400823,0.547806417740551,-1.1201789586419,-0.311663969926894,0.544840428330408,1.89073300015115,-0.0366633340055158,0.850393481561459,-1.14724091475806,0.195615197865541,-0.242913434966714,1.35254274468394,0.672035206297371,-0.0266564947203923
67.545,-0.527987246760883,0.663201086903622,1.06035025519336,0.784797017270426,0.645549449193596,-3.14831538862759,-0.900178969608144,0.41018464010696,-0.361133658400482,1.8766516385959,0.606808152852514,0.653674824982971,-1.08990115373976,-0.310931087574245,0.544843971952178,2.01573594814697,0.0113721928592185,0.840062690805431,-1.12628694548992,0.154678220973941,-0.214808649630902,1.35779426219958,0.637966003953618,-0.112848549642028
67.55,-0.481017563735111,0.684527383008755,1.03067017297558,0.891453243328831,0.499888824977595,-3.21630659830435,-0.860008095423862,0.401520638001751,-0.337306632825115,1.96334541447982,0.521084486569521,0.761447557259661,-1.05881037900147,-0.31072102306272,0.544684845396997,2.14539427258884,0.057847690741928,0.824977411192433,-1.10495804397939,0.109714999826012,-0.185165560918317,1.36033741924653,0.608027719150735,-0.189579610587519
67.555,-0.435038626362033,0.702531395000583,0.993402884416711,1.00537542924363,0.353386533394709,-3.26791141681273,-0.82052683909392,0.389940400996351,-0.315357662569321,2.05192005556058,0.431326073485492,0.870432895830495,-1.02752052769778,-0.311236457666571,0.544302425833653,2.27818851937921,0.10265098399294,0.804966864696266,-1.08372507589622,0.0628022976184871,-0.154955245530237,1.35928494378365,0.582462995835425,-0.256432169674314
67.56,-0.390749419677678,0.71616562408989,0.949726866127842,1.12606098857254,0.209354855168673,-3.30236973992205,-0.782326376401438,0.375412219351855,-0.295598772798932,2.14114098189154,0.338335733668911,0.979851130923239,-0.996591636647415,-0.312576033633213,0.543526972899086,2.41246358593796,0.14570551269077,0.7798550966238,-1.06299086065328,0.0158536642714698,-0.125056385583725,1.35393241334846,0.561294790741938,-0.313369732327131
67.565,-0.348792028913185,0.724364888140872,0.901194187102519,1.25266806586107,0.0708157236446268,-3.31935212420102,-0.745970344970114,0.357963834365733,-0.278221415856345,2.22974108131467,0.242930361472381,1.08884650139242,-0.966514850239072,-0.314726902827465,0.542100612095573,2.54649450453164,0.18695901391561,0.749489555558854,-1.04307627768608,-0.0294590362380624,-0.0962404232701301,1.34379118393175,0.544354559616962,-0.360678234001757
67.57,-0.30974950645222,0.726088147830898,0.849648636871865,1.38402682157724,-0.0596303903951578,-3.31901935746392,-0.711992812768284,0.337667347861835,-0.263296552260393,2.3164773857273,0.145925680018862,1.19650143136312,-0.937701119766367,-0.317567938926477,0.539704537096407,2.67855062353567,0.226369823395405,0.713770259912269,-1.02421423875155,-0.0717666551685993,-0.0691599771658833,1.32861390565132,0.531312906260526,-0.39889804642729
67.575,-0.274153259059149,0.720377256523064,0.797136648338109,1.51866884262249,-0.179909156814929,-3.30205363292876,-0.680889857318614,0.31462214374716,-0.250786258006276,2.40018114596334,0.0481236544560142,1.30185184819866,-0.910469756352833,-0.320880135474015,0.535992623507537,2.80695358062608,0.263891969113372,0.672679055991186,-1.00654912341674,-0.110056748555388,-0.0443354045567917,1.30841133965885,0.521714696360844,-0.428747159173945
67.58,-0.242489931566007,0.706417994223716,0.745793877149721,1.65487337183019,-0.288552283358262,-3.26965091442825,-0.653108911520642,0.288942826764883,-0.240563475056751,2.47979714712221,-0.0496965195570704,1.40390379181697,-0.885047313702488,-0.324370640898461,0.530632893280656,2.9301250709839,0.299461706938198,0.626305607436013,-0.990146006610211,-0.143686639509092,-0.0221575316032191,1.2834570482164,0.515016495851875,-0.451041990825423
67.585,-0.215197625935644,0.683588886694792,0.697702374327189,1.79072488574372,-0.384735338189544,-3.22348080754209,-0.629038680086772,0.260754289718713,-0.232433416750176,2.55440636995255,-0.146785731054993,1.50165125307118,-0.861576914577249,-0.327705636750993,0.523347657829809,3.046619165093,0.332988771371216,0.574866598223655,-0.975006429771049,-0.17235384697364,-0.00290603214977884,1.25427546988432,0.510621922208406,-0.466629513392397
67.59,-0.192654841598003,0.651510426292211,0.654756645239752,1.92417805632065,-0.468265965464131,-3.16561940391617,-0.608997171565067,0.230192168626933,-0.226156154656725,2.62323325094249,-0.242431063919211,1.59409487603585,-0.840130872658146,-0.330542829815132,0.513943461360363,3.15514054377275,0.364352856598463,0.518717580002157,-0.961086318490488,-0.196053041959303,0.0132347296592875,1.22161514381705,0.507913685761031,-0.476333344245249
67.595,-0.175168603920128,0.610096359672586,0.618560090560772,2.05312718559865,-0.539536611135912,-3.09845064483636,-0.593220163735454,0.197409877895394,-0.221470055368159,2.68563940910703,-0.335960747239321,1.68026102882306,-0.820728362770451,-0.332559151514641,0.502330568466481,3.2545501381497,0.393405327679076,0.458355574993458,-0.948317787048118,-0.215019950101243,0.0261644183753411,1.18641089447479,0.50628143360123,-0.48091346790209
67.6,-0.16295995816189,0.559583975569073,0.590331330622475,2.17547551884763,-0.599448618860801,-3.02454347051879,-0.581852173995296,0.16259217737746,-0.218113081411054,2.74110535034885,-0.426748176906848,1.75922098316834,-0.803353839464437,-0.333467682287226,0.488529873286094,3.34385918346741,0.41997635726631,0.394409925218745,-0.93662962914965,-0.229664269339505,0.0358541951303874,1.14973328387151,0.505142409578284,-0.481041977212658
67.605,-0.15614374589999,0.500544418135071,0.57082496932175,2.28920236733477,-0.649302194745076,-2.946524541138,-0.57493837751519,0.125968177038244,-0.215840332577905,2.78920859657558,-0.514214621027196,1.83011098698096,-0.78796739618697,-0.333028041435406,0.472669851049158,3.42221982744835,0.443885679371425,0.327623978625244,-0.925955256859493,-0.24050588410408,0.0423414988636491,1.11272719961414,0.503955916690538,-0.477291001010571
67.61,-0.154705344125755,0.433892702431827,0.560307439691593,2.39242867669074,-0.690663535822183,-2.86694889631223,-0.572422360236892,0.0878151283448141,-0.214435131992086,2.82960434528245,-0.59783110065162,1.89215345954066,-0.774513684616244,-0.331060873363054,0.454989519396343,3.4889183762413,0.464955192646285,0.258832809390388,-0.916228250128831,-0.24809737565337,0.0457364220299946,1.07655693264963,0.50223597912078,-0.470132312733261
67.615,-0.158477804683754,0.360885292878098,0.558593248780544,2.48347923956725,-0.725232267422104,-2.78816254922938,-0.574154439866418,0.0484587599110293,-0.213706521798711,2.86200580847233,-0.677121847991149,1.94467858400535,-0.762936961966544,-0.327460175183752,0.435844884822799,3.54336829506875,0.48302413819514,0.188937428417871,-0.907376616003642,-0.252936217998886,0.0462371002565248,1.04236967800393,0.499562377415166,-0.459960807804288
67.62,-0.16712571786284,0.283074459336595,0.565104371167855,2.56093555673829,-0.754720514000469,-2.71217490225699,-0.579900718636345,0.00828002881339838,-0.213476028815521,2.88616334291057,-0.75167099807478,1.98714512828762,-0.753187386738447,-0.322186604446666,0.415681942985782,3.58510132157488,0.497966458936013,0.118874597938468,-0.899327022055986,-0.255455818761233,0.0441557723917548,1.01126148720278,0.495594144523239,-0.447135811025702
67.625,-0.180151288461362,0.202214520822199,0.578926702556338,2.62367637333722,-0.780746527730535,-2.64056931579909,-0.589342434311147,-0.0322813172099166,-0.21357468674721,2.90185487981428,-0.821129915989495,2.01915785521315,-0.745206020329378,-0.315243169510942,0.394969598393471,3.61376638297658,0.509703115980283,0.0495854937217551,-0.89202355028958,-0.256122115785253,0.0399163348603255,0.984229766269115,0.490089867383339,-0.431996455005038
67.63,-0.196930267854094,0.120154017267736,0.598874757142945,2.67090786925332,-0.804746121703794,-2.57446236761437,-0.602075852152815,-0.0727317242235243,-0.213853812060535,2.90889839835247,-0.885221083332962,2.04048001218298,-0.738911608876644,-0.306660548465349,0.374152259643396,3.62914461580176,0.518203597844091,-0.0180147590087104,-0.885443816463495,-0.255475332977163,0.0339894088411894,0.962126288458402,0.482917301447386,-0.414832921236274
67.635,-0.216755696007615,0.0387539534437633,0.623583153065401,2.70217806479485,-0.827907041032656,-2.51450464441997,-0.617630643458774,-0.11252924279518,-0.214186014608492,2.90716699258292,-0.943739543408202,2.05104233694129,-0.734213718694973,-0.296507003237073,0.353661012926101,3.63116343993198,0.523486165385654,-0.0830682005172773,-0.879586546653487,-0.254013752136234,0.0268394534588785,0.945627846170197,0.474040936914264,-0.395868493210813
67.64,-0.238862211377719,-0.0401715602604223,0.651608356276911,2.717372107468,-0.851127675740116,-2.46090753646728,-0.635503089273752,-0.151100509823141,-0.214454683951625,2.89658719618461,-0.996556053492694,2.05094972982983,-0.731029499672248,-0.284893966558777,0.333934587388865,3.61989368695863,0.525626276049848,-0.144803767605735,-0.874442703312006,-0.252082655968751,0.0189413729308456,0.935217591127568,0.463511825136638,-0.375293701303682
67.645,-0.262439739055072,-0.114923441137983,0.681512983141989,2.71670282833091,-0.874995950829469,-2.41348430221982,-0.655183137080501,-0.187877039675385,-0.214552024648825,2.87714311893759,-1.04362084874295,2.04048436830876,-0.72927374983188,-0.271951781054693,0.31539358697237,3.59555027525999,0.524762537947257,-0.202558697722297,-0.869988211265169,-0.249925245613234,0.010792684433095,0.931168839512342,0.451473107274021,-0.3533059245269
67.65,-0.286660859094307,-0.183994812686423,0.711932299582327,2.70070423762636,-0.899787808066811,-2.37170673365788,-0.676167661147693,-0.222327753060856,-0.214385188522679,2.84890623602016,-1.08496334852161,2.02010248647831,-0.728837861354012,-0.257797918476678,0.298387536694473,3.55851283945485,0.521088903516886,-0.25578962960879,-0.866201208783628,-0.247801846072068,0.00287589291198579,0.933537968948455,0.438160086900664,-0.330104044359953
67.655,-0.310728608568171,-0.246133500694524,0.741642620094322,2.67021700230728,-0.925486405234031,-2.33477946083061,-0.697970227599853,-0.253969331319157,-0.213877727777554,2.81207294263101,-1.12068700246893,1.99042314558862,-0.729588713828946,-0.242532268247866,0.283165393644968,3.5093492693414,0.514838793704357,-0.304077762864365,-0.863072803878756,-0.246022404564735,-0.00436885350935833,0.942171188741575,0.42388364339496,-0.305853987870947
67.66,-0.333934798516971,-0.300382951088643,0.769636712370742,2.62635242422581,-0.951826680664382,-2.30172791142141,-0.720135760170797,-0.282365475050466,-0.212967012436521,2.76698100320495,-1.15096199052666,1.9522092571758,-0.731390406021826,-0.226259437277653,0.269886111443514,3.44881676967777,0.506273190982236,-0.34713106597332,-0.860598373819814,-0.244874773646311,-0.0105348823241342,0.956720896772488,0.409013167324477,-0.280667746151526
67.665,-0.355696060619778,-0.346103701075946,0.795160596943564,2.5704348353272,-0.978363545439172,-2.27149312269662,-0.742257198187125,-0.307144264763473,-0.211608538296113,2.71409734964559,-1.17601795940431,1.90634327993479,-0.734120951536318,-0.209099368800806,0.258648011904019,3.377835076769,0.495677286098201,-0.384785002497292,-0.858767816860845,-0.244555608485061,-0.0152596616809738,0.976666149719379,0.393967952449354,-0.25461691585086
67.67,-0.375553178814612,-0.382970218759653,0.817690612480766,2.50394816532938,-1.00453570219391,-2.24301670456296,-0.76398667211508,-0.328036206107808,-0.209789851619616,2.65400876720233,-1.19613615531249,1.85380276029957,-0.737666373286319,-0.191171133873646,0.249506148302888,3.29746273698423,0.483356160545515,-0.417000223681815,-0.857568598159602,-0.245186588810376,-0.0182714567560851,1.00133688108966,0.379202171145361,-0.227754863209396
67.675,-0.393172170061452,-0.41094856260887,0.836914165465592,2.42850087381351,-1.02971339017822,-2.21530245239775,-0.785039949056856,-0.344894726161017,-0.207541360261892,2.58743266484753,-1.21163979540373,1.79563709854234,-0.741916016905862,-0.172587219121342,0.242474846026843,3.20889321643588,0.469622974898596,-0.443853426036454,-0.856992761528827,-0.246850927057282,-0.0194179629757799,1.02994618459962,0.365178772957754,-0.200119571423477
67.68,-0.40836308507953,-0.430272681557582,0.852731843250167,2.34578913993577,-1.05325135959149,-2.18746250655747,-0.80519570304196,-0.357686006562153,-0.20493677010118,2.51521963772635,-1.22288393590042,1.73294232257952,-0.746772508521951,-0.153466983545139,0.237531941507013,3.113444069229,0.454788098131391,-0.465523953862948,-0.857040260578278,-0.249580903800697,-0.0186710321788677,1.06163044997938,0.352344904104468,-0.171734929144898
67.685,-0.421088282865209,-0.441417606901007,0.86523445255472,2.25755100359545,-1.07454538054148,-2.15876059274638,-0.824288998391242,-0.366472208823812,-0.202089610818256,2.43833851384541,-1.23024568221343,1.66683509772665,-0.752157448667954,-0.133942968824911,0.23462727536729,3.01253069205629,0.439153500138344,-0.482281556592147,-0.857719226524049,-0.253340918144051,-0.0161315593338349,1.0954894382278,0.341107253802335,-0.142624350193942
67.69,-0.431447060579002,-0.44504913944437,0.874658039362316,2.16552285041916,-1.09307746401402,-2.12864791824063,-0.842206585020984,-0.371401975699687,-0.199150972922295,2.35785692484243,-1.23411455680378,1.598429311011,-0.75801293722974,-0.114168172079467,0.233694689852795,2.90763787379258,0.423009539622897,-0.49447452795423,-0.859039683622941,-0.258037237550609,-0.0119905807242825,1.13062143523106,0.331807724847653,-0.112825892672129
67.695,-0.439640953969918,-0.441960368424919,0.881334754796662,2.07140476807459,-1.10844595693518,-2.09677432267402,-0.858892285822916,-0.372714790566998,-0.196309515918842,2.27491969627192,-1.23488539377192,1.52881546715213,-0.764308194945442,-0.0943304838631271,0.234667930348798,2.8002921049979,0.406633102928165,-0.502514135521433,-0.861004015769253,-0.263533150752533,-0.00644176789187605,1.16615236685975,0.324722111044701,-0.0824026287009145
67.7,-0.445946014470331,-0.433036208960333,0.885659264399294,1.97683904181327,-1.12037258882758,-2.06296972535949,-0.874348357935625,-0.370745794193552,-0.193784167418829,2.19073153946824,-1.23295458632445,1.45904200688265,-0.771038705568147,-0.0746431272516309,0.237482184812389,2.69204021294398,0.39028353437963,-0.506855310952452,-0.863610940548772,-0.269647336332095,0.000319693467093207,1.20125602836652,0.320083000851766,-0.0514442083576395
67.705,-0.45071746388145,-0.419239765126576,0.888095164455182,1.883386006916,-1.12870637546032,-2.02722084626059,-0.888614896864401,-0.36589080208376,-0.1917959993118,2.1065342212413,-1.22871355264833,1.39009496625831,-0.778214692743941,-0.0553104856443872,0.242049025923959,2.58442177747705,0.374197092440668,-0.507983046958155,-0.866874140521985,-0.276120726346187,0.00796332325042669,1.23517128814969,0.318074995191256,-0.0200704765006549
67.71,-0.454373488843271,-0.401557533419873,0.889152652499757,1.79247730898191,-1.13344951776092,-1.98966405017998,-0.901745813442352,-0.358557881183619,-0.190542926050021,2.02355439150597,-1.22253702806125,1.32287499877501,-0.785853740384558,-0.0365195621207631,0.248242065312834,2.47891168022979,0.358588146015832,-0.506411845156437,-0.870822994047849,-0.28259680686879,0.0159862110546754,1.26722182657274,0.31877910709019,0.0115436386613195
67.715,-0.457310262760489,-0.380909740712773,0.889285862823527,1.70538202792528,-1.13476195342401,-1.95055730655941,-0.913812174064087,-0.349183250128109,-0.190207255056838,1.94295255036431,-1.21477628582726,1.25818090231515,-0.793980528925039,-0.0184705132216478,0.255927119343492,2.37686721420299,0.343653062371317,-0.502684613886653,-0.875473869976444,-0.288663694513977,0.0238956819504706,1.29682375220543,0.322144188615061,0.0431457939795536
67.72,-0.459837998945211,-0.358126947718607,0.888832959523628,1.62321781611326,-1.13290659741279,-1.91020014445522,-0.924919261382527,-0.338264143951342,-0.190956754783639,1.86581114634055,-1.20576280774776,1.19670226070158,-0.802629343388346,-0.00139272691235876,0.264983544602796,2.27951807308244,0.329565053174939,-0.497358306673869,-0.88081707820556,-0.293884838321885,0.0313215169884923,1.32347202191545,0.328031153903685,0.0744160126145008
67.725,-0.462207625653874,-0.333989854257539,0.888076462254851,1.54694979573633,-1.12819070465857,-1.86886759645135,-0.935203699870649,-0.326314685681248,-0.192905513003636,1.79311356056133,-1.19581124322012,1.13900799092886,-0.811843555384809,0.0144843145370721,0.275267717769769,2.1879466229529,0.316467338633068,-0.490989019620127,-0.886836840135803,-0.297767719384751,0.0378921859062625,1.34672415623621,0.336248738044393,0.104977362724339
67.73,-0.464634303898897,-0.309212164736777,0.887299202960644,1.47734740558825,-1.12095191355613,-1.82679336517567,-0.944815757715846,-0.313813889743553,-0.196087777499095,1.725683354586,-1.1852130349651,1.08552864406406,-0.821659832356443,0.0289729579647675,0.286575946949474,2.10302693513592,0.304474092347532,-0.484124793256467,-0.893521922093675,-0.299764657137364,0.0431303856364831,1.36620094768992,0.346530767141844,0.134384400294439
67.735,-0.467262903159631,-0.284389174363777,0.886757038176457,1.41496195675639,-1.11155546792137,-1.78413261148549,-0.953909410839585,-0.301212548037882,-0.200467524673077,1.66414230955881,-1.17422675428437,1.03654504647658,-0.832091411148287,0.0419414336326822,0.298648071374117,2.02538345993996,0.293668465952381,-0.477295566643149,-0.90086049938882,-0.299322944333956,0.0464947285177851,1.38160210700752,0.358505396742979,0.162122694211914
67.74,-0.470163920852579,-0.260031693106214,0.886658264697957,1.36012883646764,-1.10037021216266,-1.74090977995936,-0.962638605264744,-0.288904118755657,-0.205926127166746,1.60889572088511,-1.16307360932408,0.992183194873066,-0.843142811589611,0.0532944218427807,0.311164590840469,1.95537811998302,0.284094811049803,-0.471002447625865,-0.908849142626795,-0.295872775435105,0.0474133523001931,1.39271649313369,0.371681910361462,0.187624874928958
67.745,-0.473394337883094,-0.23663038128565,0.88721311880892,1.31292514637573,-1.08774726290956,-1.69704438429299,-0.97115360223205,-0.277128648239393,-0.212223349318717,1.56008048999141,-1.15193796990456,0.952406871757035,-0.854840641681653,0.062957344591358,0.323727823119349,1.89306122731997,0.27576082466051,-0.465717500107149,-0.917501246228712,-0.288760622637569,0.0452801000079577,1.39941143728544,0.385437402244846,0.210265782630041
67.75,-0.477013826219485,-0.214606852673003,0.888661401024569,1.27309308432342,-1.07402856751982,-1.65244041499123,-0.979603942066931,-0.26594487810443,-0.219001809362981,1.51748034883465,-1.14096616066687,0.917013354004382,-0.867236475262061,0.0708944482867858,0.335888571162092,1.83809173604795,0.26865280248503,-0.461886946211114,-0.926832072214931,-0.277245248907752,0.0394992251010698,1.40161246837091,0.399008544601901,0.229332656242729
67.755,-0.480998366661437,-0.194199627486479,0.891192052735738,1.24002641778233,-1.05954907114941,-1.6070161760151,-0.988142429941083,-0.255318926539866,-0.225844008457308,1.48049902099904,-1.13026611398483,0.885646383030985,-0.880380999105004,0.0771284400629326,0.347213688331298,1.78971805860559,0.262745423815864,-0.459927471846284,-0.936846117272993,-0.260577084158116,0.0295370246948335,1.39929057179148,0.411500284609931,0.24400626474558
67.76,-0.485177540501311,-0.175453613026609,0.894854918461308,1.21283790376171,-1.04459178562943,-1.56065579765843,-0.996916762856522,-0.245186102056617,-0.232309388066027,1.44821710111772,-1.11991662613309,0.857823504671646,-0.894307559679634,0.0817246809878114,0.357310872471847,1.74684353679584,0.257996243458944,-0.460219672452764,-0.947547420711584,-0.238076310948309,0.0149143056483747,1.39245435137573,0.421899220285404,0.253375532823545
67.765,-0.489281863408369,-0.158297272890029,0.899571769570273,1.19041642494329,-1.02933029320761,-1.51319412021945,-1.00605906004714,-0.235418312330345,-0.237935813675212,1.41945057604617,-1.10998157805312,0.83296161613252,-0.909042298987938,0.0847653622532317,0.365812964940682,1.70809301732415,0.254339897321909,-0.46310490604091,-0.958950038520226,-0.209151348925006,-0.00480503190049855,1.38113947007969,0.429081972710436,0.256465100925775
67.77,-0.493008808483871,-0.142566996337192,0.905184574869199,1.17145057303776,-1.01379640243519,-1.46445701108874,-1.01568321912705,-0.225803297883534,-0.242259985064332,1.39278057835176,-1.10052063899198,0.810400768635525,-0.924612821970377,0.0863508294768552,0.372390074829388,1.67185065880816,0.251692359816079,-0.468886268477425,-0.971071305963049,-0.173299280978469,-0.0299916097164926,1.36539798954835,0.431827072323454,0.252248103643343
67.775,-0.49604721179121,-0.127982877926192,0.911470112122673,1.15447496862045,-0.997866761206025,-1.41428298442503,-1.02587732301733,-0.216074361303473,-0.244860636448852,1.36660297111344,-1.09159600386067,0.789434704880426,-0.941036089548215,0.0866154951066402,0.376777809733232,1.63631746723382,0.24995654776095,-0.477831940648044,-0.983921081725392,-0.130141118188763,-0.0609423954488024,1.34529489631309,0.42882797303426,0.2396531061953
67.78,-0.498099784239623,-0.114152908153409,0.918137307019878,1.13794155459769,-0.98125877410862,-1.36252028259084,-1.03669022280909,-0.205927706548192,-0.245388977510859,1.33920253348849,-1.08327657443858,0.769345216866339,-0.958305740168614,0.0857315732735375,0.378786547206565,1.59959229117506,0.249025339602074,-0.490181151065661,-0.997494996298645,-0.0794683604899837,-0.0978871634220348,1.32091059687984,0.418697839751248,0.217579262241791
67.785,-0.498919810745629,-0.100597813899085,0.924831011178509,1.12028693418203,-0.963532474221729,-1.30903308904814,-1.04812253848943,-0.195022264385755,-0.243589155660442,1.30882454675411,-1.07563973467814,0.749436010124993,-0.976387668326576,0.083906500627828,0.378307064673632,1.55974918453884,0.248786942731045,-0.50615351007265,-1.01176061497909,-0.0212787431858173,-0.140969470555316,1.29234178684536,0.399973169286815,0.184913699484752
67.79,-0.498337637457715,-0.0867721050768511,0.931132503100214,1.09999970341837,-0.944100459585867,-1.25371225598426,-1.06012243064917,-0.183001425339793,-0.239326688765503,1.27374700548259,-1.0687691588369,0.729067347086024,-0.995214375950719,0.0813827685678745,0.375329744893148,1.51491478477704,0.249132699249743,-0.525958254663175,-1.02663313292061,0.0441872886276604,-0.190205818942759,1.25970009851844,0.371126169465674,0.140550468140209
67.795,-0.496262696782701,-0.0720971848206665,0.936543738801317,1.0756995790916,-0.922238686570992,-1.19647563467934,-1.07259024002619,-0.169542928168578,-0.232620842278671,1.23236695218367,-1.0627499384413,0.707691994430135,-1.01468208466999,0.0784226263638087,0.369969249826446,1.46335907384846,0.249963619720667,-0.549801561079115,-1.04195118786791,0.11640741692346,-0.245437266733653,1.22310788371304,0.330588977716889,0.0834160791334576
67.8,-0.492693431782149,-0.0560300732815203,0.940500893201363,1.04622064615313,-0.897084038825522,-1.13725791744287,-1.08539028357869,-0.154405727004203,-0.223661761583538,1.18329571312536,-1.05766593645976,0.684887780246119,-1.03465142667613,0.0752658229654333,0.36246968976348,1.40359381978948,0.25119301555527,-0.57789241933561,-1.05744982064704,0.194516275913458,-0.306253992528958,1.18268776753419,0.276794652067215,0.0125069649244084
67.805,-0.487758556507108,-0.0381632216168842,0.942447827852544,1.01066792652436,-0.867645330558941,-1.0760109349417,-1.09836144885712,-0.137464640962337,-0.212808247053521,1.12543212512019,-1.05359641161963,0.660377970851635,-1.05493899097014,0.0720917310476505,0.353189983570281,1.33444746334474,0.252746610923803,-0.610438807441393,-1.07272064832982,0.277192842808662,-0.371878064171743,1.13855366038,0.20825041333552,-0.0730503491788495
67.81,-0.481736692478544,-0.0183198149769922,0.941890030404083,0.968444339164206,-0.832845706042554,-1.01272083102215,-1.11133095059165,-0.118775306927387,-0.200588123893852,1.05801306499877,-1.05060468460339,0.634039041321218,-1.0752964778417,0.0690220301348105,0.342606568245645,1.25511613765042,0.254559875154289,-0.647624316609289,-1.0871766270875,0.36252031271572,-0.441048546173359,1.09081284784551,0.123650961132341,-0.173905386104772
67.815,-0.47505404908375,0.00335439575579411,0.938434019396343,0.919281305488001,-0.791560650141844,-0.947415767224525,-1.12412849919394,-0.0986402665322155,-0.187684111702132,0.98067838013107,-1.04872101674989,0.605902444509234,-1.09539927963766,0.0661291677835947,0.331330178297935,1.16522794481544,0.256567928214646,-0.689571330486316,-1.10003992081828,0.447905171472503,-0.5119468925018,1.03957411092443,0.0220145122180744,-0.290357911461068
67.82,-0.468310879201869,0.0263038079302205,0.93189436974105,0.863235912474726,-0.742671963234688,-0.880190625251618,-1.13658973131342,-0.0776011589491546,-0.174873548547894,0.893503561435308,-1.04792479182479,0.576144777607546,-1.11485396034347,0.0634180240578693,0.320098588913261,1.06487341731686,0.258695913932145,-0.736304570314952,-1.11034551504491,0.530089669522462,-0.582142972739756,0.984951612567592,-0.0971670183329052,-0.422232782888567
67.825,-0.462254117815563,0.0495641061635933,0.922344797988533,0.800628521986824,-0.685172829796316,-0.811273173664088,-1.14854911431925,-0.0564301509747245,-0.162975289413494,0.796964885376172,-1.04812679538793,0.545065196125298,-1.13318389680887,0.0608450390582312,0.309754384339671,0.954568013261547,0.260857596463952,-0.787715500071421,-1.11696132554933,0.605153829251233,-0.648555145913057,0.927064353065162,-0.233760812190507,-0.568772800386395
67.83,-0.457637452255589,0.0718752866428781,0.910023685124748,0.732019902326637,-0.618260218081777,-0.74105206507562,-1.15981910555501,-0.036178057300325,-0.152830261641988,0.691946743126628,-1.04915184514577,0.513066918682913,-1.14977292201435,0.0583919702872132,0.301210073671315,0.83525846795802,0.262948937408011,-0.843514024959748,-1.11863680995496,0.668457699625934,-0.707429797861147,0.866044740210274,-0.3868212667767,-0.728509539305111
67.835,-0.455073808741946,0.0918213582135774,0.895249596707066,0.658260213757419,-0.541385820463333,-0.670026664180635,-1.17014060082296,-0.0181526775045074,-0.145234691400839,0.57982355714845,-1.05072317867344,0.480643482078614,-1.16380935443014,0.0561019944340416,0.295355381551268,0.70840620712873,0.264832524369897,-0.903160123256952,-1.11408432240788,0.714659655527464,-0.754346224644306,0.802069934046103,-0.554417392523809,-0.899094408507812
67.84,-0.454933312695923,0.107969689843626,0.878400189368257,0.580523158122593,-0.45431794731551,-0.598738602470578,-1.17909796475817,-0.00375160824401331,-0.140792424792569,0.462509171274622,-1.05245293130559,0.448354681090209,-1.17425229360395,0.0540591277219601,0.292894991061877,0.576040582850908,0.2663284612749,-0.965785150732461,-1.10210416292216,0.73790625076099,-0.784309818357733,0.735412279793078,-0.733458967890834,-1.07713315444463
67.845,-0.457248235886337,0.119057689601086,0.85985727601477,0.50028512956722,-0.357224989927946,-0.527728775461197,-1.18600627145433,0.00579406019470679,-0.139739185717655,0.342423995315524,-1.05384197293028,0.416790541841922,-1.17980175925746,0.0523752618201951,0.294152881761199,0.440732209169271,0.267220613801655,-1.0301150362852,-1.08175876294961,0.732142713568173,-0.791981011807844,0.666505872896362,-0.919552869441388,-1.25806093731457
67.85,-0.461618430769347,0.124251362961928,0.839899277884022,0.419264242996324,-0.250760180371151,-0.457520322943671,-1.18978996852792,0.00968988718481383,-0.141801513070148,0.222392260856895,-1.05428820080623,0.386532364587365,-1.17887301290254,0.0511938260103811,0.298905280218444,0.305498961824344,0.26727974149397,-1.09440154553421,-1.05256450523402,0.691519528135233,-0.77198086495669,0.596035263524181,-1.10692531974654,-1.43607425194216
67.855,-0.467135334406227,0.123416798563689,0.818570485744172,0.339351480114357,-0.136139184033061,-0.388596619995473,-1.188887225593,0.00778133704391101,-0.146139011357159,0.105493185094607,-1.05310524126862,0.358122057991756,-1.16959954770154,0.0506753359424747,0.3063005648479,0.173668051040548,0.266303770266695,-1.15637286131177,-1.01466531448985,0.610921142537006,-0.7192307790965,0.525028845099144,-1.28841449082345,-1.60414721939975
67.86,-0.472356864862753,0.117283088161214,0.79554917800931,0.262553686336918,-0.0151896207175093,-0.321346985285527,-1.18122090120566,0.000639532619531463,-0.151385402187581,-0.00511314616995609,-1.04955575209601,0.332042753399768,-1.14989080863133,0.0509593817703474,0.314868150006705,0.0487115189146275,0.264167893434952,-1.21322382143793,-0.968982489911859,0.486574603200732,-0.629401404475477,0.45492770802187,-1.45554590956587,-1.75416144461685
67.865,-0.475391819226069,0.107407604230434,0.770083346868691,0.190932278358427,0.109655888100265,-0.255992048560882,-1.16428627612439,-0.010491105595754,-0.155798940415524,-0.106382872574358,-1.04289686397812,0.308702673678113,-1.11757470268376,0.0521320820538574,0.322620244080242,-0.065948680724933,0.260870289053291,-1.26166639942114,-0.917312976953203,0.316669356851858,-0.49951546941828,0.387623237449367,-1.59874310506775,-1.87716114953635
67.87,-0.47414421467992,0.0959061730822052,0.741098702343455,0.126530437329893,0.235427665774462,-0.192513766851261,-1.13541642177783,-0.0239041319967105,-0.157535784807042,-0.195588154915719,-1.03242857326702,0.288418404353693,-1.07066702284493,0.0542055617894437,0.32729603900436,-0.167150724259398,0.25655971250824,-1.29805477995479,-0.862299554888997,0.101979042998436,-0.328616431629424,0.325458580045371,-1.70771990350018,-1.96374511043842
67.875,-0.466708661457316,0.0849542981842333,0.707529600256789,0.0712837643357682,0.358731956542048,-0.130623341877288,-1.09226647501447,-0.0377838386350306,-0.155011284132018,-0.270497927493709,-1.01753907608551,0.271397325792366,-1.00779967460858,0.0570743549483058,0.326759106719447,-0.252198609719526,0.251536163464479,-1.31859498473555,-0.807217886317809,-0.153533352081276,-0.118408156311673,0.271166850143752,-1.77205771204439,-2.00461853891607
67.88,-0.451694182086904,0.0762118696302913,0.668990367763725,0.0268958500578171,0.475903533676234,-0.0698051462753893,-1.03360520374167,-0.0506237471110984,-0.147075464278306,-0.329534482001206,-0.997748568070987,0.257716266394964,-0.928788202017442,0.0604462638066991,0.319482876174726,-0.319058316244415,0.246218683617573,-1.31964430702939,-0.755588543804574,-0.442228589302247,0.126162937854881,0.227711429362588,-1.78195239128689,-1.99131342480889
67.885,-0.428720157144026,0.0701841042905572,0.626320586237683,-0.00531784506094929,0.5832025737794,-0.0094537434828835,-0.960061512277599,-0.0616497723745862,-0.133377322855482,-0.371881512048761,-0.97275385699694,0.247296297934793,-0.835251488849668,0.063795377743681,0.305014495945473,-0.366517202556317,0.241077573626698,-1.29809211695021,-0.710663918430792,-0.75256070854037,0.396434615764723,0.19801005790991,-1.72911474508534,-1.91704844263355
67.89,-0.399356714309069,0.065563221221001,0.581464314176823,-0.0245942309423201,0.677051477318635,0.050906228290389,-0.874402546422413,-0.0711421920994881,-0.115339209364798,-0.397514307177175,-0.94247356969208,0.239877765584382,-0.731136018258079,0.0663702615105292,0.28428645547932,-0.394271074425747,0.23653767267972,-1.25179186330506,-0.674877426656714,-1.06921918634592,0.679796568548297,0.184557488766303,-1.6077877994985,-1.77766313126482
67.895,-0.367251488208928,0.0592498491867644,0.53772318760588,-0.0308684076669462,0.754296474653483,0.111356441726599,-0.781925908895899,-0.0804097845850333,-0.0961119488469922,-0.407148654360345,-0.907093149222608,0.235003075269659,-0.622952245605797,0.0672659859239292,0.259663116419573,-0.402926224637667,0.232871936304481,-1.17999187578376,-0.649390799707983,-1.37374250397317,0.959891892361118,0.188995450075099,-1.41579726519936,-1.57252766907087
67.9,-0.337217688705229,0.047168045346136,0.50032033338699,-0.0248673634963003,0.812468353773702,0.171332587598687,-0.690747210219785,-0.0913856108911359,-0.0792892158908462,-0.402118882747341,-0.867105887107811,0.232020206954843,-0.519513820446639,0.0655660440922724,0.234666742009931,-0.393916718706808,0.230113997126845,-1.08369573477841,-0.633895915544659,-1.64571139564652,1.21747552253345,0.211695596586507,-1.15549118831621,-1.30529307075445
67.905,-0.31451123243148,0.0252235466505431,0.475761877383869,-0.00811339579424647,0.850007455269219,0.229446030858598,-0.610908845963341,-0.106078336890958,-0.068189759641903,-0.384197282862987,-0.82333768966193,0.230118864216755,-0.431012051648217,0.0605449750402058,0.213391965841754,-0.369340501578897,0.228016994234412,-0.965868367747142,-0.626785134318091,-1.86462556624829,1.4321203885976,0.251442763060488,-0.834363746373872,-0.984306396727105
67.91,-0.304079307429159,-0.0096655976162344,0.470313808010366,0.0172105224003197,0.866422104421787,0.283474351478719,-0.552564334848322,-0.126017634468505,-0.0655043733640295,-0.355357019800498,-0.776936183341624,0.228401479209211,-0.367430734069107,0.0518810467042206,0.199693611912843,-0.331710233023649,0.226072393897891,-0.83139842455377,-0.625699855254905,-2.01242429626247,1.58478488000883,0.305336771846946,-0.46512443597551,-0.622485785653868
67.915,-0.309550914187028,-0.0585847382814158,0.48847306673347,0.0485512179157443,0.862348188372671,0.330600182349208,-0.523913045625776,-0.151763047022403,-0.0727777538596984,-0.317499703724464,-0.729308410996861,0.225978147848405,-0.336624373959788,0.0397655438326511,0.196344421682789,-0.283638034115136,0.223585608056175,-0.686760639679428,-0.628315789377122,-2.07622531940428,1.66088920556396,0.369010015651331,-0.0650127122905063,-0.236496812401235
67.92,-0.332485776017784,-0.120077019772013,0.531794325099791,0.083310378541162,0.839451329081855,0.367842101589735,-0.529369274840276,-0.182552157117302,-0.0900511660704068,-0.272288585312886,-0.68200524677203,0.222061687026621,-0.342644651814813,0.0248257371396729,0.204423494091477,-0.227599537313404,0.21979234671279,-0.539396457296235,-0.633093906054627,-2.05049076859617,1.65309930576758,0.437170924573726,0.34569839582635,0.154736440411619
67.925,-0.372051004465516,-0.190138662431274,0.598372187104008,0.119053150093171,0.800154978733712,0.392535887152593,-0.568562487525582,-0.216222330532214,-0.115815674786245,-0.221215191948487,-0.636570929022055,0.216045663986963,-0.384863744103286,0.00795688600356174,0.223104133561108,-0.165915189069087,0.213992314665942,-0.396913816339838,-0.63972613092949,-1.93793296386653,1.56281301951937,0.504370370640465,0.745816918829687,0.531920756354359
67.93,-0.425125059907156,-0.26273900381999,0.683032388727174,0.153637677651498,0.747294673610977,0.402787824281203,-0.636475686738021,-0.249534470269256,-0.147350905278911,-0.165772061901317,-0.594390631827791,0.207564137888053,-0.458150297971819,-0.00978474730626927,0.249842375159343,-0.100835952343507,0.205672223560742,-0.266263814066244,-0.649133407951625,-1.74896974190503,1.3997447611325,0.565799666517718,1.11551516952883,0.877322479712497
67.935,-0.486814939943639,-0.330792214700778,0.778201208384696,0.185361107556389,0.683817616787735,0.397847431998805,-0.724641382282625,-0.278820105305705,-0.181322581033181,-0.107528565005145,-0.556565311782115,0.19652493820284,-0.554013362103034,-0.0272341737061481,0.280882075984687,-0.0345463291321584,0.19458895851008,-0.153053856850819,-0.663045805259198,-1.49998867077395,1.17985099329714,0.617926524636635,1.43826596171592,1.17640501340925
67.94,-0.551302853373066,-0.387355317801929,0.875246643327313,0.213125000516794,0.61259338130223,0.378327307540918,-0.822985084796819,-0.300716694427645,-0.214425377860415,-0.0480466288831528,-0.523835245645258,0.183104137829657,-0.662343616941296,-0.0432182783786625,0.311979026105992,0.030967097427883,0.180795807553809,-0.0611100691809624,-0.683329656673571,-1.21090087261634,0.922444467623809,0.658834597120715,1.7020934614246,1.41893401009766
67.945,-0.612862764756068,-0.426774700016451,0.965978077378859,0.236559190506329,0.536345317085039,0.346216279418999,-0.921723706879602,-0.312735047043105,-0.243863953004485,0.0112986855182112,-0.496563766306812,0.167703621311231,-0.773214925518828,-0.0567402024062079,0.339203139338926,0.0941124403859251,0.164616267633256,0.00766484800108098,-0.711271326867502,-0.902522171921242,0.64736306109435,0.688216709945456,1.90005823779708,1.59942712857376
67.95,-0.666802549998534,-0.44554990073225,1.04394889733358,0.255970516814298,0.457616160987773,0.304632497301533,-1.01280077201676,-0.313532704176213,-0.267565332543911,0.0694072543213629,-0.47476737770672,0.150881133163961,-0.878265925153029,-0.0671416868774076,0.359617106616238,0.153769513117904,0.146582731318078,0.053166934720173,-0.747036407833801,-0.594305529955686,0.372736045257122,0.707081910797329,2.03008664096198,1.71695251784205
67.955,-0.710015556143986,-0.442704538187196,1.10514902924016,0.272089053440104,0.378698034096057,0.25734593729282,-1.09062513797065,-0.302980354836608,-0.284224654842578,0.125375906473941,-0.458164994134045,0.133268985264576,-0.971432159216167,-0.0740928690689342,0.371652245329472,0.209178414653363,0.127359002213883,0.0767808873805065,-0.789498824967812,-0.30280568185286,0.113529707925094,0.717293084511871,2.09433268893058,1.77443215283989
67.96,-0.741036556669027,-0.419593328990459,1.1479706643005,0.285796748003551,0.301570400292881,0.208250653246947,-1.15215272999437,-0.282091299323612,-0.293293407945928,0.178416715344376,-0.446231502553348,0.11550359472075,-1.04906532701393,-0.0774326808036575,0.375134409654132,0.259810964121931,0.10766315311285,0.0809730009351029,-0.836463879098561,-0.0409149877600158,-0.119173888340878,0.721040672783933,2.09825557002805,1.77770464889193
67.965,-0.75979612260334,-0.379306131028904,1.17275580323981,0.297959971770375,0.227877953472386,0.160943451801614,-1.19650555445137,-0.252748952638551,-0.294868280418705,0.227858141166851,-0.43825079547183,0.0981782704333593,-1.10963419291639,-0.0770351109867282,0.371051429440296,0.305320700543885,0.0882039286740925,0.0688618138044002,-0.885111834149135,0.182367501025484,-0.318273387559024,0.720351883462837,2.04958159666416,1.73454900370423
67.97,-0.767264444779564,-0.325915953535438,1.18123584170247,0.309312518763569,0.158918745610696,0.11842597775476,-1.22437907902621,-0.21726415870315,-0.289475749304998,0.273136773675944,-0.433367431457887,0.0818203414354798,-1.1532345783917,-0.0727862908159859,0.361179385526299,0.34548752072621,0.0696403890005786,0.0438257332690696,-0.932482240417833,0.361839431604997,-0.480263579250821,0.716720238105029,1.95730920178479,1.65376425990419
67.975,-0.765056051202465,-0.263766719893034,1.17597315929927,0.320355487903743,0.0956324607479406,0.0829130871466214,-1.23745584090558,-0.177948375954935,-0.277867046709657,0.313742655458654,-0.430640943062975,0.0668881117450377,-1.18108358163104,-0.0646272881845031,0.347646826740745,0.380126236127343,0.0525645490373749,0.00918671342704131,-0.975910404030935,0.495746046342769,-0.604555937286051,0.710897665465738,1.83086502905893,1.54437030707547
67.98,-0.755067517545074,-0.196938968934718,1.15987411486937,0.331310048572667,0.0386105540447923,0.0557574844485737,-1.23795310251428,-0.136839779802897,-0.260899157409396,0.349178328610228,-0.429105384000112,0.0537768232723917,-1.19509850834117,-0.0526294230999612,0.332527437595811,0.409021956012841,0.0374951606771996,-0.0320125532580683,-1.01335007609928,0.585259674971512,-0.692672550578388,0.702858450668595,1.67945612209979,1.41498957991205
67.985,-0.739220384289586,-0.128960089939864,1.13585370922124,0.342125192453973,-0.011859750063758,0.0374815648335566,-1.22832474350561,-0.0955986380695801,-0.239478826914771,0.378953485069289,-0.427831748128212,0.0428205893893281,-1.19758096644009,-0.0370835087485998,0.317557371881356,0.431913900101082,0.024869697141286,-0.0771375270355923,-1.04353003041648,0.633875286052036,-0.747490320164328,0.691925456640197,1.51162935215619,1.27342091518526
67.99,-0.71932392036016,-0.0627290876759032,1.10666155115843,0.352506844007051,-0.0557374421878866,0.0278856511427724,-1.21105480995073,-0.0555255999944081,-0.214531466231731,0.402588541617394,-0.425984237784401,0.0342824144103198,-1.19096609644306,-0.0185350183169921,0.304006937253257,0.448498117018935,0.0150280208813494,-0.124010185030507,-1.06595403686784,0.646733212947365,-0.772712004146746,0.677016423979275,1.3350074470381,1.12638147416241
67.995,-0.697025765552026,-0.000566597826129744,1.07478704867969,0.361950857381857,-0.0931919326776766,0.0261959421547639,-1.18849348517326,-0.0176233907902125,-0.186983041475051,0.419613667345126,-0.422856283515087,0.0283353990435145,-1.17761857195435,0.00226775621856319,0.29268420631667,0.458430903952292,0.00819082720761838,-0.170900974267983,-1.08079438469643,0.629911344227449,-0.772566436746274,0.656931499438029,1.15613537039092,0.979392995284168
68,-0.673791271658535,0.0557148290847331,1.04236143608871,0.369780119206091,-0.124581932939751,0.0312018962120977,-1.16274900590412,0.0173637508157268,-0.157745575631065,0.429571793350645,-0.417885051849345,0.0250499302369263,-1.15970350015241,0.0244518913767435,0.284032758861077,0.461338044378184,0.00444631802974875,-0.216493863239322,-1.08872938025081,0.589824147063001,-0.751586766578383,0.630593655923459,0.980399795654955,0.836772791843611
68.005,-0.650878016219784,0.104801505026313,1.01108915389196,0.375189698980716,-0.150407889614384,0.0413616797702454,-1.13563376571405,0.0489426448108,-0.127690939668852,0.432031258487425,-0.41065821131024,0.0243987397421516,-1.13912238532366,0.0470803754278886,0.278246074267772,0.456834815383841,0.00375597477558986,-0.259846617668819,-1.09076443221426,0.532769485765158,-0.714379362810255,0.5971931939748,0.812020619367916,0.701678901826935
68.01,-0.629321828773911,0.145914874597595,0.98226866531239,0.377298518682497,-0.17126041715889,0.0549096951492449,-1.10862644447852,0.0768660805497933,-0.0976197243088599,0.426594785773689,-0.400914587991031,0.0262745664631222,-1.11746557467265,0.0692186547827325,0.275329872020916,0.444543263260581,0.00597448625542288,-0.300345178121435,-1.0880642994779,0.464547583126054,-0.665397812546264,0.556248915784637,0.654109711483457,0.576200334194916
68.015,-0.609929002124991,0.178810423990148,0.956831714505853,0.375209469114165,-0.187808623304613,0.0699878188569955,-1.08284893049945,0.101097314249214,-0.0682531376819068,0.412906248518405,-0.388531271664916,0.0305104918679823,-1.09598064495821,0.0900221070074514,0.275128802709798,0.42410711552586,0.010873652123174,-0.33764653686185,-1.08182333160426,0.390173747420029,-0.608776803837803,0.507618366727393,0.508776270579172,0.461503160239582
68.02,-0.59325609774667,0.203711191823548,0.935328925277765,0.368092591427806,-0.20079504848024,0.0847814374083677,-1.05908282926157,0.121744196681329,-0.0402488898939537,0.390688610352052,-0.373503003548766,0.0369019523229522,-1.07558335125925,0.108812020124628,0.277365237379661,0.395236174438984,0.0181677333652848,-0.371624824006478,-1.0731799741786,0.313761134296118,-0.54822924168373,0.451475679793318,0.377240064978338,0.358006099735585
68.025,-0.579601332086464,0.221206265893782,0.917923179813537,0.355284951072285,-0.210996745387413,0.0976405939853707,-1.03782175032602,0.138989451147261,-0.0142149184889939,0.359815420380987,-0.355923409883656,0.0452303978483001,-1.05690240233588,0.125100655432245,0.281697843640445,0.357782119668806,0.0275402181839803,-0.4023325092809,-1.06315047339048,0.238548686652424,-0.486940646094023,0.388262536904199,0.259942784679855,0.265548049783511
68.03,-0.569031963327731,0.232125781250903,0.904451561400757,0.336379105132527,-0.219167204057469,0.107179814610289,-1.01933097940739,0.153031724010291,0.00929042896161742,0.320381537388996,-0.335970223858681,0.0552843827414904,-1.04032667243202,0.138570925827718,0.287767352227612,0.311812171916009,0.0386690307219013,-0.42997181913824,-1.05258015717563,0.166984730009051,-0.427500151772225,0.318615426436847,0.156678676492372,0.183532653152693
68.035,-0.561448123895376,0.237384217359751,0.894542218653919,0.311277909777144,-0.225990915881693,0.112347179362281,-1.00369806791269,0.164047172257755,0.0297744240560911,0.272749843904431,-0.313891119435082,0.0668714223029738,-1.02603943380374,0.149029767492544,0.295202057562385,0.257658070343689,0.0512439726899309,-0.454866831736882,-1.04212619163844,0.100802832413842,-0.371932972689791,0.243291543109637,0.06672923156995,0.111058685649247
68.04,-0.556654482739814,0.237831174199732,0.887731455683719,0.28018949601764,-0.2320672912382,0.112441431314431,-0.990890325962213,0.17216592834141,0.0468320610464203,0.217550053519334,-0.289986123935055,0.0798153773836134,-1.01405357112049,0.156336011429986,0.303611179695845,0.195917985903902,0.064971105075991,-0.477421708529841,-1.03225247968803,0.0411038286052063,-0.3217409918093,0.1631267655522,-0.0110092976640521,0.0470504249975134
68.045,-0.554388513761718,0.234179825157143,0.88352089243307,0.24357886548701,-0.237902686285706,0.107092784396952,-0.980822042640167,0.177435214661246,0.0601462669948242,0.155641934846517,-0.264589482918243,0.0939434282743087,-1.00425238029784,0.160332214214983,0.3125939378369,0.127425844376689,0.0795671757883125,-0.498054932480313,-1.02322343791708,-0.0115397562762157,-0.277887679144838,0.0790388456097876,-0.0778787365504678,-0.00961817802200109
