Header,foot_Accel_X,foot_Accel_Y,foot_Accel_Z,foot_Gyro_X,foot_Gyro_Y,foot_Gyro_Z,shank_Accel_X,shank_Accel_Y,shank_Accel_Z,shank_Gyro_X,shank_Gyro_Y,shank_Gyro_Z,thigh_Accel_X,thigh_Accel_Y,thigh_Accel_Z,thigh_Gyro_X,thigh_Gyro_Y,thigh_Gyro_Z,trunk_Accel_X,trunk_Accel_Y,trunk_Accel_Z,trunk_Gyro_X,trunk_Gyro_Y,trunk_Gyro_Z
65.77,-0.614992289713364,0.109230332813371,0.745170214760223,-0.0201177096995445,0.972446704303232,-0.327227505919688,-1.07237418185808,-0.117163306068135,-0.0514704286058813,0.407096577130028,1.52173398895292,-0.185291015087399,-0.884113215413729,0.33530777695461,0.215607983875752,0.0548790967638123,-0.220487591924299,-0.906438399951192,-0.810361802092724,-0.0336542355423278,0.128089828010942,0.091676711074942,-0.00270962363544999,-0.418279575138312
65.775,-0.606413198855465,0.103600707139045,0.735465870836266,-0.0271046674963263,1.05761470187068,-0.257806724297082,-1.08288003641365,-0.132446652253892,-0.0416066434725745,0.401014438105623,1.60836095319083,-0.210315234584795,-0.87743947529095,0.350604116703467,0.217911985349383,0.0462998960562269,-0.243195170205692,-0.81869210625013,-0.826554403181018,-0.0746143694736432,0.118800321536929,0.102385444902825,-0.0140194867692418,-0.416520723600854
65.78,-0.599216201287088,0.0973462266258887,0.724872065101982,-0.0340355573284229,1.15444489963165,-0.184727010090795,-1.09511620184556,-0.146521137203763,-0.03203142002376,0.394046974660781,1.69730959636052,-0.237072923784576,-0.871384889073357,0.366616130770762,0.219149941411172,0.0367164719752279,-0.267412919467033,-0.725799312088111,-0.844327917632018,-0.119183798309597,0.108791523965617,0.113583777560631,-0.0257352504309749,-0.405248336567738
65.785,-0.594149826034898,0.0905252568004292,0.713748852630943,-0.0407151326472725,1.26381949430241,-0.109286510409058,-1.10939578021932,-0.158800496394206,-0.0228585198333591,0.38652486744214,1.78846914659267,-0.265506660585218,-0.866311492731152,0.38326325022224,0.219362999468738,0.0263527871986246,-0.293030877336344,-0.627928019213597,-0.863453205404584,-0.166425245831007,0.0978045031464636,0.124669916554866,-0.038070689745033,-0.383812870961273
65.79,-0.591955572902156,0.0833117820818541,0.702493643133006,-0.0469923828799799,1.38649312383296,-0.0330819724944541,-1.12600671610178,-0.16861698734663,-0.0141960414346476,0.378694765442561,1.88171130037712,-0.295510107047364,-0.862578923770534,0.400437461191459,0.218530197909252,0.0153368502750988,-0.319883897901604,-0.525297550053727,-0.883730711430977,-0.215397355986926,0.0855500965642662,0.135010693730462,-0.0512911521816894,-0.35180717301947
65.795,-0.593302975662709,0.0759964806270751,0.691464143288709,-0.0527211213235949,1.52307534915078,0.0420274087264088,-1.14522081862095,-0.175281523462575,-0.00617368778287234,0.370751548053232,1.97688563635716,-0.326923248177459,-0.86054457591516,0.418034047250341,0.21659251506043,0.00373980869721512,-0.347747584689565,-0.418153046593134,-0.905005018625243,-0.265164075499574,0.0717286687257321,0.143974539797057,-0.0657096155014905,-0.309047728017594
65.8,-0.598752344135771,0.0689737185379795,0.680943935404626,-0.0577001038319718,1.67404329515147,0.113955950653725,-1.16729266231234,-0.178108541317194,0.00106249602581657,0.362897402616546,2.07381076463736,-0.359523387168351,-0.860561001845188,0.435930956498932,0.213484437074067,-0.00835590758821812,-0.376332377599965,-0.306737702210098,-0.927161763630184,-0.314792719820204,0.056104381789545,0.150963518797416,-0.0816726054122923,-0.255559010669784
65.805,-0.60874231773977,0.0627430411625596,0.671162972272818,-0.0616345740447384,1.83975614852607,0.180435200638398,-1.19244093280196,-0.176432971097781,0.00737028884367628,0.355371065371478,2.17225967553335,-0.393018796119563,-0.862962070303073,0.453938186172644,0.209156602675693,-0.0208166062555327,-0.405280943213393,-0.191267644863786,-0.950111682459317,-0.363359165420221,0.0385996372552942,0.155443765685062,-0.0995212319729602,-0.191560351555487
65.81,-0.623606601490568,0.0578916015282407,0.66234406545365,-0.0641307601807715,2.02044727460453,0.239081874509627,-1.22082315772244,-0.169634233411524,0.0126165946249539,0.348432649327255,2.27194301266209,-0.427049889863485,-0.868052554944364,0.471764867087653,0.203589985158108,-0.0334615286911295,-0.434171920806932,-0.0719134492855309,-0.973773388546141,-0.409948838287687,0.0193102545056702,0.156970293830161,-0.119537132360928,-0.117452544058304
65.815,-0.643609475818899,0.0550350491003843,0.654737280843615,-0.0647154042274772,2.216189360881,0.287467073611316,-1.25251334266729,-0.157167530345912,0.0166581601673246,0.342325492911366,2.37249228485711,-0.461195608536828,-0.876111977932157,0.48900805854652,0.19680936405404,-0.0460911955054241,-0.46252727327043,0.0512043961011007,-0.99805975883536,-0.453639613703191,-0.00156098008903179,0.155198536552167,-0.141903483065358,-0.0338112292159611
65.82,-0.668960317717388,0.0547596603733981,0.648603497186437,-0.0628698238819627,2.426844840505,0.323172355794555,-1.28748194442336,-0.138619756556497,0.019302690709648,0.337235641402376,2.47344167891996,-0.49498255988764,-0.887401126560407,0.505148604427056,0.188905593015283,-0.058519794758661,-0.48982106054963,0.178001651469008,-1.02286149522701,-0.493472844667527,-0.0237360604420068,0.149879312197481,-0.166691043733249,0.0586080003648559
65.825,-0.699736900066429,0.0576265018511208,0.644231979770193,-0.0580511462108697,2.65202879920621,0.343862353672197,-1.32561404526258,-0.113773339354441,0.0203564610068633,0.333276817501197,2.57420715959578,-0.527894597798735,-0.902157722717039,0.519553515405341,0.180063298983635,-0.0705827984241228,-0.51548981412732,0.308405051266121,-1.04802637133718,-0.52842659695897,-0.0468206954078634,0.140842702711853,-0.193845150466952,0.158856915471114
65.83,-0.735238202139002,0.0643941034542285,0.642692818574056,-0.0496994817184737,2.89108277667113,0.34738873571423,-1.36716039608515,-0.0825678386912898,0.0205313753538361,0.330497787519051,2.67406723299157,-0.55938217790824,-0.920584670050737,0.531488351622735,0.170568133083579,-0.0821225506368313,-0.538944649633082,0.442324459628675,-1.07334715656397,-0.557417024578378,-0.0702762457189095,0.12798111983055,-0.22316257754197,0.265778866972294
65.835,-0.774161818250069,0.0759648140669406,0.645813172014193,-0.0372726253699078,3.14303570102798,0.331897555816166,-1.41271921090314,-0.0451012400375447,0.0213111754703859,0.328868086368809,2.7721525258351,-0.588876939980304,-0.942834006829805,0.540154869922841,0.1607799692154,-0.0929974641067724,-0.559585696808992,0.579623717369807,-1.09856944427795,-0.579356435199633,-0.093466278222068,0.111239661187898,-0.254275535287743,0.377995436158756
65.84,-0.816163514632285,0.0928351695258399,0.654405222969033,-0.0203043283675262,3.40655286066927,0.29592378619634,-1.4621097052622,-0.0018022759739028,0.0228237548011962,0.328257473420962,2.86744703545083,-0.615812939771031,-0.96898196463716,0.544765925368016,0.151092778879281,-0.103101237278654,-0.576820985394381,0.720088240178247,-1.12341165643169,-0.5932503715703,-0.115755676576521,0.0906132816445623,-0.286666910211077,0.493911791534277
65.845,-0.861737874427514,0.11510369280188,0.668227797831158,0.00155321477604731,3.67988526517437,0.238480136706401,-1.51429473417394,0.0465613234270613,0.0239541696486595,0.328455645697633,2.95880178341526,-0.639646712197149,-0.999005892293263,0.544612650601281,0.141914525519862,-0.112345555848787,-0.590089089507213,0.863392963293847,-1.14757638779943,-0.598261719349698,-0.136547053042252,0.0661471707547873,-0.319719185996137,0.611748095255946
65.85,-0.911066818206698,0.142859297646423,0.687305660950833,0.0284864716943756,3.96083087462922,0.159138931861484,-1.56821079696009,0.0990312636873217,0.0239792530305796,0.329195562698933,3.04495952557152,-0.659873755314018,-1.03277471610647,0.539079206415298,0.133672870656802,-0.120640989901512,-0.598879063257955,1.00908217600098,-1.17074823144633,-0.593712572560499,-0.155193349547126,0.0379435943725571,-0.352751001708576,0.729575791848203
65.855,-0.964056886919147,0.176143701136477,0.71192239384465,0.060446983477606,4.2467134036516,0.0580982991307352,-1.62278900988841,0.154485626032966,0.0225638691534531,0.330134704284439,3.12458735741633,-0.676047449092447,-1.0700405588866,0.527644468824018,0.126813231923526,-0.127920973593454,-0.602744001940746,1.15656833065087,-1.19259955043073,-0.579087360786386,-0.170934391522899,0.00617742284243538,-0.385009115790905,0.845344651669365
65.86,-1.02059263120377,0.214788316680954,0.742303141108526,0.0970661275788216,4.53437122428948,-0.063774534914333,-1.67675848322264,0.211618154891848,0.0193901692528809,0.330824810071781,3.19631637161276,-0.687802387839677,-1.11041980755526,0.509921552116068,0.121757107392312,-0.13418019648051,-0.601312082928193,1.30514448975834,-1.21281929110308,-0.554097009774933,-0.182995200680096,-0.0288834447200257,-0.415652090890458,0.956916809337553
65.865,-1.08050631055541,0.258342519674984,0.778640819833094,0.13758360880054,4.82014641816654,-0.204933661079165,-1.7286664585857,0.268963695819344,0.0141617929499739,0.330707012950234,3.25878964019265,-0.694880578934738,-1.15337232793695,0.485722713632561,0.118827259602157,-0.139493125242099,-0.594300485408335,1.45400289423406,-1.23114971266862,-0.51878291961945,-0.190771487585362,-0.0668584028792592,-0.443772513911521,1.06213020357502
65.87,-1.14356598770613,0.306061015586527,0.821156229035286,0.180794126205425,5.09987304096997,-0.363187300192255,-1.77698292630268,0.324967608138478,0.00660266929369666,0.329130843033052,3.31071782843994,-0.697158561028524,-1.19819784329387,0.455105651505583,0.118185793484036,-0.144014852897085,-0.581532223474035,1.60225963765758,-1.24740440418906,-0.473584303831386,-0.1939393270225,-0.107241843507073,-0.468457989872847,1.15889489213781
65.875,-1.20945163958764,0.356943436957119,0.870127197580688,0.225017601435293,5.36888849582116,-0.535764955745718,-1.8202507162746,0.378071186853356,-0.00354580478938044,0.325380299626502,3.35093610957436,-0.694670836881947,-1.24406071980892,0.418374911689952,0.119823551608899,-0.147978241948894,-0.562949180879693,1.74899209190977,-1.26145921275018,-0.41932210362204,-0.192433387916436,-0.149396520869553,-0.488849620806436,1.24529853646652
65.88,-1.27751458866337,0.409716455665697,0.925758073303769,0.268104338498838,5.62209299850293,-0.719405123411283,-1.85701322882672,0.426754674333499,-0.0164094279349952,0.318698270185669,3.37845421942693,-0.687625598654465,-1.29003608040914,0.376046098442624,0.123593037341011,-0.151693051313324,-0.538616127733272,1.8932892877647,-1.2732240722908,-0.357116708393716,-0.186378908525426,-0.192547451197899,-0.504169060996119,1.31969423784606
65.885,-1.34658306226877,0.462832748556822,0.988113633682647,0.307485028853643,5.85404575102211,-0.910460322382512,-1.88577577197135,0.469583032553183,-0.0318912799639101,0.308314426519759,3.39249408496479,-0.676409153175567,-1.33516012867679,0.328805225400217,0.129250820010024,-0.155540612771025,-0.508715200701521,2.03430219831387,-1.28261209461864,-0.288305335952031,-0.176073428390812,-0.235785761890238,-0.513722087770226,1.38075626840287
65.89,-1.41510436212662,0.51459213249459,1.05724263063181,0.340271966184694,6.05907627551564,-1.10502404005501,-1.90527317624306,0.505308427100666,-0.0497810735489632,0.293487012085565,3.39251335066242,-0.661576291699666,-1.37847162137046,0.277496807095374,0.136470592539496,-0.159953015935466,-0.473534531954807,2.17128126810428,-1.28953558728832,-0.214452310068227,-0.162046758117049,-0.278093316036398,-0.516905630998266,1.4275131036161
65.895,-1.48121183419248,0.563270753100508,1.13317922512051,0.363415726290314,6.23141223448841,-1.29908149591629,-1.91460699952429,0.532967087690629,-0.069806685695592,0.273566947746512,3.37821567656064,-0.643826976759898,-1.41905278121654,0.223119654208199,0.144837090443107,-0.165368197777814,-0.433459012052912,2.30359765428113,-1.29392755858755,-0.137406250482508,-0.145120799574802,-0.318381396097067,-0.51324973688204,1.45939245598188
65.9,-1.54277582935316,0.607182465260533,1.21559746079671,0.373911176533038,6.36533556554917,-1.48866401035549,-1.91305315469097,0.551911630688156,-0.0917971144770593,0.248071229763056,3.34954435551729,-0.623969287886223,-1.4560843417418,0.166777831827263,0.153886308969734,-0.172170978325033,-0.388963314011502,2.43074990076093,-1.29574464946933,-0.0592363379361916,-0.126349063180919,-0.355533283299885,-0.502480061596991,1.47626988272552
65.905,-1.59784864067111,0.644452138116728,1.30253239384298,0.369031743183996,6.45536479449909,-1.66997641743636,-1.89918870280915,0.561691298152918,-0.116648170376796,0.216739568035388,3.30665558995164,-0.602869660684684,-1.48890031895005,0.109602446258142,0.163195732391026,-0.180641583948597,-0.34060028579811,2.55235858095384,-1.29495034677362,0.0179320682594394,-0.106870517034187,-0.388449578249331,-0.484554389157398,1.47847365766943
65.91,-1.64398635648007,0.67345913419336,1.39160426872272,0.346571251951488,6.49645256651178,-1.8394920687842,-1.87171472335633,0.562152276122891,-0.14505376015828,0.179570701853096,3.24987509276164,-0.581395235745892,-1.5170219401616,0.0526907837754954,0.172461841867469,-0.19091478166222,-0.288986591225234,2.6681496756909,-1.29151832163498,0.0920389556991353,-0.0877912108768656,-0.416096277323105,-0.459670112251409,1.46674551729407
65.915,-1.67752025893659,0.693824426564538,1.48302421932614,0.305070878347768,6.48418828676853,-1.99402846807764,-1.83163624774245,0.55372372201517,-0.175115270969999,0.136843335129117,3.17964423543469,-0.56035451789734,-1.54016867652302,-0.00293425367193304,0.181533126239421,-0.202946752096414,-0.234790958568898,2.77792745549962,-1.28545667648743,0.161154982576734,-0.0701053176653735,-0.437555340849539,-0.428260611733687,1.44218470474749
65.92,-1.69497323256304,0.705969499779918,1.57780173787199,0.243994057316074,6.41497914993792,-2.13081474328044,-1.78107455907209,0.537210874580132,-0.204194467503764,0.0891135179430025,3.09646390816102,-0.540444530401871,-1.55824986048783,-0.056354186528868,0.190409766226715,-0.21650032358471,-0.178724702467589,2.8815414552023,-1.27683142271892,0.223536640041819,-0.0546261880539133,-0.452076298926109,-0.390981966259835,1.40618601742577
65.925,-1.69401187677842,0.710415927366401,1.67540228381313,0.163826052839141,6.28619409280354,-2.2475496508389,-1.72154925575957,0.513494690792958,-0.230817617290032,0.0371879031183924,3.00084316149281,-0.522210266963926,-1.57135826276389,-0.106782587101067,0.199249491091316,-0.231151727096464,-0.121533889816978,2.97885317597469,-1.26578764208396,0.277715125331896,-0.041916383655735,-0.45912574337656,-0.348686894160323,1.36037566476274
65.93,-1.67314864812967,0.707949433745703,1.77441925205517,0.0661041314028843,6.09630473198125,-2.34242921393504,-1.65439972301734,0.483508523555854,-0.253973211922644,-0.0179202706070708,2.89325017222248,-0.506015083724082,-1.57977916873604,-0.153593104329069,0.208390044834825,-0.246312219059969,-0.0639907706190277,3.06969975159064,-1.2525698228888,0.322640800815495,-0.0322251600550646,-0.458438932987521,-0.302382188306045,1.30652788121344
65.935,-1.63167992852938,0.699671584272443,1.87304197291218,-0.0466299375648596,5.84503299050733,-2.41413726261503,-1.58105514926653,0.448209777499247,-0.272731538114927,-0.0750572255755623,2.77406702389218,-0.492025354472706,-1.58397163167949,-0.196326239074949,0.218320377136666,-0.261270673065043,-0.00687974620384124,3.15385279009461,-1.23753186928544,0.357778294149942,-0.0254644227719108,-0.450074933963433,-0.25317250282371,1.24644888374222
65.94,-1.56978767561882,0.68684648969932,1.96912684655551,-0.170973731018382,5.53344819466535,-2.46182872100596,-1.50294656336848,0.408546085704615,-0.286283011275118,-0.133012815790187,2.64356412809345,-0.480217912473637,-1.58449527261899,-0.23466494841568,0.22956998623458,-0.275259039634551,0.0490199175443811,3.23098625142705,-1.221130900354,0.38306299040902,-0.0212353045146818,-0.434462252830389,-0.202199347048273,1.18186886402131
65.945,-1.48856267057719,0.670755057676677,2.06027625038107,-0.302888592741576,5.1639832081468,-2.48513230121644,-1.42142751472625,0.36546288404422,-0.293978410772316,-0.190603860374748,2.50190254144526,-0.47040654349334,-1.58193250230011,-0.268403286626825,0.242587719133016,-0.287524254992466,0.10295165980755,3.30066031516915,-1.20391110087747,0.398814673974768,-0.0188897364457135,-0.412428129502692,-0.150584463090555,1.11437627906186
65.95,-1.38991795368364,0.652601502637482,2.14389673656154,-0.437969869739889,4.74039908509987,-2.48416456419314,-1.33772019767986,0.319930155368773,-0.295354743803788,-0.24674964667222,2.3491553294136,-0.462277161402169,-1.57684041234197,-0.297425734082493,0.257655682266364,-0.297396382250234,0.154203713810977,3.36231045329812,-1.18648227859129,0.405702720856015,-0.017606271466187,-0.385216547902474,-0.0993863251421163,1.04537257820375
65.955,-1.27643915746808,0.633457932542168,2.21729826238051,-0.571736967024441,4.26771535229988,-2.45953538627195,-1.25287925970882,0.272979437481877,-0.290145178560039,-0.30054102349295,2.18534068775081,-0.455428240189434,-1.56970640030034,-0.321690933934616,0.27480981264253,-0.30435226058043,0.202137925502435,3.41523815055671,-1.16948889106308,0.404719566061361,-0.0164800486768937,-0.354491741368377,-0.049571924666159,0.976029128802504
65.96,-1.15122003722416,0.614244156009509,2.27787881487638,-0.699925230757376,3.75208019281373,-2.41234606287633,-1.16779037827418,0.225748487874525,-0.278269409688753,-0.35129966012854,2.01046810922841,-0.449415628932479,-1.56089216877824,-0.341217429859832,0.293762773284014,-0.308071486044554,0.246222749553507,3.458609121822,-1.15357045470599,0.397114073523461,-0.0146313583804576,-0.322316043611017,-0.00200800206311597,0.907256558394881
65.965,-1.01774012874181,0.595850784285366,2.32358009613399,-0.818751742199977,3.20057037978092,-2.34417838948926,-1.08345711592861,0.179549727794249,-0.259675588527983,-0.398619330377148,1.82459534774729,-0.44379687297861,-1.55059509156856,-0.356084143378481,0.313879809422315,-0.308475825887378,0.28606589951726,3.49146299208884,-1.13932200215475,0.384319633017589,-0.0112801553183794,-0.291096316916951,0.0425280454147144,0.839695528988994
65.97,-0.879659655495447,0.579081959165132,2.35276568220484,-0.925125126191222,2.62095946427783,-2.25706253987937,-1.00082007713872,0.135842475187712,-0.234479936800377,-0.442388237658427,1.62788465427139,-0.438167194525665,-1.53884823048,-0.366444475544593,0.334221061737984,-0.30574586250593,0.321446498239303,3.51273529687427,-1.12725638156875,0.367915102766345,-0.00575543091039113,-0.263507095694052,0.0833415148206168,0.773715976198458
65.975,-0.740414784711215,0.56435176079908,2.36348108095894,-1.01679944556363,2.02146988562788,-2.1534336711249,-0.919935612688133,0.0960765827763408,-0.203391186373954,-0.482803961371946,1.42065007971616,-0.432186461757454,-1.52552560855635,-0.372534460317992,0.353599060736629,-0.300322659026114,0.352350525379287,3.5212913866825,-1.11776350315906,0.349560845406011,0.00247312949001409,-0.242399027444859,0.119832365948319,0.709409041360967
65.98,-0.603072853295613,0.551853089191833,2.35402998251123,-1.09246397555331,1.41048689605598,-2.03606992380491,-0.840348658764545,0.061643725528214,-0.16741700265606,-0.520372251320201,1.20339850028214,-0.425602754512059,-1.51032873236078,-0.374679125052488,0.370643634330561,-0.292893933492663,0.378996156842581,3.51597781337142,-1.11106823190843,0.330851509096464,0.0136935755225925,-0.230676367046758,0.15150148171526,0.646596901035402
65.985,-0.470490032056214,0.541857258126726,2.32395581299916,-1.15173861781646,0.796246681540669,-1.90798880585211,-0.761995109561307,0.0338510857191877,-0.127422576413074,-0.555866996810237,0.976864355073472,-0.418270555575629,-1.49279992660665,-0.373318580158637,0.383926332753658,-0.284351426715239,0.401829175773199,3.49569722035921,-1.10719458316976,0.313159629075632,0.0278799863846759,-0.231128346469712,0.17793971708908,0.584888981724966
65.99,-0.345336099730664,0.534540055184455,2.27388088696593,-1.19508675639845,0.186536583577168,-1.77233835477337,-0.685142808590568,0.0137490600801219,-0.0842907478950481,-0.590259908618996,0.742028951319947,-0.410157884420301,-1.4723938799918,-0.369044209625867,0.392145076898522,-0.275724908298742,0.42149262074083,3.45950148856319,-1.10593915123959,0.297546951409007,0.0447104185991415,-0.246236842826361,0.198828854758297,0.523761893958339
65.995,-0.230052911403931,0.5297204156676,2.20516168317745,-1.22368094676186,-0.411563844168666,-1.63232822862908,-0.610192692480782,0.00192646116650637,-0.039105696974418,-0.624638345688473,0.500117999067171,-0.401344009957843,-1.4485685455346,-0.362617834094688,0.394312538055549,-0.268108945438509,0.438779843536344,3.40669420708302,-1.10685417601983,0.284697588203838,0.0636022659824093,-0.277988841602631,0.213970804698513,0.462638166030766
66,-0.126851496152239,0.526728198903198,2.11975927601762,-1.23922511891407,-0.991871563769993,-1.49117631213827,-0.537712212370036,-0.00166263856515039,0.00681490772520386,-0.660106239173644,0.252578873467706,-0.392012636113359,-1.42086760295388,-0.354969845476952,0.389912572899189,-0.262585669449536,0.454562890330506,3.33693706821727,-1.10925107320873,0.274836279402287,0.0837238734965606,-0.327696353504813,0.223324597900245,0.400976129986171
66.005,-0.0377171799916635,0.524326958979785,2.02010573707604,-1.24374127975538,-1.54921574289128,-1.35204866505912,-0.468440023935895,0.00220164065865012,0.0518996344597791,-0.697667483281024,0.00104059169621598,-0.382441220908966,-1.38901276153527,-0.347176539450198,0.379008431482186,-0.260146259971777,0.469695295319828,3.25034895827456,-1.11224127967754,0.267693002855969,0.104036783677894,-0.395834299921287,0.227035817611136,0.338375747030782
66.01,0.0355996587616657,0.520723078828456,1.90897675210451,-1.23935976004758,-2.07950343335753,-1.21801915032864,-0.403263052827415,0.0120291325368744,0.094353091533799,-0.738114175199916,-0.252741782336409,-0.372985005924939,-1.35299997598882,-0.34039276546684,0.362276722545736,-0.261624054228173,0.484909308969629,3.1475771492449,-1.11481711967254,0.262564531888517,0.123398196529847,-0.48193466141151,0.225461079454461,0.274674336626161
66.015,0.0916588315810296,0.513724018249591,1.7893368977744,-1.22813828541121,-2.5797268710807,-1.09204497762166,-0.343174685673771,0.0257543230831862,0.132258944761333,-0.781938701756549,-0.506955045845041,-0.364056821427614,-1.31315692078985,-0.335721559992001,0.340945883720855,-0.26764920294666,0.500725436022792,3.02981963544136,-1.1159647444351,0.258454196641201,0.140689667910782,-0.584570174179478,0.219177570191357,0.210008000772325
66.02,0.12945772868005,0.501038963894921,1.66418083635896,-1.21191537000631,-3.04789526138104,-0.976918302615368,-0.289209180477477,0.0409761339676574,0.163748956481245,-0.829278863880458,-0.759801045111953,-0.356105315726415,-1.27013830796006,-0.334044742170737,0.316636441598892,-0.278628851833859,0.517384728319662,2.89878116493922,-1.11480030708389,0.254256442925327,0.154939152036762,-0.701445381445281,0.20895502000445,0.144827582470974
66.025,0.14855466911479,0.480652030689989,1.5364136381983,-1.19221490354233,-3.48291179706699,-0.87519315739225,-0.242351018383653,0.055285962825194,0.187205189580327,-0.879909165159242,-1.00956635323167,-0.349592817288693,-1.22486274425679,-0.335887782507952,0.291135560437203,-0.294755839898371,0.534819019857845,2.75655808511456,-1.11068820720161,0.248954546778085,0.165437649492094,-0.829599346891921,0.195683378844801,0.079862008998771
66.03,0.149159936328731,0.451213828212132,1.40875723495709,-1.17021086388184,-3.88442926968379,-0.789099519912055,-0.203433974602081,0.0665919791934322,0.201433065365307,-0.933285260736834,-1.25468201007792,-0.344971408397528,-1.17839902289405,-0.341406044147527,0.266171015126565,-0.316039345683095,0.552670652903913,2.60548282406578,-1.10327014574912,0.241761003458279,0.171843111248501,-0.96568030560005,0.180293380538381,0.0160362402373016
66.035,0.132184719627857,0.412370739964299,1.28365256543964,-1.14672820213566,-4.25270588282393,-0.720408400154534,-0.173057716056166,0.0733406864089351,0.205760143493729,-0.988628903149493,-1.49376844423323,-0.342658235720303,-1.13181022982186,-0.350492490268391,0.2432197146333,-0.342341537980811,0.570354748114762,2.44798967443542,-1.09239719331577,0.232087775910365,0.174161550374875,-1.10620325838506,0.163725223292101,-0.0456179360194099
66.04,0.0992265148309063,0.364907209968837,1.16316447760484,-1.12224915418776,-4.58846059060633,-0.670236871727937,-0.151552136976,0.0746255704847233,0.200071248661251,-1.04502271616187,-1.72566058249882,-0.343014400536367,-1.08599346261858,-0.362898789879129,0.223356045019907,-0.373404419704099,0.587138043914132,2.2865456019988,-1.07804706080135,0.219356290782942,0.172530427112879,-1.24770924855004,0.146930907329345,-0.103996042739359
66.045,0.0524774830835772,0.310678075925224,1.04893562535368,-1.09692355407693,-4.89271733707729,-0.638866020984086,-0.138994962315202,0.0702250713221997,0.184804043747436,-1.10149190246177,-1.9494148455204,-0.34632740780469,-1.04159644986244,-0.378277331249899,0.20717852993824,-0.40886052436824,0.602213726967802,2.12363507572929,-1.06029794356468,0.202892597224221,0.16700861229489,-1.3868199833961,0.130849974368134,-0.15788598642459
66.05,-0.00541726181707981,0.252441897157473,0.942203015415229,-1.07060151680265,-5.16665198956806,-0.62563043189105,-0.13525320732523,0.06058716176028,0.160905106473257,-1.15708031166517,-2.16430716758932,-0.352794602551097,-0.999050924306021,-0.396133860693697,0.194842820441685,-0.448239583579313,0.614776440332065,1.9617438356397,-1.03937040290994,0.182099119986327,0.157613164696945,-1.52026891974886,0.116355557370472,-0.205942364028203
66.055,-0.0715151222890705,0.193668855911286,0.843834007745367,-1.04288910836228,-5.41146371025686,-0.628864495848367,-0.140008593052864,0.046754937800265,0.129736959033926,-1.21093190242743,-2.36982732780252,-0.362507595396439,-0.9586665943525,-0.415747844462004,0.186156480966969,-0.490987677011534,0.624103699001655,1.80328337385099,-1.01570995662003,0.156781624672607,0.144527984152186,-1.64500868553463,0.104196465583879,-0.246751871836944
66.06,-0.142747325965931,0.13828533116796,0.754351011873442,-1.01321170957019,-5.62828626028743,-0.645881312383162,-0.152751212515144,0.0302285058331104,0.0929305315762901,-1.2623709078996,-2.565667954393,-0.375441168237933,-0.920703682995712,-0.436157030788796,0.180674740713905,-0.536504232853127,0.629634732506131,1.6504429034956,-0.990040121699618,0.127361291772131,0.128265779855468,-1.75841325898299,0.0949395609225678,-0.278992723384669
66.065,-0.216109892468147,0.0903160200095565,0.673931748290848,-0.980871994682386,-5.8181498378741,-0.672992686590407,-0.172766425895319,0.0127624057901408,0.0521982778451686,-1.31096268191066,-2.75170322567255,-0.391451276404361,-0.885378720653002,-0.456244929221868,0.177792807649672,-0.584189060753371,0.631029399889613,1.50501788919929,-0.96331577315382,0.0948147959979094,0.109680448109112,-1.85849736659508,0.0889248227988723,-0.301618160237339
66.07,-0.288843233968491,0.0534670792871838,0.602390964624679,-0.945089016226785,-5.98197013678414,-0.705592134729382,-0.199148664274713,-0.00388270201890698,0.00914744312757653,-1.35653227560717,-2.92795437658281,-0.410279171923886,-0.85283021885891,-0.474881976026364,0.17687030368465,-0.633478368465803,0.628189894839706,1.36828083903152,-0.936593824283659,0.0604376836742465,0.0898466950170364,-1.94406593846437,0.0862485996731562,-0.313983885558051
66.075,-0.358581110121529,0.0307264338884681,0.539197618073408,-0.905018655286933,-6.120536296128,-0.738305616450492,-0.230846416330884,-0.0181851710225409,-0.0348791787333662,-1.39913856781256,-3.09454860371706,-0.431556882901413,-0.823111994885952,-0.491073206295555,0.177373419701309,-0.683859351263074,0.621245386765923,1.24092087627823,-0.910898868649392,0.0256233600578099,0.0698935764842312,-2.01475738890523,0.0867747232646046,-0.315908337586058
66.08,-0.423466733645612,0.0240425160080117,0.483561318040876,-0.859773147621288,-6.23450828448071,-0.76520237162538,-0.266731136554061,-0.0290448981955173,-0.0789150715307784,-1.43902170412987,-3.25168027379481,-0.454818602862088,-0.796214602338739,-0.504077372074733,0.178956121597056,-0.734872831390075,0.6105117025826,1.12304811768164,-0.887122770084928,-0.00833016391136792,0.0508729977845745,-2.07098669989984,0.0901721385694353,-0.307683713001619
66.085,-0.482212486096644,0.0341462778098945,0.434565328408905,-0.808449784191516,-6.32443149051367,-0.780060647047836,-0.305688217447274,-0.0358669055679119,-0.122399734490727,-1.4765310296588,-3.39957625287127,-0.479522322592529,-0.772074488809824,-0.513453725470035,0.181452324710585,-0.786107700217491,0.596430094477943,1.01425841402576,-0.865956249753652,-0.0404114837079669,0.0336754216911204,-2.11381726612639,0.0959739605860311,-0.290016285199827
66.09,-0.53409963340448,0.0605543195238342,0.391333973394304,-0.750174341883488,-6.39075827247825,-0.776667354757102,-0.346707374854277,-0.0385455057279366,-0.165124780212458,-1.51204567756386,-3.53846680659966,-0.505080003397632,-0.750593149213739,-0.519045872347933,0.184829636775649,-0.837189792466252,0.579496004439735,0.913743760546766,-0.847861236402308,-0.0699571718867121,0.0189790815660546,-2.14479621619947,0.10364193519085,-0.263905082414997
66.095,-0.578954072920127,0.101719895552573,0.353204831234844,-0.684173269199262,-6.43389599297438,-0.749113870249622,-0.388938222388248,-0.037378509061025,-0.207149478870567,-1.54592301203198,-3.6685663346846,-0.530897059504228,-0.731693526881681,-0.520953542864684,0.189141127669787,-0.887785658469988,0.560205045713394,0.820416875856739,-0.833091961417344,-0.0965357280203439,0.00723029052632435,-2.16577445437373,0.112624714953423,-0.230530971776789
66.1,-0.617100882166531,0.155263452255434,0.319801441818561,-0.609873287066249,-6.4542943746245,-0.692056211333123,-0.431716596928613,-0.0329618754929476,-0.248722410983577,-1.57849269151119,-3.79006324437338,-0.556420498065633,-0.715361194667804,-0.519489150697502,0.194478645403035,-0.93763380957318,0.539028446134081,0.73302429080282,-0.821736954766669,-0.119821626051013,-0.00135145797154901,-2.17872725354586,0.122404376671094,-0.191196260709859
66.105,-0.649278835282183,0.218228005489285,0.290971121390482,-0.527003439315376,-6.45251037934454,-0.60092741496352,-0.47459213299199,-0.0260898566341719,-0.290195873172693,-1.61007009448212,-3.90311279749964,-0.581185064612973,-0.701624210288722,-0.515094483228434,0.200921487280261,-0.986582512217542,0.516400146489649,0.650245189598668,-0.813744247997989,-0.139601433800329,-0.00673254873520532,-2.18560260334724,0.132526568954609,-0.147280332339273
66.11,-0.676556592746258,0.287341615451419,0.266719826269147,-0.435689198822385,-6.42919862640015,-0.472113681230201,-0.51734525759438,-0.0176335088758317,-0.331931865768642,-1.64096460250379,-4.00782999120701,-0.60484888650756,-0.690518003337265,-0.508260167296777,0.208463712820801,-1.03461281197356,0.492700244138463,0.570788054932774,-0.808936805589109,-0.15585135379683,-0.00897930498981656,-2.18821259839249,0.142625414411777,-0.100165690082753
66.115,-0.700299795113369,0.3592937437195,0.247231271208267,-0.336545977825222,-6.38508402045602,-0.303099904746216,-0.559955588575558,-0.0083945277155097,-0.374232601310362,-1.67149628175544,-4.10428385554477,-0.627222150241551,-0.682081200260707,-0.499487635107864,0.216940470218503,-1.08185790284138,0.46824394125277,0.493484367356916,-0.80704691428839,-0.16874054259566,-0.00819663411445062,-2.18815416809544,0.152454580565673,-0.0511404856609494
66.12,-0.722152700559289,0.430997265387151,0.232866509747757,-0.230759365712981,-6.32098384246505,-0.0925607865732134,-0.60253442074577,0.00100155414645343,-0.417306164836913,-1.7020362326828,-4.19249121921109,-0.648289746134017,-0.67635388348981,-0.489254442142153,0.226023292858256,-1.12863326751207,0.443286701872475,0.417357801131562,-0.807758724371124,-0.178522792365468,-0.00455921798516845,-2.18674922592416,0.161902422606941,-0.00132587078115512
66.125,-0.743983050586458,0.499784437177372,0.224108319986977,-0.120128042815515,-6.23784080739818,0.159618121472493,-0.645318974921614,0.0101447951288734,-0.461222616185187,-1.73305598204318,-4.27240704511867,-0.668218301485095,-0.673360229903553,-0.477960706412996,0.235299504976686,-1.17546575871916,0.418039058161954,0.341655701865845,-0.81073308908196,-0.185410340769344,0.00163931668263087,-2.18501385261118,0.170968232446347,0.0483387267206062
66.13,-0.767791403850331,0.563563999448522,0.22168581507074,-0.0070688306811495,-6.13670628858097,0.452364745419192,-0.688886608458655,0.0188833421720794,-0.505760253208695,-1.7651680374002,-4.34391429366535,-0.687342873242288,-0.673098349024617,-0.465899324358971,0.244356567087,-1.22310720002558,0.392681114909801,0.265853282705156,-0.815618149649684,-0.189536259938611,0.0100250579736304,-2.18365788368582,0.179721736917214,0.0970668869739578
66.135,-0.795624860178136,0.62079256291574,0.226157811584832,0.105407921730458,-6.01867940342135,0.783457471884135,-0.733857381599687,0.0272987555293592,-0.550533868904717,-1.79915179792838,-4.40681577341939,-0.706137956768605,-0.675534817693316,-0.453259691997415,0.252818481573512,-1.27253047178172,0.367372310036775,0.189648723773102,-0.822057490394485,-0.191011895854755,0.0202280105468324,-2.18310223358036,0.188279988197108,0.144197510031458
66.14,-0.829579767240176,0.67031794618047,0.237123747653239,0.213764357803458,-5.88482532653441,1.14957551396432,-0.780242572302382,0.0356306889210125,-0.595393654925872,-1.83595722560672,-4.46082680980953,-0.725174752166839,-0.68059103596734,-0.440133351489567,0.260359440593119,-1.32490348611106,0.342253328096643,0.112956542245054,-0.82970576811288,-0.189987454880622,0.0318951461904812,-2.18350842472294,0.196799121368705,0.189191909676067
66.145,-0.871765132878517,0.711436566740774,0.253543968002831,0.314054497137063,-5.73610005606283,1.54637078114136,-0.827730298206953,0.044320433593785,-0.64030566421097,-1.87668480844422,-4.50556897638288,-0.745066453931985,-0.688136375286972,-0.42651901868483,0.266720647082056,-1.38154161952512,0.317441832254505,0.0358911651859841,-0.83825443292961,-0.18664915717411,0.0446294257246001,-2.18481663491338,0.205450766864085,0.231638112580391
66.15,-0.92416078673206,0.743958020900092,0.274206710629508,0.402086884864564,-5.5733081341077,1.96855097028266,-0.876079524958501,0.0540414983430796,-0.685110286771063,-1.92255308968547,-4.54056692052236,-0.766408438202077,-0.698000661272644,-0.412339697257699,0.271747003519006,-1.44385099098126,0.293028967460342,-0.0412633956978443,-0.847440708305951,-0.181169358944761,0.0579799418978322,-2.18678268887058,0.21437779500097,0.27123957476665
66.155,-0.988489185530066,0.768110995510259,0.297506102142705,0.473619155664844,-5.39706658791551,2.40998165523186,-0.924966862556127,0.0656295648964434,-0.729626953364591,-1.97485899562129,-4.56525043519605,-0.789715431154844,-0.709983995297547,-0.397462694281883,0.275434348989701,-1.51326611837772,0.269081692582115,-0.118088193877135,-0.857031125504379,-0.173689514427503,0.0715133249316155,-2.18901539454497,0.223669502755591,0.307782170015624
66.16,-1.06608786421137,0.784430387464322,0.321298795654809,0.524587846399685,-5.207744741557,2.86381371053284,-0.973889820290545,0.0800085202552055,-0.773741100952325,-2.03491236525671,-4.57895947472678,-0.815354061898506,-0.723835001357758,-0.381696989142277,0.277922748646282,-1.59116602454008,0.245643197989401,-0.194059984958513,-0.866814714545401,-0.164404620855495,0.0848313546016479,-2.19102168395734,0.233364477813626,0.341108870039533
66.165,-1.15776769119115,0.793636610594906,0.343002555900161,0.551365079492711,-5.00541697332294,3.32260807902671,-1.02217246155627,0.098129034596675,-0.817396109081783,-2.10393114395779,-4.580949811084,-0.843478991629367,-0.739230471920931,-0.364776896689872,0.279438066971796,-1.67876209247887,0.222721970315699,-0.268574792257505,-0.876611131999574,-0.153643975612767,0.0975216383169672,-2.19225318366243,0.24343756518998,0.371138617244483
66.17,-1.26367701019396,0.796546551557544,0.359793335394672,0.551007362536796,-4.78987250457265,3.77845847052241,-1.06899194173607,0.120906938740073,-0.86056366707551,-2.18292928541625,-4.57040625476536,-0.873985597305204,-0.755806269943515,-0.346380475000616,0.28026200068096,-1.77698718466005,0.200283925401506,-0.340966653383404,-0.886266619792498,-0.141808293383799,0.10917277826731,-2.19214179536298,0.253775462820831,0.397892907865316
66.175,-1.38321317239137,0.794016560422776,0.368803091649581,0.521471498193245,-4.56068026599044,4.22314721199552,-1.11340398134314,0.149153381036812,-0.903246036528654,-2.27262853238927,-4.54646780342014,-0.906482337021825,-0.773201362706549,-0.326179003705587,0.280729113537786,-1.88641150229151,0.178263390615382,-0.410527963663281,-0.895638994703966,-0.129261427017875,0.119436092220436,-2.19012256308948,0.264180355052093,0.421480072958562
66.18,-1.51499099861408,0.786865591419283,0.367319783335802,0.461795602408835,-4.31729946862075,4.6483373973784,-1.15436491404571,0.183491305132263,-0.945498651046328,-2.37337929496835,-4.50825812138887,-0.940280096561654,-0.791063247503369,-0.303869170831939,0.281195556170442,-2.00717321519943,0.156583089018845,-0.476531510789165,-0.904589261233239,-0.116319661467455,0.128037379000554,-2.185652631875,0.27439252232373,0.442061746946027
66.185,-1.65684907251704,0.775786702439867,0.353014167175544,0.372233611096701,-4.0592293307797,5.04578317682039,-1.19077185968937,0.224264868906227,-0.987435086916273,-2.48507497350415,-4.45491765774097,-0.974400418528868,-0.809041760182493,-0.279186831244901,0.281988487544536,-2.13891140189267,0.13517073493944,-0.538249291247466,-0.912983662820441,-0.103289338036928,0.134763130630181,-2.17823301850936,0.284109256142369,0.459839254394074
66.19,-1.80592692488857,0.761264706889928,0.32413292023758,0.254320055581831,-3.78618216118789,5.40755732796979,-1.22149224883405,0.271446358789389,-1.02925691601687,-2.60707218831978,-4.38564087368445,-1.0076058696349,-0.826803472166102,-0.251930268269484,0.283375775717431,-2.28071082959399,0.113974410432945,-0.594968235553045,-0.920699790016806,-0.0904587353402891,0.139465159065857,-2.16742914529271,0.293003829675224,0.475052178175032
66.195,-1.9592207779343,0.743195894706285,0.278875624909428,0.110853434968645,-3.49826483596472,5.72630140801223,-1.2448172790665,0.324445049161109,-1.0720133796775,-2.73813130439414,-4.29971912808801,-1.038451628473,-0.844054591033373,-0.2219963681173,0.28555175853034,-2.43106908697636,0.0929806418639467,-0.646007538441365,-0.927634293996166,-0.0780592070348975,0.142069619952508,-2.15288168817326,0.300748933842612,0.487966755161423
66.2,-2.11383824648903,0.720884148357843,0.215767436249122,-0.05420503659745,-3.1961463374574,5.99548209680004,-1.25876755348691,0.382081693887361,-1.11754701041659,-2.8763786863253,-4.19658618575221,-1.06535665457934,-0.860555624523175,-0.189414004005479,0.288614358912244,-2.58788620005179,0.0722309406708203,-0.690738751174311,-0.933714220347707,-0.0662497060853642,0.142576362664657,-2.13430868350705,0.307040090890371,0.498859259069192
66.205,-2.26592869111484,0.693951426070338,0.13627358603958,-0.235920213189435,-2.88118851555517,6.20961757015112,-1.26306331908764,0.442865084686898,-1.16613829662623,-3.01929597986097,-4.07586389438354,-1.08669222951288,-0.876124666316899,-0.15436514011816,0.292551617230846,-2.7484797727722,0.0518339468598465,-0.728607784372508,-0.938905135891706,-0.0551202573279825,0.141047541477285,-2.11150878360103,0.311615543245566,0.508006131127696
66.21,-2.41072767467963,0.662288721715095,0.0445479051810583,-0.428644971715265,-2.55552153078448,6.36445786749376,-1.25888265429075,0.504969734227824,-1.21637244832521,-3.16374562132156,-3.93740543840174,-1.10088040704751,-0.89063375731023,-0.117200419725099,0.297257377384099,-2.90963055923831,0.0319754906734439,-0.759159483172378,-0.943210010662858,-0.0446896632076338,0.137591600100684,-2.08436434802228,0.314272078872239,0.515671222546774
66.215,-2.54414076149602,0.625189894939765,-0.055204114652627,-0.626323874788244,-2.22205657328087,6.45712221853396,-1.24698172699375,0.566060639058943,-1.2674290079114,-3.30603429842989,-3.78133305377275,-1.10649486488293,-0.904003515950288,-0.0784541514478676,0.302545527579269,-3.06765799901834,0.0129247236010197,-0.782063656287164,-0.946664977545806,-0.034898604928271,0.132349469884857,-2.05283683875422,0.314876363400337,0.522086503487838
66.22,-2.6631623013778,0.581439502893358,-0.158852655362423,-0.822816374491387,-1.88446514157759,6.48617550989365,-1.22777071857684,0.623445473800794,-1.31920482909559,-3.44201989585188,-3.60806669314034,-1.10235899149292,-0.916197110126019,-0.0388464047584587,0.308153680403786,-3.21853086805169,-0.00496604567859438,-0.797142496051357,-0.949337934749598,-0.0256133574150682,0.125481019744503,-2.01696440805219,0.313370045443488,0.527433359150332
66.225,-2.76562790423497,0.529763537061167,-0.261736442317207,-1.01221382348292,-1.54712446965194,6.45163572176636,-1.20197640559287,0.674311555359174,-1.37154493970689,-3.56725821749249,-3.41834289515462,-1.08763160973105,-0.927216945058662,0.000743517453190006,0.313768480921001,-3.35800792533067,-0.0212690865859796,-0.804396134512695,-0.951330497301792,-0.0166528954799293,0.117154284105826,-1.97686398353729,0.309767435355496,0.531829659315312
66.23,-2.85025809169761,0.469079518078664,-0.358931416845074,-1.18911096940355,-1.2149760733094,6.35493686667629,-1.17073814270068,0.715919787972147,-1.4241770766506,-3.6771708119834,-3.213225759728,-1.06186990585141,-0.937107504590392,0.0393275320890568,0.319072478601349,-3.48178870811061,-0.0354991522859968,-0.804017075494562,-0.952780121753376,-0.00781735525822232,0.107539550234997,-1.93272083112082,0.304146822224995,0.535326722189192
66.235,-2.91645869993286,0.398719666056294,-0.445686357537721,-1.34881315268996,-0.893300158626906,6.19885473320959,-1.13544002879272,0.745795628809215,-1.47656618531929,-3.76723122875915,-2.99410863293826,-1.02506406123068,-0.94595644835891,0.0758605224487006,0.323788403768883,-3.58567311578215,-0.0471384951000555,-0.796391841126776,-0.953855058446439,0.00110230311287728,0.0968052628806308,-1.88476814155586,0.296638322059562,0.537909883304397
66.24,-2.96409077453552,0.318609852441117,-0.517807331389194,-1.48747436145726,-0.587458075762534,5.98739071934453,-1.09750131944474,0.76192571261156,-1.52781541765572,-3.83316769903984,-2.76270495446897,-0.977639951527168,-0.953886740723004,0.109281229389502,0.327714004934036,-3.66573085131911,-0.0556649296290642,-0.78209242027201,-0.954736281421357,0.0103153788149602,0.0851338913264731,-1.83327024118331,0.287413614638349,0.539499723095469
66.245,-2.99352703358473,0.229459825026281,-0.571747952837459,-1.60216340192617,-0.302636034433166,5.72562418436278,-1.05849159183705,0.762997176182273,-1.57677875919169,-3.87116973930105,-2.52102974550627,-0.920428932622643,-0.961047605255241,0.138546253212563,0.330742854116818,-3.7184716813491,-0.0605817611526515,-0.761855823346617,-0.955594587681157,0.020028450400848,0.0727613844218844,-1.7785088708853,0.276687759629143,0.539958645134249
66.25,-3.00557358082315,0.132908701689572,-0.604725132051343,-1.69087859855829,-0.0436179497997971,5.41953604081745,-1.02012966423148,0.748587096018494,-1.62212260660719,-3.87810083539405,-2.27137150762753,-0.854607750898397,-0.967608093386772,0.162667114960712,0.332870450380518,-3.74102311253688,-0.0614451300038552,-0.736556695993084,-0.956582674610426,0.0304544486590622,0.0599849284619497,-1.72077195175893,0.264731832588869,0.539093813851026
66.255,-3.00117503564234,0.0315473262183884,-0.614965687479549,-1.752509500904,0.185414278811115,5.07582262982633,-0.984083590538366,0.719208949054428,-1.66232749489396,-3.85168849249561,-2.01625616806003,-0.781611023858451,-0.973746052469303,0.180757622797397,0.334199382304639,-3.73129136263048,-0.0578888992478093,-0.707181220607195,-0.957842294714068,0.0417992004059157,0.0471245008687658,-1.66034654295526,0.251875119619847,0.536655777422083
66.26,-2.98120532335235,-0.0712048893277362,-0.60184217598749,-1.78673060644381,0.381079136007442,4.70172925053927,-0.951851098437285,0.676263964080392,-1.695740307513,-3.79064486304474,-1.75840764693486,-0.703024872547914,-0.979633694441512,0.192084181148926,0.33492848310932,-3.6880616402109,-0.0496512811015816,-0.674800062827767,-0.959507282431387,0.0542273112394674,0.0344853697747335,-1.59751515657547,0.238493212663906,0.532348728448987
66.265,-2.94636895434696,-0.171355217319899,-0.56586288385733,-1.79388977642768,0.540967961879117,4.30487178076293,-0.924668369635899,0.621960166640204,-1.72061753499539,-3.69475123216417,-1.50070073711122,-0.620481691142927,-0.985422798904017,0.196115442657576,0.33530260699954,-3.6110729858092,-0.0365987367345036,-0.640535542752544,-0.961698480102057,0.0678455487507368,0.02231243895303,-1.53255436567344,0.224991088553669,0.52585034124162
66.27,-2.89709770985918,-0.264618204908081,-0.508523024876023,-1.77493711062366,0.663761547489134,3.89302427580649,-0.903481766903983,0.559155955814881,-1.73511477028576,-3.56493002843714,-1.2461016608406,-0.535568243384922,-0.991231385289693,0.192565028848141,0.335571616041168,-3.50109201477026,-0.0187432687138545,-0.605525362010918,-0.964512894704058,0.0827131752261244,0.0107501614432077,-1.46573514755235,0.211771221699816,0.516831125897119
66.275,-2.83344361597572,-0.346707983471042,-0.432061606741425,-1.73134321446793,0.749310509088009,3.47392415589487,-0.888992226727363,0.491093808162096,-1.73726727488349,-3.4032425212937,-0.997606362958753,-0.449746676902577,-0.997145115946346,0.181396013587267,0.335999158594077,-3.35992129958213,0.00374554706920549,-0.570887668260678,-0.968006635182031,0.0988688591586872,-0.000112549449736824,-1.39732963937624,0.199199752882722,0.504972001710269
66.28,-2.7555478122695,-0.41388132819252,-0.339789834520028,-1.66500754155987,0.798675974371697,3.05510632827811,-0.881352877994092,0.421051552817185,-1.7257211480119,-3.21281016466457,-0.758181774183089,-0.364294925348484,-1.00323418874317,0.162795651968481,0.336872249637847,-3.19033788427894,0.030537557211079,-0.537688754179226,-0.972183398520047,0.116357883431181,-0.0101478726397345,-1.32762475691248,0.187604372820738,0.489974746019822
66.285,-2.66398759370781,-0.463344716295419,-0.236085521731642,-1.57820406486763,0.814101597430183,2.64373192401253,-0.880074534767755,0.352069655151509,-1.70014788830379,-2.99770743689959,-0.530700445284203,-0.280274771314523,-1.00956328604632,0.137173991107133,0.338483454483999,-2.99600907357909,0.0611517352945332,-0.506912476258828,-0.976994329836175,0.135247801448919,-0.0191574769871476,-1.25693613737945,0.177296744958407,0.47156097090194
66.29,-2.55925008981614,-0.493244127271853,-0.125176816194217,-1.47353596940753,0.798920216261325,2.24642483058975,-0.884619950545212,0.286780718118551,-1.66028500139313,-2.76280362641374,-0.317864811031247,-0.198525216613367,-1.01618639446094,0.105170772471514,0.341101901354109,-2.7813616887016,0.0949758781979184,-0.479433674064281,-0.982345170063082,0.155621628148498,-0.0269155108919036,-1.18562355146057,0.168589396179629,0.449463625086973
66.295,-2.44172864589395,-0.502825552999259,-0.0106683808580497,-1.35388854820263,0.757393257631629,1.86912417670653,-0.894534328447602,0.227231534995388,-1.60578006779258,-2.51355535338186,-0.122127226462462,-0.119681762160152,-1.02313921755344,0.0676212376247127,0.344926124083842,-2.55140429043154,0.131290999841272,-0.455996997264713,-0.988110322379732,0.177534647715476,-0.0332240713748503,-1.11410500198326,0.161798435948997,0.423424379338542
66.3,-2.3122322301908,-0.492661159153317,0.104154692075121,-1.22240678144411,0.694470161113351,1.51693630402103,-0.909175316543521,0.17474362199042,-1.53686090065312,-2.25579553716395,0.0543896226452259,-0.044220379838247,-1.03043151152206,0.025525378730499,0.350044398619369,-2.31154526675323,0.169297768808809,-0.437197594364547,-0.994140994763976,0.200963886740828,-0.0379344646839626,-1.04286052949253,0.157239890123596,0.393208580692545
66.305,-2.17213299579042,-0.464598984144182,0.216354248119112,-1.08243554640923,0.615500331156872,1.19402217007238,-0.927712992865846,0.129834422923685,-1.45453353940467,-1.99547908172244,0.209969114235632,0.027492543855221,-1.03803238567987,-0.0199415179829383,0.356437748804064,-2.06736472908034,0.208147286321129,-0.423465196999502,-1.00025826839827,0.225781887904755,-0.0409393988276804,-0.972432588768308,0.15522459090337,0.358627610633619
66.31,-2.0233619527822,-0.42156415454008,0.323429036698647,-0.937381397887595,0.525937300775169,0.90354882065255,-0.949200454539688,0.0922341623035288,-1.36056917933479,-1.73836417913931,0.343368977095899,0.0951572738953273,-1.04584879988651,-0.0674276076636987,0.363979304353766,-1.82431815076688,0.246975683879658,-0.415056860889143,-1.00624696741162,0.251706614721244,-0.0421814086325775,-0.903427433539906,0.156048485573558,0.319560008120415
66.315,-1.86833946394548,-0.367246003769326,0.423352141960692,-0.790547628435671,0.431053106986465,0.647682133940634,-0.972634191640907,0.0610280273245583,-1.25738527910519,-1.48969632648986,0.453879157622998,0.158503419323927,-1.05370255908589,-0.115419489252581,0.372401494233122,-1.58743718095049,0.284936499802586,-0.412047796050168,-1.01185761479261,0.278205625773795,-0.0416932218614899,-0.836503639942824,0.159976913930568,0.275992707278024
66.32,-1.70984434922968,-0.305691876213001,0.514583606203926,-0.6449555488362,0.335698733931236,0.427627355584634,-0.997008319631611,0.0349052600400411,-1.14783265759623,-1.25392174253989,0.541366622845427,0.217264142092637,-1.06133111575567,-0.162300375533789,0.381283958815627,-1.36105194051229,0.321228758413546,-0.414308698740342,-1.01682441888501,0.304483992059599,-0.0396461707555754,-0.772343518517681,0.167225168809203,0.228090726433527
66.325,-1.55089403078462,-0.240920616195792,0.596134742069687,-0.503221310833949,0.244114151069675,0.243691137132099,-1.02136293617476,0.0124995705004634,-1.03491687716463,-1.03451587272735,0.606288319679995,0.271164968521526,-1.06843837732709,-0.206531771035925,0.39009315334738,-1.1486213662987,0.355123284860858,-0.421500584204511,-1.02091577058996,0.329651336023191,-0.0363754232340143,-0.711616799019024,0.177925982804451,0.176239419785396
66.33,-1.39461190992339,-0.176603671387762,0.667566458339759,-0.367580427266936,0.159763914424203,0.0953011578200095,-1.04482808092507,-0.00734087424231647,-0.921577818117293,-0.834022155335411,0.64965396242253,0.319923918641766,-1.07475114215548,-0.246828714131728,0.39825037939584,-0.952769050272454,0.385988256399666,-0.433121641329081,-1.02397770584499,0.352890740610395,-0.0323425051321265,-0.654944835710487,0.192082201224305,0.121009147519293
66.335,-1.24400659213039,-0.115791776267054,0.728803553766158,-0.239908632542654,0.0852545037792281,-0.0189499645631062,-1.06665210504284,-0.0254905872937763,-0.810595075493777,-0.654123148234722,0.672952565567548,0.363271698842202,-1.08001685612197,-0.282152084503348,0.405179220627466,-0.775344838909529,0.41331147366907,-0.448570793785957,-1.0259232748793,0.373430277323939,-0.0280589344492821,-0.602875413681216,0.209535248715518,0.0630999684295825
66.34,-1.1017823924589,-0.0607433457481047,0.780012731201528,-0.12161837998309,0.0223669455703426,-0.101165904084626,-1.08619612850567,-0.0425103427530281,-0.704469486386017,-0.495597957188921,0.678068217099512,0.400990211347676,-1.08397760198286,-0.31166792082052,0.410305816392106,-0.617364631240836,0.436714140565252,-0.467180143561044,-1.02670719258571,0.390458267018132,-0.0240471803637345,-0.555867121473224,0.229963335276304,0.00334041411152113
66.345,-0.97028819724875,-0.0128928405318693,0.82168862766055,-0.0136269210746958,-0.0279027804195452,-0.154013108488613,-1.10291720194363,-0.0585255700853805,-0.605234416815063,-0.35836859210867,0.667189627458113,0.432944307403509,-1.08638959301269,-0.334844392037874,0.413070094364057,-0.479035350620265,0.455955481327192,-0.488233155925314,-1.02632899454525,0.403198908635044,-0.0208091205286017,-0.51426435422441,0.25289017114335,-0.0573023494340795
66.35,-0.851453296911225,0.0271084152666665,0.854631578527998,0.0835158200659576,-0.0653419362657141,-0.180641695454254,-1.1163799936229,-0.0732413671017114,-0.514390579147009,-0.241732460935811,0.64270539217194,0.459098736521601,-1.08706834662077,-0.351536599205429,0.412997220046074,-0.359966542298843,0.470933844237665,-0.511000906557778,-1.02484422822654,0.411055541578997,-0.0187522079825251,-0.478265863506985,0.277706449944899,-0.117766412560809
66.355,-0.746635501920283,0.0593040838244096,0.879697581573168,0.169557890772239,-0.0904403593916414,-0.184559531117875,-1.12628585246574,-0.0861576953798319,-0.432995846723149,-0.144537680306598,0.607086727649971,0.479536181800926,-1.08590700379843,-0.361909074666031,0.409766655268293,-0.259325393030502,0.481684669045055,-0.534788837622078,-1.02236460796797,0.413652155221311,-0.0181525629492052,-0.447920343317982,0.303710263701002,-0.176957963375245
66.36,-0.656573042892938,0.0842697082967782,0.897685612402813,0.244604826595682,-0.104201797946722,-0.169447843913962,-1.132484728274,-0.0967199667456706,-0.361695889411446,-0.0652038918478157,0.5627780028,0.494475970001254,-1.08287890300514,-0.366330917840323,0.403233123410832,-0.175838684483054,0.48837086492302,-0.558969967985541,-1.01904580077866,0.410839001728754,-0.0191731136058803,-0.423152868178146,0.330145341760503,-0.233786650840569
66.365,-0.581506815386177,0.102910763047882,0.909485532404735,0.309093810034239,-0.107987227683936,-0.139026725428045,-1.13496223600942,-0.104313310504979,-0.300653140030262,-0.00181977013348503,0.512113286460766,0.504274226123857,-1.07804383974165,-0.365386165925474,0.393433717151635,-0.107875483125759,0.491269037052251,-0.582998805812064,-1.01505720903059,0.402739752816668,-0.0218470728783815,-0.403784723543143,0.356242641288464,-0.287213129304934
66.37,-0.521273351578056,0.116278810381151,0.916137977127282,0.363612071293903,-0.103450239326884,-0.0969934548267858,-1.1338113105812,-0.108306558319695,-0.249564295092207,0.0475961687156227,0.457255696150931,0.50940089450198,-1.07153186523549,-0.359877336686511,0.380566489063845,-0.0536981072985903,0.490754921513582,-0.606414353354561,-1.01055381654376,0.389731315743558,-0.0260704823961332,-0.38953313043327,0.381284615729142,-0.336327290758102
66.375,-0.475276028217914,0.125434641761923,0.918666289941823,0.408753336434826,-0.0924681804116948,-0.046958598874005,-1.12921791173699,-0.108221676947985,-0.2078107918,0.0848961742715009,0.400150963771881,0.510407316989278,-1.06351450693527,-0.350694331296767,0.36492726030731,-0.0116563897337411,0.4872804187845,-0.628838866578991,-1.00568471321441,0.372335200608198,-0.0316764663908237,-0.380019063949329,0.404653628985083,-0.380390159742799
66.38,-0.442479946549174,0.131375690439175,0.917941748861667,0.445113251670392,-0.0770077140921886,0.00765778945213089,-1.12147960332311,-0.103866165581933,-0.17458536698804,0.111783093685476,0.3424952788628,0.507895013709163,-1.05420465105041,-0.33865835802311,0.346883946617068,0.0197927650530292,0.481340636016228,-0.649976594408482,-1.00061166861407,0.351160612382104,-0.0384836700109141,-0.374799856810274,0.425831955792551,-0.418821523100985
66.385,-0.421526105089945,0.13500292154454,0.914725185339096,0.47331742822408,-0.058981937551558,0.0637384640199051,-1.11101863781873,-0.0953278133230366,-0.148926883518087,0.129833437749837,0.285724088726868,0.502487364342743,-1.04386740536943,-0.32446394986439,0.326901720382508,0.0421062335954304,0.473443730553966,-0.669604105128053,-0.995492859154458,0.32691515618499,-0.0462569506716273,-0.373402950095504,0.444397891347506,-0.451193180400586
66.39,-0.410876231317952,0.137083642231714,0.90973964645241,0.493994933908017,-0.0401618421277435,0.118544789553877,-1.09836047464361,-0.0829071089403051,-0.129751047848892,0.140460004882125,0.231022499947392,0.494802488505634,-1.03281737452336,-0.308695746632355,0.305525964339939,0.056613833848571,0.464089828655148,-0.687546983588447,-0.990474693787207,0.300387450435052,-0.0546960195599221,-0.375339123242808,0.460045351571913,-0.477246082074608
66.395,-0.408893660601785,0.138220451518797,0.903647985331661,0.50773046133985,-0.022124643313316,0.169751861278358,-1.08410032903522,-0.0670868562691465,-0.115930077662466,0.144862112315803,0.17934026383355,0.485425182861678,-1.02140619817256,-0.29184657490938,0.283317926864404,0.064462955785692,0.453750407085688,-0.703667467158265,-0.985717257520582,0.272383037816361,-0.0634917526171956,-0.380110178639451,0.472584600203111,-0.496896278966472
66.4,-0.41389083084208,0.138861019864487,0.896993654493364,0.515053339683473,-0.00619705724237299,0.215478564075915,-1.06887154404271,-0.0485285309957924,-0.106365001125284,0.144027087370762,0.131405864439773,0.474881404533096,-1.00999191338094,-0.274293271787928,0.260824493088805,0.0666132445815049,0.442845390102481,-0.71786385310507,-0.981385345029803,0.243655734430573,-0.0723539581199296,-0.387217394828447,0.481914973687638,-0.510214584429501
66.405,-0.424203091170075,0.13933270511745,0.890202599875136,0.516458188064594,0.00659720479985779,0.254322156057817,-1.0533131067404,-0.028025361020338,-0.100015707659342,0.138765701230805,0.0877540972609555,0.463622330411398,-0.998908576951007,-0.2562732510161,0.238573485508504,0.0638671949494716,0.431727441174927,-0.730050570247036,-0.977613445376592,0.214859871322022,-0.0809817672051427,-0.396153426370701,0.488011572551802,-0.517398544802925
66.41,-0.438270332706369,0.139865238978216,0.88362964533947,0.51241908488929,0.0155545038077779,0.285366900386081,-1.03804139963436,-0.00641894313902901,-0.0959286890997838,0.129740707393168,0.0487607530212405,0.452016328897291,-0.988463939974011,-0.237915589420174,0.217036118945274,0.0568954486472847,0.420674698240786,-0.740130650858767,-0.974516137888846,0.186515872359981,-0.0890320550362608,-0.406387950916728,0.490928672548764,-0.518742899430666
66.415,-0.454682606991452,0.140608615544263,0.877578919731583,0.503398661902321,0.0202743125938974,0.30815938923549,-1.02362466154983,0.0154654496888718,-0.0932727630984086,0.117496983512486,0.0146681918870957,0.440344277829,-0.97894296434122,-0.219288280048262,0.196582940365274,0.0462635166767155,0.409885822649903,-0.747987122628555,-0.972216634259282,0.158994169912314,-0.0961199595064594,-0.417369269448772,0.490797754981155,-0.514597128573656
66.42,-0.4721907780933,0.141661870425548,0.872289179689086,0.489865517234143,0.0206304812846688,0.322670477140523,-1.01055608263954,0.0368634399329039,-0.0913513546765278,0.102502841935451,-0.0143966349246138,0.428799702971667,-0.970598801791078,-0.200433821500654,0.17747715209931,0.0324699314660795,0.399478559455374,-0.753487818626639,-0.970847925480751,0.132542982083299,-0.101856663710676,-0.42853751930342,0.487817653055103,-0.505321794239268
66.425,-0.48971577280311,0.14309296441901,0.867922093690245,0.472303197515751,0.0167434358188983,0.329249610743951,-0.999234193610702,0.0571148919784725,-0.0895956024633376,0.0851761560842749,-0.0384099508326371,0.417493664085563,-0.963645670635854,-0.181401642848258,0.159890324095198,0.0159696128424984,0.389493924670463,-0.756500235088788,-0.970541511502895,0.107345161969722,-0.105899813755104,-0.43934115858458,0.482235496789038,-0.491265311361767
66.43,-0.506379252017981,0.144931064440065,0.86457283184535,0.451205499027709,0.00894887267676259,0.32855968532518,-0.989958954999426,0.075698342273525,-0.0875638717109748,0.0658933175601494,-0.0574423300095074,0.406464028413993,-0.958260163066677,-0.162251595040296,0.14392223527273,-0.00281974730244042,0.379905708091122,-0.756912945427864,-0.971412141298791,0.0835711498976005,-0.1079808520201,-0.449255199721889,0.47432219407629,-0.472761451806941
66.435,-0.52153026830211,0.147152888181872,0.862285387267783,0.427073493238224,-0.00224321503831074,0.32148403155833,-0.982936442183,0.0922468693875538,-0.0849456210977129,0.0450050799278461,-0.0716454027808313,0.39569146098702,-0.954584584660381,-0.143048089791912,0.129623467257024,-0.0235039059098635,0.370636338529021,-0.754651287361839,-0.973539458809382,0.0614202487223393,-0.107908472461225,-0.457798318057742,0.464353033117456,-0.4501421009901
66.44,-0.534732607113532,0.149692624247123,0.861053402727847,0.400409449058626,-0.0161921443082279,0.30902567078713,-0.978278096478204,0.106545041079518,-0.0815570815948643,0.0228485637008792,-0.0812388566903636,0.38511797176197,-0.952721939274287,-0.123896931292896,0.117009887650228,-0.0457020434973837,0.361575492363274,-0.749692441230883,-0.976953897147413,0.0411294208571576,-0.10554928968875,-0.464551230381184,0.452594699409241,-0.423761245708813
66.445,-0.545732242968256,0.152462437239936,0.860812609680836,0.371697581443745,-0.0321666221378673,0.292228946657847,-0.975993099865314,0.118510156740387,-0.0773336015369052,-0.000263665098117091,-0.0865048732126096,0.374660854421664,-0.952716495111681,-0.104981066924869,0.106062479084122,-0.0690598467371503,0.352594894832939,-0.742085538466791,-0.981619211530093,0.0229287196781516,-0.100776985168491,-0.469182056678871,0.439304478852745,-0.394012776803464
66.45,-0.55443955557714,0.155362515518678,0.861445660582737,0.341387996413721,-0.049384663225651,0.272122815263097,-0.97598914063876,0.128169809848323,-0.0723242852170405,-0.024054079637588,-0.0877812290917211,0.364223467685413,-0.954538430868669,-0.0865398435990097,0.0967302743188959,-0.0932614383007316,0.343559661737972,-0.731960747360426,-0.987416979883926,0.00700039420027209,-0.0934498047559816,-0.471474034392471,0.424752216086295,-0.361325815960734
66.455,-0.560920960231077,0.158292507638664,0.862815250484817,0.309896426837204,-0.0670572895737827,0.249670569619803,-0.978091489628032,0.13564553370863,-0.0666808323110862,-0.0482716009075578,-0.0854479461811425,0.353708357203774,-0.958093606682453,-0.068835597574538,0.0889523893141745,-0.118021482594331,0.334341054803183,-0.719524175437361,-0.994154990616365,-0.0064919222543927,-0.0834795186800509,-0.471334595291662,0.409241206600829,-0.326158429762895
66.46,-0.565376774453789,0.161165819999173,0.864802680999635,0.277607350465749,-0.084439073827194,0.225729491364632,-0.982064035339119,0.141130845297704,-0.0606368353916513,-0.0726829713020583,-0.0799149915938019,0.34303180352192,-0.963236894291624,-0.0521427254281759,0.0826768093351161,-0.143077623265309,0.32483043253387,-0.705054868294866,-1.00158603902522,-0.0173750884777209,-0.0708982961203634,-0.468775055785798,0.393097651858893,-0.289015689477508
66.465,-0.56809499157865,0.163906311588429,0.867304728175262,0.244876853500011,-0.100879532775609,0.201030587423107,-0.987616262520168,0.144857298300173,-0.0544809636678843,-0.0970678877787853,-0.0716113172117672,0.332134401842046,-0.969765169968447,-0.0367346174608768,0.0778525613787266,-0.168186521953164,0.314949333104304,-0.688898504539098,-1.00941481921138,-0.0255146198366822,-0.05583631824008,-0.463883750318831,0.376655907166598,-0.250462621182938
66.47,-0.569393074069159,0.166431308861614,0.870193011798345,0.212040671785643,-0.115854417637884,0.176170322853918,-0.994409613346776,0.147066828616067,-0.0485239785649983,-0.121206334710349,-0.0609730818630642,0.320986263197686,-0.977413111757175,-0.0228673798335322,0.0744181420816653,-0.193110862088585,0.304654188480738,-0.671448447328771,-1.01730799882307,-0.0308565924308594,-0.0384964905813007,-0.456810312017478,0.360262535230288,-0.211106851707451
66.475,-0.569567307432967,0.168649984577449,0.873280789110175,0.179419829981963,-0.128964924468117,0.151602870094239,-1.00207598322564,0.147992239449091,-0.0430697742492552,-0.144868267575919,-0.0484357003542836,0.30958912183819,-0.985867796689667,-0.0107745821650602,0.0723074269865727,-0.217608217855224,0.293938061807978,-0.653126885658524,-1.02491173625052,-0.0334131698686967,-0.019147510808215,-0.447753349420006,0.344275480463012,-0.171578031576528
66.48,-0.568854323370661,0.170493976212851,0.876319916579259,0.147329066173999,-0.13991518035609,0.127646748102675,-1.01024280842792,0.147831671762368,-0.0384040472528028,-0.1678046095792,-0.0344304530610001,0.297976693892165,-0.994788706312173,-0.000672269298748437,0.0714634534818022,-0.241420996655831,0.282830639623403,-0.634369316646115,-1.03186470664675,-0.0332490740129602,0.00192972140649326,-0.436953982522254,0.329065358623929,-0.132512574546443
66.485,-0.567423688949383,0.17195177860209,0.879048963612037,0.116098840159423,-0.148484432605105,0.104524849952312,-1.01855131953285,0.146737153126967,-0.0347782667214589,-0.189730826445702,-0.0193851896731085,0.286213558962001,-1.00382543207167,0.00724100202566602,0.07184847184234,-0.264258291282921,0.271396722751048,-0.615609135623978,-1.03781953485076,-0.030475498012884,0.0244421881870814,-0.42469837942599,0.315034656542925,-0.0945344330435425
66.49,-0.565419533176711,0.17305708345963,0.881284510450974,0.0860762410867996,-0.154524637209037,0.0824149518715494,-1.02665654142907,0.144837963689093,-0.0323642740695371,-0.210340202340587,-0.00372270468717799,0.274390246922553,-1.01262753567747,0.0128236338353154,0.0734377870657512,-0.285808575917053,0.259731340961626,-0.597269227748086,-1.04247415542752,-0.0252432984196821,0.0479679551543382,-0.411310535105915,0.302609564763288,-0.0582468118016987
66.495,-0.562988330107094,0.17384702722115,0.882946516652985,0.0575802171714608,-0.157994633900492,0.0614702789152598,-1.03423376500753,0.142257342737312,-0.0312228042797934,-0.229364132584099,0.0121551382667132,0.262613275342467,-1.02085629996518,0.0160493855163601,0.0762045052610847,-0.305801367640554,0.247949909004902,-0.579753857752299,-1.04559047857518,-0.0177586739852011,0.0719250717835263,-0.397129413688854,0.292185452574462,-0.0242330373142831
66.5,-0.560247083548479,0.174342076782557,0.883978219372926,0.0308719576576046,-0.15896587904262,0.0418205849816517,-1.04101166193001,0.139096444780168,-0.0313219081590391,-0.246606219521198,0.0278878414198534,0.250996974406271,-1.02821349501316,0.0170254377509024,0.0801183100070065,-0.324041273511289,0.236179330444453,-0.563426805422979,-1.04699958465743,-0.00829206361933122,0.0956942917586658,-0.382489961802926,0.284093870047635,0.00695671824551012
66.505,-0.557275479412852,0.174535996121535,0.884316444815187,0.00617082327270022,-0.157571904753673,0.0235723053743344,-1.04678879448669,0.135440646376065,-0.0325519370728629,-0.261919741291136,0.0431673947067204,0.239661459073304,-1.03446460308355,0.015979034927435,0.0851468429086276,-0.340383223844978,0.22455484165927,-0.548584863956216,-1.04660859818254,0.00285344335451614,0.118661336735818,-0.367720187415457,0.278610585755759,0.0348256367686049
66.51,-0.554161652505037,0.17438568446332,0.883960549729063,-0.0163552976070043,-0.153980759275892,0.00678596252303226,-1.05141335642997,0.131394975435191,-0.0347156999943319,-0.275211619630035,0.0577481013873477,0.228729996571888,-1.03943435422428,0.0132412501718567,0.0912399843149442,-0.354735826761877,0.213216538460799,-0.535445656160824,-1.0444085625181,0.0153545900216158,0.14014926074684,-0.353147408235215,0.275941678389761,0.0589342320281387
66.515,-0.551004343205113,0.173835356485967,0.882982584933086,-0.0366316518571899,-0.148412759301312,-0.00855219119149371,-1.05476473955285,0.127073122868428,-0.0375527135830106,-0.286483693447345,0.0714599816748009,0.218321922737679,-1.04298708521391,0.00923472875966484,0.0983044255898801,-0.367103446608713,0.202301353585823,-0.524142333687569,-1.0404744202458,0.0288012845664804,0.159439379098105,-0.33909820150196,0.276188748389033,0.0789066943733184
66.52,-0.547853654912648,0.172869746345962,0.8814503097323,-0.0546697849815253,-0.141143506710954,-0.0225120822851599,-1.05675385659905,0.122541925276698,-0.0407977850631351,-0.295821774655881,0.084220317503729,0.208544930439161,-1.04501381779949,0.00446116165100053,0.106185366683459,-0.377574174277983,0.191934651984662,-0.514706078205782,-1.03496143686855,0.0426273638110009,0.175859386939533,-0.325883360794314,0.279339394016668,0.0944717276251814
66.525,-0.54466936197475,0.171549854433337,0.879373943573227,-0.0705088481785986,-0.132476879741173,-0.0351543479260069,-1.057341923479,0.117800448693331,-0.0442143956131426,-0.303330119537163,0.0960372676147505,0.19948796447497,-1.04544863619278,-0.000551117413367396,0.114681416527878,-0.386251954922268,0.182223372072005,-0.507047998403002,-1.02810550480745,0.056157088503211,0.188824986495284,-0.313774993467603,0.285271492875645,0.105517661533309
66.53,-0.541350983834653,0.169991893820015,0.876721301868208,-0.0841674466467939,-0.122697843473367,-0.0464682671349655,-1.05656925116371,0.112826186081154,-0.0475856196807375,-0.309083895265727,0.106997699668057,0.191216476280136,-1.0443085350195,-0.00533758330947598,0.123604268845588,-0.393207523415537,0.173251902929914,-0.500964457251607,-1.02020624059977,0.0687616257050194,0.19786966162802,-0.302989514186865,0.293755899892409,0.112112353677898
66.535,-0.537833807666322,0.168301553869007,0.873493830931114,-0.0956496747043404,-0.112028061805594,-0.0563757448893192,-1.05455156122159,0.107648943051286,-0.0506914049375862,-0.313142685552265,0.117244818577886,0.183775285938748,-1.04170509216696,-0.00954495918530967,0.132828317077612,-0.398491839745109,0.165084925981667,-0.496163875827203,-1.01157920070215,0.0799907999208932,0.20267303485768,-0.293686464422078,0.304474184927343,0.114463621357779
66.54,-0.534159067323013,0.166535671035124,0.869791019456524,-0.104999670739094,-0.100634200997187,-0.0647976225714386,-1.05143342083777,0.102378543565044,-0.0533123406495372,-0.315611731099425,0.126965251579621,0.177195535083215,-1.03780557464654,-0.012902344927207,0.142259446579668,-0.402198882943285,0.15777329569883,-0.492294193981093,-1.00252702995379,0.0895484258616117,0.203031604853775,-0.285978754649576,0.317044555471936,0.112854928133568
66.545,-0.530439188915936,0.16472069510923,0.865772053613474,-0.112344656268825,-0.0886750038217772,-0.0717033427724349,-1.04735272985856,0.0971642763537726,-0.0552670016378868,-0.316683950473892,0.136388580855967,0.171495115293229,-1.03279030910205,-0.0151919458903017,0.151763744772011,-0.404509674712428,0.15135305516881,-0.488959458221824,-0.993357543391843,0.0971718807423945,0.198813251067046,-0.27993482694121,0.331026628761,0.107621857378548
66.55,-0.526785260715458,0.162879460840746,0.86157207100107,-0.117889677390444,-0.0763181374659656,-0.0771103034984689,-1.04244513979331,0.0921480110973147,-0.0564477199019633,-0.31662682231238,0.14578033925172,0.166673564088208,-1.02684512543114,-0.0162710649155283,0.161150380580176,-0.405679949608787,0.145839473743029,-0.485734476500157,-0.98439774952924,0.102594056350298,0.189969467247915,-0.275565875647572,0.345913289064403,0.0991691016663048
66.555,-0.523300703243182,0.161031773995039,0.857301483896174,-0.121888257432323,-0.0637236001698048,-0.0810713353136736,-1.03685634622944,0.0874621541311806,-0.0568272216657895,-0.315743909566669,0.155422594607839,0.162710217510401,-1.02017162597561,-0.0160906419774479,0.170194155412916,-0.406001585912932,0.141224913281723,-0.482186090359234,-0.975983633411051,0.105601722780321,0.176545044456255,-0.272815385454057,0.361135456592598,0.0879782572719294
66.56,-0.52010703141792,0.159190324927916,0.85309567445336,-0.124625782202018,-0.0510507281692688,-0.0836802869628942,-1.03074298913339,0.0832444610845824,-0.056444936341601,-0.314350045771568,0.165596672553268,0.159565027066176,-1.01299045521222,-0.014688020684345,0.178651057596209,-0.40577848673058,0.137479406676119,-0.477897795927282,-0.968446914148675,0.106088264146708,0.158658295506412,-0.271562937713988,0.37606463741606,0.0745955791872475
66.565,-0.517313154817373,0.15737680574741,0.849088664227264,-0.126412088908035,-0.038477715499264,-0.0850775198099998,-1.02427885214854,0.0796196819616854,-0.0554015259621683,-0.312759909122594,0.176567890905934,0.15717938349139,-1.0055381856488,-0.0121972572250486,0.18628387353503,-0.405316213872416,0.134551175969936,-0.472494879486504,-0.962093374433608,0.104074785891515,0.136546511745269,-0.271635808274329,0.390014883983695,0.0596112717027425
66.57,-0.514965481747467,0.155639016405468,0.845353298281884,-0.127552556618497,-0.0261791147914096,-0.0854293734178858,-1.01765770444879,0.0766640147830524,-0.0538628696745526,-0.311259080336074,0.188562259534086,0.155479093122681,-0.998056506707515,-0.00885373717026028,0.192887220682085,-0.40489286740572,0.13237000164308,-0.465668189391543,-0.957178401897705,0.0997051351432477,0.110621350343655,-0.272820198422003,0.402272747456385,0.0436339694515461
66.575,-0.513050392628189,0.154044155673534,0.841912922660311,-0.128305993906573,-0.0142936667772781,-0.0848932455375874,-1.01107559923565,0.0743958503370599,-0.0520507468740503,-0.310061676561079,0.201744891456139,0.154377666301045,-0.990771646513559,-0.00496128191928166,0.198286905553999,-0.40471613355639,0.130851785324419,-0.457192272095339,-0.95389604655588,0.0932173562219276,0.0814322843885097,-0.274867527404211,0.412131753458562,0.0272683136462744
66.58,-0.511519236671032,0.152657470607069,0.838774961336423,-0.128855820321622,-0.00292308226937556,-0.0835923249508825,-1.00471656820172,0.0727895200450752,-0.0502227417600559,-0.309280889454304,0.216208383274113,0.153778013669596,-0.983882355586807,-0.000870556404113904,0.202340286260459,-0.404893798062062,0.129901700425801,-0.446936852439601,-0.952371065191859,0.0849283885273995,0.0496330035734991,-0.27750009636811,0.418910995777803,0.0110983074598205
66.585,-0.510300432838784,0.151523867656733,0.835932317874662,-0.129296746542309,0.00786678659720747,-0.0816091227491217,-0.998754766032413,0.0717905821633331,-0.0486551266600085,-0.308915628703786,0.231962756206723,0.153575184387656,-0.977561729938254,0.00301324624358995,0.204951071477464,-0.405420275039965,0.129418138378242,-0.434875534911783,-0.952646638020059,0.0752393028373707,0.0160087926633024,-0.280427627748871,0.421984019457793,-0.00433149006598883
66.59,-0.509313283223895,0.150661055334125,0.8333674905893,-0.129632157428378,0.018053008251447,-0.0789931856265243,-0.993351178966854,0.0713260236598139,-0.0476278642173156,-0.308848571454878,0.248925668016755,0.153660690859785,-0.971954422968926,0.00623882428873883,0.206078807207905,-0.406174332917434,0.129297850585684,-0.4210918801466,-0.954677706189524,0.0646219434349366,-0.0185245078148981,-0.283372060991931,0.420823464152257,-0.0185372847865398
66.595,-0.508489798355486,0.150067811709928,0.831080074705932,-0.129780974577345,0.0276516784031351,-0.0757698741347928,-0.988637456378572,0.0713119749207568,-0.0474049629074021,-0.308856562872769,0.266920288526201,0.153926429175583,-0.967165093147475,0.00834945235222389,0.205735781975432,-0.406929318200544,0.129440146352937,-0.405777950658764,-0.958339451463583,0.0535804098180359,-0.053007678280827,-0.286087610161157,0.41503983424612,-0.0311127097007561
66.6,-0.507792169389899,0.149735689730625,0.829116167336358,-0.129596212714299,0.036692234734781,-0.0719405832852578,-0.984702882278958,0.0716624399880375,-0.0482096237056273,-0.308638890093949,0.285684549194241,0.154266430657825,-0.96325100659178,0.00892767512512805,0.203979622264934,-0.407381841084173,0.129748002248088,-0.389225360832483,-0.9634449858302,0.0426150624012658,-0.086544939187559,-0.288367925787513,0.404391093058883,-0.0417398518899628
66.605,-0.507213626990644,0.149645718008007,0.827557213927101,-0.128893927634676,0.0451830168968196,-0.0674811307229927,-0.981598530511519,0.0722975068748056,-0.0502078439836448,-0.30785975927589,0.304888197321808,0.154577024504935,-0.960227829564596,0.00761021895611622,0.200914212979914,-0.407194935425232,0.130126665823251,-0.371810439392366,-0.969752164429127,0.0322019625415326,-0.118301634891051,-0.290044320703578,0.38877366941743,-0.0501960642518159
66.61,-0.506768664007256,0.149759443472872,0.826477037921115,-0.127482168732811,0.0531013500610295,-0.0623531471404388,-0.979348354286776,0.0731496221059532,-0.0535072996970599,-0.306187347008486,0.324149062757451,0.154759021269612,-0.958081417366616,0.0040849497120665,0.196694041840574,-0.406036743723186,0.130484170447066,-0.353972024174947,-0.976964268832017,0.0227790609549296,-0.147442189625935,-0.290990497988459,0.368239819270916,-0.0563549212040827
66.615,-0.506490269522188,0.150021423813288,0.825923494855305,-0.12518371222183,0.0604031571266797,-0.0565230842510818,-0.977950000644484,0.074168809712307,-0.0581590155112466,-0.303322358165042,0.343048237994207,0.154722028170421,-0.956773719525763,-0.00189492650101018,0.19151533708781,-0.403608264746349,0.13073423060946,-0.336186586886357,-0.984746794543823,0.0147286010088564,-0.173158871898289,-0.291134743272113,0.343027137206243,-0.0601824284056123
66.62,-0.50642964282931,0.150363666304763,0.825918682230069,-0.121857416429809,0.0670271062089214,-0.0499775305857366,-0.977375404943721,0.0753275674756372,-0.0641539752647552,-0.299024493217162,0.3611486237023,0.154387666762719,-0.956247394016227,-0.0104953677956704,0.185602261202633,-0.399669579245822,0.130798068851115,-0.318944396275654,-0.992750023767,0.00835960292290327,-0.194725361535223,-0.290466113039468,0.313562704964546,-0.0617297016037492
66.625,-0.506644815432935,0.1507089095449,0.826444528858064,-0.117419463713619,0.0729044921778463,-0.0427409978518518,-0.977575526947836,0.0766180300301435,-0.0714270553501107,-0.293136754804514,0.378013640733884,0.153692333089976,-0.956431173263603,-0.0217936317710067,0.179197605190064,-0.394063429190648,0.130606152551641,-0.30272238960814,-1.00062552585974,0.00389673963329736,-0.211519811566982,-0.289033646368596,0.280464540956029,-0.0611210774586546
66.63,-0.507179427818706,0.150986198389419,0.827429567729808,-0.111849654550152,0.0779776357261993,-0.0348877552980274,-0.978474517006823,0.0780314362552922,-0.079873953378031,-0.285590644859955,0.393224410926652,0.152590499416925,-0.957235766681874,-0.035752505929581,0.172547271387767,-0.386719655972974,0.130101526446699,-0.287958570297426,-1.00804948959884,0.00146620824265329,-0.223110295128588,-0.286937984292928,0.244531679897245,-0.0585414261074905
66.635,-0.508049828855602,0.151146975036029,0.828765173745883,-0.105175534660581,0.0822105911546214,-0.0265269949007768,-0.979962450362492,0.0795435528990178,-0.0893539594518657,-0.276387994081767,0.406397552838688,0.151055796072512,-0.958546546433596,-0.052200864842609,0.165879669721944,-0.377637404914952,0.129242007510153,-0.275034970047655,-1.01474172152189,0.00108211260329604,-0.229318851103727,-0.284307113498927,0.206689743019651,-0.0542231912605966
66.64,-0.509256103823302,0.151158823999569,0.830344642057915,-0.0974645717979316,0.0855872465760102,-0.017780846546446,-0.981899299073915,0.0811307313416014,-0.0996692282940986,-0.265594022799626,0.417203719724701,0.149078249646046,-0.960225149524152,-0.0708453697108669,0.159390550022443,-0.366878375665185,0.127998501945786,-0.264260269867553,-1.02046122692467,0.00265835026979372,-0.230164472325844,-0.281268525279413,0.167933804249751,-0.0484279957089549
66.645,-0.510787040801236,0.15099143048295,0.832072410313666,-0.0888394065129705,0.0880996203070525,-0.00878311361730298,-0.984120054650307,0.0827800254098605,-0.110564707938695,-0.253354361955124,0.42538598983848,0.146659876350694,-0.962113734096831,-0.09128634400493,0.153236796170978,-0.354583286187411,0.126351199713241,-0.255848413809065,-1.02500153475522,0.00603503661824358,-0.225827783321686,-0.277937454677426,0.129299164166841,-0.0414265066786453
66.65,-0.51260678719383,0.150618637281768,0.833842976781857,-0.0794775950570081,0.0897438371335045,0.000319965125583648,-0.986444776689151,0.0844772474251974,-0.121759966017679,-0.239891032686806,0.430772148983522,0.14381207851638,-0.96404365580593,-0.113042130105002,0.147543843836064,-0.340967805999835,0.124288389980719,-0.249907167406381,-1.02820524702284,0.0109969544069694,-0.216689273429301,-0.274412128818497,0.091821428867028,-0.0334842885308158
66.655,-0.514673090587014,0.150023867799478,0.835564773472838,-0.0695929117565317,0.0905260865530527,0.00937565522455666,-0.988705549029768,0.0862186458532798,-0.132964213518648,-0.22547812151632,0.433276842477553,0.140555953089129,-0.965859094665603,-0.13560149781407,0.142423221812243,-0.32629859507326,0.121808738316818,-0.246439774977076,-1.02997403103985,0.0172977399379296,-0.203289962670049,-0.270762235494331,0.0564836280727032,-0.0248570089604492
66.66,-0.51697169739805,0.149190174720215,0.837198448947894,-0.0594397198711262,0.0904564628522301,0.0182141093436539,-0.990765587189593,0.0880325474495754,-0.143874442212164,-0.210446374893136,0.4329005771091,0.136923566773077,-0.967433238391296,-0.15846209573719,0.137977192383706,-0.310897518044871,0.118923445165049,-0.245344744174669,-1.03026212409247,0.0246669788603708,-0.186217914691082,-0.267018074715305,0.0241964523902382,-0.015791364714644
66.665,-0.519497102190069,0.148086482279531,0.838716914788089,-0.0493241277709715,0.0895390306762273,0.0266286155581426,-0.992505073003406,0.0899579841082171,-0.154199117366937,-0.19519263828226,0.429729679669846,0.132958013059236,-0.968654668653515,-0.181119000683609,0.134278247405066,-0.295150340536105,0.115656968929989,-0.246412238775865,-1.02907762388457,0.0327759390592073,-0.166097070256104,-0.263169537360333,-0.00419656756039098,-0.00651595134534616
66.67,-0.522208939529919,0.14667277413821,0.840044714618917,-0.0395808275802668,0.0877817419817205,0.0343734882985035,-0.993804988412495,0.0920098145101482,-0.16369260664929,-0.180143704205936,0.42393194400295,0.128711990553856,-0.969415983721945,-0.203047591190588,0.131351904852659,-0.279471167484552,0.112047301730292,-0.249334544414728,-1.02649868497961,0.0412373970746381,-0.14369263499242,-0.259171415520049,-0.027946635309189,0.00277898253853396
66.675,-0.525035898629905,0.14492131843576,0.84107868048857,-0.0305345890672336,0.0852151538317585,0.0411785982281196,-0.994562262482049,0.0941807492006035,-0.172164089817195,-0.165704118177506,0.415745512349303,0.124246108540013,-0.969632943601315,-0.223730303220997,0.129188943487838,-0.264252560610549,0.108145583818377,-0.25373610583791,-1.0226805085352,0.0496798228507667,-0.119966195046614,-0.254945599376812,-0.0464691698830846,0.0119463061370422
66.68,-0.527911659540934,0.142829766921443,0.841753275038369,-0.0224809122290773,0.0818946084100338,0.0467644604049801,-0.994713481564591,0.0964607710284757,-0.179472053472138,-0.152234115941691,0.405464183062257,0.119627604610363,-0.969267048800691,-0.242705248607219,0.127767225815717,-0.249846107967028,0.104014460050683,-0.259209636798508,-1.01783996497189,0.0578117081648,-0.0960051943825808,-0.250377208023482,-0.0594096065589061,0.0208626183009383
66.685,-0.530790040710328,0.140416874570624,0.842063835268409,-0.0156806977608191,0.0778848297241234,0.0508538819728973,-0.994236056112387,0.0988428486103344,-0.185522776134232,-0.140047798398326,0.393422093220171,0.114928983495874,-0.968322942912563,-0.259594075076591,0.127054643729294,-0.236562395551066,0.0997255267936418,-0.265346448752375,-1.01222808670211,0.0654153906851332,-0.0728963987885776,-0.245310698637641,-0.0666751615282739,0.0294060140768904
66.69,-0.533633241866149,0.137712108966093,0.842041628730634,-0.01035575941355,0.0732445708916862,0.0531810565018363,-0.993130839031043,0.101321067294321,-0.190266399298642,-0.129410128223656,0.379979060615354,0.110225705789495,-0.966828323705216,-0.274108509797496,0.126997127387835,-0.224668738469018,0.0953559673726648,-0.271757887492262,-1.00610364158403,0.0723023664498883,-0.0516191350585986,-0.239556814765681,-0.068431699504079,0.0374507607941562
66.695,-0.536398335140692,0.134758013829291,0.84173167918033,-0.0066869451430981,0.0680200964496087,0.0534977259411695,-0.991412082385143,0.103887426065494,-0.193690008425503,-0.12053436692532,0.365506502025087,0.105592766071407,-0.964821340839822,-0.286055118526356,0.127519642982723,-0.214386497801863,0.0909842103263047,-0.278089678781799,-0.999713045575267,0.0782990412395882,-0.0329892092859735,-0.232913864203692,-0.0650756705546623,0.0448792681410305
66.7,-0.539036399849685,0.131629611751777,0.841197198917216,-0.00481303602518763,0.0622425979172653,0.0515878482298784,-0.989117475903906,0.106522972663753,-0.195817137391544,-0.113584508250634,0.350373679054069,0.101101671408795,-0.962356247482653,-0.295342832777299,0.128550018615296,-0.205892984758888,0.0866859579746267,-0.28403258276598,-0.99327595444471,0.0832861329059203,-0.0176399396745819,-0.225187120371397,-0.0571959684132849,0.051589308841724
66.705,-0.541497786909914,0.128444492895299,0.840527263184804,-0.00482543044565328,0.0559252587498261,0.0472976359900242,-0.986318018589778,0.109188766711081,-0.19671138256601,-0.108679838358348,0.334935179366435,0.096818832787864,-0.959509322408132,-0.301984829734418,0.130037313822547,-0.199325224360092,0.082531753233086,-0.289329289143833,-0.986976802360887,0.0872288657999468,-0.00600723635528764,-0.216194132025212,-0.045530903146736,0.0574845136696394
66.71,-0.543734209237703,0.125346652711281,0.83982839359555,-0.00676103218783042,0.0490603234542899,0.040566139748403,-0.983110277712212,0.111824019690021,-0.196476240996207,-0.105897066698415,0.31952033754807,0.0928041594903634,-0.95637087750868,-0.306088059725075,0.131945518974956,-0.194780945384534,0.0785850859444412,-0.293776579955823,-0.980964244600295,0.0901542225205408,0.00168249183527211,-0.205766797424486,-0.0309184372229134,0.0624653690021495
66.715,-0.54569801404428,0.122482737978223,0.839207093358077,-0.0105968251524842,0.0416175490029992,0.0314427230596267,-0.979603871700269,0.114350088674581,-0.195250719598978,-0.105267985631271,0.304424799270176,0.0891090323908671,-0.953035201854016,-0.307833452528323,0.134238353968157,-0.192314964145239,0.0749002504968415,-0.297224358538399,-0.975356363118339,0.0921153328665062,0.00540848312008227,-0.193760351158124,-0.0142444466905899,0.0664330978132684
66.72,-0.547340294182062,0.119989071711897,0.838752298285198,-0.0162452067802257,0.0335477242282065,0.0200922778704,-0.975918662159167,0.116675160050641,-0.193202724745692,-0.106772324117594,0.289904417229333,0.085774411565726,-0.949599080980133,-0.307455145697532,0.136872402832882,-0.191930755490425,0.0715207077740087,-0.29957219569802,-0.970244674563875,0.093178120395252,0.00535256426118454,-0.180063785796307,0.00360548774280914,0.069299709498462
66.725,-0.548609214347458,0.117989364960255,0.838522262168946,-0.023548604348253,0.0247949962128386,0.00679416887706209,-0.972189325106983,0.118694969170861,-0.190519346436987,-0.110326874950938,0.276171803793404,0.082829752724754,-0.946163784105646,-0.305220431089795,0.139802041935389,-0.19356799303044,0.0684786694342785,-0.300760757009114,-0.965688716990219,0.0934145484763136,0.00193437669550596,-0.164604691649866,0.0217960715497283,0.0709981446329453
66.73,-0.54944966605683,0.116591909716716,0.838536388324065,-0.0322737096543483,0.0153164886736807,-0.00805854114519807,-0.968566229686313,0.120290361480834,-0.187397536386609,-0.115774404516088,0.263397796623827,0.0802928064765182,-0.942834380298152,-0.301406075233423,0.142984635654233,-0.19708915815657,0.0657960067808408,-0.3007526984965,-0.961711230226658,0.0928921773492561,-0.00416790991599466,-0.147351228667594,0.0396108752141492,0.0714950403717093
66.735,-0.549795737297848,0.115868790622997,0.838760093346755,-0.0421069433560687,0.00510379515461179,-0.0239616548591573,-0.965200650765799,0.121327220190587,-0.184044876498513,-0.122872959989099,0.251716236216039,0.0781691325580562,-0.939714992027355,-0.296275952202186,0.14636381469656,-0.20226699999612,0.0634849986938192,-0.299513748883289,-0.958323817280853,0.0916790843602692,-0.0121697619720065,-0.128317595201432,0.056513951172037,0.0708035864945474
66.74,-0.549558183349569,0.11582099192012,0.839081593866066,-0.0526524946270385,-0.00579528640914185,-0.0403175417724815,-0.962223182574014,0.121659180399524,-0.1806877287199,-0.131280171583561,0.241222325802333,0.0764494484307468,-0.936903331496314,-0.290060308891331,0.149844064983647,-0.208769913520201,0.0615464263623528,-0.297023059269342,-0.955567350548469,0.089866143019564,-0.0214381102194013,-0.107570846276126,0.0721288159371217,0.0689845170185739
66.745,-0.548646024524538,0.116355115777905,0.839327929122677,-0.0634278825889766,-0.0172523642851552,-0.0564722685076843,-0.959741898153352,0.121145930325193,-0.177555974127666,-0.140525626594122,0.231966510969678,0.0751075822004981,-0.934493524588257,-0.282935166987105,0.153303117864178,-0.216137443789104,0.0599682423108458,-0.293303271593005,-0.953506243590623,0.0875855316871267,-0.0315395079565235,-0.0852326923389354,0.0861524635827724,0.0661334083812735
66.75,-0.547035692220201,0.117287127308265,0.839359218952945,-0.0738795304330324,-0.0290466570968696,-0.0717759644877425,-0.95785631663161,0.119711946516679,-0.174820169515893,-0.150008116526686,0.223959347507968,0.0741031839850707,-0.932585032427691,-0.275046420746892,0.156638550439008,-0.223779252306639,0.0587287905573763,-0.288427542459243,-0.952183979063628,0.085014462843839,-0.0420685319671427,-0.0614797330292639,0.0983175119243705,0.0623620734100406
66.755,-0.544793559422589,0.118392114655595,0.839132003040466,-0.083466991873057,-0.0408908808313123,-0.0856663976130377,-0.956658890992657,0.117382789848132,-0.172552515957553,-0.159089151469011,0.217184219162695,0.0733851197282237,-0.93127753044835,-0.266569441879815,0.15979185649758,-0.231068506703516,0.0577977517258141,-0.28250589105835,-0.951604992423635,0.0823434736483185,-0.0525463269135845,-0.0365416687586949,0.108421099615348,0.0577767659955772
66.76,-0.541984994002168,0.119487263184651,0.838602498494289,-0.0917364459321476,-0.0524608029148344,-0.0977090423643651,-0.956221480157102,0.114208421390061,-0.170798858124985,-0.167189507146544,0.211602570121425,0.0728933543408976,-0.930646971585497,-0.25768749037649,0.162727025658099,-0.237437559473187,0.057134998450107,-0.275674453484151,-0.951748394753292,0.0797045116720863,-0.0624526648393876,-0.0106871633536879,0.116354021305831,0.0524691725861993
66.765,-0.538622650424347,0.120461331605091,0.837650469904583,-0.0982632996181127,-0.0633767334914154,-0.107547931852953,-0.956582467139581,0.110202720780681,-0.169636282616159,-0.173728468551127,0.207154824066747,0.0725643243697232,-0.930730524895024,-0.248519693455914,0.165405648594954,-0.242315796000835,0.0566984348989608,-0.268082084389661,-0.952571614177646,0.077145135320732,-0.071272903864148,0.0157937356075133,0.122109753190161,0.0465362766666361
66.77,-0.534771826226151,0.121234093788751,0.836221272443584,-0.102608267496825,-0.0732005734571153,-0.114875654128972,-0.957741122588355,0.105442868618211,-0.169079039148843,-0.178074193574651,0.203770613236721,0.0723361022945202,-0.931535810618563,-0.239142444115958,0.167798247246532,-0.245079305414896,0.0564513825619056,-0.259872373784098,-0.953995248964252,0.0747033065160124,-0.0785382697099903,0.0425944493791655,0.125788135577812,0.0400952846977118
66.775,-0.530626671407021,0.121741630204095,0.834449566746069,-0.104426870172428,-0.0815103386736754,-0.119488953909564,-0.959657861269784,0.100156217329398,-0.168997059951472,-0.179687611346861,0.2013882067013,0.072148356135208,-0.933049818481453,-0.229652331361482,0.169902154557718,-0.245195318608114,0.0563571844993443,-0.251169113511608,-0.955898736728465,0.0724624014632396,-0.0838665932096419,0.0693921617009658,0.127596614442737,0.0332621961168912
66.78,-0.526438694651528,0.121962511001222,0.832578442783627,-0.103572736133637,-0.0879733311444319,-0.12133160185936,-0.962254480611309,0.0946614278376745,-0.169175478393701,-0.178265204966886,0.199967274800004,0.0719426227998191,-0.93523027664581,-0.220172465573083,0.171725566787466,-0.242365096207553,0.0563734825146012,-0.242065549662588,-0.958143342572762,0.070494492434477,-0.086982801654268,0.0958554307888153,0.127845154740495,0.0261308850542594
66.785,-0.522434957930954,0.121929190893592,0.830852690077221,-0.100103147507053,-0.092370535502876,-0.120485012330046,-0.965412141026837,0.0892877177873072,-0.169392286626,-0.173757623664322,0.199488278659253,0.0716643750627636,-0.937994725201266,-0.210830294914054,0.173260234373332,-0.236541713973322,0.0564526723860382,-0.232618742806166,-0.960599343118701,0.0687863049654731,-0.0877354875023652,0.121655321705412,0.126932193967312,0.0187840396706718
66.79,-0.518780237032443,0.121731554255421,0.829466943085823,-0.0942505023102615,-0.0946055471449545,-0.117141253928146,-0.96897538488286,0.0843259038650882,-0.169455648080748,-0.166343124803253,0.199948662488769,0.0712641968515564,-0.941219757874757,-0.201729998601372,0.174475999438907,-0.227902821345423,0.0565432334103958,-0.222847831379544,-0.963154743196261,0.0672307509376403,-0.0861176132939644,0.146476245224427,0.125318833563958,0.0113162093051901
66.795,-0.515554595352527,0.121515626220383,0.828527220195704,-0.0863623163948854,-0.0946942646712516,-0.111551148736857,-0.972766816478499,0.0799912158416993,-0.169229803276476,-0.156363755053172,0.2013594095867,0.0706993358554843,-0.944751191887691,-0.192933596579469,0.175334095755754,-0.21678642497512,0.0565931772217728,-0.212733179618613,-0.965711677920649,0.0656589918055708,-0.0822581376314791,0.170028349116856,0.123496013687182,0.00385141229241897
66.8,-0.51277532705651,0.121450054117559,0.828057858501359,-0.0768301798277572,-0.092738047828204,-0.103970323657826,-0.976605801794112,0.0764241009401777,-0.168639826700903,-0.144245531394524,0.203740058929794,0.0699363375811983,-0.948424468564123,-0.184460323243599,0.175805408735472,-0.203610996598307,0.0565555260640618,-0.202218947133668,-0.968182003162452,0.0638840298721471,-0.0763880647886294,0.192053756677836,0.121957514740251,-0.00344925601218796
66.805,-0.510443639171139,0.121675347516331,0.828043683680873,-0.0660416090904198,-0.0889040144056161,-0.094640290040312,-0.980321060825323,0.0737164963285117,-0.1676566015442,-0.130438756460496,0.207116017038333,0.0689549842841534,-0.952082866029635,-0.176301147554092,0.175879579899242,-0.188816614653005,0.0563944885666733,-0.191219689382064,-0.970492201890033,0.0617326118647237,-0.0688326962032133,0.212317022341641,0.121181303878038,-0.0103934593829389
66.81,-0.508571827543659,0.122269384883401,0.828472571050428,-0.0543645337664206,-0.0834157738089111,-0.0837984524625745,-0.983751748223561,0.0719463024475896,-0.166260946276188,-0.115392215654228,0.211515500655353,0.0677498683627775,-0.955581055272358,-0.168469916101219,0.175555904008821,-0.172840670026481,0.0560879197721464,-0.179633627306242,-0.972602594792833,0.0590394923512164,-0.0600353989652194,0.230597810878566,0.121601720824846,-0.0167694950999999
66.815,-0.507190037067843,0.123247184701086,0.829356561667633,-0.0421857877805482,-0.0765540042229225,-0.0717058669029127,-0.986749575713567,0.071202727884771,-0.164414545886997,-0.0995939866444479,0.216961050879003,0.0663247165655161,-0.958787056487614,-0.16104517226991,0.174835583864361,-0.156160133475594,0.055619708004252,-0.167364554598356,-0.974516552877326,0.0556369479445927,-0.0505366292383193,0.246708485462571,0.123565598822957,-0.0223538281752575
66.82,-0.506336116958008,0.124591518041051,0.830709529102768,-0.0299525424301979,-0.0686534042967831,-0.0586692234881774,-0.989195616464153,0.0715662327731821,-0.162087640713341,-0.0836190887509393,0.223461535803058,0.0646867464409283,-0.961597753031939,-0.154136271316361,0.173737384612896,-0.139340364692668,0.0549720715316688,-0.154341012366555,-0.976258517251755,0.0513960291719051,-0.0408881885107695,0.260515620489468,0.127302616288515,-0.0269196927111154
66.825,-0.506036627334835,0.126278931917204,0.832513618777903,-0.0181505017972596,-0.0600828453075322,-0.0450346726428291,-0.991013032649836,0.0730737964349388,-0.159299372984143,-0.0681014553525265,0.231009223238569,0.0628494443516049,-0.963950319430067,-0.147833839416234,0.172311223671438,-0.123008181294818,0.0541298007010933,-0.140525881629869,-0.977850814905731,0.0462785218879395,-0.0316037711157753,0.271936002884036,0.132926658863975,-0.0302589897761309
66.83,-0.50629383371817,0.128278794806782,0.834711984855079,-0.00726183626027925,-0.0512192393084628,-0.0311700130502143,-0.99215567997452,0.0757215312118842,-0.156104828596395,-0.0536805995895943,0.23957753113527,0.0608365527174081,-0.965810679942599,-0.142213814330133,0.170618873480009,-0.107799590499335,0.0530869871295654,-0.12592441408112,-0.97931796682577,0.0403211786995895,-0.0231776047147035,0.280922768145943,0.14043865327866,-0.032206616560379
66.835,-0.50708813888837,0.130544921162273,0.837225039729482,0.00224101393641612,-0.0424266559402963,-0.0174553215539384,-0.992593847848715,0.0794832450214086,-0.152566190022318,-0.0409908031946079,0.249117758168439,0.0586789177563694,-0.967158629094496,-0.13735800034826,0.168711809097213,-0.0943495795538157,0.0518449951017657,-0.110592773975333,-0.980690361528106,0.0335997816913605,-0.0160722802427141,0.287465250508027,0.149716708244291,-0.0326474216170692
66.84,-0.508393468645279,0.13301766183114,0.839976112680083,0.0098916237756143,-0.0340459022379383,-0.00427763062300902,-0.992320766605084,0.0843057907006159,-0.148762998788931,-0.0306628397314355,0.259557766493421,0.0564100158034478,-0.967991279418146,-0.13335140001908,0.166644427071741,-0.0832937334939187,0.0504088555225588,-0.0946398813179082,-0.981981486819847,0.0262553589762964,-0.0106452695516406,0.291591849058845,0.160521966567118,-0.0315170177510331
66.845,-0.510181417751971,0.135629994469013,0.84289965229898,0.0152530595363807,-0.0263933864963501,0.00798068900244567,-0.991361496270279,0.0900909093967412,-0.144812425184576,-0.0232947031234002,0.270802761054686,0.0540672095827505,-0.96832732719915,-0.130270927283646,0.164495950339678,-0.0752383202137844,0.048790831637214,-0.0782210973482176,-0.983164742624384,0.0185265672512849,-0.00709648797101505,0.293361591139511,0.172534662556811,-0.0288158740480072
66.85,-0.51240465936538,0.138307520445535,0.845925689901203,0.0179517551759203,-0.0197568867318907,0.018960324478761,-0.989763066288118,0.0966904783857935,-0.140855494141851,-0.0194103802341005,0.282736964897182,0.0516942570499402,-0.968194078488181,-0.128179197709384,0.162362981451521,-0.0707178378091023,0.0470156559851106,-0.0615264522136694,-0.984175627914462,0.0107135916330238,-0.00547697904010167,0.292855615806161,0.185398925989401,-0.0246229700330993
66.855,-0.514985206137198,0.140965269643411,0.848973323247025,0.017693926451711,-0.0143852374491812,0.0283428113663562,-0.987582694709111,0.103912683716526,-0.137034138253115,-0.0194383753620901,0.29522678493577,0.0493392512538208,-0.967616073263283,-0.127118957814045,0.160338503286309,-0.0701718297650956,0.0451201703399466,-0.0447655435485581,-0.984928334558426,0.00312825444373699,-0.00572020339650622,0.290179142429472,0.19875699386294,-0.0190918259467466
66.86,-0.517817507923437,0.143510437759978,0.851959226638035,0.0142747335683373,-0.0104813856165472,0.0358667710834204,-0.984890770665842,0.111522112620038,-0.133494535610328,-0.0236977547841315,0.308124751533138,0.0470502572482017,-0.966620754163535,-0.127102752352158,0.158505614911615,-0.0739294241641014,0.0431499154978257,-0.028153959505068,-0.985329844108831,-0.00391352785403296,-0.00766629543422987,0.285463772574432,0.212273097364084,-0.0124390633795171
66.865,-0.520775000596528,0.145848080193274,0.85480209967751,0.00759977525027065,-0.00819824384796028,0.0413470969355787,-0.981775683003565,0.119240234968459,-0.130395742065633,-0.0323687818036062,0.321273064728638,0.0448728451109842,-0.965247041984464,-0.128099457744633,0.15694495768727,-0.0821791031679233,0.0411575363204593,-0.0119041605510434,-0.985288790240127,-0.0100905914968257,-0.0110883196008656,0.278863017653019,0.22565054611642,-0.00493707662982555
66.87,-0.523722412824445,0.147881973622476,0.857427614202363,-0.00229323518370337,-0.00763454870772693,0.0446902422121722,-0.978339827203901,0.126762231803979,-0.127899097414401,-0.045463537754641,0.334507680934139,0.0428497671384486,-0.963546825483072,-0.130027583653979,0.155741134224547,-0.0949391757647802,0.0392025622676764,0.00377940258182517,-0.984723251307623,-0.0150920675295644,-0.0157262473588226,0.270547025466897,0.238638695421821,0.00308910788606814
66.875,-0.526532466629661,0.149515005298278,0.859775286734014,-0.0152308304525535,-0.00883496137769632,0.0458975357557126,-0.974692635674318,0.13378147543375,-0.126153292882454,-0.0628191557658944,0.347663744564353,0.0410208761160278,-0.961583743526368,-0.132757094443359,0.154979239190331,-0.112051568453741,0.0373499346100975,0.0187011370437889,-0.983570572597638,-0.0186378975656426,-0.0213161517344442,0.260700391163264,0.251028321739828,0.0112634765274468
66.88,-0.529094843397475,0.150653166596016,0.861798189600962,-0.0309124514702957,-0.011793171262215,0.0450617417887288,-0.970945648184739,0.140008492901943,-0.125284252242329,-0.0841063188366447,0.360582091044069,0.0394224086162915,-0.959430868017209,-0.136113971339922,0.154737595676948,-0.133191310784689,0.0356669360693376,0.0326729148199647,-0.981795929991701,-0.0205003839795157,-0.0276066999624498,0.24952325333981,0.262638857847301,0.019163403816638
66.885,-0.531320963605335,0.151207160388998,0.863460990677695,-0.0489255396575465,-0.0164535596671951,0.0423584453914934,-0.967208370293245,0.145188249497029,-0.125383980656257,-0.108845497881773,0.37311628188525,0.0380864871357499,-0.957166638476627,-0.139893594420972,0.155087105971424,-0.157883755098832,0.034219944764666,0.0455134892256265,-0.979395283943851,-0.0205245693692379,-0.0343672015424163,0.237236473344747,0.273303862859176,0.0263280498537887
66.89,-0.533144762187385,0.151094029497958,0.864736204559043,-0.0687717390548872,-0.0227130384945461,0.0380280753157829,-0.963580410124044,0.149110372241854,-0.126509484324984,-0.13643743627049,0.385138370772701,0.0370412897070304,-0.954867239151241,-0.143880960794676,0.156085070384743,-0.185535727237515,0.0330715498476618,0.0570491026509498,-0.976400212566018,-0.0186436586311602,-0.0414150688399248,0.224090823541785,0.282859173220707,0.0322682544026145
66.895,-0.534508562308147,0.150244328251785,0.865582593735319,-0.0898915892687834,-0.0304254866437584,0.032360807558944,-0.960138430396338,0.151599387166037,-0.128703093067145,-0.166192180172391,0.396541626498003,0.0363100420001036,-0.952592797114411,-0.147853438975155,0.157748593806019,-0.215465031677659,0.0322767855819603,0.0671123914504855,-0.972887315289199,-0.0148953846818251,-0.0486624592563355,0.21037844047204,0.29112194090533,0.0364826335773566
66.9,-0.535357498034149,0.148603241683047,0.865925184815891,-0.111665419119961,-0.0394029212122025,0.0256945871192638,-0.956928998968075,0.152504354060246,-0.132013718682382,-0.197325126270556,0.407242709202945,0.0359087879928377,-0.9503770411309,-0.151575642095356,0.160042526532748,-0.246896620530918,0.0318793067850863,0.0755439914135997,-0.968966275126518,-0.00942251365434287,-0.0560971212884748,0.196440140734458,0.29786208807888,0.0384888119128012
66.905,-0.535666601789149,0.146126419965609,0.865685941073476,-0.133407320851941,-0.049416022012171,0.018406288314054,-0.953977715725423,0.151715284375636,-0.136490048454549,-0.228942560605754,0.417185294017101,0.0358474236831235,-0.948233136981603,-0.154829349994498,0.162915512727882,-0.278947412541213,0.0319113878649571,0.0822028412271827,-0.964739782454288,-0.00243322661812544,-0.0636800796056842,0.182658457520772,0.302804529419008,0.0378545723737987
66.91,-0.535459575986958,0.142788147666969,0.864829964988966,-0.154384895410626,-0.0602102693005686,0.0108868322814734,-0.951301128535293,0.149182743865531,-0.142159604687071,-0.260067634709704,0.426341423378567,0.0361346773928505,-0.946164615540334,-0.157456824031488,0.166332452957235,-0.31065113578621,0.0323972932248864,0.0869770472341218,-0.960282696016594,0.0058375244042419,-0.0712961365647245,0.169437988170766,0.305670600188381,0.0342069126385476
66.915,-0.534779795664832,0.138590084869598,0.863342376214017,-0.173851651776951,-0.0715280033525088,0.00352457842282167,-0.948905646720287,0.144907364973144,-0.149024833567997,-0.289689120181963,0.434709232939361,0.0367806429224243,-0.944164182742132,-0.15935951824347,0.170252310452447,-0.341006200450306,0.0333542802530352,0.0897882164117989,-0.95566272316355,0.0151246328673952,-0.0788231863268051,0.157189813696508,0.306211346085039,0.0272345234176823
66.92,-0.533650856721783,0.133553427578964,0.861166834779111,-0.19106447159043,-0.0831056656097925,-0.00329747827051267,-0.9467810516541,0.138919406471166,-0.157071283583219,-0.31678408005027,0.442310130849002,0.0377943840920448,-0.942206711036204,-0.160469141952826,0.174591887685466,-0.36899751337221,0.0347898406813629,0.0905948766879597,-0.95096186886424,0.0251229537375058,-0.0862137934626889,0.146329629785277,0.304206048359435,0.0167039473251062
66.925,-0.532084869573198,0.12771511425058,0.85822231100014,-0.20529042478673,-0.0946529397797241,-0.00920795951488199,-0.944902663765511,0.131291800412911,-0.166257411894004,-0.340318327340534,0.449186295759302,0.0391809155356804,-0.940253961074642,-0.160758330616062,0.179231683671716,-0.393595787488403,0.0366991703051747,0.0893988456630555,-0.946267965110404,0.0355143435397471,-0.0934886375092517,0.137283414716334,0.299448397625895,0.00247981080809541
66.93,-0.530132921793392,0.121139843206905,0.854504482685181,-0.215840539763902,-0.105858495736908,-0.0138649084845612,-0.943244749718539,0.122189532232571,-0.176476854762503,-0.359289625773972,0.455395701059867,0.0409395543666536,-0.938275742121895,-0.160302814288463,0.18405938527752,-0.413799939813533,0.0390637381031521,0.086246085681326,-0.941648333034467,0.0460291287763887,-0.100656337127441,0.130484278364202,0.291749650548788,-0.0154740284737319
66.935,-0.527897273569613,0.113928219401729,0.850118227633372,-0.222149483469528,-0.116430119104922,-0.0169871225981275,-0.941791343737118,0.111882052919651,-0.187549891397403,-0.37284463771432,0.461002475139921,0.0430628018962286,-0.936264349404824,-0.159298694619734,0.188990298169324,-0.428754061947568,0.0418502152429635,0.0812156468509517,-0.937137513889459,0.0564617833845119,-0.107636856870681,0.126345993217086,0.28096834966938,-0.0371209826121483
66.94,-0.525462066962214,0.10622268027393,0.845167976369017,-0.223821684074147,-0.126115892365142,-0.0183753739176074,-0.940534886158831,0.100663000654185,-0.19929266437904,-0.380348111257387,0.466067827966802,0.0455370412852543,-0.934221781748129,-0.157966794622964,0.193929201616685,-0.437816045571352,0.045012864097677,0.0744141924750124,-0.93275595201701,0.0665718535659726,-0.114223643621711,0.125226424089654,0.267052340839505,-0.0623642202311938
66.945,-0.522837025271023,0.0982170198181951,0.83967286912075,-0.220568000943317,-0.134677225469228,-0.017887428726473,-0.939476402232108,0.0887736362273357,-0.211579859854374,-0.381295232287282,0.470648328011116,0.048346399863311,-0.932146901276134,-0.156461841177219,0.198736841263481,-0.440467302925804,0.0485007742030729,0.0659952963909173,-0.928535039730298,0.0759911101568264,-0.12007974762293,0.127410375711072,0.250081224006372,-0.091005940884739
66.95,-0.520014403901259,0.0901347951317659,0.833656908426778,-0.21212547832252,-0.141860328387128,-0.0153990350104235,-0.938624747593723,0.076458037351709,-0.224288050389488,-0.375201495342611,0.474797582476652,0.0514766751149948,-0.930049346195003,-0.154907604440229,0.203253409322717,-0.436199992163756,0.0522641595869362,0.056182024565455,-0.924531306940448,0.0842886303057563,-0.124850767268892,0.13311356389184,0.230298148727933,-0.122701791821675
66.955,-0.517066298326176,0.082183325108224,0.827295694720531,-0.198305440357848,-0.147425485876141,-0.0108287680175386,-0.937978085590403,0.064078747198006,-0.237185362243864,-0.361668012308632,0.478564038055184,0.0549129305899888,-0.927965558542327,-0.153474173514917,0.207329123983175,-0.424584211797315,0.0562521242122622,0.0452494162061736,-0.920845188576317,0.0911014814982457,-0.128396599423789,0.142485995310474,0.208077938235257,-0.156979516351774
66.96,-0.514136283274147,0.0745605223768026,0.820913627523951,-0.179126356329008,-0.151218265469785,-0.00420670142421696,-0.937514553363782,0.0521111216550772,-0.249932122349553,-0.340563201731871,0.481985521838783,0.058631042065761,-0.925955518568051,-0.15237697423406,0.210825847649753,-0.405455789358666,0.0604042052506948,0.0334715486422411,-0.917631424431855,0.0961570688268095,-0.130861024246266,0.155609632249915,0.183821593573113,-0.193300125309841
66.965,-0.51134180531758,0.0675090681392434,0.814845276211754,-0.154858638505066,-0.153204793753507,0.00431740229256573,-0.937214402388117,0.0410206676160107,-0.262190715655394,-0.31209607730909,0.485083048259558,0.062593328086927,-0.924093865617157,-0.151820564688112,0.213617022478798,-0.37899353924881,0.0646474806750491,0.0210854524559336,-0.915076889599846,0.0992087957304551,-0.132466888536523,0.172496627081384,0.157882114662583,-0.231092137186776
66.97,-0.508724549741447,0.0613219980960979,0.809334879612236,-0.125953050398247,-0.153446481053309,0.0145326689747482,-0.937075683868874,0.0311856097708743,-0.273697136599386,-0.276737817293973,0.487855608105024,0.0667528318513881,-0.922462319673516,-0.151954469035342,0.215590907487454,-0.345640384010729,0.0689027677899034,0.00829020545379398,-0.913371035580129,0.0999983732988149,-0.133342047873316,0.193082209982131,0.130576064243865,-0.269747241212599
66.975,-0.506278574728864,0.0562915164581705,0.804536543710463,-0.0929625135302594,-0.152061275152212,0.0262106235517019,-0.937103886027892,0.0229086554248537,-0.284249777710485,-0.235123412410088,0.490280239819308,0.0710594115904271,-0.921141162240914,-0.152857285888399,0.216646388994587,-0.306003911561123,0.0730918567813305,-0.00474382919342561,-0.912697205326048,0.098266055696938,-0.133543686953988,0.217212959084383,0.102212161587375,-0.308609434895019
66.98,-0.503986757213002,0.0526693383543987,0.800553681907768,-0.0565038893075613,-0.149201302484486,0.0391119893760105,-0.937303646490561,0.0164418598653809,-0.293684374910774,-0.187996805227296,0.492316818049389,0.0754630730056934,-0.920207566756481,-0.154545920925617,0.216696789792239,-0.26080180711988,0.0771413620333273,-0.0178715647792578,-0.913232288158466,0.0937877019396948,-0.133134048744229,0.244641638978978,0.0730919857304987,-0.346975095112699
66.985,-0.501838071893717,0.0506536040501206,0.797468344318436,-0.0172379379397721,-0.145043879574309,0.0529833172901637,-0.937680727677081,0.0119910819462316,-0.301868268147996,-0.13618121614495,0.493911756397968,0.0799163181658711,-0.919738830785696,-0.156996037255353,0.215684777923669,-0.210833253737872,0.0809853068758058,-0.0309771065831054,-0.915138778844521,0.0864209906632861,-0.132214065795553,0.27502591579345,0.0434966528023131,-0.384108741975633
66.99,-0.499837010098433,0.050382443362399,0.795345967894862,0.0241448122825746,-0.139788707948532,0.0675538932409777,-0.938241184626841,0.00971073394751482,-0.308704661289909,-0.0805602682039432,0.49500069431468,0.0843762459995698,-0.919808609465265,-0.160156286678339,0.213588590574794,-0.156961429963775,0.0845674123292461,-0.0439811831578092,-0.918550439026822,0.0761281944201002,-0.130919678110761,0.307924430165648,0.0136717744500547,-0.41926982665771
66.995,-0.498008201473457,0.0519340867995634,0.794226812968666,0.0669355046034634,-0.133653808200032,0.0825373250616164,-0.938989535744082,0.00969511825985163,-0.314140713512832,-0.0220631735202773,0.495513836715073,0.0888049069880931,-0.920478512350297,-0.163960932339827,0.210417059307218,-0.100099761322252,0.0878418901666579,-0.0568433183777952,-0.923555752039177,0.062971687979411,-0.129376841600133,0.342796484727172,-0.0161785659869342,-0.451736439379318
67,-0.496396716885572,0.0553296458744105,0.794125888651423,0.110419410990228,-0.126869108586248,0.0976435808565211,-0.93993076276274,0.0119705016935913,-0.318172957788618,0.0383496925823958,0.495383231422765,0.0931676571599979,-0.921793922164063,-0.168343140170803,0.206206913496777,-0.0411977459190846,0.0907725612303405,-0.0695555875411663,-0.930184018706312,0.0471110893175945,-0.127653564159398,0.379013044655194,-0.0458796680737013,-0.480822017418865
67.005,-0.495065727713082,0.060520083705072,0.795035572316779,0.153888363002071,-0.119671812560337,0.112594279913541,-0.941068599965148,0.0164926434899955,-0.320844478781237,0.0997004664968672,0.494549711061358,0.097430771185876,-0.923781615378517,-0.173236689128037,0.201020752792168,0.0187728163904533,0.0933313457308116,-0.0821339691625206,-0.938401751790904,0.028808383830714,-0.125769539580741,0.415875578430407,-0.0752674007734294,-0.505892635820368
67.01,-0.494090479955859,0.0673668499986996,0.796917765368288,0.1966481763995,-0.112301172312357,0.127124733375117,-0.942396678139277,0.0231507519400536,-0.322238391510972,0.161007281617886,0.492968370674547,0.101558748534123,-0.926444751938803,-0.178572445733512,0.194938308431535,0.0788309164497425,0.0954962503239167,-0.094614724158004,-0.948118384360589,0.00842743284565451,-0.123746492903118,0.452632755691297,-0.104183829709725,-0.526386378046855
67.015,-0.493549247184793,0.0756506507927875,0.799699690218823,0.238021991292286,-0.104990788338083,0.140975772585168,-0.943893671262559,0.0317730434913096,-0.322473753157487,0.221297741195561,0.490611366004916,0.105511323430881,-0.929759253683764,-0.184283607637778,0.188049569864199,0.137998990585927,0.0972487435367888,-0.107056586401841,-0.959188675951977,-0.0135795732755715,-0.121618168213952,0.488494026083204,-0.132487765632643,-0.5418312909927
67.02,-0.493510045308498,0.0850994822006976,0.803276738192495,0.277358262943224,-0.0979626440537164,0.153895740809458,-0.945528558234352,0.0421261076754242,-0.321701769391324,0.279624237243583,0.487469266135758,0.10924106363471,-0.933673299725396,-0.190307971560103,0.180452855666497,0.195318063949025,0.0985715375248907,-0.119539637053819,-0.971408655980325,-0.0367050079273087,-0.11937071003743,0.522648808591989,-0.160056534225706,-0.551858554208589
67.025,-0.494012831051167,0.0954012072601947,0.807509362220806,0.314047353223438,-0.0914180174667763,0.165653183754156,-0.947269256604104,0.0539090072202896,-0.320100227204156,0.335089239855797,0.48355341325115,0.112691509992751,-0.938110421423655,-0.196576055707212,0.172251990798509,0.249874176945459,0.0994465887217114,-0.132153201134498,-0.984520812025638,-0.0604172598784386,-0.116900115035743,0.554293336386841,-0.186764937074654,-0.556203548777039
67.03,-0.49505764560633,0.106216363683813,0.812229202041335,0.34754242284469,-0.0855212027995728,0.176047959857582,-0.949090035113298,0.0667591012184341,-0.317865838657112,0.386881083110651,0.478897049378915,0.115795752375452,-0.94298184961201,-0.202998591072205,0.163557123783059,0.300835358203964,0.0998525951124335,-0.144984605715119,-0.998236594636304,-0.08415769814528,-0.114061351605843,0.582659169334029,-0.21246936121419,-0.554703014415987
67.035,-0.496603555750354,0.117212166607034,0.817261139927439,0.377379401965107,-0.0803878333137538,0.184922601943108,-0.95097548414812,0.0802787374700917,-0.315199523133779,0.434305892434037,0.473552280026766,0.118476793793151,-0.948200648921676,-0.209462271041051,0.154484574343865,0.347483478115691,0.0997632416314588,-0.158122247667953,-1.01225901290404,-0.107338444078008,-0.110723216718437,0.60703983901295,-0.237023754399446,-0.547304695076341
67.04,-0.498572048222905,0.128088619359592,0.822437182315704,0.403192392029078,-0.07608174838669,0.192174766462227,-0.952919374713292,0.0940661087319212,-0.312286107141845,0.476808679699076,0.46758593018881,0.120649502156067,-0.953683837908268,-0.215826628133904,0.145146026035679,0.389235158480128,0.0991466824107352,-0.171661304223851,-1.02629062247346,-0.129386408751049,-0.106737085948937,0.626813578069847,-0.260300329723773,-0.534076051702797
67.045,-0.500856681928401,0.13857765950431,0.827604689974067,0.424722276929928,-0.0726128160923195,0.197761779721471,-0.954923044914684,0.107738112377866,-0.309276575906898,0.513988339815068,0.461078221299198,0.12222276615067,-0.959349039957871,-0.221920032242006,0.135637560048384,0.425657765669584,0.0979653030820861,-0.185697981629158,-1.04003522054752,-0.149796487527131,-0.101882357614288,0.641460570819612,-0.282185882270024,-0.515194326820626
67.05,-0.503339214567856,0.148434993539767,0.832643468367789,0.441815977038594,-0.0699382163494359,0.20169125827251,-0.956997161475258,0.120949147639541,-0.306277182210613,0.545604459489263,0.454124110096148,0.123101838812225,-0.965118046412633,-0.227541619335087,0.126039508139662,0.456477913364098,0.0961758472198014,-0.20031621868465,-1.05320540949465,-0.168146797933634,-0.0958708567892133,0.650575411686733,-0.302564292612498,-0.490926852950095
67.055,-0.505895516289057,0.157450248222914,0.837473146706718,0.454417335411578,-0.0679701489520058,0.204002187643994,-0.959163591924042,0.133401977674262,-0.303350777969446,0.571572856053171,0.44683424495405,0.123191325641435,-0.970925421244879,-0.232475870418783,0.116424681453567,0.481578442838648,0.0937303710626053,-0.21557745193349,-1.06553842172973,-0.184081353574152,-0.088415069202189,0.653875885870099,-0.321306968076412,-0.461616221328885
67.06,-0.508385925488573,0.16547946216927,0.842038749961124,0.462558859701581,-0.0665825317003972,0.204756102458321,-0.961451464826467,0.144849235092423,-0.300528587098814,0.591955196110716,0.439331175973043,0.122398761336379,-0.976722505985905,-0.236517051546252,0.106865437161013,0.500988597947385,0.0905777139989567,-0.231522763901284,-1.07681352645935,-0.197292999688169,-0.0793154241448685,0.651211078284231,-0.338287823834379,-0.427676741412217
67.065,-0.510653290891683,0.172465966535557,0.846294618160974,0.466358148502951,-0.0656145567643633,0.204048459593604,-0.963887052682495,0.155100450193434,-0.297818776188187,0.606945163998151,0.431741042525487,0.120638013022006,-0.982472900518392,-0.239492229046174,0.0974302664090106,0.514870085894932,0.0866649050674509,-0.248185133001989,-1.0868590267039,-0.207532301892178,-0.0684943470027128,0.642570082313579,-0.353418024168123,-0.389595581518488
67.07,-0.51254306005304,0.178419393838535,0.850200145279084,0.466009990375616,-0.0648759282889689,0.20201650291587,-0.96648560858899,0.16403945884427,-0.295207590598078,0.616848228188152,0.424185188853428,0.117832390144052,-0.988146934632515,-0.241280561722071,0.0881762171845634,0.523497094043015,0.0819390623885947,-0.265599358395145,-1.09554650831155,-0.214631731245724,-0.0559573395691027,0.628084126641091,-0.366671412520308,-0.347925975729559
67.075,-0.513932453178017,0.183371679915085,0.853724448903768,0.461766676530237,-0.0641533396055987,0.198820080627428,-0.969251103219499,0.171636114776524,-0.292658463535263,0.622053194106924,0.416773161937199,0.113918124988672,-0.993721499189182,-0.241825497374238,0.0791494226822343,0.527228939614701,0.0763508004202412,-0.283804788515917,-1.10278364941501,-0.218514214008013,-0.0417567944687916,0.608014712652692,-0.378083537312302,-0.303271429400326
67.08,-0.514753140515397,0.187347782318263,0.85685864536622,0.453907708177392,-0.0632176209102363,0.194603864502488,-0.972179506034406,0.17794095992739,-0.29011124918833,0.622994003958515,0.409598917422475,0.108847104964132,-0.999180884347121,-0.241128144622877,0.0703912760634573,0.526473164331517,0.0698581286766649,-0.302843264997258,-1.10851327212242,-0.219177130281346,-0.0260224584213869,0.582733143848596,-0.387740699007328,-0.256270074127718
67.085,-0.514991195469426,0.190371913860358,0.85961915904717,0.442706255801852,-0.0618360647429169,0.189464070253826,-0.975252961121553,0.183056264075901,-0.287493459594047,0.620104299104739,0.402742784005761,0.102587298287906,-1.00450404321101,-0.239221444197454,0.0619396521780325,0.521640810091665,0.0624291337790269,-0.322754502180211,-1.11271531969481,-0.216705350865474,-0.00900389521513159,0.552703936932485,-0.395782096233164,-0.207585311085463
67.09,-0.514659486076047,0.192499720891253,0.86201893518377,0.428417615397669,-0.059789910183458,0.18344741338703,-0.978421924400128,0.187081485044753,-0.284758257942218,0.613795402705149,0.396278083691081,0.0951221944013374,-1.00963410131823,-0.236136615207087,0.0538250682179849,0.513124958182175,0.054043108445952,-0.343566573421273,-1.11540669873041,-0.211354732921225,0.00895655122990687,0.518479409872651,-0.402407842948405,-0.157884084698689
