Header,foot_Accel_X,foot_Accel_Y,foot_Accel_Z,foot_Gyro_X,foot_Gyro_Y,foot_Gyro_Z,shank_Accel_X,shank_Accel_Y,shank_Accel_Z,shank_Gyro_X,shank_Gyro_Y,shank_Gyro_Z,thigh_Accel_X,thigh_Accel_Y,thigh_Accel_Z,thigh_Gyro_X,thigh_Gyro_Y,thigh_Gyro_Z,trunk_Accel_X,trunk_Accel_Y,trunk_Accel_Z,trunk_Gyro_X,trunk_Gyro_Y,trunk_Gyro_Z
104.765,-0.435386350054298,0.243858949946088,0.846031099259224,-0.00781142818465447,-0.0513842483599599,-0.165941548220319,-0.934419276616515,0.113961333791105,-0.191476495261075,-0.243344799938753,0.851905616730712,-0.12996914724033,-0.96011364169817,-0.201489852470267,0.335828233753541,-1.15421080898508,-0.068642749393904,-1.24436912235224,-0.953385560307325,0.0280058910819063,0.120811040952484,-0.262812034343304,-0.365618569170433,0.679210907197707
104.77,-0.450580834652482,0.217249880036511,0.837432821233445,-0.00435406280300837,-0.0606250775309042,-0.169807789616358,-0.95529655276997,0.0729735597945326,-0.227012177472647,-0.228087694396702,0.888056317657422,-0.135968079700365,-0.95887125449586,-0.290067703891064,0.31714130345922,-1.23622579976939,-0.129156055949138,-1.15898799994137,-0.965298340428256,0.043020418614205,0.0976387995027342,-0.322235784473594,-0.282655219054988,0.632837276944471
104.775,-0.470099298533344,0.212991226234247,0.832352423667191,-0.00522932048924221,-0.0697836036550913,-0.169970579110678,-0.955286233653191,0.045032789562502,-0.243600195220656,-0.163659631870514,0.903692101755769,-0.147214713354424,-0.95695825406069,-0.358239068993652,0.284366417110394,-1.18266067041541,-0.186334260601415,-1.09611145705848,-0.916353527524402,0.0709670148926657,0.0747144696757349,-0.257940042979544,-0.207277628066405,0.254122614164234
104.78,-0.473259050113767,0.222726791937615,0.824045841713371,-0.0108909967459795,-0.0690731699142254,-0.170418123191024,-0.948741507884198,0.0180771653823015,-0.260876388394503,-0.102726301052291,0.916894204855011,-0.150402039109133,-0.935667281365295,-0.378596046246405,0.234657995721515,-1.01965632695173,-0.199088263627626,-1.09202299141236,-0.922762125778712,0.114022377571685,0.0581552440276203,-0.282067116446213,-0.0693416690271897,0.0304240821514986
104.785,-0.467789370319026,0.207732412127451,0.834318909810203,-0.0137935640081112,-0.0638583897196704,-0.179204255342484,-0.942956291790715,-0.00424193221761993,-0.259878327386107,-0.0428808623217592,0.940478028096507,-0.146845320028388,-0.917355011832893,-0.34088288315441,0.16104451542611,-0.572343344492587,-0.17908705660991,-1.12414439044797,-0.923861897107085,0.104487829921254,0.0601573789026126,-0.379704389078357,0.046342380564365,-0.0899103176710678
104.79,-0.45639895842279,0.21172404516753,0.837929741058383,-0.00953057390718527,-0.0819290310835123,-0.177683607448384,-0.93738943587628,-0.0259494550600915,-0.236712852450976,0.0053275411060194,0.958306518449142,-0.140410356887156,-0.869775435345128,-0.276056138318467,0.10240674800079,-0.209245130654756,-0.160471828811488,-1.21439789699623,-0.921907137549064,0.125928452927397,0.0843698213365936,-0.382583526292008,0.114523501719412,-0.242568399471338
104.795,-0.449656391336668,0.218418944382591,0.846097504133094,-0.0151580671884948,-0.086663154978589,-0.177052312915203,-0.942885608269242,-0.021935238869802,-0.237368235315721,0.0753672798558327,0.964313983917236,-0.130857821603691,-0.867200009877717,-0.174815996341648,0.0556507838816792,0.0825970391908384,-0.0957321455224765,-1.38533812602106,-0.895789944410613,0.16440617052166,0.110589628313355,-0.424589205304452,0.0883051411578599,-0.140683668739349
104.8,-0.440957387851518,0.207734702940018,0.853030556142845,-0.0337410878713978,-0.0643142331386384,-0.1762408271666,-0.949842337992935,0.00234453877740903,-0.248496159659325,0.139899407768197,0.982842057447863,-0.117931089581632,-0.915314548726255,-0.0870884878693938,0.0280439546072418,0.235552366611663,-0.00765688835496891,-1.41058769795855,-0.878633787391148,0.20490761795562,0.14029802801055,-0.534812756635844,0.0113435997685958,-0.0485899641212745
104.805,-0.456833753012566,0.210496170311901,0.853404537988719,-0.0484246332526306,-0.0454638921641948,-0.180365943394433,-0.945467373964291,0.0138203598446798,-0.237237353033568,0.175106491694822,0.990604051371614,-0.113861589264081,-0.971426753530072,-0.0475375073097391,0.0268602586694187,0.223828144827686,0.0807472483776353,-1.2689830182687,-0.897134115135349,0.235834049191809,0.169194552525662,-0.625632807659648,-0.101124797180694,-0.0175343613566593
104.81,-0.455725945663772,0.213926747863205,0.845897804614829,-0.054914329631887,-0.0574214598179332,-0.179579829136872,-0.953722946115115,0.0187275968203935,-0.218188078291382,0.190411532801196,1.01215384149953,-0.112509824406176,-0.998707554017846,-0.0329066901333743,0.0474833008626432,0.174723856916021,0.170155385239523,-0.939100721667589,-0.868395993135273,0.236605103147576,0.182797195250387,-0.600971928186422,-0.248069535931712,-0.137939031223965
104.815,-0.449162509369271,0.219341356975161,0.839812470445208,-0.0691649141069137,-0.0587654914659591,-0.17498475695926,-0.985086283326635,0.0417781828699261,-0.20950000822527,0.199575026840156,1.04551989126541,-0.126333143547542,-0.962175216028266,-0.035446024121014,0.0417619682602754,0.0401835351549923,0.218024511421378,-0.730807453344739,-0.823495735760052,0.234277336882565,0.190354700144362,-0.515752047066903,-0.28516659461161,-0.310518326293359
104.82,-0.433210331893643,0.227831556129483,0.850524789713555,-0.088939618932298,-0.0581278291514967,-0.160782607632669,-0.953790650636157,0.0658786730110745,-0.187946033865411,0.170624857002592,1.06522031785995,-0.144264149137692,-0.922828041642096,-0.0380584340991716,0.0503300871016032,-0.130258979532304,0.271175553980892,-0.590865486206583,-0.818147158271563,0.234536409766334,0.215555861635563,-0.37718755512068,-0.240719744823491,-0.533247121772245
104.825,-0.415638786552187,0.221118478830803,0.863129085510451,-0.107408870119417,-0.0590613587976503,-0.155585371485835,-0.934469505842669,0.0841905698271232,-0.180782877216798,0.15298144710604,1.08477288964621,-0.168528051854372,-0.900532161665411,-0.0471066540007212,0.0375741786045261,-0.261527350960308,0.316611198133262,-0.542471201535087,-0.81950573155286,0.215871279894611,0.227625746307475,-0.25638064373225,-0.201195893285455,-0.676906264678632
104.83,-0.412185462716307,0.219658781911903,0.863706598360939,-0.122351934905139,-0.0504517879379068,-0.140734130337053,-0.937494223984609,0.102585403272243,-0.202911193470686,0.10108448019576,1.11156774190147,-0.202904511319471,-0.907347107382035,-0.0667052404453733,0.0377055468372935,-0.373519315831987,0.303688696838927,-0.519694418640455,-0.807148083270923,0.21258408216415,0.258620867369494,-0.103033376129104,-0.160905438387506,-0.78338544336117
104.835,-0.428459458267595,0.219730842012929,0.862883174328933,-0.135948522465779,-0.0356184871747489,-0.122724123770726,-0.939200349098513,0.106677089495773,-0.232068344159744,-0.0069188742664688,1.13804817784275,-0.24965172116513,-0.927384605961545,-0.10338876258033,0.0385283990383081,-0.369657394730658,0.261143614028732,-0.484642998036988,-0.828273080229536,0.210292231978217,0.281527651250191,0.0367444496376589,-0.108095066735116,-0.845300265353665
104.84,-0.437024797247335,0.224479919793923,0.863977337398178,-0.14259537653304,-0.0106266418946836,-0.112672219198273,-0.942029539715693,0.0952538070829439,-0.239025704011123,-0.11899080589546,1.15900981095239,-0.276434164586896,-0.921669064995079,-0.14300803203104,0.0311242836463133,-0.280616731579483,0.181140888370345,-0.471761058290913,-0.851321595990656,0.205999114874231,0.297388669335349,0.147879676984501,-0.0679682820258259,-0.818216695648116
104.845,-0.433252335549249,0.224971162265001,0.866383978378686,-0.162221213248321,0.0257298153065266,-0.110370539074745,-0.945180078685024,0.0841218936365665,-0.246170117732266,-0.227533618099161,1.19195990621585,-0.318705061943995,-0.924602754362272,-0.179885841491912,0.0373031040167191,-0.0990833194057368,0.0421759422411185,-0.53802209170072,-0.85904072930945,0.210255029509701,0.317527990853395,0.193353500259207,-0.0560124636647998,-0.788206956521264
104.85,-0.424663506365538,0.217643446364501,0.870505584022057,-0.169942424183978,0.0492315912539417,-0.0992374154470693,-0.955228617348834,0.0708259979761763,-0.258286045414312,-0.319753510560628,1.20579291258142,-0.339955339917299,-0.932714474914985,-0.211185290185695,0.0316669049973984,0.115047960259648,-0.0208250909457418,-0.614001172344483,-0.862407370840101,0.213891604536926,0.329443252850684,0.185228708887645,-0.0868072646793387,-0.625696126034972
104.855,-0.425760578050889,0.216036462085115,0.870570567139081,-0.179801697761641,0.0713082804346901,-0.0951859132327915,-0.960914179599488,0.0512727787659754,-0.28065376730283,-0.411450995447709,1.22355278715561,-0.355238269206332,-0.934525099940968,-0.24125574235152,0.0124815297692952,0.295015453542079,-0.0499949354706791,-0.650450267553853,-0.857098023392382,0.209851043804002,0.343007317521938,0.128726476363957,-0.115284516661985,-0.511503955587528
104.86,-0.435958637310227,0.207888458387423,0.865540531151816,-0.194192576582613,0.100886414300493,-0.0904413187622837,-0.963517024017053,0.0357680933186122,-0.297463724347083,-0.48467037477567,1.24161391358919,-0.366629094501593,-0.941906237875062,-0.277547928066494,-0.0336007034567382,0.392797084446941,-0.0187987825648068,-0.609017849625356,-0.831652802720787,0.216104425530619,0.348257213937892,0.0624676205371966,-0.161277509633042,-0.42797804139121
104.865,-0.446502455356765,0.215533178010466,0.871207300201852,-0.215855540559834,0.136037993224222,-0.0873981030835615,-0.966488232265512,0.0304231087325291,-0.313351500051612,-0.508802286736882,1.2679121028154,-0.381592772610811,-0.920428809392836,-0.318646306543678,-0.049865204384237,0.394278040250261,0.0565988149840123,-0.482244706534514,-0.85540075395304,0.19437071968965,0.351063087497026,-0.0328495692067362,-0.195265048678668,-0.318792015343276
104.87,-0.431221251946087,0.204642748365892,0.885452754940824,-0.221258535900813,0.173711127117778,-0.0846670446638001,-0.972637674213302,0.0150952468370786,-0.321930434121844,-0.527764404463938,1.28585946113238,-0.384597224319066,-0.936951022965584,-0.366534269490133,-0.0547458889550294,0.327372261508466,0.14795274304515,-0.42558047643416,-0.868115364492071,0.203629839065351,0.335041646782597,-0.0594672221374414,-0.227511976580462,-0.268207120261713
104.875,-0.421412240373234,0.220930496504046,0.887123311108778,-0.221581095102888,0.22551067613464,-0.0897701406763263,-1.00401334495613,0.000483169037063271,-0.350462723498972,-0.536998198461337,1.29129656549932,-0.387537577284518,-0.970275709576001,-0.421135115409612,-0.0532438716833774,0.204902828545639,0.196185980908235,-0.401665171931385,-0.885804619232128,0.200696885455554,0.329039276876671,-0.0872987644268299,-0.24332593186956,-0.205459334694968
104.88,-0.41495611535128,0.216224816786626,0.889751584682072,-0.217541175724329,0.285572133627748,-0.104313494015545,-1.03646904582274,-0.00621559216415286,-0.372526698742607,-0.539499450291236,1.3017255215626,-0.373759402601129,-1.00567898092091,-0.434404724295157,-0.0566321469916451,0.137386664569248,0.219308427599043,-0.423709774255945,-0.900720054306867,0.204633229565337,0.318698499577837,-0.0903032577998319,-0.242039629868703,-0.187788778955405
104.885,-0.434980473735516,0.212004317656902,0.892442699330015,-0.205371981468193,0.365537243480887,-0.123713193701851,-1.08643820959874,-0.0307988309592496,-0.398676734579568,-0.480563398037334,1.28444261620792,-0.372594856823926,-1.04122328150402,-0.417854145234275,-0.0726860680065524,0.126249852876975,0.17928974050593,-0.516964653801338,-0.939354658163992,0.213580934518068,0.321650929074325,-0.0617757148458984,-0.213252281662025,-0.173507638721575
104.89,-0.442092810958342,0.211563820225433,0.888261308898754,-0.19343902893657,0.434256702126493,-0.139545677857068,-1.11618222478128,-0.0413803984713732,-0.41035277471167,-0.405946137411585,1.28237205486746,-0.362001538276672,-1.05580481188465,-0.387382014268645,-0.0933691065019776,0.235539204883909,0.128238218753121,-0.587410479935956,-0.981232997746485,0.230008925483739,0.334784483584387,-0.0259827835208794,-0.192617423310254,-0.136463918632277
104.895,-0.438446144865039,0.207447600335672,0.889264475276653,-0.189563757263936,0.510951576766185,-0.147866999646035,-1.1473239254336,-0.0411654801197297,-0.407595681054624,-0.324167732656595,1.28332791371187,-0.354637075740893,-1.0509588829378,-0.328575953910964,-0.116580005965817,0.320161731816896,0.0602484337176734,-0.658904281680031,-1.05540613684872,0.214068846497216,0.349134280318618,0.00289243352138722,-0.179705086957625,-0.119410293976941
104.9,-0.419841662718119,0.197913046593641,0.903845814084633,-0.191182896494865,0.61125693567097,-0.151105284690857,-1.16490182854407,-0.038519257672292,-0.402242176039211,-0.259275924828463,1.29050648212433,-0.352469519612991,-1.03292185643553,-0.268898859519776,-0.133797124443149,0.329994281235986,0.0079919969465621,-0.721656389159716,-1.10165158391849,0.202199565199656,0.355957147172139,0.0531619868341816,-0.177946835756302,-0.158480134149451
104.905,-0.417292511404874,0.207854423724779,0.901630008085139,-0.193863816355627,0.694845828787762,-0.15423591330736,-1.1632524791231,-0.0371867991013073,-0.405287841200794,-0.198892758841672,1.28271729714,-0.368752610508639,-1.02351572260375,-0.232748951441953,-0.141659785313224,0.268578132302616,-0.00935532054099078,-0.763370270027504,-1.16195423794644,0.176240618562172,0.369022046401105,0.0813410719155518,-0.168700086239348,-0.182574253143726
104.91,-0.41834304572089,0.211733913423978,0.902603321821853,-0.199643087875854,0.77600312897298,-0.143398443156865,-1.14938595406776,-0.0296504191037534,-0.409032363261532,-0.14959931644814,1.27132399216925,-0.38813074071072,-1.02735004333748,-0.225439890157552,-0.118888171921905,0.100269479772491,-6.26377459033078e-05,-0.784590917383582,-1.19615529215856,0.161755736008352,0.381026192429712,0.112865349801833,-0.200851299010064,-0.213328374049073
104.915,-0.426152749453003,0.207238262666844,0.906665704752931,-0.203539325868411,0.875565065809869,-0.143234010751845,-1.13597079627998,-0.0250194238082522,-0.408846565196662,-0.114158689806383,1.27819186819394,-0.397658761531253,-1.04181546944223,-0.237882387007691,-0.090675244060325,-0.0295146228673975,0.0317769748864815,-0.775498697786453,-1.2323679021733,0.134108773529764,0.395691618910474,0.100615597129438,-0.168010809929757,-0.275222555259199
104.92,-0.436183682979119,0.200635255712058,0.910051270541359,-0.19573275207265,0.978017608193902,-0.144762756623674,-1.13819618739993,-0.0111346872084232,-0.417432426472556,-0.0889784673384022,1.28220084277383,-0.404751504804298,-1.0601816174162,-0.263691199434796,-0.046468695091166,-0.170455813899663,0.066477317058769,-0.743080773773057,-1.27881621015207,0.102597763988732,0.406073654581995,0.0334659630643716,-0.0979170047876447,-0.314083846020223
104.925,-0.443880201724766,0.203259652333898,0.910451790358686,-0.192986571730922,1.08490915516095,-0.1440658984382,-1.13582553631089,0.00203729260661829,-0.42578022775064,-0.0907553646961003,1.28439795970917,-0.41378886873834,-1.07472216306989,-0.288996173162688,-0.00793211577534076,-0.243341063948474,0.0945782475852923,-0.724614765490873,-1.32972779410824,0.0736890585706444,0.415385607639222,-0.00579588263958985,-0.06185525872642,-0.35233593220415
104.93,-0.445397977859127,0.189710299928498,0.915466504720539,-0.174234216527845,1.20031758144438,-0.147278961561938,-1.13617918088625,0.0102142360640391,-0.428626430727584,-0.103774768512398,1.29265990066973,-0.428547418755923,-1.09089786264646,-0.312171047026952,0.0248917534672056,-0.271052351669519,0.108534813594483,-0.699573339169052,-1.36537995046862,0.0531514895883703,0.411931354249084,-0.0069344168588536,-0.0556305678416944,-0.400587495130505
104.935,-0.435958855241185,0.188091814793019,0.917140409188865,-0.153134192415383,1.29428478145445,-0.149520468085963,-1.13604452308992,0.0171181380548078,-0.414148316222398,-0.137836551316053,1.30647240767787,-0.451602856383669,-1.10268637617693,-0.335889685868425,0.0521225527247918,-0.271155949008799,0.128448678960788,-0.671913448621597,-1.38961498049686,0.0445508623515355,0.409093618656455,-0.0231444977837234,-0.0452807282797922,-0.458886731018735
104.94,-0.431059444380859,0.185949540602409,0.924674865819576,-0.122507813511559,1.41123282841787,-0.166857460442128,-1.14775974252366,0.0233229952283031,-0.39873826079763,-0.174437340908366,1.31711512487443,-0.477801471997987,-1.11139276826864,-0.346833325357253,0.0673113015715338,-0.254789172891631,0.144623114312358,-0.646495702575312,-1.38067122422991,0.046475443318259,0.400220961527012,-0.0375848907654096,-0.0508951514229877,-0.493923953731722
104.945,-0.434463681245995,0.192060826377783,0.917600242964852,-0.0846195900093256,1.50893772501872,-0.179535318966141,-1.15782345591176,0.0246076194072674,-0.414369996379507,-0.189286062154815,1.33378749443584,-0.48669461155392,-1.11937169073891,-0.349458087438302,0.0721540480109009,-0.263826325367376,0.167834058235571,-0.587679904864417,-1.36654537790105,0.0473404592591775,0.396646823411585,-0.0400301619667654,-0.0644900632764919,-0.504708037555354
104.95,-0.449254410530228,0.209682513609121,0.903894197113606,-0.0735418989383242,1.61169356374694,-0.192528822975694,-1.14297133503651,0.0176231651666253,-0.391104355134036,-0.179330174500005,1.36035616902369,-0.490865577327757,-1.11487227543568,-0.3397298532858,0.0801945159701232,-0.284780715124775,0.182530882068956,-0.539755085642361,-1.32573976379269,0.0766401061723868,0.388167860410133,-0.0399658404834639,-0.102549097644899,-0.488076899275868
104.955,-0.459771436572514,0.218189873502596,0.902269167890723,-0.0541909937559197,1.70110435228484,-0.210168237913062,-1.13650549697911,0.0154133236379931,-0.375289551813269,-0.147227841707799,1.38367758065289,-0.500514626617674,-1.10673213047073,-0.318452334051101,0.0740310308271113,-0.349655030282878,0.208964610326981,-0.447332419234569,-1.29455781932889,0.101044964164241,0.390447125685921,-0.0357365765359589,-0.150941162132403,-0.451191084169651
104.96,-0.460187984254002,0.210168972679533,0.896399196409445,-0.0344447636980348,1.78867430547531,-0.229182980044557,-1.11666619190849,0.0221160694321754,-0.367570795884658,-0.0899085855490589,1.40133242826053,-0.514663858708912,-1.08618016965191,-0.27404705449073,0.122068142123636,-0.435414313384454,0.217810928821564,-0.365298991131189,-1.25477035203075,0.121454980127708,0.387471548928712,-0.0492043118580309,-0.210486805637114,-0.379038742531671
104.965,-0.465621934120131,0.223730956866622,0.888320126088592,-0.0208666933105149,1.87498132913778,-0.24182359112299,-1.1089006322057,0.0270665433068851,-0.360793218150747,-0.0436082916217807,1.43002177824886,-0.52428213996859,-1.10321562617474,-0.261543382623669,0.150271644246776,-0.410377186109726,0.256685429135682,-0.379405187306192,-1.18283099904871,0.139413498595313,0.378332041842525,-0.0436729031772232,-0.288021278267247,-0.31270118046428
104.97,-0.474885536194856,0.227584946550684,0.882244688916902,-0.00667906407496984,1.96391265556056,-0.255558336764789,-1.09652779701535,0.0357254341133445,-0.376480772185144,0.00900885696642971,1.44064307241718,-0.558065091263052,-1.10850222479772,-0.221998286661253,0.149407044358252,-0.459061095589523,0.241682239439804,-0.334711229933117,-1.17087637085819,0.162756262448774,0.389385670147049,-0.0435672381684663,-0.330494490718256,-0.230620539752539
104.975,-0.489901513340576,0.221829068265311,0.876968048018244,0.0159112905906097,2.06297022472763,-0.280111822204364,-1.09867425908644,0.0422752372647227,-0.380966283828018,0.0334866006270549,1.46719419503377,-0.576780719755242,-1.10189824529396,-0.187357615327796,0.160845415208319,-0.471620893765795,0.195955403807115,-0.297624953575424,-1.13243166833548,0.183078178213195,0.384353474522636,-0.0792236688754279,-0.410260551911691,-0.0926777785869573
104.98,-0.498211002772995,0.219214885744232,0.87626361876077,0.0389118148099866,2.14188812303388,-0.301325704933136,-1.10555957372122,0.0494168637358234,-0.387300524777017,0.0444556698140058,1.49354401899179,-0.58727451883882,-1.09717470318438,-0.163904317111121,0.165077363342406,-0.439732279659213,0.14322108043738,-0.29747983106979,-1.09520323783373,0.189366375600067,0.37568914149527,-0.119360902403495,-0.466313293709571,0.0307815358368026
104.985,-0.5089318563031,0.225922953573104,0.863396246879812,0.0628670417091646,2.24987971665743,-0.331819765457635,-1.1111151181564,0.0397608831093803,-0.38703945624523,0.048076609107133,1.51020284062368,-0.605649430394471,-1.10448129898274,-0.14823923502224,0.170160186879862,-0.417840641711355,0.111971606269268,-0.314156594015225,-1.06213164662852,0.184340050959488,0.381539837216311,-0.12044979750041,-0.47094772882083,0.0585059835899914
104.99,-0.520449477527397,0.236391029812078,0.852575153206221,0.0632110110461359,2.34742926419887,-0.354939593490998,-1.12206577460881,0.0383873815552159,-0.387663019162292,0.0586376711726189,1.54351657188394,-0.623254292476184,-1.11241581267556,-0.132987915539604,0.182707263439614,-0.424394023514972,0.0726420614562379,-0.293248786105935,-0.992821032886895,0.175812967571193,0.368086281046688,-0.0890064356381162,-0.435252316515677,0.057909029541233
104.995,-0.529637463425524,0.232627420436698,0.853679101242662,0.0747644786798682,2.44994657857085,-0.379077985959718,-1.13043124182719,0.0357195517346713,-0.380826201631114,0.057970152451491,1.576181365302,-0.642449649716304,-1.10833016337903,-0.122105059391136,0.195575373554913,-0.413206998711923,0.0719170310727827,-0.256148461118727,-0.956107700020068,0.206494918017762,0.373254436026731,-0.0635048892721035,-0.344926869509321,0.0636685497318322
105,-0.54162378939833,0.224697129342899,0.848506012238159,0.0743372264013954,2.54119342458795,-0.405093261913362,-1.12231997145666,0.028802683473257,-0.374254708619752,0.0515606963964252,1.6046982062858,-0.655930906726652,-1.13449369559667,-0.107015303309927,0.224311822046562,-0.438897648545266,0.0888939643494775,-0.183959674652097,-0.856523173504181,0.261590504655945,0.367776431131229,-0.128052868830328,-0.236591235215732,0.157766832845073
105.005,-0.554677523626832,0.227033168761033,0.839690178001097,0.0713639693036115,2.63381704351015,-0.428324041877991,-1.116299554457,0.0115426916329286,-0.360918381971719,0.0223332443101958,1.64990117113141,-0.659479536732249,-1.16229769590722,-0.112942862511104,0.186178190385786,-0.427370932638534,0.149928402314491,0.055662741800173,-0.87113831709658,0.174012785399701,0.371547603929515,-0.270015225723869,-0.0673786964135988,0.0949925971443435
105.01,-0.559465385212586,0.227780689308361,0.828525952496211,0.0630010711799976,2.72645594540221,-0.460230505722113,-1.11147034954123,-0.00769615023850634,-0.362885425546996,0.0303012482524415,1.66819579147532,-0.676341825644575,-1.00134289076798,-0.106144423322812,0.152279594559047,-0.586874233077285,0.0988124256068465,0.111725329746299,-1.01109149979496,0.139417266253232,0.37682813807698,-0.0724413480577494,0.0310967817437451,-0.582965728066109
105.015,-0.582037771154809,0.229300422645962,0.820229050414564,0.0440403870379094,2.83287084255494,-0.493766883941622,-1.09757086976395,-0.0313854092934544,-0.344210478016365,0.0222011064531443,1.71735577235658,-0.681203719874301,-0.977237491621854,-0.10173951938657,0.127875641093751,-0.615725306769405,0.0987392068012859,-0.227920062032373,-1.01279660206288,0.144678954221382,0.38783654440098,0.226894506267427,0.115684510742152,-0.709980273551154
105.02,-0.591193222958587,0.195867818595972,0.810141319143572,0.025907530350484,2.92654556462626,-0.530572979832948,-1.07983112622164,-0.0433989640268205,-0.327823489790869,0.0309809189598053,1.75443097437527,-0.684528887271881,-1.06291639729183,-0.0778899776341131,0.0933718879967872,-0.622359927845699,0.150125966314495,-0.303860286008533,-0.951720218062444,0.164099442243159,0.403485356781256,0.285416894984263,0.167604799725371,-0.535671646326254
105.025,-0.618987202075192,0.168577981369653,0.8019328185973,-0.0143641227504104,3.05276569328349,-0.582346255188535,-1.06856676816939,-0.0451648780359971,-0.332289522769656,0.0488390945492933,1.79765564405933,-0.684999010551645,-1.09294923868732,-0.0274052644414736,0.0723889367653019,-0.515987590736852,0.162834674119949,-0.130551487109522,-0.923270184605902,0.161256923572851,0.446201552771516,0.255777075055073,0.184569869920829,-0.295636498787567
105.03,-0.64108044669837,0.162619225674961,0.784029107647188,-0.0506158926598654,3.16866183403546,-0.616426617014381,-1.05607837042855,-0.0651704287499454,-0.34749719364439,0.083988067043289,1.84678596407819,-0.697254799834221,-1.05707413233944,0.0173448134522309,0.0388763690158124,-0.361012489605483,0.172226594407806,0.0167088762602481,-0.944027686662449,0.144348808513988,0.460254947093359,0.293540410116283,0.122626691491659,-0.268076363568395
105.035,-0.634836073806135,0.156556973200644,0.76646209958255,-0.0944324548207234,3.3148982978715,-0.660394178534174,-1.04566342281484,-0.0904076775105605,-0.3388258321642,0.0958762877058998,1.89054747433463,-0.700881159048367,-1.00001977197828,0.0590631291366298,-0.00972183852727389,-0.254158152540323,0.20957781308815,0.0682110369060185,-0.976574775716383,0.126829335581465,0.467011800014403,0.371201980724477,0.0368789842041941,-0.301878994755594
105.04,-0.599653947000676,0.19780779794006,0.787092050386796,-0.136129894161997,3.47850271568517,-0.680619131497874,-1.04896160873196,-0.11206719202944,-0.287776793583399,0.128708143793296,1.93988685104991,-0.71407626780535,-0.979623416801136,0.0867463415696148,-0.037963346232956,-0.226924210661895,0.229910474743759,0.0415227511346664,-0.962635090201652,0.116676136906545,0.458487490585679,0.434429127786674,-0.0318911909037171,-0.339127464450856
105.045,-0.556844738305023,0.210691496446197,0.918644638035767,-0.156854265374518,3.63934262377369,-0.676005894781625,-1.09812548245063,-0.162354791800912,-0.348437417174683,0.126024296605228,1.9621177270517,-0.730011995839424,-0.998364268845911,0.11952536588785,-0.0467527484176286,-0.226007319782733,0.243419061624234,0.12256542169057,-0.953715580164052,0.0928036925811903,0.415928246497941,0.469436332947304,-0.0745995854824656,-0.370829056308252
105.05,-0.545380002734335,0.231528436122078,0.884775985201446,-0.246244810476946,3.82479583107572,-0.637934780120865,-1.16793917001958,-0.0540875392872438,-0.386096038611285,0.171101356968321,1.92154408565267,-0.747142607190116,-1.08071123745953,0.133499297782378,-0.0457140870035803,-0.236397138202384,0.23868503498612,0.234136438302872,-0.955877647064557,0.0688325672053427,0.434295270023309,0.466434568923628,-0.141327024913437,-0.427218012961086
105.055,-0.569610898481128,0.369188659085323,0.830346918813311,-0.362873670925747,4.00069327736389,-0.620639806840922,-1.24595506013382,0.0689998780698957,-0.196616056313246,0.426146371551278,1.98120872522434,-0.80458846001315,-1.20877276762317,0.144375945496068,-0.0659629033037474,-0.237178994242997,0.237664675985107,0.279632539919663,-0.990959933731954,0.0653232586090007,0.454302125353954,0.44517713419112,-0.220273511456716,-0.491540125348735
105.06,-0.600506993859358,0.368020318344723,0.751390619919121,-0.447608369698316,4.20349628424082,-0.675361754099758,-1.31688392610009,0.0791554920029371,-0.210647715631275,0.428926537329522,2.0569598057111,-0.846013803964722,-1.32638200765168,0.116979027416716,-0.126846556464286,-0.251323914001128,0.248932591586287,0.325462749980204,-1.05244547980087,0.0732105072209245,0.396637478032562,0.452508654126962,-0.224298202987104,-0.539635045101448
105.065,-0.646708737584781,0.247953797970504,0.731394093634344,-0.474133537339735,4.40608617187634,-0.799630985540805,-1.32735608666966,0.0231322612705237,-0.331338330264669,0.237898541667743,2.02090112047797,-0.840238266941264,-1.31209520062874,0.11754469263512,-0.0885667208492271,-0.286819312855232,0.290574355730014,0.336885837333594,-1.19215762968063,0.0666603157341552,0.275488481541557,0.578685985007323,-0.101542710497584,-0.589170699961561
105.07,-0.691884364151241,0.231875851827204,0.787519432046262,-0.522366983158987,4.65574307759275,-0.86497587699661,-1.31495533029842,-0.0721788081885625,-0.26910334929488,0.0893127270220476,2.07907746193495,-0.815550696944532,-1.24968655471625,0.0904513742979315,-0.00693790015000698,-0.391530677410957,0.353890939369589,0.458111119356253,-1.31892682038721,0.0498173071900324,0.166932504711088,0.675038018318393,0.0139875312987382,-0.599484879206481
105.075,-0.684286347181117,0.252460844212622,0.728162733000573,-0.577214147348214,4.83872016239143,-0.938373862597482,-1.30325011186131,-0.0888024777039731,-0.168458750070858,0.136744770005363,2.1749189515948,-0.793143474692956,-1.19902663471192,0.0680332867308888,0.069774536333675,-0.537538067430493,0.436409179114499,0.586555726255355,-1.40289063232711,0.043012045056325,0.0695598879602725,0.746687836432358,0.0725413709272072,-0.572697358565342
105.08,-0.660989295473228,0.302412947863334,0.697808973760907,-0.623108111693779,5.1075372535007,-1.0272354659096,-1.2848439543898,-0.0635837519336994,-0.153020593712056,0.308056104124079,2.19725039767034,-0.752775083988011,-1.19159761538451,0.0904239488396062,0.102429091379016,-0.69274186739827,0.554143071461673,0.820958488176361,-1.33746690764036,0.0665469333825277,-0.00979396234757298,0.764530181163864,-0.00705431903479128,-0.507210068792587
105.085,-0.697399823618769,0.300202844331304,0.668140351085035,-0.675365699610514,5.36960142483351,-1.13527459613492,-1.24550091297679,-0.0591139084991023,-0.174142739408681,0.401807228099261,2.21352671519743,-0.693166761965486,-1.17155399556917,0.147335609671036,0.0699400177671888,-0.702999710386956,0.627493197013234,1.09017796746329,-1.21382440137362,0.0968536237671076,-0.0395172837133096,0.764997733815595,-0.148570183714112,-0.474054506389365
105.09,-0.720373987935241,0.329843337301106,0.658107075886822,-0.784170742250463,5.64276408547825,-1.23006575462135,-1.22861786617028,-0.0580363657044966,-0.146174146421648,0.478211472441168,2.26868440649014,-0.65609992397154,-1.13017798044247,0.226646619414742,0.00112192261878727,-0.565206984888193,0.657427864345059,1.32319797983849,-1.10074216182723,0.132917576268271,-0.0569339539503336,0.743936341489286,-0.291264714554616,-0.449236874040446
105.095,-0.711431464173572,0.350332044849716,0.709914974005298,-0.882020594020261,5.93751807599903,-1.35257851480342,-1.23931936103089,-0.0292995484166511,-0.0777343578840245,0.622611216461629,2.28496599197388,-0.618678527425251,-1.10774698051128,0.292315937320323,-0.0513315438360142,-0.385063991788582,0.679820819757799,1.49656448270659,-1.01331975176462,0.148028620696572,-0.0699624418644795,0.652384412024414,-0.396944378406723,-0.418903704989479
105.1,-0.668429136238617,0.359721682636449,0.693428826874632,-0.945170998504974,6.17646710846172,-1.45588326315076,-1.28634105850611,0.0177012663199158,-0.00796294058184411,0.763436666090001,2.29861870459938,-0.600724950023199,-1.11115928426698,0.360057067931921,-0.105014747022645,-0.217472762153859,0.693737698564434,1.57109089561064,-0.97434409826239,0.148151498135434,-0.0796033843786308,0.505661559040989,-0.422384763122275,-0.399409519551175
105.105,-0.671265579766641,0.443068119602586,0.637709965887348,-1.05590336751941,6.41366092545496,-1.57547682160714,-1.35127096644494,0.108174893035849,0.00208239487766052,0.846496397290943,2.31264196642294,-0.582692904696727,-1.16120031982014,0.337359428171785,-0.216782389579428,-0.103757658928346,0.73014633000532,1.62287634628233,-0.965711931372476,0.14911045466726,-0.069326962648572,0.301794888090362,-0.37066587627383,-0.364535149329952
105.11,-0.774417839176917,0.501442024849919,0.496202260531041,-1.14288282394409,6.78347827685548,-1.79013975853711,-1.39144724875688,0.204563847780223,-0.0451984567102016,0.951134702498764,2.27420939402899,-0.567021529631026,-1.22013637555293,0.30697546131283,-0.309058975056801,-0.0500420151640827,0.752359838670988,1.68873772655876,-1.02073381834737,0.167575338443568,-0.0516375423815894,-0.0111452085119828,-0.191922011581062,-0.252623378870509
105.115,-0.80682705059379,0.530941746651312,0.553924967461147,-1.1524284459642,7.10805910272813,-1.98654006884641,-1.43837211813094,0.237172941938224,-0.0463854232337777,1.00772014150432,2.29168566862106,-0.543655538224988,-1.32318577030375,0.274154992849238,-0.382075140613509,-0.102774673164166,0.754541844516077,1.80765820807677,-1.08692522406456,0.17438708685429,-0.0468619171801141,-0.239466815081876,-0.0168676525171485,-0.194120743735041
105.12,-0.717039353689112,0.643257397750795,0.784107756452684,-1.21818871553959,7.42248626893848,-2.14563309933633,-1.49995603052071,0.235036869565494,0.0483308817079613,1.03325387092787,2.31985149131526,-0.485554248247022,-1.38347842678742,0.18247138945711,-0.40137714386042,-0.230007263707712,0.768803444520421,2.00162420922228,-1.17476430931881,0.160565447302722,-0.0544826923178153,-0.456384745796163,0.203000916902731,-0.152611901184539
105.125,-0.687643431922937,0.611286820995705,0.777126886224144,-1.35060967567418,7.62867356642726,-2.29636061043053,-1.52285738214202,0.196023639987546,0.125988607640536,0.98722400070125,2.26955294982865,-0.424898593345804,-1.36376583442595,0.0553875749457027,-0.361374736777417,-0.449745242729209,0.779517403852958,2.22074355244196,-1.26841975902589,0.110185915150926,-0.065376383792194,-0.560504198848662,0.41734621598697,-0.106398707056374
105.13,-0.873550841034828,0.331041778600729,0.506935367891287,-1.82840086186428,7.94152930659697,-2.54258114438114,-1.50442014067825,0.149907611556779,0.0553185020993841,0.854366607628238,2.1592672445225,-0.362579354296057,-1.31467539589221,-0.135592786817702,-0.278673135912665,-0.84200523660558,0.817857261599554,2.50612147836725,-1.32096244630683,0.0522651961837829,-0.0883826734833714,-0.559612102672193,0.508728127118793,-0.0765271094482069
105.135,-1.06451776671531,-0.207032156605295,0.686880649254148,-2.31988062687524,8.37812337897168,-2.88878139153773,-1.42114949108636,0.0646075220353679,-0.0476459067537441,0.733288430462724,2.05217312996148,-0.32267662954838,-1.24281300247946,-0.240115172797448,-0.191636032327655,-1.10572168462068,0.832700147082103,2.67705071141892,-1.32690410676003,0.00408780824717821,-0.11823746535536,-0.466525905939208,0.498281140293449,-0.0662293664585651
105.14,-1.44423962340655,-0.162078714426592,1.04559577495188,-0.92386586213736,8.17709307074919,-2.69203688316136,-1.2944112444546,-0.0848719361786234,-0.255624321914172,0.555369289817431,2.01449394513444,-0.338031005800223,-1.22248728024485,-0.335575600783265,-0.0835924277772805,-1.1869411814975,0.834436020390366,2.74211321104094,-1.33203724037302,-0.0363524395829644,-0.139429916336778,-0.348484624554586,0.427140769434193,-0.0635993262721858
105.145,-1.26274803366647,-0.0868501483332068,1.07051983652285,-0.521369202495058,7.95148135122725,-2.37048565779164,-1.19585975357729,-0.185583080529211,-0.47130612493399,0.30334784134455,1.97560542942771,-0.347635690067609,-1.24218687635057,-0.371440342781167,-0.0570440135715987,-1.20111947610196,0.789843079542903,2.74366864153487,-1.21873871963006,-0.0241537087010661,-0.16573010747315,-0.095339166999576,0.329300556224812,-0.0237641355590088
105.15,-1.74629106834127,0.0316014722360963,1.05022800807528,0.0791044199137432,7.57427165163058,-2.21345462774025,-1.14284898059537,-0.216532185084681,-0.624733682339899,0.401160735458675,1.92845827984097,-0.43498037447911,-1.203596215379,-0.361380552411876,0.0627511364039941,-1.1310984636602,0.611296245390115,2.66809983300407,-1.21823742387239,-0.0683261746175172,-0.190320313412873,0.011882686271467,0.227358469134116,-0.0478619249830827
105.155,-2.12211722626378,0.543999415070045,0.890757461731772,0.0690472588397996,7.10484746505108,-1.96274332984677,-1.17116297733463,-0.0908063256199304,-0.733246484447294,0.637185987142705,1.88676978513858,-0.519790907302894,-1.21713419260546,-0.332599261969564,0.160886309313779,-1.04147268490982,0.363699031254108,2.57045764296802,-1.14342048905377,-0.0961052543763761,-0.213739942432029,0.168333221924595,0.156833257946373,-0.00927567737312238
105.16,-2.1315212530989,1.09900986774745,0.889958683130964,-0.079433088743947,6.71163741952485,-1.92772569920056,-1.23101640888046,0.0847397835171897,-0.876232855515222,0.879208156413984,1.87861857787873,-0.58419548517804,-1.25268942479095,-0.348015194209866,0.257205547506358,-1.00231482965386,0.115749984644186,2.48018474506779,-1.10377537764358,-0.141906708559429,-0.210470845269666,0.328598714673868,0.101742685000247,-0.0546823172693814
105.165,-2.06841404338106,1.04067812461785,0.839033835087534,-0.651075810179632,6.23410219267075,-2.18169136276651,-1.25253689467682,0.217573815402988,-0.917081822439643,0.945540051925339,1.91361388274464,-0.592806182837799,-1.2779428273236,-0.396278380101139,0.335931224665315,-0.875497510439135,-0.170199896588886,2.41505531982745,-1.08920912825707,-0.143406562262315,-0.20699257152058,0.401173267635268,0.0956585604175979,-0.0854873424122544
105.17,-1.9353413009697,0.647603280867679,0.91714072351056,-1.32669452964177,5.85993546154467,-2.36261583272238,-1.24934128393415,0.31913090116426,-0.815548790721249,0.918616056782801,1.98553564746936,-0.588282324796143,-1.28035763623424,-0.433724226342638,0.343944499064805,-0.740988701803712,-0.311629623139638,2.37744498218126,-1.0283487636365,-0.150788032906974,-0.177199164974859,0.317255673771123,0.154985121586274,0.0596965807094755
105.175,-1.77443431002862,0.379240560540176,0.940424635185062,-1.96844794327632,5.43593043507158,-2.48538270474981,-1.21303794946416,0.431974418814201,-0.680597369454148,0.84423393547207,2.00461033254698,-0.591163383990741,-1.28747492147049,-0.446881220699139,0.330638576110842,-0.450348634015999,-0.459146604132491,2.3699123194113,-0.966366127886707,-0.159094097084247,-0.152545573718161,0.154576396136913,0.21720169660293,0.1520507399742
105.18,-1.751730625857,0.44266816201222,0.982571557403819,-2.48239233446328,4.96048080426177,-2.52599192559122,-1.11167510392141,0.563749220166903,-0.591944308602318,0.717201344110268,1.98251921349718,-0.629954042181121,-1.33793733677176,-0.441916780385036,0.342344963119652,-0.0824221039279029,-0.532505515825755,2.40932867487973,-0.921395657943754,-0.167797005199323,-0.127624199195077,-0.021425043383649,0.293112018819406,0.244368361494461
105.185,-1.61749818237159,0.361278524401945,0.924924074596208,-2.63343885423614,4.46791267024725,-2.48965005410082,-0.965588989658954,0.655260770355656,-0.557399826045372,0.315173972084762,1.99209377614191,-0.678611618340902,-1.36243051932719,-0.506206192936348,0.302278338147576,0.579009177422708,-0.658796514537299,2.49660326213284,-0.863057075700048,-0.211838819344551,-0.107694633114851,-0.185099677289868,0.392389196758029,0.29779603195223
105.19,-1.39168703806868,0.0419891111224827,1.09154668040076,-3.31266716019621,3.9562171359334,-2.74316689972471,-0.886472004534158,0.609005589538867,-0.617721206894357,-0.205388654674976,1.96046898961408,-0.695734988242306,-1.37402392364139,-0.528903581789715,0.266225137774604,1.03462950981769,-0.677646260201174,2.51540633449398,-0.837896347152124,-0.219137137716865,-0.0911478822497943,-0.272584012545192,0.456550955286089,0.271695120446452
105.195,-1.50850384771117,0.00652999904408044,1.20295582431633,-3.64274046683733,3.42402809200867,-2.83368208698108,-0.769311200077744,0.503503304184932,-0.723221157617772,-1.16359220695383,1.80627950654559,-0.724175936160852,-1.36511028339806,-0.559356017590017,0.222624532808175,1.41796146616737,-0.580439166405849,2.6877658095004,-0.811437922653625,-0.225218419529967,-0.0808874046612611,-0.347474835928652,0.526362936621572,0.283354115187025
105.2,-1.51807814420135,0.117509506819475,0.996127568356296,-3.57649074007616,3.09100311313979,-2.55181801878503,-0.663728087504901,0.437082342783948,-0.841670044216515,-1.89446844162993,1.75694777002102,-0.726550133262769,-1.31837737452725,-0.587761967717053,0.193023539674865,1.7104342673475,-0.497911534222229,2.89027303810345,-0.794039331240046,-0.220158021108999,-0.0696369410538654,-0.425414881856578,0.577008264377779,0.313787701681357
105.205,-1.38933718543821,-0.0541545236917158,0.895741762744825,-3.81718773057714,2.80459288849204,-2.55724532099411,-0.57130411934407,0.299887890738611,-0.995812640523685,-2.72192533390223,1.82228321273356,-0.750297786057615,-1.27803490020078,-0.595416921446973,0.181625962116925,1.87542632080381,-0.459663461415296,2.97029098573665,-0.801057652372035,-0.215891698847633,-0.0588347254101746,-0.489030341012396,0.576695991916038,0.335585281858752
105.21,-1.89156680315299,-0.48311846748616,2.56484119563036,-1.78728881215473,2.36413254950665,-2.35565230070105,-0.516027568945449,0.191526482443219,-1.13060908803948,-3.19674017808062,1.84216766100447,-0.772745752837797,-1.21869936282346,-0.590345269206698,0.166979061968844,1.9479258612914,-0.396438474667266,2.98617405055708,-0.798093925125838,-0.191061231281984,-0.0447357754836112,-0.514485307936587,0.549848928950017,0.327423644448195
105.215,-2.099297078152,-0.792914530578646,4.72590026537449,2.4308350903922,0.409439046956994,-1.52190200212779,-0.455497417475667,0.0725770503861455,-1.26823602163015,-3.57233998511115,1.92315489775037,-0.764256290998719,-1.18587617363834,-0.566846414387,0.155914238751999,1.96026742310203,-0.383673134446821,2.94513098203337,-0.809170617513402,-0.165191969038792,-0.0339070330112284,-0.494419425582974,0.49337400383638,0.32539887963951
105.22,-1.13926684419013,-0.447468792491992,3.23878927800142,2.08117153013021,-2.20050600196613,-0.749631261016804,-0.466811817296629,-0.143874692092233,-1.23469257993931,-3.70832631640339,2.05891654697607,-0.819958190806243,-1.17000137158413,-0.503364451300946,0.141079339010178,2.08122592815435,-0.413149092797582,2.87210942424549,-0.809774086401869,-0.140014859209352,-0.0205420940377142,-0.445316537020325,0.425347895523475,0.307169976122114
105.225,-0.755029052998985,0.10149928267034,2.35447607926417,2.03507195900605,-3.37124450724344,-0.950881985082052,-0.591727436377958,-0.321118264554748,-1.11220567727146,-3.43581669802061,1.85038713144029,-0.949981100381249,-1.19373175234493,-0.474091672612496,0.123874744686324,2.19111191241302,-0.414407266567001,2.76370840891612,-0.806742779618971,-0.115741368991821,-0.00861139884622116,-0.341170812314926,0.326906806581809,0.238696448713224
105.23,-0.570654542946173,0.438893142059049,1.83950821264516,2.85303099600203,-4.0255465327523,-1.35027337687699,-0.643584872931063,-0.328846816601282,-0.52432177235617,-2.35150050184855,1.09352242043017,-0.943660001749541,-1.24609375039149,-0.481084248052977,0.119573264129006,2.27722021915133,-0.382885420927482,2.69023781660525,-0.802402945573204,-0.0790362396965486,0.0134573518900385,-0.22426956416453,0.265623736652631,0.204177179080603
105.235,-0.244630984077032,0.701786953617895,1.40251241264132,2.5064898093797,-4.38133641669211,-1.35187953831805,-0.631698378041948,-0.314965260912318,-0.211241954151359,-0.970966020710057,0.624520099915646,-0.854919889598422,-1.28272460585985,-0.490634291099193,0.0860805985035583,2.37906683017161,-0.348400349892149,2.66398670291496,-0.795610199558092,-0.0507740148807819,0.035631011260937,-0.149067726287421,0.220421609226279,0.17831147290924
105.24,-0.00830334561764483,0.775425029584343,0.963199706696571,1.81065412489906,-4.45941641461086,-1.16271780590533,-0.674601419840009,-0.36627320967052,-0.101496017253245,0.208930841508109,0.391880029699334,-0.71967209398342,-1.31157026255718,-0.501682269018871,0.0068770936448953,2.51994980319807,-0.300429882927858,2.67895617808362,-0.790344300301815,-0.0351468228725199,0.0595361049215226,-0.0744542540113342,0.198362592915509,0.1217829442377
105.245,-0.011513815505737,0.608420225071221,0.558691244204677,1.3509505174689,-4.45884408506999,-0.998382032283899,-0.743751629008313,-0.377268958248822,0.0210675270325951,0.67320839628928,0.216335642132005,-0.645236081177592,-1.31896680977833,-0.515807652513543,-0.116910975001454,2.68428476261175,-0.166236381039878,2.74397512213975,-0.80495210864535,-0.02507007167998,0.0666238464982695,0.00639485074087993,0.199994485403133,0.0449230415783857
105.25,-0.0131267699575205,0.453718835627913,0.418865971154908,1.15564523787789,-4.55842955322847,-0.917938081906207,-0.721308708127022,-0.329575985686064,0.185628888722891,0.962239011336762,-0.170726161464569,-0.562904906914692,-1.31795518699621,-0.501310851236291,-0.194852233543884,2.73972076363741,-0.0187186204545086,2.82425930003226,-0.825105310307506,-0.0046894111154395,0.0819816870114189,0.0821482367786392,0.232362289986579,-0.0374642045753721
105.255,0.033466462406066,0.464597976823662,0.378054432251144,0.902564955048806,-4.53592909809299,-0.813236808153535,-0.613700360461562,-0.307504007469364,0.135279316167975,1.03964018534374,-0.560056665992939,-0.381305639948863,-1.27714718876594,-0.464899522163582,-0.298229885187446,2.7640425935857,0.155224585331641,2.90037342774212,-0.857877676241107,0.0106999921203305,0.0943909088072669,0.123683333396912,0.27390537347219,-0.0951638014066364
105.26,0.0162755126320425,0.504385590364028,0.378243870176307,0.506553037837691,-4.44452201933941,-0.626377748318459,-0.476272596163625,-0.272946234706182,-0.0799889597157537,0.86868612438279,-0.700959581076584,-0.21567114373254,-1.25395931505585,-0.433708052102021,-0.350411926601839,2.74001099591626,0.311126626035442,2.95227549687268,-0.903245107839744,0.0284802849096217,0.100817994331421,0.128387918647345,0.336165642944998,-0.147998840244422
105.265,-0.0366993052075882,0.493572368373191,0.41140626743993,0.1993436215638,-4.35318530271651,-0.417710035245426,-0.375811303225983,-0.241354346220938,-0.300165395558445,0.746575529448418,-0.816122308780972,-0.0919830547645691,-1.21240406495398,-0.395217108405604,-0.377606694878821,2.60196309886941,0.418106405412416,3.01068001422303,-0.954281710589253,0.0409489112850555,0.105865518376989,0.121333709360936,0.405486304273584,-0.186219866544757
105.27,-0.115736806043564,0.464619650198263,0.524470161757986,0.0718122465862523,-4.29462203797419,-0.104346239142836,-0.308061541589255,-0.260183660592959,-0.386163748020483,0.888830481011368,-1.08957141838826,-0.0529734090066763,-1.15050170581403,-0.365881859750213,-0.362484679738394,2.36046558465353,0.499338101257873,3.07882123455575,-1.01115135675145,0.049466051940197,0.0911133582865472,0.130588728130159,0.492479520305643,-0.249900776627308
105.275,-0.260146528143882,0.395905990235876,0.693873301471152,0.181654159065658,-4.33694326807095,0.253985507484873,-0.28347630571087,-0.29842055251111,-0.370999298017853,1.09878192063035,-1.35234504826119,-0.0152213410089019,-1.08158224858332,-0.334302634466402,-0.365925318840894,2.11297970555818,0.547411381303517,3.09703868594568,-1.04672831651304,0.0658045326733215,0.0761366174617111,0.152727463142079,0.545384462842517,-0.259609865806224
105.28,-0.382463983241175,0.340212855739678,0.791958901828695,0.390791105282984,-4.50417341307082,0.573277883374804,-0.289892837516296,-0.362445281910136,-0.450604498251706,1.09845092196928,-1.49675578638261,-0.00526672787964344,-0.977766354118458,-0.317659877923882,-0.36620481255295,1.79276176402903,0.5765006451188,3.00200331839639,-1.07052757518866,0.0795756915059366,0.0598940345287603,0.177199653288607,0.585389749798448,-0.225084067899575
105.285,-0.424276284845355,0.329629972344568,0.767545270069663,0.592710089319707,-4.78006783343093,0.991152598405771,-0.338323606398267,-0.392363416734723,-0.554194203883498,0.927598295252133,-1.60248146013446,-0.0413584073246642,-0.906185168504483,-0.312360566053643,-0.377145665314642,1.57784980745967,0.574763540256826,2.85313607952005,-1.10073171770722,0.088033103637299,0.0405097756713809,0.20240170512537,0.601547244419528,-0.186230934021584
105.29,-0.4113538063334,0.343259638973982,0.664791499349538,0.630267424059962,-4.9605870701265,1.19946026418524,-0.38812787597342,-0.32307424133378,-0.495826778976073,1.07655458284801,-1.82469556342841,-0.104273066189658,-0.835888808554443,-0.298546936548295,-0.376515113150571,1.21820457881026,0.470058745254601,2.51349005774697,-1.11014391665031,0.0911900680987498,0.0324000342439782,0.229723568910007,0.600177999353992,-0.138074796626644
105.295,-0.380010930543823,0.35601140731581,0.480502300034516,0.558468511523915,-5.17118701205839,1.43011414093512,-0.39292197340567,-0.235167360658937,-0.414100322532255,1.46774793309577,-2.1091215210251,-0.146764945943496,-0.812285773343138,-0.293806361316242,-0.37923086635723,1.03232274674164,0.358896401407387,2.21252808625429,-1.11285826894058,0.0887957110558903,0.0263692583552907,0.243626887943146,0.577100312015838,-0.102766045560359
105.3,-0.338687619737733,0.306922543407555,0.292020654469244,0.461269185058062,-5.23064877401677,1.51629004949824,-0.381761432493586,-0.172055236043749,-0.36005331541991,1.82599361198481,-2.25913266573825,-0.131145983392414,-0.823329397806631,-0.294068212680973,-0.366260333894119,0.920409725519553,0.240178258441156,1.9753571582905,-1.10532820106445,0.085222647456618,0.0225276765797914,0.218029001181987,0.533686025488583,-0.0614681835254965
105.305,-0.277693762818265,0.105704571720899,0.125123819418833,0.41282784394217,-5.16709733795425,1.50454999510805,-0.375192708820901,-0.139968638780442,-0.342240907258624,2.01665655158104,-2.32831503679131,-0.0861524559317649,-0.842849445508321,-0.30783044826418,-0.335992281370539,0.861176445065481,0.107610439812009,2.07668760121372,-1.10115781451953,0.0824727443373345,0.0274723280129071,0.144583853138827,0.48307255091952,-0.0307987872996705
105.31,-0.256965784514676,-0.0529907462765091,0.0599055310428608,0.393991905875815,-5.0170517334387,1.44540178059039,-0.381229786486853,-0.10403529483973,-0.321657096939355,1.96680505422627,-2.48681702229826,-0.018279032166575,-0.860964167455196,-0.31901662509995,-0.301441254473668,0.743860233783009,0.0545893625668327,1.71538647124338,-1.11037306648057,0.0724452032423065,0.035001351283212,-0.00785468204759383,0.405916895812257,0.0178572804191991
105.315,-0.216008992701742,-0.18928548040716,0.0860429711959174,0.410215230368314,-4.80118147835292,1.35419191298278,-0.42118024542829,-0.00830449880581061,-0.309682436980749,1.8123244205099,-2.6041447345121,0.0270527199420396,-0.869194994821448,-0.308961860727604,-0.261183244929242,0.544803724654256,-0.0414936711401972,1.7620712881581,-1.11603501629533,0.057364156631341,0.0323420930613646,-0.148867761740102,0.348152001524979,0.0526540749616315
105.32,-0.160373970007569,-0.282386956419212,0.183916396162939,0.498847052150565,-4.61525012888804,1.22976240576319,-0.444444290683457,0.100418202130704,-0.331236292169483,1.75998507198944,-2.75592241926046,0.0691266456554069,-0.856285041781547,-0.342706522690664,-0.239787674719837,0.422176170893898,-0.0855005214756116,1.76477838070669,-1.11558071508579,0.0375251413744998,0.0370899276482938,-0.325206806287008,0.284912916792599,0.0852652302946846
105.325,-0.198926332486762,-0.303740147181896,0.316231280120344,0.657039673809501,-4.51194586053253,1.08758704231002,-0.42747202940706,0.169923782520988,-0.443088825740984,1.73176142156509,-2.94043790896004,0.150018576874027,-0.90789679821739,-0.362570067704539,-0.202428121638161,0.195772239529448,-0.0728879451345569,1.61527621871627,-1.10566217190826,0.0181237924603452,0.0407071973079797,-0.488344834058892,0.272570650557055,0.0962318804324012
105.33,-0.309340375320813,-0.24450202671951,0.468572617072852,0.911175927464427,-4.54129206114559,0.897892601905693,-0.404844856623271,0.135703490682297,-0.493483824817351,1.46282570819085,-3.08427456262101,0.239094358566279,-0.973022164003884,-0.349286965423353,-0.152977829179344,0.0211531599863498,-0.174696030365915,1.59920196389698,-1.08736109952153,-0.00140994753478304,0.033834409364208,-0.658404104722948,0.239368682343817,0.0858100992890849
105.335,-0.436422681527936,-0.123484548666308,0.597817486123603,1.07705796372195,-4.66618512611865,0.727650832303208,-0.38702057542479,0.085773620908624,-0.522945579669498,1.00845223180686,-3.21745495175633,0.305391869873751,-0.995830872442276,-0.356333513337219,-0.102075065863717,-0.0984906630442436,-0.313903020127874,1.70747219638346,-1.06305686041613,-0.0218321865834171,0.0327288121371087,-0.767851850235846,0.240301928964833,0.0746881974043812
105.34,-0.510683910868648,-0.00387790597707295,0.652871024784818,1.12702560424805,-4.79354284940415,0.591493625513953,-0.385272220443416,0.0801232016003073,-0.544344771534728,0.700596048103298,-3.35251699779415,0.389404144525882,-0.97757332961554,-0.376810202762352,-0.0772326261878942,-0.154972025946249,-0.405606158958182,1.76972863017367,-1.03986589874981,-0.0345404981169375,0.0267778840536569,-0.848629987381142,0.238096139982318,0.0647027602759631
105.345,-0.566148847548915,0.150174927948089,0.673452751172063,1.04364238282731,-4.94584571069621,0.431762158310386,-0.395896975289512,0.0817140660257138,-0.53318628171628,0.498490669409577,-3.50501335395298,0.524238097543547,-0.965227801042931,-0.380883432734038,-0.0773378359189504,-0.168019097068355,-0.445647786380722,1.74713099432217,-1.0066622316575,-0.0432452462304299,0.0304118691359603,-0.887918891295942,0.25322648503939,0.0596244062913356
105.35,-0.614995781394785,0.232596984174884,0.670535201880218,0.950839552148831,-5.04861024108211,0.330772875178644,-0.431459661094662,0.0785562715196898,-0.521602011472783,0.28698729861619,-3.67335252995066,0.655665955810371,-0.97784194758257,-0.423956305356393,-0.128158856210913,-0.152191820750175,-0.505742363356853,1.63137969308793,-0.987140979549287,-0.0543285241600051,0.0324133680773841,-0.891566848851632,0.236766920937795,0.0547637343406677
105.355,-0.655319123648151,0.295296623450343,0.646366423634334,0.843370598622529,-5.16077955240182,0.278200446268948,-0.481022046432379,0.0531602492758639,-0.527758371344917,0.0777084848523575,-3.79535636895612,0.705919337000784,-0.915014512403406,-0.400388916589361,-0.0556211146742884,-0.0861189398198513,-0.517257724541126,1.35638668963099,-0.970075962022784,-0.0691314424328539,0.0351725292336919,-0.855651510262549,0.227978177580817,0.0337405175484382
105.36,-0.679640680066386,0.372697168561614,0.611772361964218,0.747267620862126,-5.23847234659063,0.293613992691419,-0.534353106487313,0.00209719396886814,-0.562604114914948,-0.0958169212059084,-3.94132037291666,0.752360876766459,-0.953669907212377,-0.440431144255091,-0.0573796083251021,0.0912847267192199,-0.4793633307632,1.19653808900644,-0.944945694573803,-0.0701957566006835,0.0462345479425038,-0.793575962909818,0.231527381252012,-0.00823423789537203
105.365,-0.739242446657873,0.507854029964612,0.598421203283257,0.673045926593983,-5.28979777018302,0.377324463587576,-0.575271219640111,-0.0457833195209364,-0.570461135406621,-0.198332064706231,-4.0435347816346,0.804884585142014,-0.922039848662402,-0.464033294683987,-0.0814694328006685,0.230279159350171,-0.460958586885817,1.16680896995812,-0.942743764078994,-0.0825870463160696,0.0630244123437345,-0.754199212975472,0.246046805704025,-0.00560573055914161
105.37,-0.844897470035997,0.62949324300464,0.561318169732075,0.632791836339724,-5.31275406478662,0.588341153868884,-0.600518549287821,-0.0752931156655954,-0.575718422115396,-0.338737734107818,-4.10043766699852,0.839537301025653,-0.895586240383846,-0.466344294299935,-0.103120633539264,0.349631897513786,-0.522590927188316,0.931264084862738,-0.93608227826618,-0.0970621726125596,0.0732599135792789,-0.679232138535155,0.256013328770726,-0.0766959497030007
105.375,-0.925736622471712,0.692477095104396,0.549795046436288,0.626527111208684,-5.29203664145167,0.843388533901637,-0.627356350865524,-0.104633697861183,-0.621394412650278,-0.514993749545616,-4.21718507274724,0.817856385862031,-0.870532175043435,-0.470998918613365,-0.119939715160858,0.413345458811217,-0.572761633365086,0.786115804964062,-0.940745583386548,-0.10299030364558,0.0868597092919906,-0.627278731024201,0.273976854039748,-0.106348313530849
105.38,-0.995155184697574,0.756103465943053,0.54446893027694,0.62787284427089,-5.25861772114416,1.18180545685047,-0.63752276529884,-0.119195706400091,-0.695239282525797,-0.677094146390223,-4.32840348586773,0.780101263725467,-0.830237944954453,-0.470439772292269,-0.135054182099655,0.492429414414095,-0.572216001153174,0.713392329621957,-0.935224771225762,-0.107662560732276,0.0968946226515054,-0.594752041125465,0.320188605057859,-0.142913824212385
105.385,-1.05855279287052,0.778256798252272,0.510253815356682,0.619938490249804,-5.164047366489,1.66354736572463,-0.644238350117541,-0.133327105280004,-0.755114072603362,-0.787136843944465,-4.3805726197312,0.748770569871206,-0.800302201704474,-0.459472585858927,-0.152789757345667,0.600996315347929,-0.55385820391084,0.667819857597351,-0.917654518864147,-0.107344160803254,0.113734009894084,-0.583531596817918,0.376743107196046,-0.179996588021404
105.39,-1.1036313840137,0.794368169898501,0.465130018300029,0.582675177064254,-5.06042476994892,2.08200701709476,-0.681434179640453,-0.133307208438392,-0.726762964041353,-0.883643647627105,-4.48889667245223,0.678951439306168,-0.747844447281076,-0.428808176823705,-0.152808312386762,0.682863310355774,-0.517975488118873,0.662377841404058,-0.927921620956817,-0.103905053169271,0.122082190636383,-0.559052203763994,0.384457885620888,-0.21834508254654
105.395,-1.1424292121302,0.767093146237966,0.403747760890247,0.524455702120537,-4.8955028767873,2.52754811397787,-0.716019664973863,-0.123844179082586,-0.69728549141571,-0.983533454022864,-4.51643902645717,0.635170748455342,-0.700965623277495,-0.386973881230972,-0.118576374470734,0.739530224958978,-0.490741616607448,0.620555377714143,-0.93853161410492,-0.0998938893237482,0.122277781682059,-0.552548335578151,0.380035235110703,-0.256021447954792
105.4,-1.1736453917887,0.703719665488283,0.371920943536234,0.464490369504912,-4.70260058489225,2.9275430590105,-0.764453266699765,-0.127342800367307,-0.719155437514723,-1.15878315619047,-4.5166981089971,0.608523088356804,-0.673135029573576,-0.338754534046887,-0.0733325896622408,0.761669372778155,-0.46531746086271,0.557182077263705,-0.945259651311745,-0.0868000632526829,0.125801768393678,-0.55408788590001,0.358481255603256,-0.270621001328747
105.405,-1.19949997695291,0.562563992386703,0.354899388765009,0.422874329950186,-4.50364171516352,3.23791105062963,-0.802413547597658,-0.119648275900172,-0.755847957175458,-1.34711697386916,-4.53651669539087,0.590247837490142,-0.647208707740127,-0.275656636250388,-0.00899397362458193,0.777672253986584,-0.444033594107773,0.542341094123174,-0.947753415699438,-0.0726195026998513,0.124383560237105,-0.591097630968015,0.331174685919697,-0.261554258827181
105.41,-1.20936171932503,0.4347242220549,0.370497665508216,0.386939963599866,-4.2542948815112,3.54772666131477,-0.828492309916329,-0.0814486738941922,-0.772477819521328,-1.5529718029964,-4.55579097812339,0.557215053694511,-0.616453770270959,-0.235626230427459,0.035024997754834,0.8171845815826,-0.416041139816286,0.569526933059614,-0.948353066243302,-0.0581461877316823,0.121565346862906,-0.607018797247483,0.290872931930689,-0.246848241760468
105.415,-1.20063709762201,0.296715657538507,0.411089143332451,0.377984528749535,-4.05261150322857,3.71638881886404,-0.845746912798875,-0.0412833962788888,-0.795301639225607,-1.76700296750952,-4.55541789604207,0.507904336449471,-0.585999102741594,-0.198510168672982,0.0717273932649754,0.887300339801578,-0.377314729432588,0.583989085822801,-0.948637894106864,-0.0442524361094832,0.121277528530845,-0.635754826337571,0.259569335557761,-0.225536767614572
105.42,-1.19123562150898,0.190040114832197,0.454885226301295,0.406514855461879,-3.86696711487323,3.8246324169602,-0.852667285831094,-0.0194245302241877,-0.816284058733921,-1.9459676607531,-4.56041719704507,0.475432743849229,-0.576334439794548,-0.181386457984665,0.0881398786929177,0.986892222480987,-0.352557910276184,0.568017310282524,-0.950773408242032,-0.0281580955266631,0.118835958541281,-0.66133828788155,0.237884829615402,-0.200156238091642
105.425,-1.21207716529009,0.104683809927,0.510090337848843,0.453811574343501,-3.65561439104106,3.89184354947674,-0.867672815256144,-0.00677451501970394,-0.86581063478626,-2.20448903892072,-4.55688268657629,0.429350954435075,-0.57552651392666,-0.170192846819717,0.0957495567730102,1.1390468190036,-0.328120115623196,0.498435571854183,-0.954352726228228,-0.0198994601885001,0.115335565766611,-0.680294095623352,0.221433497553812,-0.175931737687292
105.43,-1.25935026317109,0.0924750325584741,0.530987090758389,0.438653917360019,-3.48833114644171,3.89807543709528,-0.887595973656867,-0.00426908822746166,-0.907602124331923,-2.38777401779287,-4.56807505134304,0.379383513524767,-0.583515485951047,-0.165190104798028,0.096499341700785,1.27546235291571,-0.312866302541633,0.423903983089616,-0.968576166995424,-0.00366866081510595,0.110887197132666,-0.700503470137024,0.204832678717666,-0.14515073550865
105.435,-1.32742773418175,0.110566232497297,0.562989482077064,0.338693143104865,-3.30800404279272,3.87658655140959,-0.919515102415771,-0.0179032058106102,-0.934515076376958,-2.54227461516494,-4.56303206199466,0.325004666968688,-0.601139972130522,-0.166486755423608,0.0962336717128224,1.36595672254361,-0.284829045490094,0.278064121344905,-0.986431600870302,0.00715053287350789,0.11203498099471,-0.733602679576794,0.187145453597664,-0.102789672813269
105.44,-1.37610921683505,0.125795080509959,0.590913253966576,0.228932816863463,-3.17127027148202,3.8480889110834,-0.950015028675823,-0.0262810494820855,-0.946708504399553,-2.64220102010359,-4.56213288598236,0.266001649730206,-0.624285050703588,-0.176370877916653,0.100575509444689,1.65644507013053,-0.261188275575563,0.161066959504054,-0.998175089405829,0.0221833806083556,0.112390057340652,-0.7492795655436,0.141863699101438,-0.0537433549303608
105.445,-1.45113492854198,0.118545805952845,0.648557649006839,0.0239745688681377,-2.98842623223461,3.77170191652002,-0.975610585286517,-0.049350077007037,-0.961751521337296,-2.67147244863748,-4.56845757596138,0.222903658235276,-0.652433469019866,-0.195995908114262,0.109877674186564,2.01292193873617,-0.217862921098042,0.00527355202014178,-1.00092512565364,0.0335267424508479,0.109929117565488,-0.759630200331029,0.105013481990927,-0.0230842849166401
105.45,-1.52883258502801,0.0999834310542049,0.718913185051462,-0.130000245137954,-2.87399528687026,3.70005427615342,-1.0083852566627,-0.0556360647036592,-0.997312433355732,-2.65336687603593,-4.55886987277074,0.176245621584733,-0.665169039289644,-0.219734605555893,0.0971332328890441,2.2581500656263,-0.176793283776666,-0.131992665773818,-1.01212229596426,0.0500293586933549,0.103386553229199,-0.764255665240898,0.0302295937700461,0.0287958109470499
105.455,-1.60404977877279,0.0877692369695914,0.792989727976308,-0.247055995513086,-2.78811179856816,3.61800730443009,-1.0247477660313,-0.0441663845239245,-1.02931730164022,-2.61539783864328,-4.53750363327449,0.13608260547824,-0.678643341247133,-0.235889333729619,0.0824676643174622,2.45215580908887,-0.127167732083212,-0.279782576095808,-1.01581951963256,0.0589864486155982,0.0971718139890403,-0.773847509501966,-0.0370506497442647,0.0680730567127063
105.46,-1.65277631689833,0.0799746871709892,0.844385879790757,-0.283937707250436,-2.75520618951944,3.56030890354164,-1.04331069786801,-0.0373493119301631,-1.05418448958229,-2.58344759058294,-4.50624120831358,0.0913284287246585,-0.689669133649242,-0.236742659868905,0.0657136297776484,2.50618483189851,-0.0888158600840546,-0.391752596686118,-1.01666346426493,0.0633162553883408,0.0894363930968345,-0.777648561327537,-0.10243845666643,0.10404638020187
105.465,-1.69919946690045,0.0706388196848061,0.892138754403959,-0.268055770149888,-2.71972682586108,3.50564518932267,-1.05772394503263,-0.0410939486694386,-1.07347102073935,-2.56436826368787,-4.49764505846473,0.03820400351093,-0.704950973421518,-0.219401094039654,0.0498851518067493,2.45597601841291,-0.055603017050074,-0.533013397887005,-1.0188447815174,0.0607956943785526,0.0729481601139588,-0.786929927570711,-0.140480043782974,0.132316553308149
105.47,-1.73721320152026,0.0754825725886872,0.924383674286757,-0.194227418651927,-2.71031412443509,3.48587942123413,-1.08416452226654,-0.0519724847846048,-1.07176482082293,-2.47602745282874,-4.44792198511959,-0.0215062677032812,-0.726185492498851,-0.191148700956606,0.0423243499780684,2.35093059333363,-0.0476432350528217,-0.633650065450759,-1.00675412049742,0.0577389249184488,0.06742574553256,-0.813219574397824,-0.162723822636776,0.165142113980518
105.475,-1.80175902291228,0.112303337679268,0.959683786798817,-0.0912530294882435,-2.75115841555067,3.49338965141412,-1.10096310059758,-0.0824948300628421,-1.07354198062919,-2.41328298691803,-4.39824540946098,-0.0807071219985139,-0.755131999613233,-0.155363044147359,0.0358327284451828,2.2043098596797,-0.0583087960260182,-0.730116750336578,-1.00348897749841,0.0433672575036033,0.0548123207604375,-0.840991270081241,-0.157543761339932,0.182265617280397
105.48,-1.84635050381178,0.176202943022063,0.937897974839834,-0.0449893278299049,-2.82187654398109,3.52403382249638,-1.12561755017576,-0.105774597059049,-1.073735815684,-2.40869871595431,-4.32395447195188,-0.155250506613422,-0.780108542207604,-0.122564622317075,0.0324528256984988,2.08379585381451,-0.0755060568450379,-0.787882885427346,-0.993492892034727,0.0244925571261567,0.0454979610116853,-0.885017919169245,-0.12982511261527,0.200502602055201
105.485,-1.85396289634745,0.280507386887764,0.833171492868812,-0.123163912965134,-2.82225366327292,3.55089089153811,-1.14696297656221,-0.10276445569111,-1.05019134071435,-2.36918532859125,-4.22883571156744,-0.230505105253101,-0.81588963674462,-0.0861680878634054,0.0281616527554775,1.94017885958968,-0.11258581278709,-0.831761961227859,-0.985795172244004,0.00628893304136472,0.0394333365874492,-0.918913059483835,-0.104192958608994,0.219834617324059
105.49,-1.84716438746374,0.327942220688695,0.701995954393948,-0.321197453749555,-2.78326629778433,3.57648673866701,-1.1729032904224,-0.0768950779606432,-0.999669701748494,-2.32244454464378,-4.13640394387121,-0.285969240237663,-0.847443053531797,-0.0751537780847686,0.0334948633168286,1.866086943705,-0.145174004953701,-0.862196091471023,-0.978078803363725,-0.0201165163917288,0.0449614839378646,-0.972987161404671,-0.0550476946681711,0.234759260281888
105.495,-1.78969875468999,0.364352764199949,0.561264947582511,-0.530093617729473,-2.67590865090918,3.5652736912825,-1.18922278003866,-0.0460205029737449,-0.940414252582566,-2.23575381327248,-4.02642237376251,-0.327142453211413,-0.893865361956727,-0.070849877327341,0.042222689227001,1.81324832179266,-0.171502411189361,-0.862719005399179,-0.97936713326873,-0.0380531497985519,0.0503253914937874,-1.00950164078905,-0.0208345158251279,0.2411640754878
105.5,-1.72663974421711,0.343559987197501,0.459718715299626,-0.721001498242793,-2.54377534846745,3.54261663761804,-1.18707298425852,-0.0191188389640469,-0.898706133019647,-2.17541722157625,-3.91867128665596,-0.34536450124134,-0.933586385380537,-0.0653791680051678,0.0510590562649357,1.76771371309295,-0.189592828119316,-0.832546453616943,-0.977742472634832,-0.0577194625913534,0.0605836092128659,-1.04401235844963,0.00916370490494996,0.238177246637983
105.505,-1.67849475337704,0.326143236917578,0.393433429172461,-0.867086485154299,-2.36983912375399,3.49828629068164,-1.17064105381925,0.0217663014380433,-0.860602374685938,-2.13796901702881,-3.77003013428473,-0.356869319282698,-0.970809675167763,-0.0398554447006561,0.0529779249523272,1.73668052212523,-0.197448143256001,-0.782823982611732,-0.980579928549181,-0.0765838469581242,0.0612270805657563,-1.07779647106335,0.0263094567845273,0.232839495850746
105.51,-1.62190769015238,0.337388512380695,0.338901236644309,-0.953767813780293,-2.14169523079366,3.41521640037002,-1.15496135312568,0.0499875993400397,-0.834799315240506,-2.14382077293676,-3.6602273772338,-0.344057349462251,-1.02594264611015,0.0175700059278238,0.0231897316467404,1.71741267159698,-0.193188347839255,-0.710522309451474,-0.986590623568374,-0.0880839523505873,0.0680775138078656,-1.10529993683968,0.0341192269834721,0.217799317091547
105.515,-1.59265905021302,0.368041011464892,0.307600461127116,-0.972759059024292,-1.95353499781541,3.3338119530218,-1.15372724734687,0.0723477953416845,-0.810014893995172,-2.17490114332032,-3.52039204655514,-0.308403217487415,-1.06687196702012,0.059384162261606,-0.00840970517590019,1.74562578190299,-0.188821790978554,-0.675193803509619,-0.989463953086841,-0.10367401871236,0.079288953662742,-1.1227482944354,0.0271462520839045,0.193051541668996
105.52,-1.57198937714347,0.381530964412998,0.288991011375615,-0.912460865721415,-1.77453183098537,3.23530128736639,-1.15644003503287,0.0890435310738887,-0.792509123662843,-2.21363080842834,-3.38079358041805,-0.257300183715868,-1.1041223609731,0.0779080951585467,-0.067465492111092,1.83176584106464,-0.176075893504469,-0.661884951455443,-0.986578795886176,-0.111252658641051,0.0910242793843739,-1.13584170559889,0.0239089216033115,0.166808427053744
105.525,-1.5605085742522,0.403857559758236,0.265308525712668,-0.796379159536813,-1.55468993042922,3.09702151147365,-1.14896344956464,0.104635066021085,-0.767102662830479,-2.25911567343089,-3.26011298528842,-0.200297252191696,-1.12226375384645,0.0836269001729076,-0.123023497720747,1.91062565355747,-0.15326926042885,-0.6851470822632,-0.985796230758226,-0.116902108460322,0.101493774606669,-1.14452156496573,0.0126697351235008,0.145050982230293
105.53,-1.5650365588399,0.443718834972878,0.25915460058042,-0.708848905535769,-1.38483948305504,2.99467557750683,-1.13419244639695,0.120023680281924,-0.716562654104655,-2.30723828885978,-3.08625270547362,-0.10322813528019,-1.12464121442584,0.0731725678233791,-0.178867169942198,1.98570159522998,-0.125517771367729,-0.731411989477488,-0.970599597933595,-0.116545944606516,0.106402910068129,-1.15453941136017,0.0143208889590501,0.127436796777555
105.535,-1.57987366614447,0.459426922614847,0.26613491725661,-0.584050021649025,-1.2066153411318,2.88963876991896,-1.11499652098743,0.119217364313071,-0.722097880826232,-2.35582265907652,-2.93652131827167,-0.022955398028741,-1.11046875577999,0.066409294266244,-0.242327896204802,2.0508172718308,-0.0891673418807175,-0.776379722376319,-0.964489295148327,-0.11943305379161,0.114225552752785,-1.15926703140521,0.0115299172516975,0.112012229110958
105.54,-1.57759843514217,0.447617415238029,0.263195005991058,-0.45729140615236,-1.07731870844614,2.80152148144929,-1.08142023717451,0.111814976905365,-0.739488651209091,-2.43001480031405,-2.76105758546763,0.0838926704421302,-1.08900395408001,0.0755868262522997,-0.301143065759587,2.07326842660587,-0.0508748104555429,-0.79770601256925,-0.962553066254226,-0.115263999418696,0.124353547255384,-1.16935594047157,0.0157434637594518,0.102865522280843
105.545,-1.54376265689824,0.404404049335955,0.234223842593881,-0.364233396387291,-0.937353327799753,2.73592325503251,-1.04858166055186,0.101472110186349,-0.742378024721366,-2.46992973642411,-2.6492572976094,0.148183357636103,-1.05733761956875,0.126786221002565,-0.362475029509884,2.0711486889055,0.00644586071499567,-0.830637610092382,-0.960880615872744,-0.114898903662072,0.13112228567925,-1.17676704276441,0.0173574175429036,0.105020086323935
105.55,-1.42878280264124,0.31596546778506,0.187609276387697,-0.271888861551371,-0.735329587249928,2.65811851779182,-1.03573029067953,0.0650910059522743,-0.750326929435035,-2.51474635663021,-2.48176007243874,0.232334307370942,-1.04422364117895,0.184941143845109,-0.396882911993821,2.10523483134786,0.0487082803761484,-0.809140768185403,-0.963728037056009,-0.113673272064619,0.136429865557724,-1.19930015661993,0.0117489243506781,0.113626520800107
105.555,-1.31392978937804,0.229218999240578,0.157418247261693,-0.185925780007909,-0.558640440694929,2.5909810650271,-1.03278067341766,0.0358088353929617,-0.77667135261784,-2.51369693395189,-2.39810257655818,0.281077565380758,-1.05407095176136,0.248211213130782,-0.408482340953331,2.09163480349346,0.0795810638640734,-0.773821937482115,-0.967662690577632,-0.105813080196153,0.138489258791663,-1.21255555933829,0.00368355170578253,0.134166182460131
105.56,-1.28556073701778,0.110881639895418,0.168657697090399,-0.0310401836121819,-0.29842882491837,2.49306998337589,-1.02757042510636,0.0356531223153331,-0.731553988803877,-2.34349924015169,-2.34825692969456,0.30624088536176,-1.07875601484268,0.312632915884495,-0.409936199215805,2.09715848337725,0.0992013921367474,-0.733818555240106,-0.969468208929854,-0.0972553474593615,0.142078491131563,-1.22272729968021,-0.004466213285923,0.154869616003983
105.565,-1.36552745399921,0.0260184599122846,0.218363099848401,0.167060099148754,-0.106719466895568,2.41309605957958,-1.00756968184545,0.0314899324026839,-0.632338379516929,-2.04039291009925,-2.22707656100374,0.313030790424523,-1.10659982353515,0.386713619362949,-0.409031155664376,2.12179079209215,0.102710737059362,-0.704190651419844,-0.970691365225425,-0.0853173377847463,0.14256003708458,-1.2422626183984,-0.0277241326712549,0.185652708297963
105.57,-1.44197703017331,0.000261611108368878,0.253806892172019,0.366732788097609,0.0285243018922034,2.34835236994805,-1.01039281333869,-0.0430083255981311,-0.610256153379616,-1.82770936211269,-2.03071756746359,0.338972593031865,-1.13963386530631,0.474390513437744,-0.408642759149896,2.16293616551615,0.0890512824736416,-0.635739017111093,-0.972848379111911,-0.0700876812295763,0.142258947628042,-1.24851171431462,-0.0329928752443485,0.201892583741657
105.575,-1.48725707959586,-0.000527966287781179,0.266287936062542,0.518231611366344,0.125153720926063,2.29244890365546,-0.972769416100468,-0.108796368359928,-0.658041499656707,-1.75993146584916,-1.8371377310869,0.354931964131689,-1.14633134407367,0.547162561409326,-0.411296957782581,2.16030642516822,0.0743161612300201,-0.597210018020161,-0.977291986027479,-0.0545378809318911,0.136355071963471,-1.24139282344445,-0.0387215161760911,0.21499716298772
105.58,-1.52180905743724,0.02114490200187,0.266371191821405,0.552927765713224,0.196008901594053,2.22187007136841,-0.923329290147344,-0.10663875121083,-0.648001950732739,-1.68972864575381,-1.66550861840922,0.338320131352487,-1.17207735510932,0.627493329294811,-0.401529611807736,2.21422841752583,0.0294971615408133,-0.491752499480985,-0.986553673897504,-0.0473048221823461,0.130194160120254,-1.22681081150747,-0.0389432066005905,0.231118198248816
105.585,-1.52549794768411,0.0501429211003457,0.267236650483046,0.485731125401267,0.246333184453043,2.15570874858836,-0.874578802482957,-0.0427938888683142,-0.63046183939108,-1.50320296272457,-1.45284380447044,0.296795835966363,-1.12327333024163,0.655141077835841,-0.405099665485458,2.26032244686076,-0.0176199724424357,-0.397472002792388,-0.998345612916733,-0.0344043286710039,0.123662563662788,-1.20181894628187,-0.0363550471524172,0.243627255257061
105.59,-1.50626453773877,0.0519545977570684,0.264918202316614,0.34419084656256,0.28907054744569,2.09013547372835,-0.834722439043132,-0.000674835762993782,-0.641977327264068,-1.31681729382649,-1.25909359124219,0.268425048751654,-1.08441701529012,0.6849329180949,-0.386864682398855,2.1564426976394,-0.0171697769539501,-0.238332107791759,-1.00832680490059,-0.0276787664971119,0.112949464922703,-1.17817347228783,-0.0370215384141313,0.253308662783837
105.595,-1.47756084008625,0.00288433421205133,0.26329608352097,0.163135245042668,0.312753712769241,2.00620822486145,-0.811776323963621,0.000415009959439541,-0.639499339832983,-1.18561893566313,-1.05772052674618,0.254536824906682,-1.07031364966925,0.695149730830164,-0.366277227760058,2.09728921383858,-0.0600681205274056,-0.167264773442921,-1.02378058367352,-0.0213887883183234,0.095043672525363,-1.13530248988513,-0.0281197167653391,0.270610792526801
105.6,-1.44606957108328,-0.0541570867281441,0.253133141037764,-0.0130347179146983,0.310548851317583,1.93617125105695,-0.78953844866557,-0.0088808925326568,-0.622099151755975,-1.10702947910009,-0.898883969890959,0.236444140777226,-1.06389470643387,0.681419810227007,-0.331661971002922,2.00529593482127,-0.107697118377724,-0.154204636835445,-1.03197797327639,-0.0226298207834529,0.0815287628138352,-1.09181980267231,-0.0145282800207377,0.279684454989042
105.605,-1.39811703428328,-0.128563573165039,0.229588429743983,-0.240655652057465,0.332551874639264,1.80928850884159,-0.78067553648327,-0.00241826584314068,-0.591406851657114,-1.06675221637569,-0.760224336721216,0.213889964018568,-1.06282787448802,0.654004464442611,-0.292384400929685,1.83959698828878,-0.174799345146172,-0.18135484500233,-1.02794083370164,-0.0232321693865879,0.060401823490216,-1.03299690702659,-0.0166642601591491,0.294310326342699
105.61,-1.33778541594899,-0.184670271442785,0.213160297881841,-0.378815721686064,0.365206331338381,1.66896581892027,-0.781469252102271,0.0134440733475116,-0.564739162134719,-1.03529108513597,-0.546753316691326,0.189494866573772,-1.09063106566215,0.616118468933688,-0.245039822716614,1.67979486402347,-0.216642006960488,-0.185237789843777,-1.01965949518359,-0.0238303330416548,0.0388466710279347,-0.992763090181054,-0.0158124800096858,0.310207327740409
105.615,-1.262589010612,-0.238231735963258,0.195469271852841,-0.479629151069812,0.42381822313059,1.48255229108893,-0.798667395854475,0.00895506573942601,-0.54488085051165,-1.04104841914981,-0.397346484903901,0.175866837604946,-1.1375370475601,0.54922910335235,-0.209784477780186,1.45377649170224,-0.290800768487076,-0.156347527706998,-1.02835666982087,-0.0223312725549202,0.0235970674318975,-0.960383745558488,-0.0268192811748696,0.323681558538098
105.62,-1.19705346540733,-0.307578654010022,0.206353629465134,-0.502949927276879,0.503852351377099,1.26526027241814,-0.828723764823475,-0.0164879422078404,-0.536971931494942,-1.09520431648201,-0.254826274225687,0.180887002529639,-1.16227182949566,0.462811749548988,-0.200969093965161,1.2648920002471,-0.352244957761143,-0.112241751932045,-1.00798168504154,-0.0237376947072956,0.00803638793334014,-0.915714732843927,-0.0269131770856889,0.347645950251822
105.625,-1.14867894053353,-0.375921944951931,0.233729080893257,-0.458586043907098,0.571370985208111,1.05534415214061,-0.86008388606299,-0.0454800178709544,-0.533420558274059,-1.15654375818989,-0.100651670215533,0.183966905179111,-1.18353238343135,0.353223934734432,-0.211257149739193,1.11028838084852,-0.440148179496551,-0.071531956023494,-1.00302342561209,-0.0301294218113259,-0.00120219593789262,-0.862867810967112,-0.037273168783634,0.368524667884408
105.63,-1.10691209022631,-0.392227165065031,0.278072211531056,-0.334354603412569,0.650271826401422,0.831934964124814,-0.880211902945246,-0.0668182236533799,-0.508952946434634,-1.17010318556108,0.00706475942208275,0.182551391197238,-1.18394711761534,0.267687945027204,-0.234955046218401,1.01704267712057,-0.506509827998472,-0.0821399153326706,-0.998278025226291,-0.028587812409677,0.000356743305539308,-0.813268978743492,-0.0377772025856168,0.371428577825918
105.635,-1.07591244130893,-0.366018625466483,0.332077842076105,-0.166980890421545,0.715446233166167,0.606380915631816,-0.886385604576691,-0.0868005123477767,-0.495891595735355,-1.11369861743976,0.153535373897,0.189095528101469,-1.15953627420613,0.187054139335167,-0.274119674460094,0.926242428089725,-0.576144018446156,-0.163549397206282,-0.993546575861761,-0.0369868877247583,0.00322074626645905,-0.775230926436827,-0.0337447247041936,0.380998325971616
105.64,-1.04241907060928,-0.321802424961979,0.363776196872699,-0.0456033087585213,0.759924871361195,0.434798056329935,-0.887921135779772,-0.124567813409186,-0.500843170649787,-1.03911113204603,0.277952242839054,0.197019300337742,-1.10535402683481,0.130668909090855,-0.306362493106206,0.815697405495433,-0.639151523032253,-0.274673481368549,-0.987121295212215,-0.0340173410899242,0.0134761635698158,-0.763449668607938,-0.0156307617136388,0.380296269188006
105.645,-0.984711358455405,-0.250777408911303,0.366123591928606,0.0712245029104972,0.813198319671762,0.251346067211385,-0.879870358980985,-0.156480458936996,-0.484454184408486,-0.959924392386972,0.367758963320107,0.205663977566421,-1.04290197494341,0.0933269004442533,-0.331847320571318,0.701601305897303,-0.681361628918618,-0.38844748116837,-0.991376603478793,-0.0296812435269861,0.0252377976340655,-0.755996284168065,0.0062600301818843,0.367160274704491
105.65,-0.965953670666674,-0.173353911885417,0.366105215112779,0.132150021165678,0.889542167111276,0.147586291948784,-0.87336837350165,-0.179441891507833,-0.445766301041378,-0.834887184405647,0.457103535721739,0.220408609932759,-0.949667717139363,0.0821503997708834,-0.35121761285924,0.516057204980183,-0.726165788015815,-0.490835136555015,-0.996826121798127,-0.035977946839526,0.0417808780618398,-0.759688704261994,0.0506173340840302,0.350240039792828
105.655,-0.945385626141266,-0.0815419109588153,0.35735497521962,0.220684533894964,0.998485942094203,0.0723754622907429,-0.865863053599935,-0.199876901725239,-0.428578645895472,-0.686907551007389,0.541570075820461,0.21097320318222,-0.879069833456711,0.0825214587331197,-0.345099597664596,0.308096194872558,-0.747327744960785,-0.513694797705369,-0.998785693268967,-0.0372088661875106,0.0586082083261414,-0.77204717325491,0.078275494961642,0.34371080637481
105.66,-0.916631274105095,-0.0229751827491182,0.363307979127408,0.28439451864879,1.08658312431323,0.051929077315541,-0.872051738795725,-0.231668821659368,-0.44520132087334,-0.557550881517456,0.628808351755169,0.211944060051118,-0.800339682022222,0.0822994169171362,-0.331047397337014,0.0461166120021674,-0.752066399529997,-0.486622395524557,-1.00677434406329,-0.0408754556268147,0.0765422766483748,-0.791491918449937,0.101357414033633,0.333184048093097
105.665,-0.885369133869182,0.0451016648528769,0.360911282558944,0.338912219361694,1.22810914586261,0.0585077614454586,-0.880420058975749,-0.260023368454325,-0.448735456744042,-0.421040044938042,0.672849692311081,0.19838943934373,-0.753860106756959,0.075643003430017,-0.308639086734572,-0.149360603054015,-0.741058736099242,-0.42477105165169,-1.00778993557909,-0.0418712964486332,0.0859392553891517,-0.801423353031318,0.106586302311214,0.32953684093687
105.67,-0.851128494963393,0.11150414992613,0.362014958943973,0.329801236208841,1.36694977371901,0.104350426443665,-0.889486539923013,-0.27149920039224,-0.410803966897275,-0.210677394839825,0.733181155833026,0.189346632957601,-0.742774471260623,0.0648028561702289,-0.276864652922291,-0.426404321773048,-0.73266738653183,-0.356841789428791,-1.00826588921144,-0.0405311926716627,0.0998401795726473,-0.830746173652745,0.0911030727713044,0.320529974768889
105.675,-0.803659536815534,0.180602330131859,0.362360228372758,0.29752089466811,1.48086856966363,0.153832800956146,-0.89034459625457,-0.256301590728326,-0.388350411682883,-0.0528138991517806,0.784823299908575,0.190204381942749,-0.739190859135396,0.0655360967639425,-0.251666874482466,-0.671800396745386,-0.71585700092372,-0.243293921110839,-1.00619907155749,-0.0394183215705704,0.116426667545459,-0.848454142191991,0.0671564352726609,0.324223595585314
105.68,-0.793236335325821,0.268792608764637,0.383090087092907,0.221785870902908,1.61874272412514,0.239800935140243,-0.900072011180835,-0.225240557958672,-0.382245267699067,0.0791177836914217,0.827223882875825,0.185320190426464,-0.749985069664842,0.0697761680282626,-0.236227993318208,-0.874578423213435,-0.654625093255602,-0.139807186045956,-1.00264051260349,-0.0424827077700916,0.13063324682998,-0.860111218108479,0.0461840625662408,0.326849450453934
105.685,-0.876955386481428,0.484776852198443,0.494912717144369,-0.091267447880263,1.74868712875514,0.283923143928576,-0.911946698050821,-0.182278941825704,-0.373881026480538,0.159862607449593,0.867115928971939,0.18593569756125,-0.785311558094439,0.0835005896945353,-0.218912037572959,-1.07993502596051,-0.593917107612307,0.0587429813677217,-1.00190041186748,-0.0410625472799914,0.136808723600963,-0.871984550204476,0.0284142322062154,0.328581254934105
105.69,-0.949494841587947,0.436932717897514,0.752135738627663,-0.972142551529694,1.81758669790233,0.0942828940980709,-0.928887853655819,-0.128919689943627,-0.346694271496863,0.205669071983665,0.913101763274813,0.198657343580583,-0.802948703736059,0.0772886715920809,-0.213862563747703,-1.18629367051674,-0.537194335107365,0.186337737792009,-1.01042453447106,-0.0434416279643845,0.140980576273188,-0.873379219124246,0.0220000137235354,0.343083649873734
105.695,-0.880406593251478,0.18546761656745,1.02059964773315,-1.78406675693976,1.75632648575042,-0.0591945568146836,-0.954363560758913,-0.0614736922684381,-0.29869522361388,0.241547639760748,0.925781566839216,0.190646701818648,-0.808372412741067,0.0498866688225729,-0.206514764034082,-1.33922529819364,-0.447835935385045,0.308455809442706,-1.01391400169796,-0.0455897831592695,0.147968231928348,-0.879923439574029,0.0265800239214278,0.346214293929682
105.7,-0.738257814988405,0.0143072456693199,1.17614685646024,-2.37910353116225,1.52648618783039,-0.0249057102965265,-0.978134373139466,-0.0129998647938659,-0.242490488178756,0.172642296366418,0.915727984063466,0.187032663716952,-0.798957514570275,0.0107460196523986,-0.194763471835185,-1.43532986340585,-0.394122652236561,0.320309939670878,-1.01375323314838,-0.0470518447909813,0.14892626369347,-0.883134592306168,0.0214593901979222,0.355853882451134
105.705,-0.561051598399554,0.0282927260843697,1.19004167175557,-2.56692043160348,1.31526238186465,0.0207404604216604,-1.00474184490866,0.0169239158372484,-0.15499094924533,-0.0108784679329395,0.891661546169596,0.179730655156432,-0.769772926405737,-0.071360371174106,-0.169620718532234,-1.58480479956091,-0.338902754459279,0.212798763881142,-1.01885782000954,-0.035678854639754,0.145807479860199,-0.88666420460627,0.0236376705299887,0.366304429322945
105.71,-0.398856217295542,0.0353077024022681,1.22729544455102,-2.64377199281126,1.12939043304481,-0.0397122187466709,-1.03102020342933,0.0197735669544415,-0.0736183276596085,-0.132920748227901,0.829504255450212,0.158330195154755,-0.741745760656997,-0.157517826984115,-0.144153205910691,-1.80762129215698,-0.295639442125442,-0.0108980770198546,-1.02159993480653,-0.0334933671330486,0.154221677838957,-0.894813033071148,0.0285195410251617,0.373142292534938
105.715,-0.198146064710656,0.216613147192478,1.54606042795754,-2.81878243554552,0.873124048538263,-0.191553847451459,-1.05566228306413,0.0239892047686993,-0.00791137449410027,-0.270345309951029,0.74546838586398,0.153000349469784,-0.728489764407303,-0.247816430155492,-0.101719974970652,-1.98654407036683,-0.264609522524179,-0.292909402691052,-1.0202466600374,-0.0261111512278382,0.150891863795223,-0.903274639279978,0.020892510304218,0.377637425518756
105.72,-0.153107110663128,0.348886938078012,2.07448331740547,-2.62654488525295,0.422817423328122,-0.406417889881727,-1.09568459139428,0.0198534425939741,0.0362900384784977,-0.426843542883655,0.634647397230523,0.159401329500592,-0.75685541999512,-0.337414079936756,-0.0665851009604743,-2.14557961027795,-0.201146011707875,-0.658448963228641,-1.01656804994218,-0.0144434836712789,0.145123251981301,-0.905253034432921,0.00814645304347676,0.397268454604918
105.725,-0.325201978807571,0.159916404569218,2.30634042688063,-1.80763723673522,-0.322864381917276,-0.517024452768371,-1.14102894598733,0.0284726289314602,0.112489273976596,-0.579726413686537,0.536985778919782,0.20228771383739,-0.802969150428747,-0.396708278526771,-0.0403704152882808,-2.25518812724178,-0.192474857032158,-0.786825306459286,-1.01925101348283,-0.00975237955928443,0.151740157890676,-0.908723386284245,-0.00718399866995991,0.408830636881746
105.73,-0.114031887838271,-0.478367638501885,1.63764156281689,0.0917853961099122,-0.982231677632473,-0.436644884243128,-1.19459659483196,0.0231910461609187,0.27466127443556,-0.634763138034232,0.410612535087632,0.241928587403047,-0.879857656200438,-0.448427283368319,-0.0026003783323718,-2.28725702616782,-0.234190534789317,-0.971103036962178,-1.02448838839482,-0.00465949779147102,0.145649793180751,-0.912930216378988,-0.0225062679204864,0.39867648083669
105.735,0.216653751435694,-0.408366047901581,1.24171916181856,0.762195167816137,-0.951471138147067,-0.351641433707401,-1.26976392975046,-0.00808777826774794,0.392151116970575,-0.553426776437887,0.260910990693754,0.2858436976792,-0.967435129342209,-0.473989434447727,0.0249736849046934,-2.21734543052999,-0.265136453593693,-1.10571920920569,-1.02691495723493,-0.00445873689580804,0.148561372444336,-0.91182691628176,-0.0277280615356735,0.406949502701206
105.74,0.134638893181735,0.124067919229375,1.26443208307205,0.293847299554371,-0.610828289274735,-0.317985660112646,-1.33520264624694,-0.112058378103694,0.369201185875585,-0.580401436743074,0.119937440903646,0.317504124782828,-1.11001795202713,-0.471118202900659,0.0261828244797944,-2.01393929347611,-0.296416111588296,-1.19420414932044,-1.02654544425535,0.00229368303616291,0.146497815587542,-0.920717632914676,-0.0125308371690687,0.433438155972925
105.745,-0.218634778064719,0.240500536370327,1.44123224330634,0.215864507975888,-0.637194142196613,-0.462052226793661,-1.38627277610555,-0.258947613232538,0.206989685669965,-0.812908857518962,0.00664769986682143,0.345880848080964,-1.24055520798912,-0.427704756653878,0.00844769118282273,-1.64720917165644,-0.311069958277025,-1.217029080525,-1.03955001425536,0.00311704914911173,0.143318803275314,-0.929442090333033,0.0165992216975852,0.420987833201331
105.75,-0.502171892816339,0.20393365222167,1.23120914705387,0.410479795999159,-0.800814603941246,-0.534635721962635,-1.36937640996577,-0.347798727781248,0.0181572084276057,-1.01069275594003,0.00134804087823024,0.357695411218404,-1.38082410895873,-0.343386774718989,-0.0244521090902111,-1.12905488281938,-0.294731091341537,-1.16711263388048,-1.05905057032399,0.00735425505325523,0.131335233510255,-0.93153160313736,0.0489146241507143,0.391856555388039
105.755,-1.23680450996026,0.166170367979366,0.951889705212106,0.270141482163735,-0.760303637192854,-0.347176909066083,-1.30532582940012,-0.409037008169953,-0.205806365094196,-1.10173959245781,0.0124652165691762,0.34302516902275,-1.51450137502794,-0.222168874270216,-0.0548271257678545,-0.482829516392375,-0.245673497411503,-0.987451473821488,-1.0838366778241,0.0115497225778235,0.123878154521723,-0.933165565535373,0.0635248849308676,0.374390461380226
105.76,-1.49412601954519,0.367192078058611,0.623576494319253,0.0182064174259014,-0.67704697824986,0.112930302667841,-1.2199408805546,-0.416545864355746,-0.42339677873515,-1.08222987771129,0.110468345944914,0.308751186071292,-1.59986603927241,-0.107413086380425,-0.0685909315934613,0.0798024757409082,-0.174199116236372,-0.763691549045215,-1.11646452109448,0.0185129009146074,0.107214089810669,-0.938355344713129,0.0669491233823882,0.353863700031018
105.765,-1.1786532496272,0.578461681684446,0.323109557492401,-0.0024332919067583,-0.464027358436872,0.321652787024162,-1.14612148426644,-0.374783129223645,-0.596773381011243,-0.985535353137806,0.258901423447484,0.287994023306076,-1.66006958040573,0.043362517804979,-0.0436142265239649,0.722168298951479,-0.0545244482779714,-0.436305170986442,-1.16822284118652,0.0214225720575856,0.0940753565520938,-0.940464545737917,0.0454673721615438,0.31099741072225
105.77,-1.33657102029907,0.174994802906761,0.474975229975175,-0.105474294382691,-0.218286267994146,0.14109359844539,-1.08351637291313,-0.321107423206615,-0.716458234184482,-0.62764379555607,0.43946507213798,0.252616817053064,-1.66972936347394,0.17521532803052,0.00461735473825278,1.17095637613987,0.0413402250777634,-0.145766629793474,-1.20256951533282,0.015281065691914,0.0694854832766896,-0.943514240367738,0.0189454646524743,0.25841277184864
105.775,-1.08861225899449,-0.121083316404763,0.677032946529311,-0.129251032005494,-0.105092717733697,0.0821593718421275,-1.0224796070677,-0.22258666429561,-0.680425724906027,-0.239114893469912,0.589884073280151,0.23882259045079,-1.62634301012793,0.30114076620456,0.0872384377497156,1.58927462791126,0.11923038044475,0.1674972989186,-1.22710621173773,0.0226363300337012,0.0474258478249727,-0.935525834560394,-0.0216011773925757,0.196316198254563
105.78,-0.571844305128469,-0.107169965863298,0.911194996880769,-0.0716295103300171,-0.0321857154968673,0.155794138685892,-1.00481040881425,-0.123779403883213,-0.480848993054885,0.201177043633333,0.723540452338742,0.225856940843477,-1.54228431127168,0.377100999088294,0.174167230425579,1.91422734940978,0.163894698717653,0.454907612815654,-1.23896866809874,0.0286357458530092,0.0189683513204627,-0.938356177521322,-0.0584860261568172,0.164390133934239
105.785,-0.316581871247252,-0.000707374296472375,0.999819811262783,-0.0327696708738585,-0.0446995695527655,0.152963679601853,-1.05574920202699,-0.0434983929178759,-0.151431138266721,0.629944727875542,0.785492778892333,0.202677290218987,-1.42757398798243,0.392372068465569,0.266663486541124,2.14680351390992,0.174136862604744,0.629030569743294,-1.23814499007738,0.0244283669809097,-0.00693350040910231,-0.939273118744287,-0.0952620296979452,0.158669412465981
105.79,-0.217936672987073,0.195101286672313,0.98440692963498,0.0363684962493714,-0.0643063882746748,0.166604552822437,-1.13221769740081,-0.0326343086195652,0.025477311631552,0.675109857870264,0.692737435721113,0.177621769643524,-1.25768083726153,0.352246964325573,0.348755364976957,2.37222279429673,0.127810739451769,0.619420866384671,-1.22487747213435,0.0313967155817399,-0.0253689823641637,-0.94208506126061,-0.128711113904373,0.168582825639562
105.795,-0.245938814811795,0.345594830132011,0.938728620676861,0.0696383042187799,-0.0652425122967877,0.210195008374946,-1.18494984692644,0.0113885065794536,0.111680307462828,0.483297443966746,0.55495486225258,0.174930198773583,-1.12326380600636,0.282670655738698,0.383157923686259,2.49506128125011,0.069402694996297,0.506912320197374,-1.18243993578268,0.0378825450326871,-0.0442974395482377,-0.930371103472164,-0.165467377590902,0.203339045507529
105.8,-0.313835641008287,0.390949237737522,0.891647027983541,0.0768959511959597,-0.0352873959144546,0.213653637166317,-1.17536976667107,0.082480933413626,0.109289223673813,0.189826308741416,0.435228441499226,0.190218525933028,-0.946778159704161,0.163510850525047,0.37906643943021,2.59352883803986,-0.0394069836881386,0.235538560767996,-1.13123693629744,0.0309437162400654,-0.0574951526652188,-0.915079865736379,-0.177785409548574,0.239538998420942
105.805,-0.383231843363835,0.3072208775875,0.876764706117522,0.0636217591554468,-0.00312153992166956,0.210913427217143,-1.09056435042765,0.141961569971339,0.0356687668322385,-0.139446865350896,0.376139540272201,0.219898625351088,-0.851618400339585,0.0661558648513237,0.338152775590563,2.50923364517965,-0.0808814998836518,-0.148156133158439,-1.08089824210777,0.0223415529701765,-0.0627034449832131,-0.905773165630458,-0.181494103822984,0.263594966593703
105.81,-0.410318333584332,0.220101551567779,0.872778532022118,0.0536212164087102,-0.00152545157154177,0.218224708146665,-0.954540580609386,0.191583343304177,-0.108741922191863,-0.488200907929446,0.336853383944348,0.228076919913292,-0.778558784587355,-0.0814937244698421,0.240038794232151,2.3155209452593,-0.300678209662339,-0.535747883805081,-1.02780016328821,0.0208918340211243,-0.0634193537100522,-0.874279768347777,-0.17081115834973,0.257840212574203
105.815,-0.431994624333932,0.194111135075401,0.868012875941955,0.0464898148106169,-0.00895363125853216,0.219748720861003,-0.866627274978703,0.203337713886881,-0.175039983790483,-0.67794357687653,0.344486727069727,0.220734134424554,-0.753129466723556,-0.136711652821303,0.121401837288246,1.94788799060921,-0.239804696942111,-1.01404840399064,-0.983928624855856,0.0298738325691409,-0.0628664014131599,-0.847221980884173,-0.153068623671496,0.249739302224133
105.82,-0.450137252945462,0.210466070342026,0.842991848811186,0.034267174044206,-0.0213351363425995,0.205489387990986,-0.812583160602822,0.176024052262378,-0.177867882870949,-0.855470339469546,0.354192372344058,0.216585569716074,-0.756358679256425,-0.212769744653771,0.0380983022267017,1.64941459878903,-0.301266840875907,-1.44850767996564,-0.936747724867409,0.0457564360423934,-0.0638084455648561,-0.794260103581634,-0.114366956655192,0.233928337294345
105.825,-0.468479796667549,0.251770035412456,0.826963579490586,-0.0104267695207105,-0.038572323087142,0.183949022232692,-0.805114694659574,0.146755980548704,-0.19964276834767,-1.06016549976679,0.340775072952,0.233865724265652,-0.782575431557588,-0.24371019959911,-0.0397171901426643,1.41395813945696,-0.287618340899299,-1.7481531452506,-0.917378908799683,0.0557665521472527,-0.0580874317552808,-0.735746856432861,-0.0545002722457494,0.218215901296407
105.83,-0.446737810901302,0.275438867686361,0.827901287792761,-0.0433207612795451,-0.0354094909580239,0.163573631256483,-0.838675223642376,0.09601401562935,-0.221327109465229,-1.25179341701553,0.329032897949219,0.257963740328442,-0.796427205255576,-0.274633637091747,-0.11038788913549,1.11613362668059,-0.245712530713637,-1.92485316070833,-0.912106634371605,0.0718343885795268,-0.0517174812265983,-0.643857859315814,-0.0426244872060302,0.180343798122017
105.835,-0.420713388929897,0.292996744260858,0.835439604302998,-0.0786667210760651,-0.0271654468871045,0.150594090961415,-0.89843258546327,0.0628070454032007,-0.200250275697258,-1.40008985966328,0.335744979636445,0.26027073722097,-0.805074444099171,-0.28426529453207,-0.142134546586169,0.942316229140521,-0.150968678344242,-1.92809753242971,-0.903026322216943,0.0825388693549269,-0.0395466579249392,-0.552451044714978,-0.0245448685137023,0.142940092953936
105.84,-0.398050699454631,0.290008387109164,0.856610304033889,-0.10385824885964,-0.0131026682021096,0.143788898486454,-0.998940993536709,0.0144754921373276,-0.161430597761589,-1.48377980043217,0.322711423868191,0.245935108573085,-0.81024302604212,-0.311685958742901,-0.166622567634017,0.849764734977968,-0.0529098338517894,-1.8264480917464,-0.892388942754244,0.0850768242077855,-0.0299764123447761,-0.470125775853332,-0.00677912604281895,0.110626084987133
105.845,-0.405611984530702,0.26363378572314,0.862020707298329,-0.105418228070771,-0.0110855505454017,0.139227422380276,-1.08331623291936,-0.0259835749842199,-0.162148205627996,-1.47907189085401,0.298683285061865,0.24513386754767,-0.816969830180643,-0.342780947399557,-0.183833086374274,0.793729724219814,0.0309166693976439,-1.67993237090202,-0.893352641633428,0.0785569647064146,-0.0136027558161957,-0.402485290699826,0.00800930481833047,0.0888603669065199
105.85,-0.407240929118733,0.226638287920428,0.870107201243897,-0.0958579327168433,-0.0172897752085429,0.128457150620725,-1.14622936646376,-0.0576455223018523,-0.154046115516581,-1.3064852470115,0.268070437532323,0.250922470412994,-0.837232451291346,-0.355867650664024,-0.191061739514375,0.768040849125618,0.11504669761893,-1.49231101450078,-0.903292167918708,0.0751976964250837,0.00143194036762573,-0.355707845587867,0.0416979424095947,0.077312599310117
105.855,-0.407302280061339,0.206106796161967,0.876822997513017,-0.0740037695055263,-0.0190068960564181,0.121873560285249,-1.16159280206981,-0.0946130675197658,-0.125242917397186,-1.03621099720811,0.248279950255917,0.277178416355815,-0.867711396306161,-0.37905056392731,-0.203934222671634,0.759250146806669,0.196293821087267,-1.28482894969832,-0.91673694594793,0.065538086193311,0.0271719368273242,-0.328260989072291,0.0765787571320653,0.0761640480222488
105.86,-0.404344357900773,0.208481042544414,0.875510517504738,-0.0426397712055071,-0.0207243834518567,0.11935793532226,-1.13874800978414,-0.10887859092442,-0.135039649527879,-0.808613153073559,0.224495830132627,0.299146614483679,-0.90237412751237,-0.403161657285631,-0.214683451255752,0.719168633422001,0.265107961447656,-1.09801205630508,-0.932307222629434,0.0579983916972589,0.0384074523962383,-0.337321055349909,0.100755141968221,0.0796094435071741
105.865,-0.413789647029053,0.21293260956523,0.875794881175265,-0.00592652285638098,-0.0107164680957794,0.106672264635563,-1.06361368940144,-0.105246715312416,-0.196392523496176,-0.562878170341064,0.174156696426767,0.31920055039082,-0.933062506379457,-0.399337673425124,-0.217957657024283,0.748828087655072,0.310746705838725,-0.962232509887299,-0.943627311024513,0.0609103482976462,0.0522086342619856,-0.358091575575563,0.126509433501389,0.0914959590676817
105.87,-0.424396456004828,0.181834146720835,0.879872958487073,0.0385109182502473,-0.00506028524023806,0.102901476831748,-1.00750273744824,-0.0892332021345503,-0.139918949737045,-0.191922815519959,0.151997823373631,0.349704945057616,-0.967037684598571,-0.384381853953516,-0.209925532005728,0.809741827155834,0.3158922994223,-0.818702156232514,-0.961893489948276,0.0634223659433722,0.0702867237808483,-0.423368935721052,0.165835233026791,0.105204910563666
105.875,-0.438787369137652,0.155758025570079,0.874236288214701,0.0665571636921208,0.012387502695039,0.0903594208573315,-0.970484250469464,-0.0747955466398912,-0.0754699940677092,0.261137062065925,0.139902009587565,0.401248510499731,-0.976872679294192,-0.345002598991601,-0.193306373089694,0.8488108844199,0.316115114786733,-0.698805818150142,-0.9694507928125,0.0669825869338542,0.0824604946283572,-0.499459683807302,0.210367012204812,0.124853870937349
105.88,-0.434685038416899,0.169119630846194,0.875401384574263,0.0869510278213332,0.0280197952184826,0.0772426686247613,-0.945143282398565,-0.0803251903070487,-0.123649455229098,0.560540820688099,0.131840342246546,0.441595938691658,-0.983127456257123,-0.276698702428854,-0.165153653987498,0.895506667293415,0.287615269526663,-0.560111344918928,-0.967499548594591,0.0693069251878604,0.0934573660819147,-0.60600724847361,0.245076411091739,0.148198276902098
105.885,-0.416244650172244,0.208375234746551,0.875624744187027,0.116920302842718,0.0282596744424793,0.0824155032768574,-0.935838786787005,-0.0717235765606854,-0.188044859600731,0.71373603237856,0.131162153386086,0.468010491016094,-0.983062797508114,-0.212675169681884,-0.140438929053168,0.920029209629046,0.239070227711489,-0.446421239993748,-0.970492041890383,0.0724290986329776,0.0919948715994972,-0.703922759342919,0.292710763229658,0.165998973774708
105.89,-0.409907993093757,0.222438579232966,0.865829349716498,0.124594733731083,0.0270683134407298,0.0862814375033146,-0.958590960491827,-0.0572453492372966,-0.194572046410056,0.779468515558216,0.118836775748275,0.477683088027149,-0.985020661321643,-0.141683344612083,-0.116377223957753,0.908076086309233,0.179287096546022,-0.354411205606491,-0.975658759535925,0.080587023564361,0.084108967604972,-0.786198016421546,0.343926536035349,0.180207489108347
105.895,-0.411097547674113,0.230854988679747,0.860511291159582,0.13066163705916,0.0295994579792023,0.0912220699818923,-0.993502723395781,-0.0382981445125931,-0.169037276802291,0.694103126348525,0.0536910302111867,0.459938526995398,-0.992753945237177,-0.0839241320510086,-0.097757094709329,0.866392409130178,0.120954922029398,-0.286888011700136,-0.987128312313085,0.0953310594456335,0.0708464103771082,-0.863656559649871,0.410674132895273,0.205266896506055
105.9,-0.415370435852556,0.214526323210177,0.862377822968701,0.130122765898705,0.0375044556162894,0.0974196885168943,-1.02010071469439,-0.00221803812110328,-0.154499403202647,0.574299037885353,0.00556253348461838,0.433108336960388,-1.00818459392463,-0.0626780960443267,-0.0840230029348859,0.815745405510617,0.0839794895617597,-0.271478051037115,-1.00123393115465,0.102085105912962,0.0624410364170713,-0.891699654116011,0.448442595657162,0.220496900694788
105.905,-0.422322649009905,0.191725744985826,0.878946214311129,0.12133410861015,0.047569689004417,0.099993269781892,-1.02709519065028,0.0422965787400561,-0.0873639799824439,0.521380675567133,0.0138357039541006,0.430560584204336,-1.03262134247426,-0.0567756550911199,-0.0695620695546816,0.762769209987167,0.0506001063415333,-0.286232369483919,-1.00276516042022,0.111638079164298,0.050540095572595,-0.901222447486131,0.470533142706856,0.23541464098245
105.91,-0.418983350215585,0.205440540520664,0.883387341156783,0.114042885163714,0.0496503818884848,0.114290012844597,-1.04267975669942,0.0512889869181408,-0.0917799968305702,0.412899742454541,0.0185734386268983,0.424877445099099,-1.05740170132566,-0.0733247453523241,-0.0468011305436688,0.742962598800659,0.0177914075253977,-0.307301745803396,-1.01852773811203,0.120454586344503,0.0366030961488888,-0.884136433997445,0.47960091771132,0.250234872102737
105.915,-0.408970323086736,0.222542072456276,0.874265042905299,0.1067674069893,0.0692329510694564,0.117667511105537,-1.04350211219839,0.0595063886318381,-0.10168029485028,0.268818939077449,0.0317272385665894,0.424849699348194,-1.0788878200046,-0.0919023420857166,-0.0340869382646106,0.7345504183093,-0.0199226345791723,-0.344540506158861,-1.02930297370663,0.124486729230946,0.0257174879719344,-0.867965874909282,0.466051658844308,0.250234872102737
105.92,-0.413859635494704,0.232664659969987,0.861727641236799,0.102725720530557,0.0657305271051205,0.119642948069713,-1.04013599947325,0.0550102159229554,-0.119887017312967,0.14163337058551,0.0382597899738876,0.41305519492689,-1.09350471627912,-0.116351914523551,-0.03381373788493,0.733757766647447,-0.0495386185221507,-0.396291228646914,-1.03742766657779,0.127641847949071,0.0128276514719477,-0.843936309314664,0.428151796455698,0.252098915094079
105.925,-0.420166548603855,0.227190647649546,0.851735208629421,0.0921316386588987,0.085915996002299,0.130003041620219,-1.03009541073173,0.0381258568781918,-0.135733588743716,-0.0188053798581163,0.0250112291241962,0.391924041619731,-1.09227438981958,-0.128185282506841,-0.0333082536848586,0.730507590713098,-0.0659282185519663,-0.442192800322156,-1.04078223697469,0.127793191175342,0.00358580797379695,-0.837802548111115,0.407367832055278,0.253887634874716
105.93,-0.421245403551488,0.217484333784229,0.855797815852446,0.088699075894226,0.086025260222697,0.133804876208564,-1.00103714986454,0.0418460000026366,-0.113015215514857,-0.178431447505272,0.0304307336817175,0.355842017914284,-1.08181972151262,-0.118827039676861,-0.0327940608027462,0.713972852933785,-0.0797002888067141,-0.472272406677516,-1.04389380201765,0.127736610873323,-0.011890602411463,-0.846420514306652,0.375276086695555,0.260772799412573
105.935,-0.41752378766507,0.217876852461988,0.852268711080726,0.0806856348760215,0.0754545011505826,0.137214630842209,-0.986014801254202,0.0536151683994409,-0.118693887335966,-0.266841123309316,0.0328303692477335,0.326769045775542,-1.06519231469147,-0.109419553209997,-0.0165863723170614,0.674606904567484,-0.0947886995945926,-0.487416841747306,-1.03683923938746,0.124014646511462,-0.0291803604127253,-0.873902178046181,0.360448049764179,0.266116887331009
105.94,-0.412529664596171,0.235271056743031,0.848129049533031,0.0724187252983067,0.0602760152581328,0.134252520445363,-0.978675699475183,0.0603884610870458,-0.127535409540322,-0.362881596725009,0.0255901803820582,0.308741506117111,-1.05002158417554,-0.0981730231580987,0.00453672246867753,0.639599002937409,-0.107724651363987,-0.490078160266063,-1.0237860828225,0.121757159356163,-0.0355797125587199,-0.928192870903946,0.350658367624098,0.265172919872894
105.945,-0.407274132625062,0.247326944709187,0.848455808653333,0.0686384237753932,0.0559629506657273,0.134599981085327,-0.984200243688217,0.0635142863318904,-0.130997446483797,-0.432462707020116,0.0255322750946714,0.297473343844577,-1.03006017439107,-0.0832959104839865,0.0320310700137378,0.620822549506062,-0.117139474444582,-0.490052072824044,-1.01587620592446,0.117316704841099,-0.0402487675370583,-0.987583445500866,0.354731119897157,0.262528359268875
105.95,-0.402366549857347,0.241836185730163,0.855912045077113,0.0552117795276701,0.0435977762176996,0.129222438942008,-0.995531821778417,0.0634077549101455,-0.129582427113799,-0.472635468806175,0.00617440722908419,0.289293460465384,-1.01358136040089,-0.0606896244651678,0.0495485645628342,0.626835365534343,-0.126173875191792,-0.469177137077675,-1.00052754128866,0.101453617850236,-0.0371699316988108,-1.03783051423161,0.357607393939938,0.2659995966636
105.955,-0.405226429738059,0.228745335317425,0.868839431818192,0.0461083206756293,0.0400544852818891,0.119545935944045,-0.998782130501318,0.0724151618773794,-0.121792630060581,-0.496473698856481,-0.0106084784819366,0.287385575901073,-0.993112038219506,-0.0505475537392265,0.0606729056140419,0.640416227429089,-0.138310087611573,-0.421060694338872,-0.988402360869646,0.091297375921315,-0.0238558212633734,-1.04797827819132,0.360124773881582,0.257977904679602
105.96,-0.418535026979763,0.216546151773891,0.864795180686699,0.0502431777140478,0.0386207643423738,0.111276227886331,-1.00552434401963,0.072469905802933,-0.109160602047626,-0.498239443680833,-0.0274224430691361,0.290862433888006,-0.976194055818835,-0.0456714218819988,0.0697884187168612,0.664363479860266,-0.142725404715483,-0.393969111920269,-0.971070148808115,0.0873614815138435,-0.0139083457305988,-1.05290595618402,0.361198984140845,0.248256113568725
105.965,-0.421361500945483,0.213062544265396,0.862568269165807,0.0554685051154395,0.0449579133255272,0.106868605029554,-1.00048648109326,0.0589715201584731,-0.113120292709415,-0.443181172920006,-0.0478944355159965,0.28251252932439,-0.969358412431654,-0.0501394148834614,0.0743855292381882,0.676621569613148,-0.14359508264077,-0.378628119219613,-0.96522447782464,0.0840765373917435,0.0033055724014861,-1.03875515895021,0.359521923011705,0.234083911951121
105.97,-0.420437643225803,0.229045869110092,0.86273222057443,0.0508941966440202,0.0364618669685202,0.105059789488465,-0.997543295999133,0.0345045994996055,-0.122015371149082,-0.400880900893966,-0.0390448886955911,0.299537521683722,-0.973220969821582,-0.059230831045761,0.0716449375586578,0.656738122545399,-0.131413847725632,-0.415663633918326,-0.947718259550367,0.0887428339155202,0.0261925823713297,-0.998576866523734,0.357769731209808,0.213511853175373
105.975,-0.41408531367761,0.235876584693592,0.860912687504603,0.0465075005958843,0.0347430118720579,0.0945969457170104,-0.990225470498984,0.0267034593350989,-0.108023498802655,-0.350391569514234,-0.059177070319182,0.305160266921563,-0.9792042263972,-0.0614079075575722,0.0679582486422323,0.631725491938321,-0.112062952370755,-0.46741864435565,-0.945603747817119,0.098532758293474,0.0439598765463883,-0.980081199874939,0.370829408952064,0.201249388064709
105.98,-0.413281064181584,0.232128975834116,0.866326911129355,0.047047533094883,0.0320428460836411,0.087772613702514,-0.98729347987203,0.0346081028926161,-0.0948973167843623,-0.252808237810741,-0.0670426072400407,0.307240590243025,-0.987630051570084,-0.0604814313686219,0.0701367027268661,0.584771110358766,-0.0805755244793332,-0.516818894582472,-0.946047225078699,0.107642896794875,0.0693109174187988,-0.934251314396518,0.383976420932365,0.190428060528333
105.985,-0.416884483088349,0.233420307222908,0.86313241165517,0.0509775385088385,0.0323077654136946,0.0783745970358155,-0.98730992639529,0.0445107326459516,-0.0951221667716694,-0.215124284607637,-0.0380617129925764,0.323739975575706,-0.989085707491682,-0.0599157743960552,0.0776473300400153,0.543495938116826,-0.049079358493421,-0.534447712556064,-0.942214211450843,0.123846354455811,0.0911686997891504,-0.892189314521234,0.396321744789336,0.189240315504673
105.99,-0.417502770838119,0.233288894288323,0.86352414024692,0.0574851645413898,0.0365524691664405,0.0756625106288537,-0.991021810958802,0.0624643245458632,-0.103604142439518,-0.118328650012973,-0.0803312599001198,0.303592310670565,-0.986064132216792,-0.0556091386892036,0.083246316967424,0.529028929041521,-0.0157292917372758,-0.529702852799843,-0.946398738214644,0.129908121053814,0.102966703369194,-0.837599817966064,0.403760440682781,0.193290548372706
105.995,-0.423201251387722,0.237341987849831,0.861155296984896,0.0664975469713307,0.0377606496816149,0.0766673533916566,-0.983257088226369,0.0851015369854603,-0.0802595740007654,-0.0397559726834849,-0.0796565039611221,0.292801473535298,-0.983037565345809,-0.0428208946649381,0.0884935538917364,0.529371446170438,0.0111787551361461,-0.49920112604261,-0.956822863548604,0.135457348844132,0.121353513077008,-0.746327419040165,0.407744470645484,0.189194619845175
106,-0.419066587512991,0.235154963300455,0.859519137029385,0.0692691327383269,0.0383824216388677,0.0682051287595544,-0.98391045179788,0.0989980528577207,-0.0753650499606111,0.0516404521008001,-0.0525940155684326,0.274973371672054,-0.988076248821893,-0.0295994821741404,0.097208127301622,0.5280543845138,0.0310941751728497,-0.478726147979427,-0.964625941441783,0.133902664050788,0.130246935147466,-0.638036798353269,0.401028202098921,0.176222110457878
106.005,-0.418275047745925,0.242114846128947,0.857894893543847,0.0727031230926514,0.0376147990978485,0.060206600913561,-0.982611704069734,0.107146061571745,-0.0834465958126513,0.0953930190271599,-0.0555500575062925,0.257188569039174,-0.999270687026413,-0.0208235232154593,0.100087449138855,0.510857745058215,0.0333150586880861,-0.446319801176648,-0.977435206254558,0.139110922943036,0.147029794766505,-0.55358802269229,0.396274735018417,0.15991327641194
106.01,-0.412383228637603,0.248408916052757,0.853375215372139,0.0727031230926514,0.0217118602401957,0.0573538776954844,-0.988210852931336,0.110325999865348,-0.0627577072435565,0.102157626458964,-0.0396192509967132,0.241630943376004,-1.00627334181221,0.00810676891021197,0.0992613556208837,0.522687548788421,0.0221484169274148,-0.419666838217346,-0.994661023354669,0.143371018690238,0.1484545044926,-0.441938643336682,0.394794380539676,0.136991436002338
106.015,-0.408375210220743,0.246767827817819,0.856876514318105,0.0683908261406278,0.0122793883609187,0.0516960136592388,-0.992484022226284,0.127804834787012,-0.0514366848982675,0.0930660100300981,-0.0296378412220449,0.219210273410631,-1.01610252531789,0.0238030760392189,0.0982270241463062,0.553309934125802,0.00212545477427146,-0.372459690786865,-1.00859643572559,0.141495133852248,0.148830299641897,-0.36171459528202,0.367912162512161,0.131572739494259
106.02,-0.401497699286761,0.240227877254346,0.857127775194062,0.0544999406358331,0.0102151766975285,0.0423297638000072,-0.992857215668472,0.132845173860085,-0.041660846712265,0.0410198803739251,-0.0175854794562141,0.196248669397745,-1.03077252060434,0.0320657661144231,0.0928111558689479,0.590654575010094,-0.0342619373480681,-0.321123977151078,-1.02205470871985,0.148321183993167,0.136460051195776,-0.256004563315235,0.347233731440641,0.128781150907249
106.025,-0.40289058379007,0.240901587221286,0.858493545571202,0.0417714046453685,0.0120507600020867,0.0368131906842938,-0.993273306091129,0.130434038798287,-0.0419632123465832,-0.0331731750790917,-0.0175267956401515,0.176243730791674,-1.05240252468092,0.0381372159461133,0.0863726856251663,0.619501494049435,-0.0632837294976809,-0.285973782881335,-1.03444693704341,0.150305752710131,0.125251048733536,-0.170439752621176,0.303313588205183,0.130523333101934
106.03,-0.405360677416563,0.237505204998252,0.861230613967908,0.0295695879611194,0.00235497176940106,0.0281095934193621,-0.993499147975668,0.126177227300549,-0.0445693321555228,-0.092851811089533,-0.00253981045298386,0.156654927851871,-1.07409813282249,0.0432687626037147,0.0792791678120942,0.603206756292359,-0.0639501784853049,-0.256970571575111,-1.05412874774892,0.148226097923945,0.114705011401112,-0.110223310627632,0.2842940084668,0.134857815013286
106.035,-0.404156635556764,0.234184102949584,0.859021274286072,0.00857046421490964,-0.00600526208736631,0.0166632373951798,-0.992294116307217,0.120525676409112,-0.0431033830038248,-0.145389486186306,0.00795087453798244,0.143556352212272,-1.08576225220716,0.0525297141392118,0.0676156688501695,0.582839432844115,-0.0666192341975685,-0.230082138732068,-1.05931370086334,0.146835519554329,0.0935826024727922,-0.0593585739868794,0.253942069673727,0.142810157681866
106.04,-0.410791957393602,0.235779564339235,0.855152980530683,-0.006522684981781,-0.00798873327860413,0.00714633041181975,-0.986584891978282,0.109307354467282,-0.048390416413042,-0.178697324649638,0.0159999515529778,0.135507278159821,-1.0696582070237,0.0467708404853975,0.0445622772997558,0.584179465793211,-0.06908600980703,-0.197094976336955,-1.05944760754227,0.14500693698587,0.0764864868934724,-0.0223182289691467,0.223388876655867,0.151721320416934
106.045,-0.409491096862683,0.24100495198561,0.857907854775618,-0.0129905325593434,-0.0194433541102893,0.00137315681621821,-0.982189878717302,0.0953441939875476,-0.0600536169543379,-0.216374434795144,0.0235656516721262,0.130254149083379,-1.05800623973525,0.0505409161525441,0.0379464082979266,0.561818849244935,-0.0743405241771425,-0.173220151208697,-1.05619486994536,0.145581882108812,0.0600902254848344,-0.0119883547186436,0.205612260450735,0.169804419670444
106.05,-0.414137058610701,0.23050670835296,0.863891182120167,-0.0187326701669054,-0.0218073618038403,-0.00365558982612061,-0.982524440524365,0.0938176538123865,-0.0574703717983685,-0.208360895218474,0.0263571187452882,0.126454504719969,-1.03051271431592,0.0510812769990062,0.0312162841697889,0.533503135363103,-0.0829363233391079,-0.127670714243519,-1.06389817725839,0.143406971129159,0.0512372795164446,-0.0228416797762211,0.195317873347275,0.196401975030213
106.055,-0.412282279402861,0.227457130523293,0.866143539846218,-0.0217684246322437,-0.0199490969300638,-0.00654425784764401,-0.983242640094287,0.0963039073766459,-0.0582817612144909,-0.142791460199658,0.0404956994707632,0.11900877824166,-1.01365632710455,0.0491865270645857,0.0304905147523113,0.493516880098353,-0.0867233403060896,-0.113354069352334,-1.05391321002707,0.146480984866454,0.0435439006117255,-0.047291715524968,0.170345996769586,0.215774391955823
106.06,-0.410879371788192,0.230236743390562,0.865103118678796,-0.0171846522134267,-0.0244380337341994,-0.00619301212735938,-0.985594841508903,0.0946550994560761,-0.0609727249817033,-0.101441125357173,0.0531411360847158,0.115681029856205,-0.996812327285013,0.0439498567395254,0.0369954895862106,0.424925326475262,-0.0924994722008705,-0.117321356172589,-1.04552362256144,0.150845359765068,0.0338160293708113,-0.0861748604813187,0.158019155263901,0.229279698403566
106.065,-0.4154582831571,0.239596014385004,0.860118649337106,-0.0059686240502403,-0.0335527667925446,-0.00572363054379821,-0.989885333031199,0.0922325230193343,-0.0661227412286685,-0.0503615902605378,0.0679202370054672,0.104502466320563,-0.995468555453206,0.0393983273806419,0.0443211990190754,0.357614654049094,-0.0949142974207641,-0.127674638277387,-1.04041057645795,0.148372857223252,0.026420493059007,-0.124300616584189,0.126275936055623,0.233129522412358
106.07,-0.413116068486658,0.244755760395657,0.859838496633331,-0.0164805799722672,-0.0279997293568302,-0.00834656189281452,-0.992084364631555,0.0997855834454895,-0.0651871338524525,-0.0109604898471735,0.0800172348388525,0.096429733996318,-1.00493403867889,0.029543555501567,0.0552589454752274,0.269508467799271,-0.0869478561037202,-0.154156748756532,-1.0301764414251,0.163047442350173,0.0215766784523854,-0.178842753511632,0.118637594640022,0.22362080807343
106.075,-0.410145824357096,0.246293896405216,0.858808094355895,-0.0157991866750505,-0.0325658759440952,-0.0129127050550895,-0.990577795817404,0.100155862124229,-0.0649400882668529,0.0177436609171567,0.0861302196899487,0.0846023295729192,-1.01022762445329,0.0211803117348011,0.055708044226019,0.178406393578504,-0.0734785203352598,-0.171071020702313,-1.03521359439194,0.167843418516845,0.0224029841325125,-0.217412008079354,0.12198928021757,0.214765279556584
106.08,-0.412195275923355,0.236215181280597,0.860414611073943,-0.0192072450181602,-0.0324723581887866,-0.0177546447902858,-0.988541859764682,0.109203620004543,-0.0692869812677457,0.0283226883977057,0.0922515369091892,0.0692990271920053,-1.008476007479,0.012137958549221,0.0548266301466851,0.107744636785363,-0.0669866534712608,-0.174200544251093,-1.03483620658041,0.175177056516318,0.02831788072946,-0.244747368113049,0.127203451194972,0.205903529481545
106.085,-0.417206119634763,0.233575792208087,0.861678112275023,-0.0153866289930215,-0.0545058538778534,-0.0217972738857076,-0.980832374468542,0.11581121925029,-0.0759565601287699,0.0408263313948443,0.097146810102347,0.0556764758840277,-1.00567887322972,0.00564317551233231,0.0562161723217428,0.0548351834320791,-0.0544341057007879,-0.175125246723084,-1.03433883221034,0.184933105377858,0.0373098600987347,-0.2747430752498,0.131058941049863,0.195258602499962
