Header,foot_Accel_X,foot_Accel_Y,foot_Accel_Z,foot_Gyro_X,foot_Gyro_Y,foot_Gyro_Z,shank_Accel_X,shank_Accel_Y,shank_Accel_Z,shank_Gyro_X,shank_Gyro_Y,shank_Gyro_Z,thigh_Accel_X,thigh_Accel_Y,thigh_Accel_Z,thigh_Gyro_X,thigh_Gyro_Y,thigh_Gyro_Z,trunk_Accel_X,trunk_Accel_Y,trunk_Accel_Z,trunk_Gyro_X,trunk_Gyro_Y,trunk_Gyro_Z
84.32,-0.673600834556187,0.219046924850926,0.821524549282784,0.056582773670343,-0.172379511350186,-0.180366374674907,-1.07505200479666,-0.0797113545347451,-0.262170575523318,-0.427626530958372,0.912027588375135,-0.0399675292502352,-1.37832172849142,-0.126791058900303,0.392781898712734,0.522280784460697,-0.267905308235931,-0.774487337810658,-0.80048015757343,0.310823080535404,0.193463258971519,-0.996012264856517,0.0313269280623899,0.288136582484137
84.325,-0.540525832141426,0.293978212657476,0.825304843946555,0.109914658061325,-0.172958582591499,-0.151295392458178,-1.16109872297273,-0.0682756633175641,-0.211421814568247,-0.719911491046885,0.823278618497361,0.0158260504899581,-1.3167712651137,-0.117965612247793,0.30806433078282,0.59505028317692,-0.148787359037553,-0.696871991478906,-0.877071375466785,0.289288394353721,0.183252703174564,-0.987057158733871,0.0261740145214638,0.243540793106571
84.33,-0.537789169102045,0.321866541835783,0.82283326217455,-0.027783489089067,-0.146399982070667,-0.13964122737215,-1.16416841563159,-0.0876578795762379,-0.22150467986643,-0.798240465996604,0.765326374030624,0.0426158074731475,-1.23684357082991,-0.0801696926190964,0.237438264361639,0.734652207729007,-0.0976522991723405,-0.627092338172271,-1.00574557494006,0.250599162852681,0.167069110964522,-0.97367147709649,0.0162873646647543,0.15791707900871
84.335,-0.582938395296537,0.287741825053729,0.800950547735675,-0.110956131171925,-0.113377642157565,-0.134069727299446,-1.12462745707938,-0.138048191490201,-0.239276738858927,-0.85961893588416,0.718558764761213,0.0613686876883137,-1.15893031951183,-0.0386229479836044,0.172601038998913,0.851733327723313,-0.0920482502904553,-0.591001266356403,-1.12759899108825,0.217015156454769,0.150389933199547,-0.944170465731771,-0.0164777977618595,0.0859617717870029
84.34,-0.575698778497405,0.247656164489639,0.805654415108102,-0.142136529252686,-0.0818633638779217,-0.117860089161939,-1.05390652086058,-0.16600941237284,-0.253763491312843,-0.850978097488491,0.707489325382179,0.0656835636044078,-1.07286819743178,0.0032614938482278,0.134456473565586,0.880729739127902,-0.112559011131298,-0.60078336569036,-1.23108767359563,0.184171293207746,0.14193344390996,-0.915911319000208,-0.0420281920465079,0.0308835594683518
84.345,-0.563720878276335,0.271896453590701,0.798469444585201,-0.134394967427135,-0.0684147929000755,-0.065576073570291,-1.00958995533936,-0.119083877097633,-0.215859816336813,-0.715743482035456,0.704309270314575,0.0508811707774241,-1.00257498990894,0.0252813800626771,0.135888885471497,0.890886804234735,-0.143920289902451,-0.665419542766646,-1.30801048576899,0.141071876690539,0.140591258139268,-0.913506358126771,-0.0411605391879574,-0.0120379932635409
84.35,-0.53789005509706,0.320286023011232,0.798074405965734,-0.182612220457319,-0.043070912361145,-0.0491381606386342,-1.00749512834127,-0.059583623659866,-0.177340997793641,-0.633683528624771,0.644460801406134,0.0316107814585731,-0.951751852682208,0.0308937829117449,0.141106029506208,0.918151330481714,-0.178065832545673,-0.787966790332598,-1.35115806398448,0.0971018278601686,0.128824318558676,-0.911881697968191,-0.0156628779072621,-0.0606558933014623
84.355,-0.535080038974065,0.326953364429031,0.788881490967712,-0.215901586762107,-0.0437441639493649,-0.0497528729349359,-0.995317047210713,-0.00987487943456391,-0.17393704768837,-0.630090595217894,0.608375359268302,0.0353228967531733,-0.933781957162692,0.0283112792772006,0.134525629112591,0.932963787624394,-0.21977742753379,-0.951062803055881,-1.37158310123788,0.0583782173484972,0.124366068404543,-0.898125156230739,-0.00765944718310566,-0.132711540533485
84.36,-0.541573968464406,0.319098523316081,0.781537762654718,-0.253219681641318,-0.0442926064133644,-0.0607975326029107,-0.998098869070111,0.00850717324440125,-0.176345736530573,-0.656401624284018,0.588626402905389,0.0474347978085482,-0.943743203397533,0.0265520725700279,0.104881672637837,0.925686909296847,-0.26600207837205,-1.05519163654161,-1.3755945587028,0.0341211432680082,0.130573018876874,-0.899608814695211,-0.0420760245738811,-0.1898211506125
84.365,-0.541320426808662,0.323903077718304,0.777485997928919,-0.273832679526274,-0.039140043076806,-0.0692577841170968,-0.99569913122604,0.0058619650302638,-0.176836323100508,-0.713438441308957,0.584983837735925,0.0612041467191366,-0.957913640547013,0.0354563081208127,0.0678171804955341,0.910235589698767,-0.301437936193646,-1.08163624757176,-1.35545751821755,0.025143997476874,0.128947292822695,-0.921831134989911,-0.119571238960823,-0.192103906060376
84.37,-0.52692899858819,0.34983549951006,0.778974402379706,-0.214971139582104,-0.0355934473225866,-0.0764665641518956,-0.99032725485879,0.0283873369642129,-0.185973762273995,-0.758046445534536,0.571031551964543,0.0504716282679503,-0.956678751454379,0.0363995563956401,0.0393416207735643,0.848412869305036,-0.318190474864354,-1.07189799049979,-1.31129141924747,0.0286832020485029,0.12449935237775,-0.937498631277352,-0.153702979246346,-0.166634457069374
84.375,-0.502155846211446,0.361772791490256,0.783754180592661,-0.191214057526343,-0.0361426588571709,-0.0942111032023322,-1.00037469933994,0.0567169742520087,-0.161146471582171,-0.723933803553353,0.549288046649116,0.0229378360077114,-0.953038851539106,0.0343503495013832,0.011589810310345,0.764136870853256,-0.336271298792857,-1.05598438035318,-1.27168382808515,0.0165440137530242,0.130829947548624,-0.924270338918646,-0.148365921880682,-0.11986286777375
84.38,-0.502266969745971,0.358329157153181,0.78016087530313,-0.353207168321342,-0.0316065710881566,-0.113342993259698,-1.01137129382856,0.0755939629016916,-0.135912632137826,-0.71538255311762,0.526309328749881,0.000139834972080412,-0.950383033740346,0.0339898946131792,-0.00596241139906365,0.690945131093501,-0.353202403052875,-1.0502525222568,-1.22956904177749,0.0140366976042101,0.132611357849471,-0.884966590072864,-0.0940654291667494,-0.0689731551314385
84.385,-0.527822112155289,0.337585883877935,0.76456202392055,-0.370923106289428,-0.0395509652643113,-0.145323760308441,-1.00505148596371,0.0803736411733295,-0.14150179267612,-0.799281776922456,0.498479399919502,0.00180713920621403,-0.958731247631271,0.0263002161510637,-0.0198249524363062,0.647442867770291,-0.369863710027635,-1.0510746305416,-1.17724153952436,0.0140972479936842,0.126461529267885,-0.811840173576825,0.0197450737612134,0.00257885145884032
84.39,-0.520922591256999,0.326241901374232,0.773496692238511,-0.38457547164523,-0.0449804067593076,-0.159144972759403,-1.00437262617161,0.0529275241225336,-0.164713076254512,-0.890707181267469,0.487125595495672,0.00875641047102876,-0.97931314315339,0.0286925119794557,-0.0227938062958151,0.580840162136794,-0.382395659050307,-1.03901758956378,-1.12731845970177,0.00447796827285807,0.111101416311172,-0.763135803565012,0.136742273146982,0.0732865750539038
84.395,-0.522277432217285,0.315792964139616,0.782024526309753,-0.380499321801123,-0.0528444647789001,-0.167202705515179,-1.00516415529528,0.00650120485947616,-0.161153179881094,-0.968701622027133,0.466595542786274,0.0130736780048108,-0.99603457370678,0.0259619948302828,-0.0250048750054965,0.520508457655149,-0.395495564597395,-1.0082815851468,-1.07259788500036,-0.002212344988487,0.101083908943819,-0.726265579637495,0.231848253061766,0.149326909976536
84.4,-0.510100390443488,0.298631065096435,0.793873053204317,-0.368616171946758,-0.0509147672592286,-0.168590825921428,-1.00185032524064,-0.0330887041532822,-0.147593950849614,-1.03025265864443,0.450780976136736,0.0123216220297716,-1.0136993545606,0.0382654374802837,-0.0250655604409632,0.422459634358949,-0.405438025856163,-0.97840113808802,-1.01304958092792,-0.0108708807219345,0.0986232361750505,-0.710770686268795,0.282131100893069,0.201733576655438
84.405,-0.507305406131698,0.278037723973985,0.81109632994946,-0.353525119019802,-0.0359624818311244,-0.161567534363836,-1.00403762453422,-0.0702120258229833,-0.157283097276733,-1.04009298556717,0.430710917609065,0.0198568601667999,-1.03491448612301,0.0605513449743035,-0.0197992141883508,0.334097328370546,-0.412554694296358,-0.963027291528027,-0.96692021521612,-0.00632609902049587,0.0953691603068161,-0.712991888138571,0.313561063224666,0.233517836744182
84.41,-0.537363380725382,0.257659845558619,0.802879005248136,-0.332723409648141,-0.0156087729714326,-0.133603882783292,-0.997509096574933,-0.0861142420859997,-0.193086027022892,-0.96602282913434,0.404337802747377,0.0152354057053195,-1.0526417068792,0.0837882550344114,-0.0161887238365058,0.251306465796697,-0.410962011805489,-0.952272766612402,-0.931126296236483,-0.00297446725966517,0.0977495825871483,-0.73143158698438,0.322947919368744,0.25892336106496
84.415,-0.549795352183392,0.269595693418251,0.793058566394422,-0.283252719737135,0.0103389725245325,-0.100516780814429,-0.995870580591955,-0.0580345888314171,-0.204472854847146,-0.803069170464072,0.398213233432753,0.00763051848169137,-1.06341165855082,0.105647041660228,0.00778189192195211,0.195519178517375,-0.410077936779426,-0.944133560445631,-0.90363961037232,0.00418457823605272,0.103998547367358,-0.760600679407495,0.321750992480694,0.276439398364772
84.42,-0.545990872403791,0.27338975287808,0.788674217024201,-0.261730471519775,0.0238685948209101,-0.0816498925747614,-1.00513948155661,-0.0157593929690847,-0.18621251510543,-0.656390467711018,0.405006076883129,0.00554817606667252,-1.05994411795163,0.119262073984347,0.0237528243042156,0.166558434429287,-0.400129822119678,-0.948088148059603,-0.888898150051578,0.0276850188819645,0.107976443258328,-0.801937205768162,0.311646177626398,0.279555529356003
84.425,-0.51944661089025,0.285164151341419,0.802116690488752,-0.223850939672371,0.0368788597971753,-0.0660100021826558,-1.0110978859747,0.000764786138691315,-0.164883696064363,-0.611700534106975,0.404235106254346,0.019262215817782,-1.04160427855692,0.130220333559462,0.0257861782941634,0.145226331253746,-0.36581218059772,-0.957303601653404,-0.884679624729571,0.0421174372596228,0.116020083425832,-0.843884251061231,0.293023636337074,0.268988198339045
84.43,-0.517320905488588,0.28850502451376,0.801710351937073,-0.207011269700528,0.0471060255100968,-0.0592546186752641,-1.00254035183084,0.00135934119173226,-0.151366502332875,-0.689376896611199,0.393059331076125,0.0376752993532745,-1.01606876690435,0.122815478440617,0.038362486284049,0.113288066037867,-0.337484204065383,-0.983495615064378,-0.87698220883498,0.0594149286956055,0.124821572551237,-0.927031633348035,0.266218149048103,0.266368393139344
84.435,-0.517449921683128,0.287227452667774,0.799060269036815,-0.178603453771196,0.0577801954885553,-0.060970392838104,-1.00508927140241,-0.0350407501229925,-0.151208926322536,-0.718715768454408,0.385452496981737,0.0462196331456376,-0.989571173401194,0.12093755819005,0.0496126878538313,0.0592131262933825,-0.306563308763683,-1.02287314386779,-0.875495971085783,0.0711982260391952,0.137446436793166,-1.02286075525288,0.251667046945021,0.257348120789924
84.44,-0.522714087453547,0.283991952508594,0.791598515568222,-0.151215644247864,0.076225235745005,-0.0639544268270364,-0.981683941397318,-0.0270995553756282,-0.140711199129402,-0.480942859837183,0.373464643062372,0.0409016695052402,-0.962104419103479,0.110234532277785,0.0537323502281805,0.0146807793674284,-0.277695183868426,-1.04400531874636,-0.873452253884475,0.0754342535127145,0.141206222455003,-1.12503395287003,0.237182338383198,0.252797359798742
84.445,-0.533599371901748,0.278273889678029,0.787803982082457,-0.124443929011569,0.0941804795237769,-0.0439023816431408,-0.989305083842143,-0.045082759680346,-0.184669852909152,-0.247130972533754,0.326033064430509,0.104285088136597,-0.931137071355899,0.107412018292251,0.0298376999866658,-0.0442774925120058,-0.255951898933617,-1.05877594015472,-0.866268671083827,0.0863217582783204,0.147868624342023,-1.20463544624633,0.219333928142643,0.244214862522454
84.45,-0.523581704669144,0.276622220605717,0.791933149410401,-0.0945189339447289,0.102526814532023,-0.0488735870265451,-1.00877917437148,0.0216252381835924,-0.11723163770874,-0.214940696543805,0.400163373181143,0.0257951377847546,-0.928229705002748,0.110737250768645,0.0334769015449331,-0.145417957827328,-0.203925313364469,-1.13316646615616,-0.861714279724594,0.0811703077541833,0.156339310643813,-1.27144606817378,0.210629193890943,0.233904169744566
84.455,-0.511172490794256,0.304425120984732,0.799901467846006,-0.049586268619051,0.106642767462328,-0.0426092677576727,-1.01163453174905,0.0112372581448322,-0.122435474208714,-0.384855147118719,0.444475732599543,-0.011668818191699,-0.95899210192664,0.111717580952054,0.0563749517209601,-0.159995051642479,-0.20544354132498,-1.11408085154942,-0.859866294027361,0.0898889752611021,0.16233714063198,-1.32478463690281,0.193626590203957,0.214983992409424
84.46,-0.49955716473364,0.320903732521063,0.796162992997411,-0.041923747877326,0.113958450362452,-0.0413958125961579,-1.01235967277823,-0.0218599990578126,-0.0824894716489339,-0.224699931795171,0.430128250139589,0.00630631431692435,-0.947710225452,0.111670276985254,0.0507567314656509,-0.200809139706092,-0.186869709628613,-1.07858917099401,-0.866470739239611,0.0970055157258393,0.168508112001547,-1.35685778375689,0.175334301059828,0.19669171343824
84.465,-0.494543996870057,0.326321846553651,0.797371767326688,-0.0183856449723196,0.116093657079886,-0.064727348567722,-0.994832117391881,0.0270382207031282,-0.0726497058227501,0.0833424417338417,0.401894561958426,0.0115372125503258,-0.942128924166869,0.121757794108099,0.0434407391813175,-0.25162571514273,-0.151011885756013,-1.11980052075449,-0.866429208006046,0.106177294177677,0.181325174950077,-1.3715519912871,0.155768722117556,0.17953982950888
84.47,-0.512931073616977,0.327031775230647,0.786733992852246,-0.000182912158058526,0.122929800175181,-0.0791142493528065,-0.985057696801377,0.063013523169406,-0.0646434054403123,0.158655450593654,0.407340611701755,0.0294638205456084,-0.942949429098169,0.135521039133865,0.0495420142099049,-0.28039675542225,-0.121373985337072,-1.18740707516081,-0.872564643552907,0.108701765884802,0.189370100437007,-1.37704390977539,0.154348220607707,0.181808252509945
84.475,-0.524465929818682,0.331918369181964,0.777375399512932,0.0137320253599422,0.125522941350937,-0.098300337711719,-0.98825759149495,0.100683341396936,-0.0847151325546999,0.0791062834302626,0.466153572796362,-0.0266010900785104,-0.962870891980145,0.16162783469541,0.0653548367390032,-0.295530741151799,-0.110817322603919,-1.21479625660521,-0.878817358475296,0.113534076283242,0.19939310653703,-1.37662107911224,0.166975332521203,0.20111287045857
84.48,-0.527719861082274,0.326881154851392,0.773857751561812,0.0292694462451726,0.114845236256457,-0.113843980413667,-0.97177726698123,0.0745513722238407,-0.132413242302116,0.0693376296825772,0.46823746180528,-0.0284121690084263,-0.984978557066341,0.179702493686436,0.0963865534770113,-0.270614219947612,-0.113215670879112,-1.17263074860986,-0.886246730763876,0.117625100822975,0.204135488521825,-1.36463393033651,0.188050522458726,0.228377473038185
84.485,-0.523306704012326,0.321370570139036,0.773913148732501,0.0310229013514405,0.10704685506815,-0.125424822020644,-0.965756694012435,0.0652988778641498,-0.128971109133786,0.172871444227024,0.469164475552874,-0.0245379486004479,-0.984336768217933,0.183649417127292,0.114383396417791,-0.254044539959693,-0.113533491166355,-1.12513658766489,-0.901570344034441,0.119395032513575,0.204735343827543,-1.35133526559447,0.208392669942396,0.272935448489554
84.49,-0.531097908879487,0.307746981420466,0.772551925575772,0.0408143143648623,0.0892997876439362,-0.12645516056238,-0.961429632521867,0.0729688117074804,-0.112322868939762,0.287891051024096,0.474803761886222,-0.0250921923038024,-0.993500389085973,0.184381305517508,0.136937817908124,-0.227083338936486,-0.091734764607008,-1.13123524781042,-0.910720655520566,0.117396802284508,0.190493302538754,-1.31922540168831,0.209971286613307,0.329804082076908
84.495,-0.523765699193807,0.313582333656866,0.775431170835679,0.0585905530107291,0.0704394537090006,-0.140422631828614,-0.937619582406335,0.0828596053571547,-0.100707831151941,0.289763819179217,0.484311419402707,-0.0426160622719072,-1.00983909557518,0.176154060260322,0.15360156447481,-0.189589891278554,-0.0815708050806571,-1.11843067130284,-0.91659946154895,0.127013932447223,0.183915346641782,-1.2862013813841,0.199052421597097,0.378551991900472
84.5,-0.531429922695951,0.311939167320301,0.774612666644669,0.0636185913013188,0.0702435835950598,-0.141220706170807,-0.934526843959419,0.0567599696702606,-0.121924822442048,0.241423686034051,0.480890065453835,-0.0461112691135845,-1.00337494267279,0.162368482751779,0.160390201246355,-0.121828746883455,-0.067862913665455,-1.09738884307664,-0.922419403105743,0.131745507301286,0.168489224788754,-1.23863348346719,0.176323971214771,0.437742474640804
84.505,-0.5434370833792,0.28782921780513,0.774961158041021,0.0769949164410217,0.0543962162380452,-0.148633834551329,-0.935373176924686,0.033097941634665,-0.146936490805803,0.219314174224127,0.481823628232216,-0.0576340784016499,-0.985510903714408,0.141678661763292,0.159741322195536,-0.0220528043856742,-0.0440462093192868,-1.10032254327483,-0.929949074287922,0.136804483039177,0.161728778511385,-1.1966931954037,0.152780437912559,0.485721543880804
84.51,-0.549882992806753,0.282592215406819,0.775479521481979,0.0925943992854503,0.0480091666659281,-0.134939617281527,-0.950632786999644,0.0164031889644479,-0.167924790199894,0.262245626758138,0.501304311350802,-0.0686756537797846,-0.979244503831796,0.138244852862154,0.162068631917246,0.0880302754740926,-0.0323099167874791,-1.11463236808777,-0.938469722313366,0.142106662221207,0.162886955593889,-1.171398683208,0.126690402058373,0.520318337729314
84.515,-0.539528476193289,0.280752965384911,0.782129262691167,0.114507762356391,0.0412317885314664,-0.120216519203587,-0.957558565284575,0.0125780205645286,-0.149461547469241,0.326089181943239,0.5194065337656,-0.0893403754348267,-0.982357042711604,0.13090735048533,0.167445757666031,0.197886939995078,-0.0409599425642116,-1.1035572265326,-0.946949244938623,0.154711494026442,0.164591612404855,-1.14941017927606,0.11130842905429,0.538885008446596
84.52,-0.532671961301933,0.286504522080308,0.789375383195751,0.127717191261818,0.0388414029587036,-0.109753666393309,-0.975160979538659,0.000351508977286854,-0.141635567760886,0.344329328043144,0.535128898591894,-0.102545014331222,-0.970531974113313,0.122789769318134,0.18713790228969,0.273616662900848,-0.0409418799866059,-1.06868009839964,-0.950319790144933,0.160865273483651,0.165075818722752,-1.1291393705544,0.103397153163523,0.534058569626571
84.525,-0.527906697846732,0.300345344563563,0.783788922312089,0.142615737482677,0.0365923740326445,-0.104291417999588,-0.981291933958447,-0.00758657302089382,-0.134751486126042,0.41483791284739,0.540617406650534,-0.114726392244454,-0.964720973509416,0.118529246477875,0.202383161576225,0.310660035582737,-0.0411360815749743,-1.02696312316211,-0.952703745639894,0.17243863812435,0.162390913172173,-1.11107497190855,0.10074065260634,0.50589978490908
84.53,-0.529920241859342,0.303171411043587,0.78017206458677,0.153850140813345,0.04297449295649,-0.10173422511475,-0.981872408725451,0.00609944942265428,-0.137863118295767,0.44639983753753,0.554186797721969,-0.126904731288813,-0.970721744511505,0.117953565778435,0.192780842296803,0.327619839511251,-0.0463484240320989,-1.0007414792389,-0.93682269913395,0.181239938014224,0.173580646827307,-1.07729297865281,0.121196652842675,0.445847469529618
84.535,-0.538476742390049,0.306310172905799,0.774606880777085,0.152297860498516,0.0459739231845396,-0.098246231675148,-0.981449552333333,0.0395957200516544,-0.148345948233435,0.409990796548792,0.558312727251394,-0.138324223370332,-0.975597018854006,0.111757012864883,0.200422352176158,0.356244652408681,-0.0503374346119061,-0.985197948524839,-0.926334143686632,0.193579855080108,0.17505230661857,-1.03339004136065,0.131640196163671,0.376074892000071
84.54,-0.542507191828545,0.300270915419954,0.771350929601429,0.142048851967091,0.0400372973681661,-0.0885386271881299,-0.960762874921614,0.0438142009013241,-0.159706811029472,0.378450008832345,0.567245361269268,-0.130360992083442,-0.987600312791245,0.105639403212076,0.198808890559182,0.434802337885042,-0.0660620035231376,-0.947871098518325,-0.922259704584227,0.204046778101932,0.174056390004674,-0.974166132844255,0.131834871289363,0.30142071020895
84.545,-0.541077467168888,0.310280473927508,0.765026216128933,0.133157487444462,0.0281884335053723,-0.0819538768118343,-0.937876915971753,0.0720280790347234,-0.168418394845211,0.335298437992077,0.571026723040941,-0.160965470758965,-0.980921137663138,0.102920016285346,0.195344160690618,0.547918056671146,-0.0840682124706588,-0.933821618556976,-0.913320663627037,0.192112401425885,0.16465044868166,-0.918596386027765,0.0968694199812549,0.206442921367563
84.55,-0.542164588727422,0.317949743379857,0.760053438160504,0.120962294451637,0.00929409289372313,-0.0757561211568298,-0.941616473819007,0.0852132882195203,-0.166726369090408,0.235646117217041,0.572879056104535,-0.169718161915575,-0.977223640106573,0.121968597787885,0.195683460708375,0.679389049279984,-0.0948070963816913,-0.932939287205068,-0.929394191978018,0.181022893985988,0.160450569975044,-0.877106584039697,0.0522537261451437,0.146977223748588
84.555,-0.546900120593269,0.32606704876223,0.752688183957772,0.0934829115405234,-0.0108170704513369,-0.0768055780358181,-0.931724061926444,0.0946751439510278,-0.174533744523499,0.106785301925207,0.566783922593341,-0.1949392194754,-0.951897737480366,0.122496650713955,0.204786053228163,0.830277072377338,-0.10898996447326,-0.938091375342973,-0.945430184066647,0.183861714135057,0.155412203107612,-0.812132398588437,0.00278037105959442,0.0888875972721808
84.56,-0.541909230144242,0.329954963947283,0.756209747692735,0.0664665005930793,-0.0309382365972394,-0.0801194118206561,-0.922698881044678,0.0959419190357377,-0.178408351435602,0.00138606176239808,0.578338005839437,-0.210885305516614,-0.929844916240762,0.117460436167871,0.218624619396897,0.93463382208875,-0.122787488044473,-0.962149948201572,-0.961879124433415,0.181010802705513,0.154102002034875,-0.764555045211934,-0.0461220535022075,0.0487453399839901
84.565,-0.535297273705203,0.328550866192888,0.756231740766694,0.0300417718143515,-0.0580507924417015,-0.087762259457254,-0.924304906273484,0.101012353250286,-0.190201644932626,-0.0667231856289816,0.584734015489586,-0.223306564694883,-0.912453190499006,0.104163509854734,0.230486432496892,1.01891089578763,-0.135237966889764,-0.986309873117783,-0.972360989055208,0.180263192080453,0.158628559423814,-0.723169390069896,-0.0978751583982568,0.0342718723017708
84.57,-0.531183591713302,0.327155311833579,0.769948597741765,0.00887771330376536,-0.068565639757662,-0.0992057257006876,-0.942112132361239,0.0845717646414595,-0.206492793423297,-0.105181867561859,0.594137597129,-0.22753199169062,-0.901616550571221,0.0873627789712727,0.250851525159446,1.0592333186516,-0.158113714258473,-1.02920448763915,-0.983702885493128,0.189749413608142,0.15540454925099,-0.694342826993706,-0.139637503445611,0.0243783516335678
84.575,-0.524084356779474,0.320229635200093,0.780377590373184,-0.021909841387153,-0.0790405294122533,-0.10776077824724,-0.963425643962952,0.0640350116332756,-0.20835891700638,-0.0922143120719463,0.589051161330126,-0.233245975714849,-0.897562918815272,0.0844528738098523,0.267855659129192,1.08996848688355,-0.168871045632535,-1.07806219628345,-0.99265570145911,0.211130266242639,0.145130130407811,-0.661544985661437,-0.16209887594027,0.0338586493905692
84.58,-0.524032847748949,0.320581959359808,0.783572744529669,-0.0395378342969252,-0.078500047326088,-0.111437231078077,-0.980439803165444,0.0528252349305831,-0.197146757887282,-0.0820434433901568,0.597145390104397,-0.248031996596861,-0.900353300772547,0.0819512923438408,0.279542074096821,1.10939530514355,-0.186733689642965,-1.1453132976061,-0.981585688468186,0.22655563929093,0.132602784253414,-0.630457565655887,-0.136879507659511,0.0548574407171384
84.585,-0.521750866977281,0.327719854241178,0.787875518104222,-0.050482697786443,-0.0724575325647098,-0.127830710927288,-0.99604411428623,0.038333412394212,-0.194068606989794,-0.0655203199379811,0.602705444639061,-0.259051782508187,-0.942773849865003,0.0774052647552068,0.278264030738473,1.09963538715121,-0.195121809840202,-1.21492333759502,-0.97274129037768,0.228768749303499,0.125489213886784,-0.610728588132052,-0.0965443421135877,0.0717113300858602
84.59,-0.515883097234865,0.324103697188534,0.792364103857293,-0.0603025630666692,-0.0729182616096289,-0.13662372642134,-1.01052557344973,0.028797140585301,-0.197974119438141,-0.0378936855015405,0.609138594732456,-0.271797791674989,-0.980651030535202,0.0679551123227258,0.276982990489613,1.05634525747558,-0.194569998413214,-1.2821636086578,-0.971888426951578,0.23420384265767,0.128126923825221,-0.6036684903785,-0.0386745737954586,0.1017429207747
84.595,-0.526971491937047,0.315817603851612,0.793814991108702,-0.0688577261525275,-0.0596044142553839,-0.147794325963653,-1.01656293297872,0.0285918804515135,-0.210340016983747,-0.0456113502482566,0.607370253249743,-0.269893098246808,-1.03507502082477,0.0481007973454153,0.25344237486643,0.977935097324332,-0.189608027832473,-1.33709072462569,-0.969959757065867,0.224555332972249,0.132593763836403,-0.654843448650437,0.00645843118693141,0.128832797276366
84.6,-0.522479741881095,0.312904350691117,0.796246814784226,-0.0772093238622568,-0.0465321098150058,-0.157040876599285,-1.01261783402158,0.019906648917046,-0.221056752125702,-0.0667344894937758,0.606460367110073,-0.268776303632765,-1.08615006067769,0.0170961323545186,0.220638603637188,0.902884901211625,-0.174014165605338,-1.37120223266387,-0.96879425767308,0.210965081683016,0.146189915475509,-0.751774562622887,0.0410296140489502,0.147492347813005
84.605,-0.515297176004603,0.301559209801237,0.803410840022987,-0.0873047970916289,-0.0334805234725529,-0.160898825293873,-1.00192136134204,-0.01575314136713,-0.223257934208126,-0.124604623862132,0.608682632446289,-0.263409336708712,-1.10515730422207,-0.0146249752701608,0.189465302160798,0.83333719382779,-0.169444897695566,-1.39682969044711,-0.975373548271029,0.185210472428716,0.157128950519698,-0.853852623055372,0.0444676891768819,0.1645344190818
84.61,-0.522746659659351,0.285851052931425,0.802781281181926,-0.103685337281735,-0.0110915705838437,-0.163745664097634,-1.00832778702218,-0.0336142095741982,-0.225137545504323,-0.186615974338865,0.611746766101171,-0.259355494850739,-1.10724719054134,-0.0349566433271179,0.123983937846395,0.813551806995736,-0.156049985576125,-1.38588222511099,-0.975211452984851,0.168413498196785,0.176960287332945,-0.973501090209386,0.0251370962792521,0.180323355968353
84.615,-0.538159567148175,0.265393382471867,0.801278659392349,-0.117190443008513,0.0104609813402967,-0.156205359302462,-1.00367343452034,-0.058923932231971,-0.243886067027933,-0.230000629449356,0.610457364218313,-0.257583763590217,-1.10149480327057,-0.0347308135170449,0.0885894147474396,0.812738297651011,-0.14251164768321,-1.37980196101158,-0.979902651063514,0.142260561046739,0.197315081160116,-1.10811687187368,-0.0273908311589646,0.188507838630861
84.62,-0.530509123661237,0.272290932128125,0.809573472912075,-0.0872730353558534,0.0286724546981944,-0.133379626047429,-1.00927959484379,-0.0654427131223034,-0.237823739780465,-0.213140735126171,0.594064522116941,-0.262672653468318,-1.08352882348964,-0.0214312688242791,0.056106908132722,0.857693528842046,-0.12032827238546,-1.39270298035551,-0.985399589878473,0.117129387456801,0.223468161358697,-1.23325994397448,-0.0977240644861449,0.183005175173389
84.625,-0.534190931833701,0.258417077666133,0.813135285127827,-0.107639002339496,0.0568235964073623,-0.119157262121941,-1.0125405989381,-0.0623904229894746,-0.22669382775677,-0.222306810485849,0.588194374249959,-0.262119192597643,-1.06665762172782,-0.0074255626502609,0.0311412207088293,0.905379232217916,-0.115709296723053,-1.39928011403976,-0.988027184394126,0.0961846406364098,0.246187854997894,-1.34673618819388,-0.201925387946576,0.16740891800617
84.63,-0.535162617101642,0.260765571668455,0.814706976930664,-0.0968952465217808,0.106265461943775,-0.0915611304865928,-1.00951037980192,-0.0566842602108209,-0.238543645989446,-0.281514482504226,0.600153553631264,-0.258063225805387,-1.04454076602161,-0.00326058473553437,-0.00549221437113155,0.949600068109396,-0.112395978306005,-1.38707271897781,-0.998203283487939,0.0878596896909609,0.256043608072014,-1.39814693844216,-0.274369631735672,0.150108931027607
84.635,-0.528914886839171,0.258238319728008,0.821238760531399,-0.100447965525667,0.131089194988418,-0.0766675311121767,-1.01708330348672,-0.0577687093657019,-0.230082111703196,-0.30074436860617,0.617762032254793,-0.258526482942647,-1.0314228835129,-0.0142570948534403,-0.0349668780548836,0.989962524406062,-0.110224922364001,-1.35135823029229,-1.01076960394339,0.0698963130605448,0.271297604350409,-1.4476463448724,-0.375097214206086,0.125973076781409
84.64,-0.52853310540982,0.266370280889269,0.819569915832158,-0.0833679768093853,0.160776052729192,-0.0653484817068266,-1.03517969206252,-0.0649439262944077,-0.223878276003966,-0.332956314320545,0.622669381949707,-0.254549713429538,-1.01113369481004,-0.0322144653731345,-0.0569228922968848,0.997324741485589,-0.106187793330352,-1.30422690711772,-1.00927591208605,0.0585621748950827,0.28575349026528,-1.45596766471863,-0.458975265951382,0.0922917724042337
84.645,-0.531384951949499,0.256102484844601,0.824959189780468,-0.0861247934185649,0.197847789594654,-0.0593959748997018,-1.02481270318424,-0.0781378382952184,-0.215063967010178,-0.331817598340427,0.629902284788664,-0.252641160167297,-0.973872054745765,-0.0609091914417985,-0.0846214873550298,0.956832803938319,-0.0839867641106057,-1.23447129640906,-1.00459444576967,0.0422703291389578,0.299815028305427,-1.43612167793107,-0.517008329958103,0.0618492659657572
84.65,-0.531709924767025,0.26318399768407,0.821156234457068,-0.0786039699785551,0.235072136676626,-0.0415084408083131,-1.02027094273162,-0.0658270567789027,-0.191909688444202,-0.303906499572389,0.644617813022696,-0.256171017885208,-0.962762037344807,-0.0706456609350954,-0.0935080736201857,0.887355237615561,-0.0707998524479601,-1.1955648113823,-0.996236067891179,0.0299813923377522,0.308971932592521,-1.41166729385494,-0.551323791008498,0.028007832946999
84.655,-0.529828129626264,0.27538616962931,0.816651930189152,-0.0729271120187738,0.279873746179496,-0.0245272640953916,-1.01409855725795,-0.0307271581966762,-0.173983589692168,-0.298409759986353,0.671196816232479,-0.262561738503027,-0.958088245954002,-0.0868448677291622,-0.0871464829071225,0.761140378198073,-0.0512342346891854,-1.15076194983707,-0.989582646651698,0.0239306339523369,0.317035408060851,-1.38386201717978,-0.573957585966677,-0.00954367788920137
84.66,-0.521650187392838,0.294318972868107,0.815998235859338,-0.066982885768969,0.30687629764517,-0.0197462149437805,-1.00251304515405,-0.00143070485720557,-0.167741890321876,-0.289757718543823,0.698454166799719,-0.271213779945557,-0.965764076769213,-0.089618301796389,-0.0778533328805961,0.623114470143266,-0.0388240692000831,-1.10655547893112,-0.976353020895819,0.0202170402988891,0.318582693188879,-1.36012532989759,-0.59422055801385,-0.0498216480592341
84.665,-0.518122230198746,0.299939417216109,0.817730288247989,-0.0732828952287352,0.341655196593706,-0.014444421403521,-0.996378593755461,0.0317030679287649,-0.147967560177604,-0.293687546054685,0.725620513166373,-0.278390283213539,-0.974535353686387,-0.0899178086705519,-0.0698589869417321,0.490645588498389,-0.0375232174992561,-1.05986016609514,-0.96612773644077,0.0118774267603681,0.317634745568282,-1.3378340923951,-0.62094530062282,-0.0791725027560439
84.67,-0.514739885605934,0.294378606854774,0.814551786582824,-0.0775623172406527,0.369727611771877,-0.024082656961265,-0.987808645712871,0.0377697847249088,-0.154625028172713,-0.378342793685091,0.758903082584128,-0.287175128195925,-0.999880043404427,-0.0648248768622468,-0.0615070111521924,0.341402505383967,-0.039941442218648,-0.997950853042985,-0.960123725946236,0.00520910018264883,0.316144364215887,-1.31506448553366,-0.651536532766357,-0.120346908108768
84.675,-0.528429136132348,0.293029760515723,0.809930608511234,-0.0841510231515938,0.402544103888962,-0.0256218822719468,-0.989528309640013,0.0318314822711176,-0.166442120790873,-0.439225189980184,0.78922890350127,-0.302724186750106,-1.02294806401405,-0.0430511546707735,-0.0410173576143847,0.243079992120139,-0.0492363161638975,-0.928435502182845,-0.952349659183787,-0.00491089922027916,0.314069842109093,-1.29294085510597,-0.675037711215733,-0.147278037898904
84.68,-0.528922383859838,0.286884654129215,0.810458802919988,-0.0862652723908838,0.437338801156049,-0.0319769263929458,-1.00073232452449,0.0327843025384919,-0.173574938242344,-0.482516987759624,0.816827313453323,-0.318037825556383,-1.03650290156949,-0.0156594281453039,-0.0269533442680919,0.130519187572391,-0.0672504581113861,-0.86721207080967,-0.95144858289518,-0.0132911481836233,0.315273485101734,-1.28331880553562,-0.69076399188838,-0.173299103689233
84.685,-0.519350359585557,0.307887398298704,0.813489400269578,-0.0742874266175801,0.479886540022556,-0.0286856278988219,-1.01775103159895,0.0265637857465398,-0.147223374938684,-0.504851125414737,0.859649418483953,-0.340094852635465,-1.06158753081922,0.0214853865270593,-7.24525164452607e-05,0.0662485082294212,-0.0877851651228641,-0.817715484501708,-0.952970346089785,-0.0217783881045607,0.314431138001235,-1.27901007181565,-0.686736136204119,-0.203481901640486
84.69,-0.514037958777872,0.309530282750834,0.81872627781977,-0.0871249621042118,0.509902945671748,-0.0540749882268032,-1.01677079443944,0.0197499314509253,-0.158656313816975,-0.511803434019046,0.880513795076602,-0.349754434020058,-1.07946121633714,0.0406300036889968,0.0174568511254036,0.00835431019015469,-0.092371516556176,-0.777216863813902,-0.95450275558043,-0.0311870855261006,0.312900182025442,-1.26466399001372,-0.678956491841159,-0.24734812848602
84.695,-0.520759654942804,0.299184983388086,0.820143045356174,-0.0977499438319388,0.547891262279952,-0.0641999083301664,-1.00736742777907,0.0114661061867744,-0.17847834431883,-0.47751691961042,0.911638788548704,-0.367321091626471,-1.0845061578947,0.0451207010188888,0.0342383407747766,-0.0345444145795238,-0.0851816143547103,-0.714101308591667,-0.950539781415572,-0.0381119834059028,0.311583489518967,-1.25486596405799,-0.65464661508945,-0.275789822417486
84.7,-0.53546639993085,0.291506249430145,0.817125917516161,-0.0892358349332567,0.586435448243376,-0.0720884860633114,-1.01256449193442,0.00390517765323517,-0.192818243839059,-0.406228587821582,0.944558718148932,-0.387931634260383,-1.08844376663999,0.038116588075284,0.0389809745836253,-0.0656410402885891,-0.0718888385483214,-0.630305088187652,-0.944763619475244,-0.0424693501123341,0.317012028171858,-1.24040932542628,-0.642132853026588,-0.293277743830646
84.705,-0.532012461879733,0.289967144752733,0.819250974349485,-0.0666810561586093,0.621248404149335,-0.0871812717945188,-1.01012261682057,-0.00772495307811899,-0.198137557325385,-0.367106386958745,0.975238560122407,-0.402210762935472,-1.08602514313353,0.0230282342651425,0.0421130459729561,-0.0792187589628169,-0.0570177926552061,-0.557272299228258,-0.943118870862143,-0.0474735446329239,0.317837451837479,-1.21801001166224,-0.611996824730344,-0.315152173915982
84.71,-0.540973089051991,0.285515128756234,0.823509148012689,-0.0792591442905408,0.665479458512654,-0.0885141053130449,-1.02601808405594,-0.0230913603656374,-0.20638315794167,-0.329288351492624,1.00596281847192,-0.418987112664547,-1.07276930744364,0.00141482848064967,0.0446878453830339,-0.0720864261785961,-0.0374039091687521,-0.472989225662109,-0.944138839159387,-0.0500841093943682,0.326221469220147,-1.20332309053538,-0.581767993358846,-0.331215308823663
84.715,-0.529909160177194,0.292491340397086,0.828553345405409,-0.0705919489264488,0.702685650010398,-0.102100069105811,-1.02510012973738,-0.02218599772008,-0.20397225231171,-0.281293888059149,1.03102304826965,-0.431103361396195,-1.05423419163661,-0.0285399521931099,0.0503219931668287,-0.0603078268825816,-0.00455528893644975,-0.395699953339362,-0.944205318587874,-0.0530198401225548,0.325692349787192,-1.18614162736971,-0.534723337815595,-0.342202789433507
84.72,-0.529387452624192,0.286332018378962,0.825787766007867,-0.0705919489264488,0.749695701835221,-0.113864523165142,-1.02047298608381,-0.0201124232003206,-0.208611798884792,-0.21530257373546,1.07172233346706,-0.449207480525184,-1.0413478600579,-0.0478520870994345,0.0513127056125591,-0.0596540336605354,0.0321709885764296,-0.332837159386002,-0.945488744852838,-0.0563251416925122,0.332127843281662,-1.17753608577611,-0.48850682588572,-0.345617961006458
84.725,-0.536546214021151,0.289037461958065,0.8147298502369,-0.0661142116162692,0.790743733866642,-0.122986899032321,-1.00902554453466,-0.0182778601750225,-0.213285477482705,-0.183151104253668,1.09657048920719,-0.469204613819478,-1.02305625496448,-0.069136391904846,0.0644456791459969,-0.0609124414622784,0.0780763365862399,-0.252934771954828,-0.932549620427687,-0.0675999867710699,0.330905162208584,-1.16080141486004,-0.445318149926771,-0.338845185798529
84.73,-0.540967251946462,0.287970292903955,0.811204761731847,-0.0740154517366181,0.837639709572281,-0.133302644410913,-0.999032320422399,-0.0240066499753323,-0.240170430855468,-0.145607403633162,1.12148495704798,-0.491902485913848,-1.00202043692858,-0.0897872563046672,0.0528215882276766,-0.0538164497041762,0.119009123071091,-0.204626481426753,-0.935825406401353,-0.0651456297077316,0.338355679994003,-1.12833062538713,-0.404437780140907,-0.32855783135821
84.735,-0.558493363775005,0.278615520020954,0.815106184701752,-0.068538122618774,0.870673602501964,-0.145113183568757,-1.00070811200498,-0.0295664498487957,-0.263261863046615,-0.120283180622755,1.14306491861175,-0.504015713424782,-0.990179784739261,-0.09190440785274,0.0453491890959782,-0.0368924956533359,0.153419122621519,-0.174898750496557,-0.937148087084745,-0.0686931966242444,0.340522588264186,-1.09705055735111,-0.354610544011397,-0.323503008035734
84.74,-0.544390417582019,0.267510143050761,0.820076987469968,-0.0659547457081174,0.912163354660497,-0.15027993739007,-1.00221255929073,-0.0415244467929931,-0.285729800104438,-0.104455862576723,1.16290262095397,-0.52044654887728,-0.984965655603135,-0.0804006067791133,0.0385429578208075,-0.00811925154440218,0.182893296602304,-0.14990936281155,-0.92609885437196,-0.0730832203273893,0.341132306920199,-1.06266437852506,-0.30362757346997,-0.313715799803309
84.745,-0.548532143056727,0.261429525899229,0.821090873927276,-0.0557958597363601,0.955528809889658,-0.150779083371162,-1.00655670372935,-0.0570762006175912,-0.286450619336531,-0.0862539401019949,1.18179409110202,-0.541099397413996,-0.984472040948639,-0.0663200304776032,0.0322778063524393,0.0245856865045951,0.205580326332494,-0.126296197282167,-0.919487307154377,-0.0725181621177895,0.345281752745527,-1.02277594965318,-0.263954842579115,-0.30453680331322
84.75,-0.574545824379296,0.263438233225332,0.802146844983368,-0.0477396337412028,0.996949213902434,-0.150779083371162,-1.01314628949604,-0.0837457889557635,-0.303445990820929,-0.0777329907799241,1.19235115146066,-0.55451535516315,-0.999656819921779,-0.0368844906032171,0.0405999830681977,0.102462095177133,0.215364050117449,-0.115289811047598,-0.910764621643695,-0.0675602481274905,0.347195205157718,-0.957025060710187,-0.220545080319595,-0.29783341785885
84.755,-0.583354295111606,0.260946338621219,0.798368100494598,-0.0252268017522067,1.0418807674172,-0.148097757111554,-1.00612561443762,-0.0975278852790205,-0.319810916895983,-0.00761226467333616,1.21291984708512,-0.575251817742227,-1.01007145280531,-0.0261564990879183,0.0608679816730606,0.149637696928378,0.221451222617735,-0.115853771041569,-0.9509842783405,0.234550934381677,0.417639595485963,-0.876815867765657,-0.144249103237457,-0.036552918926672
84.76,-0.590720818262216,0.25617523293728,0.796029367963203,-0.00450198518339738,1.08209329872619,-0.142018851194202,-1.00485256521678,-0.0992172270668976,-0.330650282381731,0.0668810860330722,1.22219699871209,-0.581531064342045,-1.03452876236027,-0.00272010023688487,0.0959404160855733,0.183148153135009,0.217627268992475,-0.134555112791457,-0.887617040390646,-0.0825056748645395,0.28052243561368,-0.845687247249011,-0.0801440230876471,0.151239159725807
84.765,-0.597404816912184,0.249067218492128,0.794760849772514,0.0363417896142348,1.13587683552492,-0.150197397249845,-1.00376970569216,-0.0915533295198639,-0.348971201349434,0.140487184409941,1.23851136995388,-0.59242400430453,-0.967670910572391,-0.0120677069936992,0.0942232205923113,0.188313245773315,0.227535525055467,-0.164056185010442,-1.05560128504912,0.0848592938380723,0.278533076859424,-0.765215717240031,-0.0442842766588688,-0.614901914982101
84.77,-0.601213593348052,0.251188123356769,0.796546794675879,0.0595513836012397,1.19148417421269,-0.139783844351768,-1.01208268790079,-0.106183553904487,-0.349401610000407,0.245828970542848,1.26554008503571,-0.602384216080592,-0.991707913057029,-0.0131582199225706,0.103146096962875,0.16370428369169,0.226721342251443,-0.1506967255182,-1.00873481730632,-0.0277660343588725,0.46096969019032,-0.532871763509168,0.140328809531832,-0.691421829153168
84.775,-0.594369922209137,0.241564286322357,0.797512156563256,0.112316703924545,1.24630168000358,-0.134311391394569,-1.02199027412234,-0.117615742905321,-0.331509098132687,0.331547799731051,1.28936309733107,-0.606137331324671,-1.00823238794354,0.0222933748320038,0.11242696829363,0.106304617082998,0.220064753514422,-0.123812329257333,-0.877521282854374,-0.0665363594787884,0.379377896224938,-0.455980826793408,0.112746367989426,-0.34916178101488
84.78,-0.590064038591726,0.240290267515197,0.781414592094678,0.17656123077713,1.30637414139039,-0.12518942677599,-1.0306558864998,-0.126831844941633,-0.321161366913308,0.433383306260952,1.30478426459002,-0.615926953500381,-1.01769700736828,0.0499941689889681,0.133664227434662,0.0718801192872999,0.257221714603057,-0.104886346526312,-0.92265200880458,-0.00586347314358197,0.419993916508701,-0.531515706099666,0.0414618556148349,-0.261699340931081
84.785,-0.596635186165087,0.236891315380696,0.816950668910456,0.229426080684221,1.3803668301892,-0.127157393433784,-1.04790801990758,-0.146524213112154,-0.310385315554036,0.51945504011918,1.33660618283313,-0.628212286624394,-0.996253489562556,0.0750838490235257,0.134335206195077,0.00398789299323089,0.277641033490954,-0.107937333705501,-0.928943791745921,-0.0736993424359031,0.371415833713738,-0.61827675914524,-0.0100212238490884,-0.362651694156917
84.79,-0.579227153880291,0.224579910740401,0.850827751425536,0.317407407772905,1.49093497602652,-0.115746706334037,-1.09510870966935,-0.174938766978528,-0.306610586576575,0.635592760764622,1.37079683503065,-0.654920617175251,-1.00458742141187,0.113937232196594,0.121145112685678,0.0418730108702919,0.269916035031838,-0.102804725974502,-0.952684523695159,-0.018417400643713,0.375912445643918,-0.675145427450716,-0.0439948054939151,-0.378739872738575
84.795,-0.587036624468881,0.21992757469863,0.883834547800832,0.391399152385933,1.60520319282867,-0.0975577157196494,-1.15355520612931,-0.177492001110574,-0.298979362512849,0.767593045007741,1.41130766455955,-0.703466555693588,-1.01654816789795,0.15563760425779,0.121648429935349,0.0435641960125719,0.27646677526782,-0.0754773133066744,-0.936301901416385,-0.0196107458399609,0.366379692186871,-0.736648795012898,-0.0152837500634516,-0.371859351059619
84.8,-0.594041300809462,0.243690650856031,0.910880489142243,0.479737079959703,1.76804820286377,-0.0699097340795429,-1.22976120840282,-0.165020457721416,-0.283699084711045,0.954910517069135,1.44864154933159,-0.763818424016186,-1.05685884133471,0.201732104537954,0.144186863405777,0.0751733085874161,0.331482687283774,0.00205051821606163,-0.978485394390448,0.00222676284398227,0.3778045651099,-0.800358002026065,-0.0224210293683578,-0.304464738825322
84.805,-0.591834977465697,0.288173959257543,0.926811306765094,0.554374827232026,1.94290610121912,-0.0324135784883206,-1.3231455907533,-0.141518326452425,-0.242937951651865,1.14479695040618,1.49001175836341,-0.843451497470128,-1.11452017485175,0.233562602264176,0.179840002261649,0.117802003030179,0.431039809362325,0.132276827208076,-1.01672348692003,-0.0590679367451718,0.382613671572947,-0.863558851694437,-0.0443509774626527,-0.326733540500291
84.81,-0.581640168712917,0.35750268429512,0.919608101691919,0.612700708534621,2.13555308650146,-0.0419112816225099,-1.41894365518868,-0.0851902003653677,-0.184275141674939,1.33097761359463,1.54641790657749,-0.912616775293363,-1.20124732935697,0.231242153113503,0.229305292558315,0.190003528408367,0.563497027338096,0.297421862562503,-1.06640942151228,-0.0531419623916777,0.397201610862411,-0.820008208401181,-0.0130393049179413,-0.338139592736772
84.815,-0.572346666875295,0.416804433352634,0.911225476395588,0.634360593220799,2.36429766928243,-0.0953288812468222,-1.4948995300351,-0.0349088433402448,-0.114510956705051,1.51351390223169,1.60905639671677,-0.981495453070715,-1.30905844889359,0.18855263018601,0.283840829730046,0.233122023747797,0.638564291132133,0.416848754582843,-1.15931852515126,-0.0292860901157196,0.412353753366213,-0.595253192360588,0.0503057980521939,-0.317751514524886
84.82,-0.55265163607568,0.451882713661454,0.912173261870551,0.648960218915684,2.54637646827176,-0.171665182147451,-1.52234624695987,-0.00296837800351442,-0.0592878441847657,1.58256729252675,1.67207258381271,-1.02039618251125,-1.38893584967319,0.109213226393122,0.318067008016331,0.243310260109789,0.72176939848919,0.530595489394125,-1.25204873802753,0.00465558892508606,0.411305193582015,-0.301045815437332,0.0809031601113866,-0.294016202146693
84.825,-0.540106383499144,0.478069540438523,0.92938375596715,0.636612519221049,2.77660129033082,-0.288350879941493,-1.51775107389652,0.0224326366669876,-0.0463338959801145,1.53486640751798,1.73574131188617,-1.05200775015365,-1.4261635103848,0.0123485523503795,0.325050498933909,0.255362318883945,0.827701619258126,0.678687197440143,-1.31939292428667,0.0298005934549982,0.392853706950917,-0.00973902807919761,0.0584965121194659,-0.246921636952772
84.83,-0.559814450379652,0.47280088435957,0.9080951148938,0.634569053793755,2.97568898781064,-0.393748179875194,-1.50719459688208,0.0166714904613749,-0.0729363258390148,1.44745713859229,1.7714432901959,-1.08075287606534,-1.41493742321251,-0.0628892651868309,0.258804770648463,0.369580878624847,0.896704588589616,0.80152580763786,-1.3570791882692,0.0772907102485595,0.344383080529772,0.327671959192388,0.0182841695529594,-0.18848108978279
84.835,-0.597457382841141,0.4911233097144,0.889640269130204,0.623670684297411,3.21113074537363,-0.521040498368004,-1.49502169562504,-0.0191499827619781,-0.098589724539025,1.34728002483306,1.80735272403869,-1.1042552001031,-1.36841783438673,-0.0717856939523723,0.166402417871448,0.570593364984787,0.962091511119325,0.898914731120463,-1.36244564165636,0.105936164751978,0.272961561115472,0.694607176214155,-0.0300454144983928,-0.108996091270001
84.84,-0.622081216608634,0.480096388954167,0.894134559819584,0.594780780298074,3.41404051933442,-0.399859173113759,-1.49968136320864,-0.0657327208662302,-0.0737984117487699,1.23751643448855,1.85644195100806,-1.11814490694906,-1.31208518355976,-0.0125759628617894,0.0345648790906635,0.865571206067231,1.02127895983505,0.950377569979262,-1.33209326780383,0.120920373897297,0.198855916308292,0.946233435884087,-0.0764449998375801,-0.0318411517299058
84.845,-0.619576553421248,0.459965815399321,0.921458868174986,0.572809764788351,3.69423435086833,-0.741575634661522,-1.50704558303678,-0.106703146225482,-0.0528294820690915,1.14070229411085,1.90391062682282,-1.14290200456613,-1.27229062217443,0.0837094206302484,-0.0834359997812433,1.20855326996188,1.06843012731232,0.973367261097246,-1.30008778547929,0.088257921606894,0.127269449794859,0.92084344717383,-0.119379072340197,0.0300207223908567
84.85,-0.605949055429753,0.45424467895585,0.932878324167741,0.591736730147527,3.95482168773244,-0.813959462593733,-1.54406529301387,-0.169152680214271,-0.0274165691005262,1.08778105510733,1.95640788651584,-1.17662320817422,-1.26453312639906,0.185482970370418,-0.162783472691414,1.5972861155603,1.1190044054079,0.994269907255381,-1.27962354807308,0.0492846690344405,0.0701819097610085,0.666108769418021,-0.0804750511788361,0.0764314606720091
84.855,-0.597163624915771,0.451213694355504,0.93087890210625,0.6170008548226,4.25937154315361,-0.891183709206554,-1.57113074627361,-0.243766577793899,-0.00790682149565576,1.10793436813247,2.00257853030654,-1.21193977097268,-1.27184064744657,0.257121397844315,-0.247003378209465,1.98092171499291,1.19179892319289,1.02711701281634,-1.23155329356308,0.0127441278607718,0.00535334158274569,0.308026091541869,0.0381428936281012,0.143241040785095
84.86,-0.611788859557784,0.448603536498883,0.917165540797555,0.635505907330313,4.51121672551404,-0.968588663950189,-1.57620519374311,-0.274565735108764,0.0125846158305774,1.19142659879319,2.01737320496358,-1.23510804060441,-1.27597549723348,0.254498878294005,-0.287369355718689,2.15382375564285,1.26517421646141,1.04460627271378,-1.1613693387505,-0.0172559124550653,-0.0571374517863646,-0.0574798073723861,0.23018165100945,0.222593098053875
84.865,-0.627974388925403,0.456695609705046,0.895563480056684,0.638564055537907,4.86537351268062,-1.06200865682412,-1.56193679905508,-0.276285063720003,0.0446543965628217,1.34996095216503,2.07592050034664,-1.27591897160459,-1.26930373327374,0.20111740545269,-0.29938323893921,2.1966818618394,1.3499262258452,1.03439761582912,-1.07434807236851,-0.0444390600753882,-0.111611466958973,-0.464003301804192,0.50837549795892,0.324126699251557
84.87,-0.636954002485635,0.472461765544111,0.889508160938371,0.647764444351196,5.12500562795351,-1.13673644224695,-1.53704771498518,-0.24573734710709,0.0834874731049014,1.47619185473194,2.11427029828405,-1.31102238792724,-1.24676103231468,0.131889472907893,-0.317920786469544,2.13214139406187,1.40740679167666,0.998796639940318,-1.00473551367261,-0.0429183161011143,-0.129438772025939,-0.727730005072914,0.688832679210807,0.405657691338241
84.875,-0.646966929425459,0.484564424245797,0.861327034271375,0.61222989853809,5.43781049185654,-1.24641480808325,-1.51530303874771,-0.205967694351288,0.115597111352633,1.59050275658447,2.13769137371535,-1.34933668163631,-1.23272547899984,0.104105375173844,-0.328186195781277,1.94900041823284,1.46864938617549,0.986059557005784,-0.93739505947988,-0.0417352158307109,-0.137838850333949,-0.927853622040204,0.786157390997323,0.479705274883705
84.88,-0.649275839148888,0.492549435614186,0.887869664631773,0.560846975804554,5.67729427754726,-1.39857666560073,-1.47667834587352,-0.151682004689841,0.128771291725729,1.6666032492167,2.14942248573067,-1.38814626269383,-1.22229176173255,0.0864937327338205,-0.318559176225749,1.65766055508907,1.53762505540242,1.00840568081728,-0.892046119705855,-0.0377316547147705,-0.132261989388645,-1.00201870397764,0.7776726357243,0.511146746553513
84.885,-0.55419286474853,0.456808095221702,0.861715783842327,0.440745878317888,5.99180317837679,-1.55006961555039,-1.44629069203771,-0.083270348599774,0.126288234695458,1.74401739312844,2.09142985692221,-1.4177634924518,-1.20681253056781,0.114037707289704,-0.331362183181028,1.4027179501095,1.59281415407995,1.08077172826637,-0.843954866046746,-0.030556431968641,-0.121754534176605,-1.0183828603566,0.714719538143785,0.509495966018579
84.89,-0.578282805932295,0.477230470110092,0.822205980046072,0.411271231959466,6.23632314791541,-1.63340686817422,-1.40571696381257,-0.0279747114964989,0.110139218365003,1.80825578293664,2.00937916448791,-1.4606871671587,-1.19916884450351,0.134702252663046,-0.319078970463852,1.14644167924324,1.6488931296858,1.21164003383107,-0.789586027241052,-0.0206468440599157,-0.0939268239629791,-0.956300834956645,0.617129059543035,0.452373040596722
84.895,-0.648948861486804,0.574924257952632,0.773715730764163,0.421812553380703,6.46664105291963,-1.76359281551509,-1.34022181738458,0.039730067763896,0.094739934101904,1.99757308363117,1.85614175664434,-1.51168359338199,-1.19372719868915,0.152477009193198,-0.27884477611517,0.787143991561064,1.68762536917144,1.39379127928043,-0.750655564800642,-0.00662818595673699,-0.0462989605205718,-0.865883132799461,0.548409958605177,0.373833178897804
84.9,-0.690868018547299,0.66732939194643,0.724260901112768,0.364017028981152,6.64273861776904,-1.96060951417676,-1.27942905021431,0.11346418929616,0.110457198578559,2.30179731558179,1.7026772546154,-1.54026366909269,-1.18254433417656,0.164006554782316,-0.238827049056044,0.495302467473308,1.6761348492284,1.53169941533215,-0.725824934141373,-0.00400549913675506,0.00970621816083441,-0.738745802582425,0.538803341795205,0.259419429308489
84.905,-0.760956183357258,0.723049117010767,0.684934369572107,0.143549377502864,6.79033860538349,-2.1226599428039,-1.19738789599869,0.192001009320719,0.0850096873920328,2.54729838888457,1.50498497359663,-1.54379159380303,-1.17237547607718,0.160619289208907,-0.183209126729824,0.110698151264183,1.60913876449339,1.69916482634369,-0.723539005492084,-0.0107961936883889,0.0470468548356626,-0.652844393200224,0.570540294318885,0.171647994520048
84.91,-0.885089870698239,0.785272757339712,0.720003160868408,-0.0311949036718094,6.88974916294072,-2.18719902920922,-1.05997639578244,0.221381075986818,-0.0909040353367023,2.4147274000595,1.426863006162,-1.5459653527513,-1.15175644883151,0.143799713452516,-0.123906211668078,-0.18169623577291,1.52417060798546,1.7928302827607,-0.730471928343462,-0.0178092592448759,0.0874880895413734,-0.549073275423749,0.677870779852753,0.0732233038525532
84.915,-0.996260770065286,0.811059654731035,0.81947707624316,-0.0758729310893761,6.89264635212425,-2.15250555341038,-0.9189307674774,0.221151223046498,-0.265748102829559,2.04939531388964,1.44468224031931,-1.56582804822482,-1.14391044682822,0.121695892858054,-0.0747839857489256,-0.500803202803016,1.41419748693875,1.83887375897158,-0.736930524113641,-0.018069108356909,0.102941199653279,-0.429950820585466,0.767854499738605,0.00451694758716945
84.92,-1.06794871434652,0.68881119218695,0.934070304150371,0.105611436929825,6.75326700258503,-1.97842738927856,-0.823537213622753,0.225129954564065,-0.420909674637703,1.29580557501253,1.46903609442436,-1.57183634823645,-1.14527986637368,0.0738551668803069,-0.0190188026613744,-0.843119510402529,1.26767903219786,1.87444052895856,-0.760211338852031,-0.0212776498528776,0.095903189911573,-0.286818599146806,0.820666777281579,-0.0481495860404453
84.925,-1.18678039024663,0.599083033119309,1.23999115776996,0.189593267797728,6.59572220823301,-1.73507768067693,-0.769174601315238,0.211358895296987,-0.470197836413038,0.785553177864239,1.3969974399311,-1.57697745567022,-1.14672316174779,0.021797921308186,0.0479307886066399,-1.09017883085805,1.10823822010555,1.87500736151564,-0.789313901648751,-0.0275243799406475,0.0773687774567226,-0.156012228866307,0.832183211074713,-0.0835795968035851
84.93,-1.27376125055828,0.722413909224758,1.26946270868649,0.0750376123461222,5.87857630510877,-1.3651986955138,-0.687440055495378,0.139899126517557,-0.552215117810355,0.0787250981853401,1.25172155485377,-1.58657920472467,-1.17047269022504,-0.0342473209732214,0.109270193817388,-1.24053592268743,0.944530992694406,1.85605114259814,-0.837957439704145,-0.0433060879991231,0.0747761718188567,-0.0451170796263635,0.840184114209881,-0.0966697919006699
84.935,-1.52963125799415,1.09787130550399,1.85513340869345,-0.69402591997625,4.40055176129604,-0.797622842755751,-0.587552913263829,0.0162709728883529,-0.751560429363889,-0.758099075965182,1.11319355710731,-1.62104250802402,-1.19212586325942,-0.110101368260866,0.186686824772268,-1.33918792332099,0.74471445065541,1.81883719494466,-0.89665492369868,-0.0633576257233806,0.0642391261951106,0.0521416479893813,0.81668247635728,-0.0989927165265357
84.94,-1.8438297871782,1.28016247453813,2.29461034673331,-1.2882302964177,2.75162798304126,-0.160813096648383,-0.575554959974468,0.0291955470433399,-0.835187118637142,-1.24983095085558,0.9375790033375,-1.68363088326951,-1.21311825166462,-0.172230545709691,0.268782390946275,-1.36970384321264,0.593045373842946,1.76135142869155,-0.948384885434611,-0.0830386422000577,0.0687511528838217,0.0852912757311095,0.795762397380675,-0.0851694088916451
84.945,-1.55780761735955,1.32283034967794,2.09210149148592,-1.06656940397477,0.77710168394927,0.196609921455688,-0.640938864046869,0.106510146932667,-0.689393842642462,-1.55511233549599,0.672436849541222,-1.68369590334943,-1.22816802995646,-0.239674153123941,0.356601350796905,-1.35698204911335,0.460752147492027,1.70616711630638,-1.01837443230481,-0.106265516523449,0.0687520333593897,0.0625497448444871,0.74624061822899,-0.0702889138460349
84.95,-0.80317452096582,1.09225818529155,1.78673158381966,-1.45832335160308,-0.474849570241027,0.178043799300507,-0.801085656115536,0.259902358104377,-0.374293147018344,-1.58980747679214,0.364481607777206,-1.6175216038727,-1.23897268307162,-0.33714656146041,0.469991948011667,-1.1943408109132,0.287260437246041,1.60634043082177,-1.06409801965437,-0.113086374175969,0.0688245076242717,0.00916851358716958,0.67227494068619,-0.0544979815427147
84.955,-0.253436500933313,0.883933330525392,1.32415892999435,-1.89746956490353,-1.119648924113,0.186988836195446,-0.892293838752616,0.291246926310818,-0.238336705640607,-1.73196467581097,0.152840717685584,-1.5482916422459,-1.24420641131944,-0.408746588596974,0.559267095132372,-0.963662240676344,0.154285557377416,1.48512159151878,-1.09384248071467,-0.124792673231784,0.0692182025385068,-0.0703390523774626,0.596188777681419,-0.0386435816136618
84.96,-0.0572536015655583,0.677135430796477,0.977681663980547,-2.41542152266524,-1.25686569478752,0.249964113670337,-0.900450620864263,0.199312226357686,-0.0814915124642517,-1.80143678800372,-0.0956882423310476,-1.45796853294656,-1.28378578529052,-0.48205320807975,0.637099072912994,-0.550068701574115,-0.00418430128620937,1.36879578372265,-1.11484600731256,-0.1254506237765,0.076146134898932,-0.173740108123269,0.502140342584061,-0.0117684513436911
84.965,0.071869635128712,0.334153921974053,0.83069624750932,-2.88611821370711,-1.14846193050478,0.220027448416245,-0.871251883543398,0.0952934098027903,0.0971006317323128,-1.82453030850139,-0.302970800001487,-1.36161004981561,-1.31146305918618,-0.540721268111103,0.688167137893685,-0.0782844586527161,-0.122298513537584,1.31005252722569,-1.13780200339063,-0.119217679449295,0.0681102694718608,-0.333134955496665,0.397002319104299,0.00617775863887037
84.97,0.141315318469921,0.0713094316367784,0.767838957208986,-2.72548086718359,-1.03343100952667,-0.00792571043189166,-0.816445785938165,-0.0113620705034274,0.144126441596494,-1.98527159537949,-0.424677669465319,-1.27271704345247,-1.3045754080586,-0.583726922430393,0.721524554317011,0.388286233772929,-0.145823859117864,1.28190209760511,-1.14786429323846,-0.113718135774545,0.0476183517304193,-0.509173766882825,0.321745894415943,0.0241298933052564
84.975,0.0708757998704093,0.0391716411889926,0.759736520164217,-2.28220754451838,-1.03747070849347,-0.231195570780114,-0.737440531988765,-0.12609475589452,0.0757699995360014,-1.97851069639137,-0.530056382048963,-1.21296734758139,-1.28019708379511,-0.603875370594561,0.722615452454459,0.96596050907587,-0.110432651055813,1.26400685310364,-1.16349497289431,-0.102501704426679,0.0280752664228456,-0.686806254092363,0.271815651460233,0.0355951941046188
84.98,-0.0155251266071297,0.134163353035544,0.760873985099761,-1.90787404703246,-1.08892460241416,-0.385282864773433,-0.654453141792025,-0.160638909708226,-0.0153086684242717,-1.6733438104213,-0.648110576280261,-1.21988800856818,-1.23788810071786,-0.606742783289551,0.713483779731058,1.5140018570997,-0.0489923223071902,1.27579002951416,-1.1732177073801,-0.0897012235726624,0.0127580414836631,-0.84445807361662,0.249258418687409,0.0528916585657419
84.985,-0.0762702523213546,0.336855957173827,0.789305355103216,-1.73233697657108,-1.15494234176521,-0.459617647357822,-0.613140709930455,-0.139597579454163,-0.0907865212865352,-1.29024581842701,-0.774195551150948,-1.23173078386811,-1.18601434437233,-0.582356463972602,0.705797787535378,1.94029089179758,0.00429728476664942,1.29587614475792,-1.16937325029406,-0.0811772394324969,-0.00150772240886319,-0.980876668255536,0.242344348292119,0.0632590972270913
84.99,-0.187013578948284,0.56135708187849,0.794074101705883,-1.7312210584421,-1.2911169104558,-0.424762504483226,-0.601229835374548,-0.103580310804924,-0.152608633196168,-0.954047166334412,-0.950600181686316,-1.20906403713771,-1.12275859438325,-0.54405927619441,0.683734338924055,2.22376723826939,0.0663254510575916,1.3155564734385,-1.15506305379307,-0.073234738618952,0.00264631609716167,-1.08198677797678,0.239463151215943,0.073096080676979
84.995,-0.260174164645269,0.687255718490488,0.786491844933888,-1.84227444661254,-1.47033934174668,-0.346975968111484,-0.611101362346186,-0.0571859995717136,-0.182919124088153,-0.899574105576153,-1.09308491678049,-1.16036575341187,-1.05311827661017,-0.488274345167574,0.638217250126358,2.46577689944444,0.11863699703837,1.31473960247124,-1.14679366472754,-0.0645355183084819,-0.00268554262008027,-1.15553923146653,0.238941255820659,0.0827255410062504
85,-0.292557502875421,0.741374007254221,0.761300565657211,-2.08207905413411,-1.65298247583335,-0.223992735467199,-0.616310835362273,-0.0190060317972729,-0.187646819519071,-1.02426883382826,-1.27009000595355,-1.08717482337798,-0.997266518647944,-0.44238429951048,0.601045909044917,2.58010566796693,0.148301511361979,1.31196769419032,-1.1288141024057,-0.0709669129347576,-0.012890732060428,-1.20346118044314,0.243694126225127,0.0990150300518107
85.005,-0.286637104940451,0.727542960272033,0.721118514808249,-2.27567563794566,-1.81852491207992,-0.0926897775098756,-0.622978732428556,-0.0112190894215027,-0.167547204430616,-1.14033454673281,-1.4279969937293,-1.01814781120732,-0.936676136327926,-0.39333429869969,0.552178401086458,2.63903146852845,0.159169457690724,1.31043127741873,-1.11203493395505,-0.076800113715801,-0.0169214174628908,-1.2200308674964,0.253161572331083,0.115634518523095
85.01,-0.283238661452646,0.688937991260639,0.675746303940946,-2.4128688234323,-1.97420101305317,0.0967505456729458,-0.61828320333466,-0.0209327203206409,-0.173882590452897,-1.23133598904624,-1.56106647167808,-0.966281589282471,-0.874711178114999,-0.327191052796107,0.468228262677568,2.66438988750709,0.176267522877052,1.28602053415782,-1.08945115343728,-0.088058656107367,-0.0113221218975593,-1.19703621050603,0.261758808848288,0.151523043095206
85.015,-0.20403760735838,0.644838345994802,0.621061712750954,-2.45571842494788,-2.07436521153987,0.245934565422382,-0.60923299945593,-0.0128867993324881,-0.176248935064658,-1.19957071480966,-1.71607948671601,-0.925187667933438,-0.845423039873215,-0.278466815502136,0.391180784555425,2.64555916591195,0.184092367123309,1.26718295897576,-1.07613595305478,-0.103334056280567,-0.00410039233022252,-1.14568436076561,0.260386752047581,0.1772844256566
85.02,-0.172095146721472,0.620758765345553,0.563150362239176,-2.45414878648485,-2.15912415587992,0.41378528063421,-0.609069918377611,0.0216276138018537,-0.168309055772257,-1.15630347820863,-1.86123452406482,-0.898637883742703,-0.815598876435958,-0.22473979975903,0.312172442303726,2.59416632878782,0.193937413434817,1.24916727376189,-1.06475223831151,-0.112696480374713,0.00331169250555886,-1.09112844275372,0.250091095508685,0.198700615810622
85.025,-0.162237286337363,0.625363524609869,0.529680285022189,-2.43397373911973,-2.18887181395197,0.56170904300086,-0.604483954180886,0.0424921809758506,-0.166822669499505,-1.09399360166656,-1.99617333616297,-0.860285786538506,-0.809301103494883,-0.178462563371009,0.245957128556397,2.51806285709179,0.189825142331856,1.23366821110353,-1.05445245898547,-0.121827761231808,0.0161321810566489,-1.02670005651461,0.241348499274617,0.215519172556492
85.03,-0.199567057919464,0.657101089827865,0.509953271978965,-2.41905161999394,-2.20506865271084,0.708425550914182,-0.620333313355428,0.0746374367601403,-0.179203318408945,-1.10298032636913,-2.17503499988551,-0.814614549044763,-0.809378209877105,-0.137719926408858,0.185810964559047,2.4218511587648,0.1769928292313,1.2171671685758,-1.0454452009802,-0.122273511821267,0.0242680021010153,-0.983502923904286,0.246254172790452,0.221412418223004
85.035,-0.248293384077331,0.703027373939498,0.508459246350029,-2.43013212808407,-2.23119894331545,0.880575403477848,-0.632319114993277,0.0986252344275402,-0.21780913597435,-1.15706844884065,-2.31012379274453,-0.770601164355409,-0.829884558193867,-0.0910046955708189,0.128185828139964,2.31408403271139,0.154292188012527,1.18949107238632,-1.04180509633354,-0.129683481562333,0.0274444816174846,-0.93959639578643,0.254451937357992,0.220995285232454
85.04,-0.281881496429831,0.741831661315438,0.517259757794104,-2.46647690847358,-2.28376515929843,1.01294761030921,-0.639778635653112,0.118802517000528,-0.257526884700641,-1.25485998708586,-2.46467660738773,-0.724763753897263,-0.862749159895744,-0.0603654544513472,0.0939439822377543,2.23078096711062,0.117845581717432,1.17388846818247,-1.03118341150945,-0.126063642961016,0.0372686527430552,-0.920048920406458,0.259573312877632,0.213277033041088
85.045,-0.323477285268511,0.774972031295015,0.526737157278201,-2.53389320382058,-2.35767624312394,1.18058700259931,-0.638704622343209,0.14521154510375,-0.264167468258568,-1.36528950101485,-2.6075721571875,-0.691647648709735,-0.892182492390147,-0.032466482870454,0.0737734190577016,2.14225436309182,0.0706475377854272,1.17226305201457,-1.01927940067856,-0.124073988565816,0.0489297701148786,-0.9172003865242,0.271311395491318,0.201656288214768
85.05,-0.350268848112352,0.783358782678646,0.525712544232981,-2.58943241241654,-2.42808833447385,1.30933967652555,-0.638522171388849,0.157836043948536,-0.281051378374398,-1.4857803183764,-2.71310772612308,-0.672490142590855,-0.917233191318809,-0.0178808864352896,0.0616309578442888,2.1024135021436,0.0324442032465123,1.16273018294906,-0.995885571398022,-0.12114787568606,0.066923261022858,-0.93209746926855,0.277177916067422,0.194186562184911
85.055,-0.365228443612913,0.795121946024162,0.506870107790478,-2.61572517877064,-2.51054769616566,1.45948598315527,-0.645477126317242,0.166798297518351,-0.29295936003394,-1.61751720011649,-2.82987170657145,-0.661564940083762,-0.928610820824166,-0.0175252635701962,0.0525059260681352,2.1070079769284,-0.0174509163249581,1.13872858770565,-0.978416440914549,-0.11679191221155,0.0854493064219796,-0.939425554194203,0.28716683793303,0.188163069644131
85.06,-0.382234877815685,0.812647474792253,0.483316690052479,-2.62583283508701,-2.58337349289031,1.60555555807869,-0.661990698262381,0.164544458798615,-0.30173095599793,-1.77409641238171,-2.97686445772699,-0.643927495562576,-0.92575704042211,-0.0373133560742725,0.0387701897081696,2.1433336767661,-0.0683746513295952,1.07877074790956,-0.95649755014725,-0.111534311911572,0.104483496099104,-0.942857412498335,0.315623390414904,0.188103563689075
85.065,-0.404483906192403,0.83674382432132,0.464461875879593,-2.6392061035401,-2.62837417582014,1.71439338210182,-0.689118561922595,0.16941993854829,-0.328816167187326,-1.93247116015002,-3.13721211167515,-0.619341892811714,-0.925019980702186,-0.0654629953594139,0.0305677653772097,2.20665197033874,-0.117025326889443,0.995086382770927,-0.941656804746834,-0.10371470947023,0.119207491644754,-0.951319345047959,0.353083170614197,0.198782084133448
85.07,-0.429017825931674,0.856444974517859,0.41046325689536,-2.618276577988,-2.67737857824386,1.85543125947487,-0.724632359246272,0.165775847607453,-0.347171720178147,-2.12927010610038,-3.26356342543644,-0.586755250109741,-0.909805356104333,-0.108217561468525,0.0211465906709934,2.27731007997942,-0.176939579032577,0.894137549281886,-0.930784238979991,-0.0994704598816351,0.133020801280122,-0.956778202713661,0.393394355002257,0.197012470183296
85.075,-0.476605033743496,0.904883800958507,0.413873765987395,-2.63246471709802,-2.70601184632222,1.96330175047245,-0.745142885414275,0.164135503109144,-0.362672704660429,-2.23931477616078,-3.37743835114893,-0.547240019193917,-0.900261570524939,-0.14762313085366,0.0168229611211023,2.37216259277977,-0.2414320440008,0.763255201052478,-0.921884563943629,-0.0937001132281496,0.141423804213174,-0.977474165204319,0.434082312676345,0.196660511987431
85.08,-0.584784563908261,0.982735276963654,0.399956381667055,-2.64837124368064,-2.73959024242291,2.10248971478647,-0.776503758435981,0.164706583430606,-0.398125348948569,-2.40772505551637,-3.50207017866905,-0.495414697827024,-0.890631971367611,-0.180269660812522,0.0174096443698526,2.43557519589293,-0.296172990826297,0.650193364565516,-0.913627266901927,-0.0859249551520126,0.147608224509833,-1.00341096059931,0.472760299514116,0.19315374381899
85.085,-0.639637813344065,1.02233000422372,0.364540200607007,-2.72635940127658,-2.76686858579794,2.2235751223551,-0.789876098714127,0.173027429067318,-0.422848150328155,-2.52357849191462,-3.57630342621427,-0.457267293156317,-0.879346539433944,-0.217737317043749,0.0270735905641239,2.50324981238856,-0.373287730636829,0.5143161799473,-0.918474651838251,-0.0825236082458231,0.143087747531291,-1.02319359844453,0.502095701482888,0.186829323199025
85.09,-0.646382555097966,1.01758224966257,0.332372040632828,-2.81101494780079,-2.79834034269819,2.38540041377585,-0.799910236256195,0.184523489335093,-0.444571913487014,-2.6770530858955,-3.67192526049265,-0.401727830532518,-0.867153832113969,-0.250222130139747,0.0283579837914348,2.55710853249996,-0.427954302502269,0.404675845279002,-0.919049657795281,-0.0778190167836486,0.154300799504474,-1.0475489017506,0.535379998037842,0.187079572613493
85.095,-0.680783877324215,1.02477682131692,0.295971811631891,-2.83762897672712,-2.78763859007864,2.54659428890114,-0.815920971936038,0.18030904940541,-0.439232046510642,-2.81607132880554,-3.75311097819872,-0.35833018943162,-0.85436955986189,-0.283640664120754,0.034150953951011,2.61034751144338,-0.491409935003853,0.266433353798066,-0.921013359850987,-0.0734277871614141,0.143560639729654,-1.07007679030622,0.55475939892056,0.174014781362277
85.1,-0.728815823759722,1.0613884752072,0.257686462390339,-2.86668638950157,-2.76387023394999,2.70769320360168,-0.833908435737011,0.180538418518227,-0.446905294402577,-3.00369643794721,-3.8241811440767,-0.320466477181748,-0.839379758516578,-0.309575994781761,0.0330701813203004,2.64620200085311,-0.542345798464626,0.142817566630691,-0.927969302827339,-0.0717881353152983,0.12614599022862,-1.09576104502612,0.571728686905685,0.161857132414631
85.105,-0.762243831577603,1.0855697355515,0.21611782291504,-2.89994275547353,-2.7052366801105,2.91329465616014,-0.853320124543288,0.156266831608025,-0.462430374390581,-3.22676324293789,-3.88929798864472,-0.279578561308275,-0.809173526027939,-0.3371363077626,0.0344970202504487,2.67443047307907,-0.595055254228232,0.0232330040421071,-0.931408603759069,-0.0735091840368987,0.110200808985444,-1.11119063472699,0.553169522053837,0.149858483435513
85.11,-0.818235459167549,1.11851595322874,0.174023130057796,-2.95091801371088,-2.60085435725988,3.15888553150431,-0.883538326043936,0.130382246220631,-0.483440326298099,-3.41444297134398,-3.95135630910161,-0.244575982135093,-0.785852102649112,-0.344562737964311,0.0261095296510371,2.6749227700481,-0.629802672661936,-0.080270856893861,-0.933563877401598,-0.0702811046839161,0.0986538554684873,-1.12402734034549,0.52703009800202,0.144377987788356
85.115,-0.875199236505919,1.14972510680885,0.147280862697116,-2.977326258647,-2.50103326535942,3.34741244894852,-0.917488938298023,0.110559141192921,-0.50225244587029,-3.5819834025998,-4.00555163328335,-0.206288047147215,-0.76037734791067,-0.35111337168638,0.0266226668171679,2.69632377056988,-0.661558366100289,-0.167069806125991,-0.935959987269202,-0.0763955271118902,0.0917785986278594,-1.13251487576109,0.502076827374383,0.139589512102406
85.12,-0.927355534064565,1.17145749934549,0.125764154556395,-3.04001646345547,-2.3565570157324,3.62964412579257,-0.945679443326615,0.104833021553583,-0.504556769101388,-3.7228227378621,-4.02738610952213,-0.180323088300895,-0.732277166667421,-0.352287117885636,-0.0068004266663817,2.73764725348952,-0.686428996782698,-0.279555326476752,-0.943234272621357,-0.081932564428521,0.0837363491384749,-1.13556081743051,0.471520380917403,0.142897364101105
85.125,-0.990379994050775,1.17811484808747,0.115960035572797,-3.11754965338175,-2.24223590759273,3.85037325924763,-0.978055071936486,0.104631955185628,-0.536834381884443,-3.8587479550516,-4.04526677568384,-0.156293390318527,-0.709587840100089,-0.356665471905889,-0.0397309962166425,2.78359995732699,-0.687464714050293,-0.357007685877371,-0.952357479047468,-0.0790228187850408,0.0754726393694123,-1.12378622836769,0.449021348534251,0.144877016567205
85.13,-1.03406708278143,1.18115797891336,0.0978056517886789,-3.14165414273864,-2.08558816298152,4.12476242342879,-1.01212031479389,0.121475083289198,-0.56124730068264,-3.97204336256993,-4.06768726062931,-0.138366863347377,-0.693557413604238,-0.360003095237018,-0.0862859299307968,2.83918288512775,-0.677058340484408,-0.448307963650687,-0.957806594832276,-0.0804807307068736,0.0684391781478003,-1.11766075993867,0.429747744824232,0.150292345270463
85.135,-1.09628726332353,1.19922776229192,0.0966013263222708,-3.16624573797955,-1.93612604312034,4.36578904694157,-1.04115782068701,0.141731634233034,-0.575734588506638,-4.07500491743084,-4.06727606053352,-0.122585761154016,-0.688419376651183,-0.37039090451542,-0.14758045781425,2.8788165055425,-0.658255943102309,-0.526771999133721,-0.965221969360915,-0.0739441735321082,0.0590261792047261,-1.11963388311337,0.412135888550843,0.156895692980718
85.14,-1.15046066767772,1.18710036089154,0.103763539155492,-3.23180562344262,-1.76944874642704,4.61151390727344,-1.0767094180633,0.159413088966631,-0.605743340401628,-4.19529113532251,-4.06225286121932,-0.0895939725850499,-0.679209935239173,-0.384731110678368,-0.193761597743584,2.90528831856432,-0.634484285515559,-0.599685476475477,-0.967470090262938,-0.0722522299535141,0.0499856889928316,-1.13396233695192,0.375658440731494,0.166634339826346
85.145,-1.18804228020698,1.18247143082818,0.104204682626027,-3.28409860764979,-1.6422211083844,4.78425561933475,-1.11177698386883,0.169055836717772,-0.633402094510352,-4.3365393479622,-4.05613701439064,-0.0722284162731365,-0.679049976737008,-0.393258979617961,-0.233508909117178,2.87167762436141,-0.602778126804235,-0.666284544233836,-0.968611009547889,-0.0684599536637922,0.0552199843277255,-1.15013750762769,0.343308183124994,0.18148099018437
85.15,-1.22853958294361,1.18015348318363,0.0926321606236303,-3.33425120276071,-1.49316773667024,4.96473838451463,-1.14673094948764,0.189595931774483,-0.665214807227772,-4.4675700622871,-4.05576687545073,-0.0446987903167063,-0.690685708252138,-0.400327210865128,-0.248928794227567,2.81059641340402,-0.578573336821691,-0.709403805457268,-0.966615145917618,-0.0672958844817082,0.0534751828081565,-1.15830892617878,0.299420928773799,0.197724482913984
85.155,-1.26346717462892,1.18644012652751,0.0796527409462826,-3.36638620913936,-1.38778333367099,5.07592119046681,-1.17298420723439,0.219973575436191,-0.690039609496157,-4.56626641750537,-4.03553952967527,-0.021697942645125,-0.703439823925223,-0.402586298190534,-0.241742521400531,2.66534613638866,-0.553828488889453,-0.760936110017129,-0.95383431371917,-0.0605816071984778,0.0623640515689542,-1.15130042923669,0.263162783066396,0.218053673599281
85.16,-1.28957945766733,1.1500379808525,0.0582290192051064,-3.41566285883111,-1.27865487140415,5.13575406874263,-1.19861435224299,0.245904210531269,-0.725450458611487,-4.71539530257398,-4.00999506947711,0.0129267825886097,-0.72564184482131,-0.397920031488704,-0.232686992034333,2.48950896048611,-0.536310986900985,-0.789683871451575,-0.948962579090661,-0.0627627668934551,0.0738413721059528,-1.13083302714116,0.246055429588665,0.241698409941349
85.165,-1.32359814535848,1.09443855807113,0.0377879269879645,-3.48314789242851,-1.16308911313993,5.19198082839831,-1.21867337207332,0.251663533955801,-0.748697024724151,-4.83983877112577,-3.9875520323068,0.0440360052149536,-0.750634299427173,-0.380575097224499,-0.213448232714627,2.2831036362034,-0.518499636586974,-0.819300179234537,-0.948726179317601,-0.0672973138698032,0.0808456634289039,-1.13160767925306,0.233611891675087,0.266268946668227
85.17,-1.3428551927683,1.0512250966441,0.0207829516670122,-3.44957457186574,-1.04342633498145,5.21970699089871,-1.22632593468808,0.244480925595524,-0.763797616122897,-4.98112308555658,-3.94068904272997,0.0827864752608632,-0.788592126808853,-0.349336109069626,-0.190234609722894,2.07437911076203,-0.498469355600852,-0.825669473573066,-0.951858043873439,-0.0651530923672605,0.0780223190879702,-1.13696988647602,0.220596656691588,0.289239336058596
85.175,-1.37318744866044,1.00894132632686,-0.0155975536209367,-3.42949954965319,-0.904637728801766,5.21809763041308,-1.21314138937685,0.239669634551551,-0.766044940354272,-5.06081434353615,-3.87795205541665,0.111191629164135,-0.826574054526992,-0.311949824542356,-0.176495285074891,1.93878803951773,-0.487632744592824,-0.811745333223709,-0.951468887099354,-0.0601144770837295,0.0756109942730963,-1.1404808555235,0.207113727381134,0.310368572441413
85.18,-1.38188202062879,0.987987111271049,-0.0278214569951512,-3.38407109115137,-0.799160815325778,5.17183080740431,-1.21294785411239,0.242409908219436,-0.777496240158045,-5.14950001890447,-3.80735045174648,0.138979883301173,-0.874305949357632,-0.263779793128203,-0.173686715465545,1.86759391654637,-0.463304283332874,-0.794424784290036,-0.957974472646821,-0.0618247091971381,0.0669528566910451,-1.13832712173462,0.20029596547997,0.331194282796625
85.185,-1.39458477863904,0.959885297805854,-0.0354436899064255,-3.35187159107343,-0.674808950035235,5.11553156952781,-1.19669184486183,0.236918964968919,-0.761600611159259,-5.2036745520296,-3.72007923157474,0.161692242333569,-0.933666320310315,-0.189666911202192,-0.17587550675051,1.83136636987487,-0.444939136295979,-0.755289764596493,-0.961693747523988,-0.0629687309548846,0.0531053983790727,-1.13832712173462,0.18549664084811,0.34974307270313
85.19,-1.43100188226818,0.918916378110499,-0.00847171707358026,-3.28198315207148,-0.548075668128195,5.04575432698115,-1.17957081362807,0.229560247215678,-0.812323721693459,-5.19277074118112,-3.64012034133294,0.182073918233648,-0.982201918399535,-0.117816305645791,-0.187351329352098,1.82261600366474,-0.419682231917814,-0.687180357723035,-0.970960173552547,-0.0718189031036327,0.046219666411167,-1.14378923531287,0.164403583520868,0.372435789840896
85.195,-1.45811071100078,0.864153095546819,0.00077663348666385,-3.23897668026972,-0.476373076313236,4.98041630920657,-1.16076071442146,0.204801716326568,-0.826294877645484,-5.19827163538293,-3.56080704853762,0.206525525327576,-1.03781887752264,-0.0429146474277271,-0.190773636759677,1.84810265838762,-0.394843568092876,-0.570805772036331,-0.975835372146953,-0.0783151510141804,0.0420074060176262,-1.14903897267022,0.143695910754693,0.383771022719293
85.2,-1.47023675627405,0.736238397047812,0.0375671595215002,-3.05323967801283,-0.372853122252217,4.93964199293926,-1.1230548926224,0.126327988302558,-0.808585948976609,-4.32601024570894,-3.44452337863384,0.228817027326466,-1.060309476186,-0.0106832949854631,-0.206799401713064,1.9088204054253,-0.358737136827625,-0.465373558709424,-0.978686842547403,-0.0864198604021613,0.0457329599512009,-1.1444812882078,0.128408164278681,0.388240652593222
85.205,-1.46047210163311,0.476961805531528,0.0789045579660095,-3.03718157301148,-0.277229796790374,4.92804786129272,-1.09451819104489,0.0402236899314468,-0.851310460502224,-1.40240260417569,-3.36276500284139,0.232013514711787,-1.06070400435338,0.00815577127117187,-0.20907832742717,1.99919726143057,-0.316672508338514,-0.389910746554332,-0.984351962645664,-0.101623645115813,0.0479665135135317,-1.13202646913553,0.118586339110638,0.396293703763008
85.21,-1.41944624774022,0.336571716146518,0.111422557013406,-2.78219828643032,-0.171459081384072,4.92522415126401,-1.08205877689957,-0.0337884398139734,-0.853279906332435,-5.09789024892934,-3.27512497369444,0.210201655322119,-1.05435939862754,0.0142447031924447,-0.216055577362548,2.09980360791415,-0.275954040797202,-0.353734948009332,-0.985300599219502,-0.118656731803825,0.0444235102879279,-1.11616071386529,0.118227105335804,0.398059904575348
85.215,-1.38263483033386,0.55479640927181,0.127789723307481,-2.22399254099737,-0.137904471866027,4.79449387083255,-1.11530932452839,-0.0936260903131408,-0.84351994440456,-4.53853495955426,-3.156108639809,0.152384101396483,-1.06183326417429,0.0136073305575719,-0.231679660200999,2.22422622068539,-0.226635667059545,-0.369523863102799,-0.997768573592715,-0.118408154049097,0.046266397088008,-1.10424248356247,0.124207624936231,0.39864004235213
85.22,-1.45710414387096,0.712998260914696,0.126314604283361,-2.14687904092413,-0.11035036810038,4.50973399678505,-1.12683848548015,-0.00864154300026014,-0.853094496428141,-4.05570693220066,-3.08219741617008,0.153366376456778,-1.05888725367317,0.0140093188843096,-0.248629046580838,2.32399784795479,-0.178871988605865,-0.388470247092293,-1.00743986459923,-0.110601593459323,0.0504391082068347,-1.1069401002452,0.136594288483741,0.39401771659402
85.225,-1.51448200567194,0.647294510414028,0.129539251377643,-2.30218808071246,-0.117301194817934,4.20959464464207,-1.13621133252763,0.0967332051406247,-0.890919941805272,-3.63115607891209,-2.9603014155724,0.215171098230115,-1.05760402339479,0.0102715745870411,-0.277410450703539,2.39146321158973,-0.145416275796044,-0.422654213103591,-1.0171708981904,-0.113866628659982,0.0644608442638876,-1.15285784411705,0.16695271557798,0.395506937188635
85.23,-1.52636885895909,0.508619018211301,0.152079249513474,-2.28810288390063,-0.191287116080987,3.92664501244695,-1.13730006085281,0.11689194819097,-0.909522432377572,-3.39633641956474,-2.83958018813796,0.278882666949046,-1.06658982276343,0.007849455787414,-0.314010583238931,2.46506608071393,-0.110972569704034,-0.48038242884578,-1.01644834697034,-0.117289154655287,0.0708560337880531,-1.19691214354826,0.174515460007093,0.398109364444676
85.235,-1.49767893639188,0.397726681504764,0.155546850338243,-2.15528049852152,-0.284162070373374,3.61854041067289,-1.10761217130311,0.135311953935707,-0.87969984936779,-3.25347370283188,-2.70787426673309,0.353388600099452,-1.072738269468,0.0294401381057079,-0.357905903300261,2.54096659928737,-0.0750987750298331,-0.493945602697783,-1.02481506712019,-0.125340067338852,0.075987068317573,-1.21771620519614,0.157455679859937,0.402946680784225
85.24,-1.43658225376675,0.34943306446274,0.124337692490212,-1.9379113949239,-0.342595992047442,3.34877383394977,-1.0547379728839,0.12136737460706,-0.871142702667803,-3.1881041444618,-2.58170588567675,0.411767883812394,-1.08130701278902,0.05631333795788,-0.383105585775099,2.56099072801807,-0.0535784285179526,-0.484353497353643,-1.02479099898145,-0.139313237276626,0.0795532650047479,-1.20898791068396,0.133830120527008,0.40036373893718
85.245,-1.3694140045453,0.346339654839069,0.105190947406861,-1.60852882944335,-0.395976493857055,2.98953317428974,-1.01093472637614,0.0855221375602521,-0.90471433219069,-2.94803657765191,-2.45833946287802,0.432673380553877,-1.0897856050593,0.0857597333192326,-0.430305112296436,2.6081844288923,-0.0413825727098523,-0.450863765360248,-1.02966488793956,-0.14696661437055,0.0784595860703095,-1.1900287655371,0.0893913837352943,0.394524984206971
85.25,-1.35404498044016,0.337762272238374,0.0679823280481121,-1.32143506117444,-0.451988939941788,2.66994151641725,-1.0040749207694,0.0557267467542818,-0.919429814390857,-2.46351617083846,-2.33504668930849,0.469294606067504,-1.10664206216725,0.126148708508525,-0.458739679501671,2.66191730464815,-0.0494645332980303,-0.429187197341965,-1.03760923570746,-0.153278812710024,0.0767461425361198,-1.1695459098062,0.0356832971792359,0.400519924826651
85.255,-1.37153855527756,0.328636609508005,0.0403801445065868,-1.02744575823393,-0.529484537942204,2.31587981025264,-1.00153821208479,0.0407947196988607,-0.920192648232643,-2.18584233321735,-2.23389186488556,0.530945837739928,-1.12359317309308,0.177056920443461,-0.484392156598703,2.73277619343308,-0.0496894805658034,-0.386395856500004,-1.04251520596462,-0.153186713820284,0.0683751178875022,-1.14751851443161,-0.0316125844906666,0.411405926965584
85.26,-1.37073842443222,0.272754294065914,-0.0118077767502534,-0.845619142799697,-0.592842730286942,2.04027314583159,-0.993801679465263,0.0132606351544429,-0.934439619634375,-1.91556834743063,-2.0909705292425,0.61624327966617,-1.12944454018898,0.214610679844913,-0.495067992973506,2.75812252754514,-0.0599986161899743,-0.334907947586173,-1.04174896829599,-0.156135853353998,0.0504014071716193,-1.13214705870675,-0.094223442267041,0.430901497623322
85.265,-1.34527278977544,0.212683115747076,-0.0634888714792814,-0.508414698215267,-0.598837855218673,1.80272110734736,-0.945114174493145,-0.00861217329464552,-0.949781736958375,-1.73957169870581,-1.9951148739818,0.675395028073417,-1.13105679287955,0.235697769523642,-0.487643209174328,2.70506712577064,-0.0656193177457132,-0.302234266678258,-1.04521798870284,-0.150737252471321,0.0448793859473972,-1.12496384086568,-0.131095063122371,0.456273835793403
85.27,-1.36328063111132,0.175336158989249,-0.124253535102274,-0.186059734299085,-0.565543195037915,1.54519042162185,-0.887900041920804,-0.0541949894403714,-0.934729937573558,-1.35498090965605,-1.83576688071304,0.738081658197656,-1.11505320259821,0.255564672248901,-0.463133335737514,2.4750793297629,-0.0794774185501516,-0.29594170776073,-1.04294967892631,-0.137007331198036,0.033786257361049,-1.12000167369843,-0.170365370108265,0.483064618425233
85.275,-1.3791460879641,0.183035770229842,-0.180460931698252,0.0738014183088528,-0.521548247731323,1.35552202353831,-0.831229275685799,-0.0796362777204489,-0.90547522210114,-1.00066606955514,-1.6982174395131,0.770779723843831,-1.10125514750123,0.269702441000588,-0.45476183433673,2.17269179128535,-0.0900584288081598,-0.307711431415234,-1.04111352894341,-0.122996127069252,0.0346455729340612,-1.12059221095241,-0.186376590608306,0.504021734208257
85.28,-1.3616172701857,0.212612208002044,-0.237204140701757,0.278903404301082,-0.441702163543412,1.17511105509907,-0.782366115518424,-0.0866709866286697,-0.876433636903074,-0.645405570183116,-1.5019796616164,0.788321150136703,-1.07865148919244,0.266670613160312,-0.439422808407423,1.73001962923521,-0.0930801119876829,-0.328200138371267,-1.03476852036237,-0.106416026080807,0.0364523843744989,-1.12298886936089,-0.193694708353606,0.53089288030981
85.285,-1.31192588065878,0.205396945697936,-0.310747010935714,0.375642344443826,-0.312015741775339,0.989933372108332,-0.785322726594968,-0.0861308182461142,-0.857061947754276,-0.406649911257551,-1.34889432795461,0.796737640655536,-1.0452243467595,0.259713688805988,-0.409740539804509,1.32612202636092,-0.0937375547975676,-0.335142173521,-1.0365476505894,-0.0897807303515382,0.0502456380975807,-1.12729888455711,-0.188997021856629,0.547018708212873
85.29,-1.28255452523035,0.193197045804984,-0.333661494466583,0.436052709982682,-0.158507666571091,0.917282834778588,-0.793031989575475,-0.0925629517768185,-0.850053126876233,-0.303646159963686,-1.20205432105333,0.783920736716502,-0.989047400832102,0.245830953555136,-0.374699708423082,0.944251740033246,-0.0961645543575287,-0.319518656353528,-1.05039184530943,-0.0645890967079827,0.0516588466201971,-1.15172117315959,-0.16381730040132,0.559445142535329
85.295,-1.24884648208458,0.197684956623863,-0.364080710732008,0.423653101211132,0.106708610751817,0.810182211899753,-0.847736191058907,-0.129300484567685,-0.829143971588259,-0.104160832153422,-1.05526532909975,0.729924455965577,-0.893130834369253,0.208780023059552,-0.32627375408221,0.551818006804756,-0.0955377306453116,-0.280554324287193,-1.05210030110927,-0.0614839044336216,0.0488569842472757,-1.21890362061055,-0.138804327102103,0.569849448834064
85.3,-1.24137864801263,0.204953123453937,-0.385079224569141,0.380379583837815,0.349531007695229,0.724157337645322,-0.860249510216361,-0.0748048189073338,-0.795981507234706,-0.0326277126474445,-0.969211242260179,0.680057689928949,-0.808675679407808,0.164937830349184,-0.280146924885754,0.285429076745062,-0.0931765382701621,-0.259843578380067,-1.06064447155839,-0.0583823204713127,0.053270301345333,-1.28384664161906,-0.112788864598951,0.576888959125424
85.305,-1.22818722469228,0.208699446865413,-0.395987857936447,0.312232735252891,0.586868616045173,0.650160499356424,-0.823522706285531,-0.0807260792314092,-0.724788356411556,-0.181185655728602,-0.812250380834273,0.616008196856033,-0.74879464882369,0.118198723538033,-0.22394164713024,-0.0561595946614232,-0.124939154710655,-0.295429678622035,-1.06647035604948,-0.0570985361372516,0.0523941979605622,-1.35036310662908,-0.0893499627245348,0.577648997306824
85.31,-1.21133461632667,0.197991205751611,-0.407915416694844,0.168495584308819,0.881989187897731,0.540906501342439,-0.847464914083546,-0.0219383128182772,-0.720779671439633,-0.415970171405879,-0.63740789341406,0.490910794431566,-0.703301264123132,0.0742041698384261,-0.193129395962177,-0.40376223602751,-0.142551283150282,-0.296796791201879,-1.0712500025884,-0.070312033118286,0.0582271462024434,-1.38222651535077,-0.0868894428138032,0.576159619913509
85.315,-1.20926092296839,0.163422116474824,-0.403487936390937,0.0662719759475527,1.11673816887771,0.452614904828757,-0.816639433385498,-0.0676325797427753,-0.754398935985932,-0.522615405355564,-0.554723858934381,0.5113448579369,-0.69613066548653,0.0467586022744551,-0.146205277747022,-0.757827588828823,-0.159499759529507,-0.342170733686902,-1.07543781993922,-0.0780465773677645,0.0595221146354126,-1.43836000438972,-0.0824762918886669,0.572374327976648
85.32,-1.21203229887072,0.122837864242478,-0.387580809649375,-0.0221297265954577,1.38625373338668,0.333960117395981,-0.79188620518217,-0.0770779323970087,-0.718381646572066,-0.421942692914466,-0.425594019560608,0.485054200668967,-0.721096162464196,0.0296726033350579,-0.0957067800839669,-1.0686028278452,-0.206135314407112,-0.358704378720747,-1.07840879259026,-0.0893640032681899,0.0690638468002736,-1.47170943376818,-0.0931333603814896,0.56284743682152
85.325,-1.20679482918173,0.0843984109570647,-0.361976938021736,-0.0788602877497197,1.59981642479396,0.220010363060437,-0.789902130240329,-0.0687267955460094,-0.708446253242177,-0.511518962203112,-0.308618397615223,0.437287126747922,-0.762708684724571,0.00426766602133756,-0.0340857456392978,-1.18351991582334,-0.251707536822134,-0.345223692904999,-1.07201053672163,-0.114729122668158,0.0815072704732927,-1.48851771692547,-0.117212290650272,0.544119373212318
85.33,-1.20328553896848,-0.00413764864417811,-0.346562174893915,-0.0983478850306672,1.79978161392206,0.100653105175501,-0.765101437094774,-0.125150478648927,-0.699174939382335,-0.546805528387159,-0.189110227162881,0.405907977140061,-0.779325156443303,-0.0286936631274039,0.0296745787466786,-1.12182902158139,-0.30114862279173,-0.285917457649504,-1.06159579134652,-0.129121624292174,0.0982550366343913,-1.47269275752845,-0.146057942912168,0.526564206526037
85.335,-1.36054723864307,0.112034288178977,-0.245098228715749,-0.0481288468028542,1.96083296038666,-0.0351809060277869,-0.729741675532944,-0.173112779533575,-0.740238431346401,-0.344063050388475,-0.0442311510264281,0.394899655060628,-0.791881459837876,-0.0315038791535838,0.105692472027473,-0.934423798437223,-0.339350812036917,-0.271697726050578,-1.05063685495065,-0.140508238778748,0.106706981841853,-1.4434699173892,-0.185453623861423,0.513072878499498
85.34,-1.74389133553109,0.374559381659996,-0.0202610132201916,-0.368418986125446,1.91935161813825,-0.191109187677752,-0.700799120476531,-0.143459816662702,-0.798938431736625,-0.300711805361741,0.074582433911871,0.388075779658642,-0.816979908990028,-0.00611068997651689,0.17946348602634,-0.686545997261737,-0.371422047614235,-0.294072585487971,-1.02583062267884,-0.152906538907654,0.122067077943637,-1.39257592745337,-0.230377423117621,0.496165825458879
85.345,-1.58317036335679,-0.0277971098164897,0.548374825610049,-1.69823911921851,1.35183187112248,-0.583966191250813,-0.67754605981163,-0.0820774871049143,-0.853084627649828,-0.236718886614722,0.234639194370006,0.37281463060087,-0.842197219462543,0.0296544076283768,0.242554727366356,-0.460838360277019,-0.406666156019178,-0.314487921184307,-0.999226983670859,-0.161576056407143,0.133281619355947,-1.34398294407427,-0.268029154796641,0.481267288926015
85.35,-1.72275944362902,0.298250403707448,1.160874391581,-2.15366746777465,0.600454019589246,-0.738779044679219,-0.682295510316884,-0.0409275772530002,-0.828358923192309,-0.211666416768815,0.358421572718792,0.348331996784018,-0.860500514253568,0.066928547049173,0.295991606225936,-0.24664039419686,-0.46034044400787,-0.338031833840786,-0.99088571167637,-0.176316754516929,0.142076445577914,-1.27449705793501,-0.319836925883272,0.474384021886895
85.355,-1.69519675891127,0.676444027612046,1.42013876933144,-2.43110657342175,-0.23616129434678,-0.686448800155244,-0.747378267447301,-0.0025975163261575,-0.653091151615274,0.00964100530418566,0.530002715083803,0.276819256354773,-0.874992108841754,0.0737946166503016,0.331615679864691,-0.128336951181588,-0.502537503607607,-0.38301343320573,-0.965233658391248,-0.178932680115331,0.151373847508605,-1.21583921028329,-0.353281411723439,0.463579242974406
85.36,-1.29955078587942,0.490317950150109,1.33433171280631,-2.40037987671322,-0.927215798349536,-0.60734322066914,-0.877129849283296,0.0350322336043739,-0.367635118881939,0.432615893164661,0.637964984802446,0.229954078797831,-0.882340787206673,0.055268940439478,0.360480813724601,-0.00593031109695177,-0.552710058432078,-0.439532232403427,-0.961067554162303,-0.179053259160587,0.161565080813719,-1.14825979268515,-0.382979116279853,0.45649936535134
85.365,-0.839325151810952,0.172398432442953,1.37286299640392,-1.75762366620592,-1.24936304362344,-0.459354111861999,-1.02303685987687,0.0335137117943064,0.0494200235562786,0.508726725100933,0.629513875008226,0.166610601059324,-0.881985504086803,0.0172917551784359,0.361952095975736,0.0775096886646787,-0.602385381625997,-0.473984051942192,-0.954161475384321,-0.175713590374907,0.170341831960683,-1.08056982995093,-0.407709815352556,0.457947052184577
85.37,-0.468684068609372,0.241380427733523,1.36670080318325,-0.342446904928732,-1.53326150595649,-0.236072484215434,-1.08977249560617,0.107397378864938,0.356365585369162,0.342119571662404,0.476573680090803,0.142071968811231,-0.88999014865073,-0.0383995052962563,0.35070212759585,0.163081576213389,-0.626928535705989,-0.511416817373438,-0.949085550724184,-0.167322056494282,0.182205514536881,-1.00434284700024,-0.426992910499405,0.464620755254855
85.375,-0.218127781200185,0.596025899644983,1.20970143805185,0.580933730265633,-1.74482640262055,-0.32790170398317,-1.17900728894843,0.392747210976404,0.604057589331512,0.326479635835862,0.317802856670806,0.19702419527678,-0.912881651975452,-0.0991833446190227,0.327078278189197,0.242773344297838,-0.654871454655639,-0.544886034368498,-0.954819738799403,-0.151485881926732,0.188614308170023,-0.951440225444531,-0.44149842193716,0.475997526978888
85.38,0.0668508718220389,0.951550162044699,1.03676383214858,0.462939608529373,-1.78192224056127,-0.6813925090248,-1.31986495561114,0.569000505391878,0.60617523180697,-0.0280456513515359,0.177359424487083,0.324036062283656,-0.938150913593538,-0.140435879708996,0.30472861655603,0.28257915599922,-0.67531353146067,-0.565963765347299,-0.964595213175637,-0.132951416674996,0.198664012715838,-0.903709688965403,-0.449358770397481,0.483432295523097
85.385,0.10428042655442,1.16237750406297,0.803342715166601,0.0661748030160778,-1.67457467712434,-1.09934447980707,-1.42950926683557,0.558360759102198,0.451706970035439,-0.449738890236788,-0.0298988855543141,0.429359367146332,-0.954748450503121,-0.206667800258828,0.26517521499331,0.308114634940979,-0.660454499286784,-0.619018809813758,-0.976456683217834,-0.10217517695556,0.214435785608355,-0.849344878883908,-0.45882780736958,0.489624814952943
85.39,-0.151061720554024,1.26548230904777,0.569960044576707,-0.116006262179884,-1.47925245734006,-1.22843232451698,-1.47546122962659,0.571713405052968,0.272352226720377,-0.765853599206844,-0.12006726413526,0.511832086063049,-1.03330091719601,-0.235247166766383,0.255063812365394,0.338296667255213,-0.621145842577704,-0.748564981710065,-0.99925715763876,-0.0787195200772679,0.218536534965276,-0.813242168194318,-0.462849799046322,0.495795458555222
85.395,-0.603800947124165,1.19957718344103,0.415903132514162,-0.535760460997769,-1.10551365503928,-1.3476487456971,-1.54140196377553,0.537727265714811,-0.0363571024418095,-1.04204006039094,-0.0942786211175727,0.582029225084476,-1.16201282783916,-0.26749664863228,0.251272628001474,0.411013038678978,-0.59816389225456,-0.867033081855549,-1.02158368052726,-0.0473461394591641,0.226805652192959,-0.773652798008172,-0.462183912832349,0.493609588799983
85.4,-0.960379951808772,0.940356018366899,0.471837801366217,-0.943864550704825,-0.82457821291737,-1.29711196872305,-1.55701484115249,0.407273186161133,-0.226640484208558,-1.299714184435,-0.00777937126291154,0.580159544255024,-1.32539950463204,-0.289618691087658,0.251482717165735,0.513637063621713,-0.568729922348463,-0.956019333612409,-1.05885736001275,-0.0149807476535235,0.221976897223393,-0.742790675556584,-0.454147305279569,0.491767382724508
85.405,-1.16652971990942,0.26592503909727,0.783988441245718,-1.18112010332491,-0.649016087548612,-1.11143832184219,-1.5097184780944,0.030268778593667,-0.228090452639583,-1.6220187459823,0.206860956364966,0.480439472941626,-1.51986007366357,-0.284690250316949,0.272909453962444,0.658644226420221,-0.529871885625774,-1.02910381633309,-1.0969683025321,0.0130358454198476,0.218796241506889,-0.720789820495022,-0.440822773946616,0.494526738449488
85.41,-1.06696236809811,-0.172260423440533,0.989534156532862,-0.792254821650023,-0.596704404202083,-0.847765389819688,-1.43178771482765,-0.364069796535408,-0.102418825370705,-1.93354121281551,0.320426682476131,0.348472222941284,-1.7681820866791,-0.251754378674578,0.333602644131984,0.799217271474748,-0.493269336013615,-1.02257021249524,-1.14125001341479,0.0470145371245013,0.21221212791237,-0.723344396166082,-0.430837601423264,0.490154367030791
85.415,-0.674299410767877,-0.327554284520373,1.12736432233062,-0.582631124642627,-0.608492923641864,-0.769753231355781,-1.27731660604565,-0.810409223445962,0.0174833942918129,-2.30112676999523,0.351870049469393,0.199077763597268,-1.9231463032556,-0.187167817172772,0.411663393489978,0.915976662788055,-0.487129683274691,-0.936342570942379,-1.19225436473171,0.0844467505494928,0.183090185162724,-0.777422788460932,-0.430837601423264,0.486641757619225
85.42,-0.628918949520348,-0.186577243891114,1.03357089762481,-0.18759669720151,-0.504263800989568,-0.572893332010433,-1.1016156183503,-1.11496468203407,-0.00302594457549557,-2.13020458695527,0.331410954377023,0.12275770376788,-1.93797915265929,-0.100460960529215,0.459936249415574,1.05847575731729,-0.434150395105849,-0.741859677107333,-1.21459414269547,0.109297767821571,0.157878371292718,-0.880958701792268,-0.446323006671104,0.490323399433832
85.425,-0.644999682573954,-0.0728200296238571,0.970402270173783,-0.0719630038012809,-0.3756351748212,-0.391216962879503,-0.930807661717302,-1.19056656210578,-0.0798573254160613,-1.45124499896347,0.264142602248737,0.108382943603369,-1.85238649722137,0.00726711326842972,0.435434477194239,1.23100746406169,-0.342149547864107,-0.573703900351085,-1.21378916808463,0.136302187243551,0.11804552093251,-1.0365256125283,-0.477455524863533,0.495648579350145
85.43,-0.663654830064715,-0.0766577601809846,0.925527131789012,0.0506941575667019,-0.230021901082691,-0.244375866636862,-0.820316850883164,-1.05068339551112,-0.107528051339174,-0.491057566309837,0.265452901043635,0.0662899509259902,-1.70952741747053,0.12000282976414,0.300575825598953,1.44462164427329,-0.218281592841389,-0.389836500768583,-1.18431199631883,0.159261550047595,0.0543431322448841,-1.24875086280747,-0.549321277615317,0.507435235151982
85.435,-0.737097835654658,-0.0690620590997454,0.865257848446464,0.177932135669369,-0.120247598479951,-0.039013000083056,-0.806932928279492,-0.886079068550619,-0.131509694091933,0.112759529097675,0.279868319881495,0.0626020041163814,-1.50906940509685,0.23529740549947,0.100599607463973,1.64811112571826,-0.0608001076620946,-0.184315631379747,-1.14263737760334,0.174779212313236,0.00390982189065675,-1.39023016883591,-0.591210759626186,0.518754439111294
85.44,-0.74385789631048,-0.0131388909939736,0.85398273793026,0.269336214936963,-0.0826370678487686,0.121011992886339,-0.826252826684524,-0.59595608155315,-0.0607910973371134,0.638647270400186,0.334352633778316,0.102057813124883,-1.30828569849048,0.298259849477628,-0.0481170644789908,1.85114447670276,0.0702909083004077,-0.0843839443177042,-1.07298692747962,0.182544072362311,-0.0559216971676341,-1.49325958849734,-0.598286152559245,0.523421069443699
85.445,-0.592603013276678,0.247203529689674,0.789183686248111,0.426223281452326,-0.039927299098762,0.309342620116957,-0.954005731482593,-0.317284496409818,0.0334004534017104,0.769277598251002,0.365219803985362,0.159477516468264,-1.08348328986837,0.33878882626899,-0.180502775540458,2.09228589015621,0.156791635487621,-0.0704352732714443,-1.00897126108739,0.191598580650092,-0.0997549771069241,-1.53685130589377,-0.547363614940816,0.517954640215538
85.45,-0.541099673660889,0.376287660681759,0.782423075531067,0.349623244218646,0.0223370129529113,0.391947224180183,-1.0673630375566,-0.0151016567588954,0.0543106815042869,0.647043908138365,0.351566595368356,0.233827598392268,-0.941723072589353,0.316875583074405,-0.26143871533912,2.17278147917184,0.163532714917458,-0.14338580833463,-0.983509789661618,0.208210584823594,-0.123492956524233,-1.52094562444069,-0.431742033662528,0.504006033069284
85.455,-0.530458384510698,0.385250504528634,0.779965837776563,0.240056485071827,0.0668390103593131,0.408293888560134,-1.09893709871609,0.164414229220088,0.038113674985851,0.410449283524898,0.329549690856042,0.28379417270292,-0.806214365183687,0.21935046556196,-0.332201654597829,2.04445341366766,0.141705545358653,-0.291145064338406,-0.977131458329023,0.226585776279969,-0.147511294292139,-1.45224823983526,-0.22644847944155,0.48729434557966
85.46,-0.517823318072148,0.405789692666793,0.767558995708758,0.133602777136524,0.091985300082774,0.392428434090606,-1.04218780645504,0.209822909818621,-0.0015899139497868,-0.107485508967493,0.32185772398452,0.359595831055155,-0.7001551557077,0.0744201923541687,-0.392340259343653,1.74599804703375,0.121642998551533,-0.450546306620676,-0.943523981512474,0.244439767126805,-0.15488107877804,-1.37102278758131,-0.0186851298233584,0.48690256418269
85.465,-0.509099510299711,0.402003904134201,0.753132095228119,0.0273831923972565,0.111750381679178,0.356644451596356,-1.04134360129747,0.278984682972139,-0.0051647474488527,-0.42726289881101,0.270108324455562,0.256596037568212,-0.622940878921613,-0.0644504441912487,-0.423914135807043,1.3910134361464,0.115285528049563,-0.541167109708437,-0.949461161236436,0.252653069485456,-0.152637180319171,-1.28064146189654,0.197195414435432,0.498953685499405
85.47,-0.513253746695293,0.402429687363134,0.748276013002853,-0.0219471786822324,0.104616033233786,0.332927035462524,-0.915763605823985,0.137032848403476,-0.0123319694743556,-1.15059053590368,0.232059902619545,0.332974184615879,-0.573028631487638,-0.218675085557583,-0.431708615891222,0.980021762734641,0.130140450373496,-0.597974867304621,-0.944773557039787,0.24512892282097,-0.129849217491759,-1.20184609939656,0.418460964099254,0.514527252880592
85.475,-0.500863934302917,0.424079482863016,0.742602521356039,-0.0764764061793051,0.081843532515672,0.283986808004858,-0.936894616177767,0.129891290242154,-0.0129713810606344,-1.49469594108226,0.355064342670879,0.187232687800988,-0.572184979137695,-0.35101166428513,-0.41280837299561,0.765390844247192,0.113966904580593,-0.566275846003512,-0.934310977848268,0.22304921737358,-0.100363370655771,-1.13364286565381,0.528374286798237,0.505827968344744
85.48,-0.496622558741922,0.447577813616381,0.741916428682694,-0.114671268251043,0.0436095100373592,0.233819627483945,-0.968269728460903,0.012147544035823,-0.0681068148234655,-1.5478815528694,0.294332012537936,0.206527853226219,-0.563877045130378,-0.432943694493093,-0.363013145166914,0.65219681748745,0.131202896980031,-0.532125801129995,-0.919901395863558,0.200959812460686,-0.0633326003086817,-1.06628173009254,0.564729217673024,0.48914189293673
85.485,-0.491754016597129,0.446336035337058,0.739496389065157,-0.177142606179431,0.0146866881284171,0.182737931892949,-0.955162606423127,-0.0300142753848423,-0.0445276686214535,-1.13092337060722,0.239740606595948,0.296302736484807,-0.638983056390429,-0.471741996257568,-0.285344316770244,0.684198107979113,0.114428860449682,-0.560869473065506,-0.90523822467126,0.175786184276079,-0.0263145344567848,-0.989174203311863,0.539050690983543,0.463374968778368
85.49,-0.490451137753349,0.406179275090514,0.759303324322333,-0.25806002981829,-0.0107019670789267,0.089658504334176,-0.985698472236077,0.0405118351675001,-0.0395837083798081,-0.907429158516909,0.275781352352556,0.275768027201999,-0.720298262696104,-0.493592277060084,-0.205780968503792,0.822436504724888,0.0824751779434276,-0.567381221743403,-0.888400824862452,0.150926072002526,0.0200519975120959,-0.88013320806415,0.448975143168482,0.441956913121604
85.495,-0.501700064775582,0.390081946976042,0.763301971899542,-0.260048197467524,-0.028405236162379,0.0460393448120986,-0.981498708898255,0.0676160517506742,-0.0498705237846532,-0.894907352484448,0.223431307524924,0.319943939809309,-0.841353123028311,-0.490162006002692,-0.0971916641243949,1.07698686569278,-0.00190112148760254,-0.517179122896275,-0.882118953255404,0.131952246741631,0.058635632029895,-0.776825266665839,0.322995405789778,0.415552045772075
85.5,-0.512857928400837,0.369437140513615,0.764077184744269,-0.298971169998102,-0.0428411380162537,0.00254598654348404,-1.00100581835433,0.0726681794045742,-0.064885432580493,-0.736217930520737,0.216122108336289,0.359535152644972,-0.906653220452139,-0.485675407910754,-0.0307882326246538,1.21509312954738,-0.0715143344227105,-0.440116119501233,-0.878336738934581,0.125274182884409,0.10159633964876,-0.676202143471945,0.178177233910999,0.38779003684786
85.505,-0.515680423515625,0.363411400226191,0.763922699348751,-0.331023037507587,-0.0578231756768625,-0.0190724862309595,-1.02807309510169,0.058781221771915,-0.0594663482674796,-0.592920516104724,0.182638778301817,0.39832975068416,-0.954101171609609,-0.468118249606284,0.00869194619062875,1.20654535157914,-0.125948280978544,-0.398289876501231,-0.888480541714857,0.121132518379045,0.133083465600183,-0.576424913894599,0.0339076088602458,0.36197947563091
85.51,-0.517742025567559,0.349796877045596,0.772270959448464,-0.350360006093979,-0.0659121479909346,-0.0475038423141006,-1.02124403499426,0.0295229199400201,-0.0504502308006705,-0.666830690192562,0.163975130524491,0.419447519369415,-1.00784380477585,-0.426843094028611,0.0495756521483653,1.03634312966101,-0.18517637267034,-0.389874944989411,-0.915272683100481,0.128285192662837,0.158498003535726,-0.477551305647368,-0.0950802993756528,0.323166887320443
85.515,-0.523698335328312,0.327560392292128,0.782544029299352,-0.365975411549975,-0.0603088951673267,-0.0634960164415237,-1.02281686302995,-0.0238404919709561,-0.0363399481402921,-0.763845243038644,0.173370543496681,0.388207078652842,-1.05769248813787,-0.352627878056758,0.0791697546446865,0.711690241726728,-0.276872338092428,-0.302049681439466,-0.965269146484943,0.143888172665618,0.177269245787084,-0.396151656850264,-0.22834211549691,0.282048301035655
85.52,-0.530132838934495,0.306998210461887,0.786503418740651,-0.38525725849236,-0.0535960001538713,-0.0601540483467764,-1.02128387672144,-0.0493766336741264,-0.0331551332720851,-0.843138364929766,0.149677401931828,0.378411331643579,-1.08222699589129,-0.254688015869444,0.0913962332273437,0.408648825790572,-0.351109951423214,-0.197658188990318,-1.00602085512954,0.152475779580958,0.181580570678685,-0.371480954731688,-0.332521326321571,0.237602916935834
85.525,-0.540199943785991,0.297006466323163,0.794837362058493,-0.377036857526111,-0.0462549577506588,-0.051501144201718,-1.00580374559322,-0.0715837729521636,-0.0259292967987025,-0.844803770901096,0.132551283648138,0.385204294799435,-1.08805371780003,-0.14005745335184,0.0861416274496019,0.107136596634399,-0.401792085219605,-0.109889973830833,-1.04793409502059,0.155507326193177,0.176167143634317,-0.365243701657063,-0.427963962559898,0.184893858424323
85.53,-0.540192394058345,0.291048869834541,0.799802934085442,-0.369309313694392,-0.028800581875376,-0.0380454082084154,-1.01011031225159,-0.0787391172754475,-0.0360690042633157,-0.837840994001844,0.153171874817584,0.392167080003071,-1.09177422996785,0.00948176034619494,0.0701140040793197,-0.221307919410296,-0.439462270350326,0.00384197369099363,-1.09298532416332,0.146135764690989,0.169314335861132,-0.330760133355078,-0.503680231731124,0.0994536380375931
85.535,-0.535624607127287,0.287185148587731,0.794010498701817,-0.351347897922317,-0.0101424527749322,-0.0217734175076938,-1.01446267804129,-0.109562444619835,-0.0472380877571647,-0.763133010824391,0.130697970312119,0.419929633785762,-1.07766375587001,0.105052362755835,0.0551270189703244,-0.388602402599531,-0.437844935730752,0.0408497455514864,-1.11612381334888,0.142495091466595,0.159920573553288,-0.291547091048876,-0.519350655515983,0.0339426466205953
85.54,-0.537054338200653,0.275623061008797,0.79675111294725,-0.326112431428524,0.00618618423936039,0.00194106849212887,-0.981031320069973,-0.103953412176192,0.0287797431816052,-0.747879577799283,0.156539274128205,0.372778474191859,-1.07125209571505,0.210891800491754,0.0370690457801197,-0.503495880664915,-0.415249866346732,0.0383144871071334,-1.12678139256417,0.141992220432115,0.143568084802083,-0.281209837420857,-0.50788336920871,-0.0431680436430533
85.545,-0.537963537496958,0.279901601135456,0.796059910625987,-0.314563000588545,0.0220244548836288,0.00935429751410304,-1.02701994282446,-0.141976167031169,-0.0323789030855029,-0.567001085809224,0.123282977256765,0.418034830241521,-1.07026409539935,0.265602360895799,0.0290844630923858,-0.535877264262085,-0.389858931687667,0.0194963294412645,-1.1389218271638,0.129596899327671,0.129314440562776,-0.298338986337316,-0.492362024890319,-0.111827002742643
85.55,-0.534010963149662,0.293848439775922,0.789013586998703,-0.278584242828802,0.0303368096271545,0.0352596450804962,-1.01280341223602,-0.0494942066557951,-0.0490299593610307,-0.573976898724845,0.134903952853877,0.357576134312174,-1.05331263975125,0.296108485415202,0.0246106052744437,-0.490324187947422,-0.364122777224561,-0.0161663292359251,-1.13140209712848,0.115253434720956,0.104107535995511,-0.353297415237113,-0.452405370625965,-0.142368716735109
85.555,-0.536469634133518,0.300230512493154,0.788397292218134,-0.252200430919325,0.0383837829421295,0.0460550618099062,-1.00104337716059,-0.00577685116567609,-0.0474265401468391,-0.675170257353077,0.10693572199017,0.27786931224352,-1.06593097330601,0.303453510992006,0.0494460422657226,-0.404248477077589,-0.331472476253914,-0.0546168203944469,-1.11329226319889,0.107081627105294,0.098184228776,-0.424615576210093,-0.40172729543281,-0.140770498330945
85.56,-0.532355546451013,0.30441525265249,0.785946707511721,-0.247014277108837,0.0429219307464852,0.0519981039832854,-1.00319180662342,0.0051788467083981,-0.0452824137509257,-0.709744470974087,0.102226068527841,0.271182816229016,-1.05499271883941,0.271770659991279,0.0735806985172541,-0.30023210695799,-0.297012053756596,-0.0876207585451212,-1.08789405075559,0.0986670182515837,0.0951035243534614,-0.482435810340262,-0.346736656964148,-0.111701239582483
85.565,-0.528867940348223,0.299726413893372,0.782316337739635,-0.217819624004296,0.045980043050316,0.0449575273460804,-1.00592526991123,0.00877211248824976,-0.0324296846050114,-0.692165886688643,0.105741636887197,0.266405375568206,-1.05740707871887,0.228729902450709,0.104680518882847,-0.213505672905476,-0.258609020351066,-0.144658778185042,-1.06855702771565,0.081796218411705,0.0969662350329456,-0.520887139361336,-0.294734145818302,-0.0572468544329756
85.57,-0.525144246996341,0.308404627376987,0.78347735387831,-0.205281660078165,0.0429560443156949,0.0481520916807634,-1.0035328441559,-0.00652084561203885,-0.028629108706894,-0.687888910254284,0.115344948239892,0.257830773728008,-1.06281902087074,0.160751896648874,0.16408844035842,-0.0831201651359416,-0.216247635582987,-0.199204490772254,-1.04350340181684,0.0678837229201164,0.107917041009979,-0.554439069763552,-0.257710479991207,0.0210709704399061
85.575,-0.521348295454883,0.314164792864063,0.78647080752004,-0.189893124577437,0.0446254951255429,0.0501312010482006,-0.996506416158747,-0.00858378262627935,-0.0176657232234636,-0.642482483819979,0.102158625880953,0.255626177465149,-1.06366060638668,0.0983677963007563,0.21439171058903,0.0500552279370946,-0.189047067166041,-0.238626876719039,-1.01905045514923,0.0570655312216518,0.10557127171249,-0.576260552463889,-0.216167747484569,0.116526966010481
85.58,-0.519251436079877,0.312903780551402,0.788037588891264,-0.167164541916058,0.0444141638501429,0.0486249426452207,-0.997754438903505,-0.00492875332880828,-0.00666543881645963,-0.577898593462685,0.109288397029306,0.238336476922738,-1.05676810779229,0.0173885487084256,0.273420295296399,0.224416749778728,-0.162912369572319,-0.285085555432155,-0.999747122673554,0.0433176294691134,0.11208322252722,-0.5640745770508,-0.200851761939148,0.189011174722091
85.585,-0.520614554938486,0.316974496825392,0.7851932027476,-0.152918765939094,0.0442107188293212,0.0570420624299523,-0.976056429350151,0.0246251235799647,0.0227162792444402,-0.496238635323482,0.119151851640267,0.206159919021621,-1.04880864057192,-0.0543516264664038,0.3265420942737,0.375552917920118,-0.137631422761578,-0.332881101890554,-0.972674574947926,0.0344151741169466,0.123320738344382,-0.533956517655637,-0.201122207275289,0.276025885740442
85.59,-0.522536424314254,0.310975238166768,0.788203230256515,-0.137765027434879,0.0333780124395356,0.0413990019199313,-0.982640193703804,0.0350858552194944,0.0189207981973883,-0.431740088483942,0.132819263042132,0.184591136631408,-1.04629749539374,-0.107388895983409,0.363300474923653,0.495831344363814,-0.112982327833946,-0.381155295914978,-0.958453783630023,0.0378475215336724,0.130411222223904,-0.499213417912465,-0.211627142148079,0.331467220961565
85.595,-0.523436499582852,0.30786624033412,0.786405122661875,-0.122809778317535,0.0344354719383559,0.0463109084853654,-0.988230609241145,0.0423129062718664,0.00604689688760083,-0.45601205900181,0.147072017026662,0.176498740745305,-1.05020889956505,-0.155167270957076,0.398748926316554,0.6215248492983,-0.0918628586682117,-0.40173998651322,-0.935304327779606,0.0416390683721758,0.138540031719197,-0.465487565961782,-0.236204179943517,0.378722189838802
85.6,-0.518987367733404,0.316716182196551,0.781676665582443,-0.106068131568024,0.0348684970822823,0.0446920320391655,-0.993027040579948,0.0477766541158766,0.0189696546205526,-0.375467815907066,0.141731107588181,0.169259216675069,-1.04121516710538,-0.18238760078594,0.407797740217957,0.678911717218397,-0.0600204520130386,-0.386787888959147,-0.920308946478431,0.0503264762838781,0.149817860154277,-0.437994371303474,-0.27250427012446,0.407558695784671
85.605,-0.514076242398016,0.318123460984689,0.784010842667757,-0.109094526849098,0.0344898457320056,0.041690692785981,-0.987733964237905,0.0673588454940124,0.0169670339835415,-0.410818608696861,0.155576856456202,0.148590828401762,-1.0308752178743,-0.197311356741038,0.400088773432433,0.729543993450962,-0.0154485629392857,-0.364439864339716,-0.905894955641237,0.0681225074685225,0.163859948647666,-0.432187646627426,-0.303509648425176,0.422379380619562
85.61,-0.510581253024228,0.325458362808933,0.783337561741373,-0.0798711363356443,0.0266679430749689,0.0321114195445611,-0.983384809984193,0.0336780682826159,0.0122032200166986,-0.402300281216204,0.161482038210961,0.156281318020907,-1.02875906093539,-0.190015960537623,0.385296871729717,0.73976322457535,0.0115981544116469,-0.330719198979914,-0.90225488934792,0.0753573106856425,0.17340293240337,-0.439966210842447,-0.31991292638948,0.426283635712516
85.615,-0.510866074328303,0.324076545562922,0.783643109811236,-0.0727151610958771,0.026531972730358,0.0298884627007544,-0.985872387297669,0.0581772402805256,0.0108330626531931,-0.318140746395735,0.172931221576488,0.145274605040804,-1.00398571203795,-0.167862564783379,0.348157433203782,0.759534462660945,0.0242657096129219,-0.246683578219442,-0.899188557881199,0.0843833109598025,0.188379735319272,-0.473849008924216,-0.306968439784507,0.419513358414117
85.62,-0.514777464045657,0.319611221240144,0.786706873728574,-0.0531240757453474,0.0226466784449726,0.024938898827708,-0.989844699638984,0.0652595200346747,-0.00514857283106644,-0.379392171561888,0.175534347998695,0.125481944784685,-0.978744648407316,-0.140587425329127,0.307059203623099,0.772491994944924,0.0321133732795715,-0.182755728004914,-0.91351483516667,0.102385641466603,0.190714554207817,-0.52708922216588,-0.305742717285542,0.411980562905879
85.625,-0.519047093676864,0.319795371159862,0.78621243314449,-0.0423448829159288,0.0129295797648945,0.0138534772784339,-0.9940001618855,0.0384149087248605,-0.0333923964804801,-0.374449992893309,0.188328515162874,0.123502301049641,-0.980362610165398,-0.111321922090702,0.270118564855538,0.797434540256843,0.0368939845871344,-0.150077661191022,-0.93634570910278,0.117423585163177,0.187959136052349,-0.587842253710504,-0.316840678209004,0.413799672938031
85.63,-0.515792011227959,0.316598682771099,0.785102344891258,-0.0344637763974885,0.00824026204645634,0.00391009234860765,-0.9831458589987,0.0457589165243245,-0.0395106390433129,-0.310228259631544,0.182171549295258,0.10945600745706,-0.980107724465183,-0.0837864986264053,0.209854917368766,0.825896828561336,0.0507148440491223,-0.103738959629187,-0.963123170935368,0.125134915494315,0.187367662501608,-0.667314152011614,-0.35426413361571,0.430715342407098
85.635,-0.514122434328579,0.31911008695212,0.780468794537514,-0.0166911805082238,0.00416223646996754,-0.00771174892168275,-0.984252186350675,0.0224007206273348,-0.0502589214054125,-0.271048421964711,0.183897719847477,0.104429373909401,-0.99014285391363,-0.0618189279642369,0.169091208622339,0.86113923890012,0.0578228897251687,-0.0832795538386943,-0.982776721508788,0.133511621245549,0.188478476512003,-0.69996119772159,-0.376900241840717,0.450860865403016
85.64,-0.517103932376882,0.319076330310723,0.781685386950329,-0.00104646484923666,-0.00393113138475756,-0.0182836333541261,-0.989363732664748,0.002023288454944,-0.0634939642025306,-0.174594898131222,0.172361222184383,0.094618999804852,-0.989022644861866,-0.0408013466526674,0.126674696543843,0.892625831795317,0.0647223257051073,-0.0499770891476302,-1.01551172272511,0.140293744857544,0.191722253079013,-0.722964159061426,-0.377601908194221,0.469102132675377
85.645,-0.520807131252877,0.314206903565238,0.781541027106792,0.0273693720027305,-0.0147461711496575,-0.029906586834773,-0.987971197035578,-0.00145173454642029,-0.0699621320157621,-0.0580170554247187,0.162713246388555,0.084529016693107,-0.987780291556236,-0.0264416094869532,0.08453779739137,0.902974851936826,0.0699859037995338,-0.0199584582642141,-1.04597080679661,0.153173608474556,0.196294858518,-0.759238216194635,-0.349291736844366,0.481037233569896
