Header,foot_Accel_X,foot_Accel_Y,foot_Accel_Z,foot_Gyro_X,foot_Gyro_Y,foot_Gyro_Z,shank_Accel_X,shank_Accel_Y,shank_Accel_Z,shank_Gyro_X,shank_Gyro_Y,shank_Gyro_Z,thigh_Accel_X,thigh_Accel_Y,thigh_Accel_Z,thigh_Gyro_X,thigh_Gyro_Y,thigh_Gyro_Z,trunk_Accel_X,trunk_Accel_Y,trunk_Accel_Z,trunk_Gyro_X,trunk_Gyro_Y,trunk_Gyro_Z
0,-0.347286009395475,-3.83992357593354,-1.98619295227854,0.331676526711768,-0.0254807537460581,0.073221093387849,0.693864364622868,7.51433217333982,-4.52464038570247,0.404280355983559,0.00802513813530064,0.000270914763244835,-7.07339185693149,2.71939876748316,1.22032347027732,0.402332493391306,0.00671369920771769,0.0684765881217743,1.00754626816615,0.783356108906357,-1.8126185252824,0.0136808597847965,-0.0340617172830052,0.100687761512678
0.005,-0.347369206554731,-3.83672186013939,-1.98401757046713,0.331872831713711,-0.0233316751976739,0.0728129373147967,0.692562035063247,7.50859946231094,-4.52115768293514,0.404750811089062,0.00811725270352445,0.000562742412645665,-7.06867700934049,2.71726174721829,1.21923298508807,0.402797998976426,0.00681728844112809,0.0688740030796361,1.00600318734564,0.782739371118694,-1.81106523890099,0.013140121545289,-0.0334691894541799,0.0990708391727552
0.01,-0.347452403713987,-3.8335201443453,-1.98184218865572,0.332010585824514,-0.018945452372417,0.0720191949831569,0.691259705503626,7.50286675128208,-4.51767498016782,0.405296901072922,0.00824895561273834,0.00123051854165765,-7.06396216174971,2.71512472695342,1.21814249989882,0.403340967120145,0.00728308665334387,0.0696390320358252,1.00446010652536,0.782122633331031,-1.80951195251959,0.011810158832629,-0.031864088449246,0.0948173926564906
0.015,-0.34753560087313,-3.83031842855115,-1.97966680684431,0.330217068555043,-0.0140775359314279,0.0705487944026156,0.689957375944005,7.49713404025323,-4.51419227740049,0.403352442982885,0.00833470529037473,0.00210226629513145,-7.05924731415871,2.71298770668855,1.21705201470951,0.401407488556231,0.00791046513452195,0.0702005343604083,1.00291702570485,0.781505895543368,-1.80795866613818,0.0100054449395265,-0.0293641577461725,0.0884433151813874
0.02,-0.347618798032386,-3.82711671275712,-1.97749142503312,0.32324816716638,-0.0083274237053319,0.0679286863708075,0.688655046384611,7.49140132922435,-4.51070957463317,0.395010416428701,0.00834896907839245,0.00296235314274425,-7.05453246656771,2.71085068642367,1.2159615295202,0.393103363685617,0.00845350161152528,0.0698253914624239,1.00137394488434,0.780889157755706,-1.80640537975682,0.0077033048804599,-0.0259389533529118,0.079937558033664
0.025,-0.347701995191528,-3.82391499696303,-1.97531604322194,0.308175379017665,-0.00151288590216044,0.0636304737573008,0.687352716824762,7.48566861819549,-4.50722687186585,0.37678729828677,0.00825180032222625,0.00358847152812463,-7.0498176189767,2.7087136661588,1.21487104433095,0.374957025321501,0.0086706911625456,0.0677781427713428,0.999830864064052,0.780272419968039,-1.80485209337547,0.00496745415688054,-0.021764814081361,0.0696258699663931
0.03,-0.347785192350784,-3.82071328116893,-1.97314066141053,0.284473618396246,0.00594471676707248,0.0575447129905711,0.686050387265368,7.47993590716663,-4.50374416909852,0.348093014190329,0.00802665215441756,0.00386606358119286,-7.04510277138593,2.70657664589393,1.2137805591417,0.346379786036663,0.00846207271511432,0.0637834667450324,0.998287783243768,0.77965568218038,-1.80329880699406,0.00195016135334104,-0.0172641222767225,0.0581988254668627
0.035,-0.347868389509927,-3.81751156537479,-1.97096527959911,0.25425002339809,0.0131203358008998,0.0501077549412096,0.684748057705519,7.47420319613775,-4.5002614663312,0.311481457418103,0.0077014672642602,0.00381850538686598,-7.0403879237947,2.70443962562906,1.21269007395239,0.309914648999435,0.00789447368766992,0.0581505766032008,0.996744702423257,0.779038944392713,-1.80174552061266,-0.00114747967966922,-0.0129190185869376,0.046534112911849
0.04,-0.347951586669069,-3.8143098495807,-1.96878989778793,0.220548512212622,0.0190833153823325,0.0419729456770795,0.683445728146125,7.4684704851089,-4.49677876356387,0.270624076915543,0.0073309027882952,0.00353809655153841,-7.03567307620392,2.70230260536418,1.21159958876308,0.269217480244517,0.00710643665599953,0.05146657801801,0.995201621602746,0.778422206605054,-1.80019223423125,-0.00413079145860102,-0.00905726595945441,0.0354174621603172
0.045,-0.348034783828325,-3.81110813378655,-1.96661451597652,0.185989515961433,0.0232082712463574,0.0337171676737645,0.682143398586504,7.46273777408004,-4.49329606079655,0.228686714106195,0.00696553512068615,0.00312083853124117,-7.03095822861292,2.70016558509931,1.21050910357383,0.227440868980431,0.00622547433660914,0.0442871808267414,0.993658540782462,0.777805468817387,-1.79863894784984,-0.00684017603708367,-0.00583500857684133,0.0253929054620685
0.05,-0.348117980987467,-3.80790641799251,-1.9644391341651,0.152504880282606,0.0251757112762555,0.0257718163799696,0.680841069026883,7.45700506305116,-4.48981335802923,0.18801096084771,0.0066387068859323,0.0026472140553949,-7.02624338102191,2.69802856483444,1.20941861838457,0.186917235871773,0.00534781334405758,0.0370434545019059,0.992115459961951,0.777188731029725,-1.79708566146843,-0.00915355944204513,-0.00331987539042343,0.0167761893475633
0.055,-0.348201178146724,-3.80470470219836,-1.96226375235369,0.121437405090351,0.0249090251448423,0.0184361482804696,0.679538739467262,7.45127235202233,-4.48633065526191,0.150229886135638,0.00637133005750389,0.00217965145029635,-7.02152853343091,2.69589154456956,1.20832813319527,0.149273661154286,0.00454139830546463,0.0300555992501303,0.99057237914144,0.776571993242062,-1.79553237508708,-0.010984987929255,-0.00153466634640648,0.00970821944199075
0.06,-0.34828437530598,-3.80150298640427,-1.96008837054251,0.0936363852050489,0.0225181107179977,0.0119047913746191,0.678236409907868,7.44553964099345,-4.48284795249458,0.116376598190433,0.00617855135458375,0.00176155172845291,-7.01681368584013,2.69375452430469,1.20723764800596,0.115539469541669,0.0038497012208099,0.0235527689880314,0.989029298321157,0.775955255454399,-1.79397908870567,-0.0122880650090617,-0.000470279636814136,0.00420142178650909
0.065,-0.348367572465122,-3.79830127061018,-1.95791298873132,0.0695521579199588,0.0182449628152674,0.00628757032885099,0.676934080348019,7.43980692996459,-4.47936524972726,0.0869964480843295,0.00606994575775291,0.00142023750643245,-7.01209883824913,2.69161750403984,1.20614716281671,0.0862580351393132,0.00329690679148136,0.017684558480128,0.987486217500873,0.775338517666736,-1.79242580232426,-0.013064922241225,-8.93801644527485e-05,0.000174822137326699
0.07,-0.348450769624378,-3.79509955481603,-1.95573760691991,0.0493329245887257,0.0124398895938762,0.0016049537177788,0.675631750788625,7.43407421893571,-4.47588254695993,0.0622722315662041,0.0060447360462946,0.00117330708194839,-7.00738399065813,2.68948048377496,1.2050566776274,0.0616120059781959,0.00289455711377669,0.012534726378087,0.985943136680362,0.774721779879073,-1.79087251594291,-0.0133672455490261,-0.000323663273496753,-0.00252793043560844
0.075,-0.348533966783521,-3.79189783902194,-1.9535622251085,0.0329067913161272,0.00553335906831746,-0.00220046834932118,0.674329421228776,7.42834150790688,-4.47239984419261,0.0421276251008712,0.00608795020171682,0.00103204945498148,-7.00266914306712,2.68734346351009,1.20396619243809,0.0415267425180145,0.00264484916110816,0.00813630355547891,0.984400055859851,0.774105042091406,-1.7893192295615,-0.0132777714861559,-0.0010767219646746,-0.00411594457971288
0.08,-0.348617163942663,-3.78869612322785,-1.95138684329731,0.0200380298491907,-0.00201254070193938,-0.00521807493231348,0.673027091669383,7.422608796878,-4.46891714142529,0.0262875058460398,0.00617167794140047,0.000999734797995495,-6.99795429547635,2.68520644324522,1.20287570724884,0.0257303226145086,0.00253952460893063,0.00448218386555331,0.982856975039567,0.773488304303747,-1.78776594318015,-0.0128853639731758,-0.00223385512005129,-0.00481592795022874
0.085,-0.348700361101919,-3.78549440743376,-1.9492114614859,0.0103730107241013,-0.00972878309438457,-0.00753182606906396,0.671724762109761,7.41687608584914,-4.46543443865796,0.0143269389227205,0.00625752173956803,0.00107046920869428,-6.99323944788534,2.68306942298034,1.20178522205958,0.0138021684205424,0.00255935535560451,0.00153422755989857,0.981313894219056,0.772871566516081,-1.78621265679868,-0.012265784306391,-0.00366847397155547,-0.00484698857220447
0.09,-0.348783558261061,-3.78229269163967,-1.94703607967449,0.00348539732058947,-0.0171451942091587,-0.00921324039013696,0.67042243255014,7.41114337482028,-4.46195173589064,0.00572742944039932,0.0062993114068462,0.0012311502904873,-6.98852460029434,2.68093240271547,1.20069473687028,0.00522893670279369,0.00267669297038007,-0.000766745250197559,0.979770813398545,0.772254828728418,-1.78465937041733,-0.0114739709451496,-0.00524313344435129,-0.00441112311238435
0.095,-0.348866755420318,-3.77909097584558,-1.94486069786331,-0.00108626087653792,-0.0238283895823608,-0.0103313520666208,0.669120102990519,7.4054106637914,-4.45846903312331,-7.2591098487763e-05,0.0062537914823019,0.00146354128968133,-6.98380975270356,2.6787953824506,1.19960425168097,-0.000545963314498935,0.0028599429544984,-0.00249214456320281,0.978227732578489,0.771638090940755,-1.78310608403592,-0.0105630426807699,-0.00681124286861368,-0.00368587817920761
0.1,-0.34894995257946,-3.77588926005149,-1.94268531605189,-0.0038102453375161,-0.0294451612157803,-0.0109654213615071,0.667817773430897,7.39967795276254,-4.45498633035599,-0.00363890232228283,0.00609588807170618,0.00174524518361305,-6.97909490511233,2.67665836218572,1.19851376649171,-0.00408481430293701,0.00307800566793373,-0.00371874843763041,0.976684651757978,0.771021353153092,-1.78155279765451,-0.00961690571343917,-0.00822312526244857,-0.00281603723330909
0.105,-0.349033149738716,-3.77268754425734,-1.94050993424071,-0.00513714040964159,-0.03379172349717,-0.0112067994413619,0.666515443871504,7.39394524173369,-4.45150362758866,-0.00551055080831898,0.00582374185940783,0.00205117412116936,-6.97438005752156,2.67452134192085,1.19742328130246,-0.00592511769802154,0.00330286892894752,-0.00452355379199849,0.975141570937467,0.770404615365429,-1.7799995112731,-0.00875267701183928,-0.00933746344111961,-0.00191005458472224
0.11,-0.349116346897972,-3.76948582846319,-1.9383345524293,-0.00547859637377662,-0.0367772429187832,-0.0111469133611901,0.665213114311882,7.38821253070481,-4.44802092482134,-0.00617731007680133,0.00545309715266234,0.0023556465938705,-6.96966520993055,2.67238432165598,1.19633279611315,-0.00655665374440034,0.00351037714322392,-0.00498091723685071,0.973598490116956,0.769787877577762,-1.7784462248917,-0.00809065615412839,-0.010038649878502,-0.00104163213268658
0.115,-0.349199544057115,-3.7662841126691,-1.93615917061788,-0.00519232436434505,-0.0384014859282507,-0.0108611258707055,0.663910784752261,7.38247981967595,-4.44453822205402,-0.00606658508563745,0.00501202551790897,0.00263386311679662,-6.96495036233978,2.6702473013911,1.19524231092385,-0.00640799181587455,0.0036804622511939,-0.00516289456430094,0.972055409296672,0.769171139790103,-1.77689293851034,-0.00772778924961408,-0.0102605834675682,-0.000252583479023068
0.12,-0.349282741216371,-3.76308239687501,-1.9339837888067,-0.00457167169431089,-0.0387448257419554,-0.010400166746078,0.66260845519264,7.37674710864709,-4.4410555192867,-0.00553331210396058,0.00453559829092876,0.00286332654809454,-6.96023551474855,2.66811028112625,1.19415182573459,-0.00583598421787005,0.00379732194880279,-0.00514251432190113,0.970512328476161,0.768554402002437,-1.77533965212899,-0.0077247429953257,-0.0100040732945644,0.000443733401470118
0.125,-0.349365938375399,-3.75988068108092,-1.93180840699529,-0.00384114924749896,-0.0379516044661981,-0.0097933823458972,0.661306125633246,7.37101439761824,-4.43757281651937,-0.00485303402151243,0.00405553439414835,0.00302634239824245,-6.95552066715777,2.66597326086136,1.19306134054534,-0.00511801651999621,0.00384949699737197,-0.0049958351184185,0.96896924765565,0.767937664214774,-1.77378636574758,-0.00809931414698728,-0.00932312867768616,0.00105708130092414
0.13,-0.349449135534655,-3.75667896528682,-1.92963302518388,-0.00316418349694848,-0.0361880713372622,-0.0090522162166709,0.660003796073397,7.36528168658938,-4.43409011375205,-0.00423098336056366,0.00359114227111371,0.00311206679443756,-6.95080581956677,2.6638362405965,1.19197085535603,-0.00446032277438554,0.00382972801208121,-0.00479808806496359,0.967426166835594,0.767320926427111,-1.77223307936617,-0.00882819101611159,-0.00828740255529515,0.00161386350345976
0.135,-0.349532332693911,-3.75347724949268,-1.92745764337246,-0.00265866043754313,-0.0335984604546457,-0.00816763514448055,0.658701466514003,7.3595489755605,-4.43060741098472,-0.00382311488413308,0.00314889294282893,0.00311579714825974,-6.94609097197576,2.66169922033161,1.19088037016672,-0.00401892721354982,0.00373404967244445,-0.00461571118995896,0.965883086015083,0.766704188639448,-1.77067979298477,-0.00985599873124159,-0.00695767328137837,0.00215150277203637
0.14,-0.349615529853054,-3.75027553369864,-1.92528226156128,-0.00240618654526346,-0.0303102250603046,-0.00711478531438208,0.657399136954155,7.35381626453164,-4.42712470821739,-0.00374528624144175,0.00272868164225796,0.00303615333023051,-6.94137612438476,2.65956220006674,1.18978988497742,-0.00390932499067686,0.003560435621023,-0.00450038448097986,0.964340005194572,0.766087450851785,-1.76912650660336,-0.0111068432561517,-0.00538743038202492,0.00271520180197996
0.145,-0.34969872701231,-3.74707381790449,-1.92310687975009,-0.00245267663873692,-0.0264780041371479,-0.00586604127406019,0.656096807394761,7.34808355350279,-4.42364200545007,-0.00406788494353615,0.00233051088107635,0.00287254480056583,-6.93666127679398,2.65742517980188,1.18869939978816,-0.00420168455501332,0.00330789990425649,-0.00448731958691605,0.962796924374061,0.765470713064122,-1.76757322022195,-0.0124931894387892,-0.00363435103195818,0.00335635800909755
0.15,-0.349781924171452,-3.7438721021104,-1.92093149793868,-0.00281156310528569,-0.0222879775981174,-0.00439375122681233,0.654794477835139,7.34235084247391,-4.42015930268274,-0.0048182104492088,0.00195494690709036,0.00262426064109161,-6.93194642920298,2.65528815953701,1.18760891459891,-0.00492326890958917,0.0029757040263287,-0.0045949335944097,0.961253843553777,0.764853975276459,-1.7660199338406,-0.0139129364489389,-0.00176394747564201,0.00412883838830314
0.155,-0.349865121330708,-3.74067038631631,-1.91875611612727,-0.00347040864389791,-0.0179171542191054,-0.0026674876391824,0.653492148275518,7.33661813144508,-4.41667659991542,-0.00599030736978988,0.0015971529597974,0.00229176447004982,-6.92723158161198,2.65315113927213,1.1865184294096,-0.00606775014376457,0.00256319237963119,-0.00482518346964716,0.959710762733266,0.764237237488796,-1.76446664745919,-0.0152414058537683,0.000156468685580474,0.00508141208456868
0.16,-0.349948318489965,-3.73746867052216,-1.91658073431608,-0.00439040240583726,-0.0135251547774328,-0.000674419516486293,0.652189818715897,7.33088542041619,-4.4131938971481,-0.00753849425551956,0.00124262589593068,0.0018799456732147,-6.92251673402097,2.65101411900726,1.18542794422035,-0.00758838094882028,0.00207201535154177,-0.00516826360471344,0.958167681912755,0.76362049970113,-1.76291336107784,-0.0163444232465947,0.00206346618180971,0.00624832569735124
0.165,-0.350031515649107,-3.73426695472807,-1.91440535250467,-0.00550359100722329,-0.00928033375683281,0.00155028980226907,0.650887489156275,7.32515270938731,-4.40971119438077,-0.00936460861198604,0.000870911357923355,0.00140024304419496,-6.9178018864302,2.64887709874239,1.18433745903104,-0.0093855457539336,0.00150912533705531,-0.00560924517468241,0.956624601092699,0.76300376191347,-1.76136007469643,-0.017110799907858,0.00389690357196482,0.00764106974401558
0.17,-0.350114712808249,-3.73106523893398,-1.91222997069326,-0.00672134826452179,-0.00535447764766236,0.00392944633238606,0.649585159596654,7.31941999835848,-4.40622849161345,-0.0113317629558537,0.000465321202324568,0.00086855329154259,-6.91308703883897,2.64674007847751,1.18324697384179,-0.0113212654192329,0.000886900970768848,-0.00612821117136459,0.955081520272188,0.762387024125804,-1.75980678831502,-0.0174659380439875,0.00559349456693344,0.0092449750862886
0.175,-0.350197909967392,-3.72786352313983,-1.91005458888185,-0.00794893739917,-0.00188653044305709,0.00637928427840493,0.64828283003726,7.3136872873296,-4.40274578884613,-0.0132956770730756,2.12414582562287e-05,0.000301286635894209,-6.90837219124819,2.64460305821264,1.18215648865248,-0.0132511349510993,0.000221045068188394,-0.00669552116046009,0.953538439451677,0.761770286338145,-1.75825350193361,-0.0173573543219606,0.00707927071870126,0.0110200928285743
0.18,-0.350281107126648,-3.72466180734574,-1.90787920707066,-0.00909277378863361,0.00103820727690471,0.00882329850263621,0.646980500477412,7.30795457630074,-4.3992630860788,-0.0151190775755204,-0.000453281195155332,-0.000285482571136173,-6.90365734365719,2.64246603794777,1.18106600346317,-0.0150387354116008,-0.000470181106631009,-0.00727191234439251,0.951995358631166,0.761153548550478,-1.7567002155522,-0.0167457852469424,0.00827170500230548,0.0129037204560506
0.185,-0.350364304285904,-3.72146009155165,-1.90570382525948,-0.0100601534220219,0.00338787102357968,0.0111647238580113,0.645678170918018,7.30222186527189,-4.39578038331148,-0.0166618194481288,-0.00094683088020629,-0.00087259545801334,-6.89894249606618,2.64032901768289,1.17997551827392,-0.0165450138423311,-0.0011646948089758,-0.00781633116987927,0.950452277810882,0.760536810762815,-1.75514692917079,-0.0156211902395453,0.00910210789188745,0.0148174077779707
0.19,-0.350447501445046,-3.71825837575756,-1.90352844344807,-0.0107594071054002,0.00517952019649179,0.0132531733824571,0.644375841358396,7.29648915424301,-4.39229768054415,-0.0177691066481994,-0.001456352479052,-0.00143401303653169,-6.89422764847518,2.63819199741803,1.17888503308461,-0.0176155722694168,-0.00183551112143083,-0.00829494369022706,0.948909196990371,0.759920072975152,-1.75359364278944,-0.014024896767276,0.0095438635688938,0.0166768763750071
0.195,-0.350530698604302,-3.71505665996347,-1.90135306163666,-0.0111082417002414,0.00647067633661418,0.0149026334681975,0.643073511798775,7.29075644321415,-4.38881497777683,-0.0182880623424827,-0.00198796738771568,-0.00193815402723647,-6.8895128008844,2.63605497715315,1.17779454789536,-0.0180971405360411,-0.00245232166875976,-0.00868390955524392,0.94736611616986,0.759303335187489,-1.75204035640803,-0.0120490273218388,0.0096135908792678,0.0183983623136285
0.2,-0.350613895763445,-3.71185494416937,-1.89917767982547,-0.0110517751783455,0.00734519455156353,0.0159577868208147,0.641771182239154,7.28502373218529,-4.38533227500951,-0.0181129125273681,-0.00254868890656173,-0.00235454352647514,-6.8847979532934,2.63391795688828,1.17670406270611,-0.0178833537578208,-0.00298633349540525,-0.00896807499729671,0.945823035349804,0.758686597399826,-1.75048707002662,-0.00981440425847324,0.00935031156126305,0.0199067662246175
0.205,-0.350697092922701,-3.70865322837523,-1.89700229801406,-0.0105763807827695,0.0078995626228318,0.0163359311449753,0.640468852679533,7.27929102115641,-4.38184957224219,-0.0172153153971695,-0.00314026095420051,-0.00265981182979441,-6.8800831057024,2.63178093662341,1.1756135775168,-0.0169455452978419,-0.00341489129305934,-0.00913932253102078,0.944279954529293,0.758069859612164,-1.74893378364521,-0.00744944487671221,0.00880279668687714,0.021146090162116
0.21,-0.350780290081957,-3.70545151258113,-1.89482691620265,-0.0097063503173024,0.00823300859316117,0.0160150467322043,0.639166523119911,7.27355831012758,-4.37836686947486,-0.0156345921329714,-0.00375598225073193,-0.0028392058540851,-6.87536825811139,2.62964391635853,1.17452309232755,-0.0153232762616347,-0.00372218534031532,-0.00919296934712457,0.942736873708782,0.757453121824497,-1.74738049726386,-0.00507730691185717,0.00802419424925862,0.02207783752704
0.215,-0.350863487240986,-3.70224979678699,-1.89265153439123,-0.00849504932639229,0.00843863742034083,0.015017191229751,0.637864193560517,7.2678255990987,-4.37488416670754,-0.0134604110282338,-0.00438083862273326,-0.00288562272028318,-6.87065341052062,2.62750689609366,1.17343260713818,-0.0131070504148721,-0.00389825945328157,-0.00912788434352101,0.941193792888271,0.756836384036838,-1.74582721088245,-0.00281051240784294,0.00706562354171628,0.0226732975616415
0.22,-0.350946684400242,-3.6990480809929,-1.89047615258005,-0.00702231420853107,0.00859435479387546,0.0134116699451641,0.636561864000669,7.26209288806982,-4.37140146394021,-0.0108308049178985,-0.00499552627117189,-0.00279835033794155,-6.86593856292939,2.6253698758288,1.17234212194893,-0.010436002744467,-0.00393871945157541,-0.0089522068969922,0.939650712067987,0.756219646249171,-1.7442739245011,-0.00075323633567417,0.00597439228657897,0.0229115533875496
0.225,-0.351029881559384,-3.6958463651988,-1.88830077076886,-0.00538671374095538,0.00875735143309266,0.0113067065447343,0.635259534441275,7.25636017704099,-4.36791876117289,-0.00792015755858116,-0.00557827124512277,-0.00258101212252107,-6.86122371533861,2.62323285556393,1.17125163675968,-0.00748575297435938,-0.0038430966852013,-0.00868268887460113,0.938107631247476,0.755602908461512,-1.74272063811969,0.000997150081406053,0.00479443622962543,0.0227735444126911
0.23,-0.35111307871864,-3.69264464940471,-1.88612538895745,-0.00369070633202368,0.00896404451548194,0.00883197497125544,0.633957204881426,7.25062746601211,-4.36443605840556,-0.00491334253914447,-0.00610698889360133,-0.00224039822454389,-6.85650886774761,2.62109583529904,1.17016115157037,-0.00444244029484308,-0.00361405566260213,-0.0083394776707277,0.936564550426965,0.754986170673845,-1.74116735173828,0.00235711168861841,0.00356678395012445,0.0222427657415172
0.235,-0.351196275877896,-3.68944293361062,-1.88395000714604,-0.00203310967641726,0.00923170577016236,0.00613910200771774,0.632654875322032,7.24489475498325,-4.36095335563824,-0.00199375141436365,-0.00656489247057984,-0.00178745112292499,-6.8517940201566,2.61895881503418,1.16907066638112,-0.00149035671959997,-0.00325956766894682,-0.00794676746079558,0.935021469606909,0.754369432886183,-1.73961406535688,0.00326587563534646,0.00233344274893659,0.0213224358915394
0.24,-0.351279473037039,-3.68624121781653,-1.88177462533486,-0.000506683792393789,0.00955845716280999,0.00339867614773693,0.631352545762411,7.23916204395439,-4.35747065287092,0.00066069470706778,-0.00694047073968973,-0.0012368428038695,-6.84707917256583,2.61682179476929,1.16798018119181,0.00119203440340832,-0.00279246614597297,-0.00753253001943172,0.933478388786398,0.75375269509852,-1.73806077897547,0.00368668726205321,0.00113866263293533,0.0200389727781317
0.245,-0.351362670196295,-3.68303950202244,-1.87959924352344,0.000808974156940449,0.009924761693076,0.00077591892674164,0.63005021620279,7.23342933292551,-4.35398795010359,0.00289427772177405,-0.00722453285644549,-0.0006054099504341,-6.84236432497482,2.61468477450444,1.16688969600256,0.0034485644263634,-0.00222812859718086,-0.00712451638184434,0.931935307965887,0.753135957310857,-1.73650749259406,0.00360760515801945,2.19633204604592e-05,0.0184351099377017
0.25,-0.351445867355437,-3.67983778622829,-1.87742386171203,0.00185532123795452,0.0102961113333738,-0.00158949883035978,0.628747886643168,7.22769662189668,-4.35050524733627,0.00459265941362517,-0.00741356136441989,8.76568758399299e-05,-6.83764947738405,2.61254775423956,1.16579921081325,0.00516473837670086,-0.00158528980841185,-0.00674968018013581,0.930392227145376,0.752519219523194,-1.73495420621271,0.00304909152444742,-0.000989463087891357,0.0165788277284738
0.255,-0.351529064514693,-3.67663607043414,-1.87524847990062,0.00259872254537878,0.0106160818694293,-0.00358848573003895,0.627445557083774,7.2219639108678,-4.34702254456895,0.00568879953706781,-0.0075112715540528,0.000822424038440611,-6.83293462979282,2.61041073397469,1.16470872562394,0.00627377686641531,-0.00088477444734684,-0.00643192588104293,0.928849146325092,0.751902481735527,-1.73340091983135,0.00206891984428725,-0.00188020018354838,0.0145606744522373
0.26,-0.351612261673836,-3.67343435464005,-1.87307309808944,0.00303180723233474,0.0107965892023913,-0.00514665304385706,0.626143227523926,7.21623119983892,-4.34353984180163,0.00616136834916596,-0.00752393821738273,0.00158247956388031,-6.82821978220204,2.60827371370982,1.16361824043469,0.00675471384810315,-0.000144267020871622,-0.0061853137096107,0.927306065504581,0.751285743947868,-1.73184763344995,0.000756694131992304,-0.0026414281265222,0.0124675648101635
0.265,-0.351695458832978,-3.67023263884596,-1.87089771627825,0.00317326944269706,0.0107345465569492,-0.00623606299887129,0.624840897964532,7.21049848881009,-4.3400571390343,0.00603767590470239,-0.00745950271373975,0.00235605750644776,-6.82350493461104,2.60613669344495,1.16252775524543,0.00663525728504754,0.000623022397547913,-0.00601309805755142,0.925762984684297,0.750669006160201,-1.73029434706854,-0.000781289531834916,-0.00327084293486545,0.0103742417670938
0.27,-0.351778655992234,-3.66703092305187,-1.86872233446684,0.00306511063264602,0.0103461572551795,-0.00688430628814096,0.623538568404683,7.2047657777812,-4.33657443626697,0.00539672703816777,-0.0073309890026885,0.00313319678754111,-6.81879008702003,2.60399967318007,1.16143727005613,0.00599507008811119,0.001404844939046,-0.00591277611895375,0.924219903864014,0.750052268372539,-1.72874106068713,-0.00243899136659655,-0.00377669516762099,0.0083589011427727
0.275,-0.351861853151377,-3.66382920725778,-1.86654695265565,0.00276654424475979,0.0095758446109247,-0.00716296231956309,0.622236238845289,7.19903306675235,-4.33309173349965,0.00435856354770268,-0.00715551414591471,0.00390338718344008,-6.81407523942903,2.60186265291519,1.16034678486682,0.00495504081931059,0.00218778922540978,-0.00587657389876125,0.922676823043503,0.749435530584876,-1.72718777430572,-0.00411779742930032,-0.00417579540927464,0.00650606102262934
0.28,-0.351945050310633,-3.66062749146369,-1.86437157084424,0.00234763597536434,0.00838759654939743,-0.00716430106296936,0.620933909285668,7.19330035572349,-4.32960903073233,0.00306534966007536,-0.00695106298380716,0.00465640565895709,-6.80936039183825,2.59972563265032,1.15925629967757,0.00365818447735181,0.00295871298641541,-0.00589014164572922,0.921133742222992,0.748818792797213,-1.72563448792437,-0.0057306095512596,-0.00448562552806032,0.00488784913491964
0.285,-0.352028247469889,-3.65742577566954,-1.86219618903283,0.0018829551866023,0.00677194453564964,-0.00698310392192504,0.619631579726047,7.18756764469461,-4.326126327965,0.0016637533680384,-0.00673594367216322,0.00538450239225932,-6.80464554424702,2.59758861238545,1.15816581448831,0.00225206199158592,0.00370687584347855,-0.0059374504675679,0.919590661402481,0.74820205500955,-1.7240812015429,-0.00721506201687136,-0.0047199021917373,0.00355116809458662
0.29,-0.352111444629031,-3.65422405987545,-1.86002080722142,0.00144141171109485,0.00474964407403048,-0.00669637489959353,0.618329250166425,7.18183493366575,-4.32264362519768,0.000284290590895002,-0.00652532934108448,0.00608087310947496,-6.79993069665625,2.59545159212058,1.15707532929895,0.000867899132114563,0.00442309814625361,-0.00600353062002733,0.918047580582197,0.747585317221887,-1.72252791516155,-0.00854059814686392,-0.00488850432233622,0.00252548744863478
0.295,-0.352194641788287,-3.65102234408135,-1.85784542541023,0.00108005088368048,0.00235104782243939,-0.0063454971067526,0.617026920607032,7.1761022226369,-4.31916092243036,-0.000970178332699442,-0.0063246198893933,0.00673429450465163,-6.79521584906524,2.5933145718557,1.1559848441097,-0.000391465506428958,0.00509597408918126,-0.00606621331692103,0.916504499761686,0.74696857943422,-1.72097462878014,-0.00969171074309205,-0.00499632891146633,0.00183650740975813
0.3,-0.35227783894743,-3.64782062828721,-1.85567004359882,0.000845503870495792,-0.000404213018398578,-0.00594085160223369,0.615724591047183,7.17036951160802,-4.31567821966303,-0.00201863789537575,-0.00612911407285744,0.0073268838138137,-6.79050100147447,2.59117755159083,1.15489435892044,-0.00144583729267999,0.00570980113325216,-0.00608982259499283,0.914961418941402,0.746351841646561,-1.71942134239873,-0.010649065852081,-0.00504287400413853,0.00150798104907021
0.305,-0.352361036106572,-3.64461891249312,-1.85349466178764,0.000766152050528148,-0.00350682800366493,-0.00548976355346195,0.614422261487789,7.16463680057919,-4.31219551689571,-0.00280467496643495,-0.00593312135371263,0.00783970062820667,-6.78578615388324,2.58904053132596,1.15380387373114,-0.0022396283724246,0.00624791452017863,-0.00604009381964373,0.913418338121119,0.745735103858895,-1.71786805601738,-0.0114043507327949,-0.00502955898269543,0.00154789661790436
0.31,-0.352444233265828,-3.64141719669902,-1.85131927997622,0.000835841996339586,-0.00694579468987966,-0.00502494439928354,0.61311993192794,7.1589040895503,-4.30871281412838,-0.0033126464321656,-0.00574009334275324,0.00826115000941766,-6.78107130629246,2.58690351106108,1.15271338854188,-0.00275707913115642,0.0066984109551673,-0.00590902253082861,0.911875257300608,0.745118366071235,-1.71631476963597,-0.011993496745361,-0.0049703909965233,0.00193188631182386
0.315,-0.352527430424971,-3.63821548090493,-1.84914389816504,0.0010147836912183,-0.0106994018515044,-0.0046024015777581,0.611817602368546,7.15317137852145,-4.30523011136106,-0.00356872750743569,-0.00556224042101133,0.00858844604422994,-6.77635645870146,2.58476649079623,1.15162290335257,-0.00302332126571216,0.00705563752881026,-0.00571673328794769,0.910332176480097,0.744501628283569,-1.71476148325462,-0.0124977220117333,-0.00489073915635126,0.00260485748964509
0.32,-0.352610627584227,-3.63501376511084,-1.84696851635363,0.00124710745909463,-0.0147333054482158,-0.00426976755777741,0.610515272809153,7.14743866749257,-4.30174740859373,-0.00362689329353358,-0.00541121634267452,0.00882220299229098,-6.77164161111045,2.58262947053134,1.15053241816332,-0.00309120462939825,0.00731715648351358,-0.00549182370370451,0.908789095659586,0.743884890495906,-1.71320819687321,-0.013014663639807,-0.00481333222244298,0.00349956356414552
0.325,-0.352693824743369,-3.63181204931669,-1.84479313454221,0.00147342753245886,-0.0189986145421287,-0.00403980339711811,0.609212943249304,7.14170595646371,-4.29826470582641,-0.00356053737692283,-0.00529176700981727,0.00896280150813046,-6.76692676351945,2.58049245026648,1.14944193297401,-0.00303348660008214,0.00748172096365855,-0.00525763733340832,0.907246014839302,0.743268152708243,-1.7116549104918,-0.0136385958585953,-0.00474670938846837,0.00455033496344194
0.33,-0.352777021902625,-3.6286103335226,-1.8426177527308,0.00163768451162524,-0.0234209764357589,-0.00388560788864872,0.60791061368991,7.13597324543485,-4.29478200305909,-0.00345597454060379,-0.00520067514900196,0.00901086690797865,-6.76221191592867,2.57835543000161,1.14835144778471,-0.00293643439222122,0.00755002781733146,-0.00502690867610775,0.905702934018791,0.74265141492058,-1.71010162411039,-0.0144494877588681,-0.00468309704462976,0.0056947999942256
0.335,-0.352860219061881,-3.62540861772851,-1.84044237091962,0.00169578300414552,-0.0278917777638781,-0.0037501466124491,0.606608284130061,7.130240534406,-4.29129930029176,-0.00339848408606422,-0.00512802097481925,0.00896879588670966,-6.75749706833767,2.57621840973673,1.14726096259545,-0.00288579688167035,0.00752602145212613,-0.00479897645369188,0.904159853198507,0.742034677132917,-1.70854833772898,-0.0154993007690144,-0.00460175279090053,0.00687297510068183
0.34,-0.352943416221024,-3.62220690193442,-1.83826698910843,0.00162283044842338,-0.0322896229426352,-0.00356675404815922,0.605305954570667,7.12450782337712,-4.28781659752444,-0.00345511163051587,-0.00506389521105803,0.00884276057847361,-6.75278222074667,2.57408138947186,1.14617047740614,-0.00294910834352086,0.0074174423842729,-0.00456910358429986,0.902616772378224,0.741417939345254,-1.70699505134758,-0.0168075470261453,-0.00447540406559946,0.00803133685451713
0.345,-0.35302661338028,-3.61900518614027,-1.83609160729702,0.00141429628220436,-0.0365161553298763,-0.00327966092934544,0.604003625011046,7.11877511234826,-4.28433389475711,-0.00366465911296898,-0.00500713712567987,0.00864431072496818,-6.74806737315566,2.57194436920699,1.14507999221689,-0.00316500221122983,0.00723546836193384,-0.00434505424624622,0.901073691557713,0.740801201557588,-1.70544176496617,-0.0183689381789542,-0.00427803617035263,0.00912947381198407
0.35,-0.353109810539308,-3.61580347034618,-1.83391622548561,0.00107854733962932,-0.0404871322019334,-0.00284063519487598,0.602701295451425,7.1130424013194,-4.28085119198979,-0.00404789968257098,-0.00496326475818864,0.00838879712685142,-6.74335252556489,2.56980734894211,1.14398950702764,-0.00355357575876114,0.00699358130581988,-0.00414835922628617,0.899530610737202,0.740184463769928,-1.70388847858482,-0.0201607433372116,-0.00398993027889241,0.0101406255717029
0.355,-0.353193007698565,-3.61260175455214,-1.8317408436742,0.00062577866060853,-0.0440893129779405,-0.0021905246982086,0.601398965891804,7.10730969029055,-4.27736848922246,-0.00462837904957894,-0.00493337464007075,0.00809152301681045,-6.73863767797366,2.56767032867724,1.14289902183833,-0.00413804587453301,0.00670620472305211,-0.00400064636562799,0.897987529916691,0.739567725982262,-1.70233519220341,-0.0221457728251104,-0.00359944436296866,0.0110463613696583
0.36,-0.353276204857821,-3.609400038758,-1.82956546186301,6.46908635710298e-05,-0.0471808497844634,-0.00126536054337938,0.60009663633241,7.10157697926167,-4.27388578645514,-0.00543366382220494,-0.00490971282130572,0.00776584077737855,-6.73392283038288,2.56553330841238,1.14180853664908,-0.00494636366817741,0.00638785608044014,-0.00391733238656038,0.896444449096407,0.738950988194603,-1.70078190582205,-0.0242758826708503,-0.00310506425993157,0.011834804223076
0.365,-0.353359402016963,-3.60619832296385,-1.8273900800516,-0.000592124931621033,-0.0496288260128981,-2.43314032150263e-05,0.598794306772561,7.09584426823281,-4.27040308368782,-0.0064767879929022,-0.00488036331190139,0.00742374192449382,-6.72920798279188,2.5633962881475,1.14071805145977,-0.00599234158587539,0.00605279597807026,-0.00391123219742297,0.894901368275896,0.738334250406936,-1.69922861944065,-0.0264920940456877,-0.00251790216032147,0.012501839859108
0.37,-0.353442599176219,-3.60299660716976,-1.82521469824019,-0.00132353445252704,-0.051310168646772,0.00153988555325628,0.597491977213167,7.09011155720395,-4.2669203809205,-0.00774550645700181,-0.00483333880134795,0.00707623281302736,-6.72449313520087,2.56125926788263,1.13962756627046,-0.0072646124984651,0.00571454714887412,-0.00399128394297028,0.893358287455612,0.737717512619273,-1.69767533305924,-0.0287157890137107,-0.00186078188412015,0.0130462132174072
0.375,-0.353525796335362,-3.59979489137567,-1.823039316429,-0.00210234376987792,-0.0520951227238819,0.00340782495369824,0.596189647653318,7.08437884617507,-4.26343767815317,-0.00920805402794132,-0.00475606981736084,0.00673305855959217,-6.71977828760987,2.55912224761776,1.13853708108121,-0.00873241305982413,0.00538570119323191,-0.00415794990651005,0.891815206635329,0.73710077483161,-1.69612204667783,-0.0308519940125833,-0.00116367951830271,0.0134623855774202
0.38,-0.353608993494618,-3.59659317558157,-1.82086393461782,-0.00290100528898093,-0.0518590819548368,0.00553259068506315,0.594887318093924,7.07864613514624,-4.25995497538585,-0.0108207523062501,-0.00463398389821999,0.00640271463780368,-6.71506344001909,2.55698522735288,1.1374465958919,-0.0103532783737541,0.00507819748765165,-0.00440299971373422,0.890272125814818,0.736484037043947,-1.69456876029642,-0.0328088965684894,-0.000460836348257174,0.0137387825544616
0.385,-0.353692190653874,-3.59339145978748,-1.81868855280641,-0.00369100424701588,-0.050487667804225,0.00783581509292867,0.593584988534303,7.07291342411736,-4.25647227261852,-0.0125251903918428,-0.00445290568122297,0.0060925624071611,-6.71034859242809,2.55484820708801,1.13635611070265,-0.0120700398914514,0.00480291313066375,-0.00470834597965548,0.888729044994307,0.735867299256284,-1.69301547391501,-0.0344977490707921,0.000208934357362888,0.0138571799863723
0.39,-0.353775387813016,-3.59018974399339,-1.81651317099499,-0.00443832208673053,-0.0478857933105286,0.0102043467431004,0.592282658974682,7.0671807130885,-4.2529895698512,-0.0142404093766732,-0.00420333130421745,0.00580930556420653,-6.70563374483709,2.55271118682315,1.13526562551334,-0.0138026905693373,0.00456921879566682,-0.00504646573106501,0.887185964173796,0.735250561468622,-1.69146218753366,-0.0358291079616431,0.000804661461242592,0.0137967440843761
0.395,-0.353858584972158,-3.58698802819924,-1.81433778918381,-0.00510579301656202,-0.0440280907276331,0.0124850283424553,0.590980329415061,7.06144800205962,-4.24950686708387,-0.0158646671075326,-0.00388143812524497,0.00556000779677401,-6.70091889724631,2.55057416655826,1.13417514032403,-0.015450053438745,0.00438573159014971,-0.00538998614303035,0.885642883353512,0.734633823680959,-1.68990890115231,-0.0367444703688715,0.00129121520547744,0.0135474486774234
0.4,-0.353941782131301,-3.58378631240515,-1.8121624073724,-0.00565989611565186,-0.0389901592694776,0.0144908933385226,0.589677999855439,7.05571529103077,-4.24602416431655,-0.0172872104601257,-0.00348911949375177,0.00535248343806872,-6.69620404965531,2.5484371462934,1.13308465513484,-0.0169015096964912,0.00426059369472593,-0.00572044935402814,0.884099802533228,0.734017085893296,-1.68835561477084,-0.037244667953815,0.00164803063287091,0.0131177171586279
0.405,-0.354024979290557,-3.580584596611,-1.80998702556099,-0.00607514158399334,-0.0329222184504089,0.0160224578705189,0.588375670295818,7.04998258000191,-4.24254146154923,-0.0184012969263143,-0.00303498748688753,0.00519428661265916,-6.6914892020643,2.54630012602851,1.13199416994553,-0.0180499089778808,0.00420014822805655,-0.00602659264239851,0.882556721712717,0.733400348105629,-1.68680232838949,-0.0373818798072788,0.00187330676305729,0.0125291776745306
0.41,-0.354108176449813,-3.57738288081691,-1.80781164374957,-0.0063379188564734,-0.0260138246871639,0.016889988351776,0.587073340736424,7.04424986897305,-4.2390587587819,-0.0191169163155813,-0.00253242636405365,0.00509103865438412,-6.6867743544733,2.54416310576364,1.13090368475622,-0.0188044207358312,0.00420764426074546,-0.00629761733689509,0.881013640892434,0.73278361031797,-1.68524904200808,-0.037245415958963,0.00198311481123804,0.0118109367935993
0.415,-0.354191373608955,-3.57418116502282,-1.80563626193839,-0.00644781681415807,-0.0184756599030765,0.0169250792222103,0.585771011176575,7.03851715794417,-4.23557605601458,-0.0193669774249524,-0.00199623014375507,0.00504551614019569,-6.68205950688252,2.54202608549878,1.12981319956691,-0.0190969759552776,0.00428305933376307,-0.00651736729702589,0.879470560071923,0.732166872530303,-1.68369575562667,-0.036950355454079,0.00200755191780549,0.0109968411877024
0.42,-0.354274570768212,-3.57097944922873,-1.8034608801272,-0.00641373851840207,-0.0105187201798818,0.0159808686077846,0.584468681617182,7.03278444691531,-4.23209335324725,-0.0191023583469091,-0.00144034357864934,0.00505722794882286,-6.67734465929129,2.53988906523389,1.12872271437766,-0.0188775155973746,0.00442324096246151,-0.00665806800634272,0.877927479251412,0.731550134742644,-1.68214246924532,-0.0366119628626036,0.00198375508494872,0.0101191800425578
0.425,-0.354357767927354,-3.56777773343464,-1.80128549831579,-0.00625197004847448,-0.00233114067143102,0.0139367308553641,0.58316635205756,7.02705173588646,-4.22861065047993,-0.0182907517676287,-0.000876076374367185,0.00512154784697649,-6.67262981170052,2.53775204496903,1.12763222918841,-0.0181129882944867,0.00462147521356452,-0.00667676991497589,0.876384398430901,0.730933396954978,-1.68058918286391,-0.0363206275965183,0.0019491865130743,0.00920173905255125
0.43,-0.35444096508661,-3.56457601764055,-1.79911011650438,-0.00599192279766087,0.0059157957419945,0.0107257886400077,0.581864022497939,7.0213190248576,-4.2251279477126,-0.0169343178503914,-0.000315282123114716,0.00522981523169386,-6.66791496410951,2.53561502470417,1.1265417439991,-0.0168046909651801,0.004866690274011,-0.00652602227006782,0.874841317610617,0.730316659167311,-1.6790358964825,-0.0361468102980447,0.00194561115801111,0.00826186941721598
0.435,-0.354524162245866,-3.56137430184646,-1.7969347346932,-0.00568489958194509,0.0140385412886181,0.0063726862618716,0.580561692938318,7.01558631382875,-4.22164524494528,-0.0150959675508529,0.000224410002548863,0.00537062737776015,-6.66320011651874,2.53347800443927,1.12545125880979,-0.0150140381530692,0.00514326294038764,-0.00617263717635635,0.873298236790333,0.729699921379652,-1.67748261010109,-0.0361666322629779,0.00203008993700773,0.00731955048316258
0.44,-0.354607359405009,-3.55817258605231,-1.79475935288178,-0.00540479162487195,0.0218310039969345,0.0010020779575303,0.579259363378696,7.00985360279986,-4.21816254217796,-0.0129044487456835,0.000724108482875937,0.00552974584181266,-6.65848526892751,2.53134098417442,1.12436077362054,-0.0128679915914781,0.00543189619355031,-0.00559987692324634,0.871755155969822,0.729083183591989,-1.67592932371969,-0.0364647470680936,0.00227455803852697,0.00640026616830457
0.445,-0.354690556564151,-3.55497087025822,-1.79258397107037,-0.00523789907312053,0.0290729628659586,-0.00518580326433167,0.577957033819075,7.00412089177101,-4.21467983941064,-0.0105321328905512,0.001174811618695,0.0056883261595844,-6.65377042133673,2.52920396390955,1.12327028843123,-0.0105378223190444,0.00571064187161384,-0.00479268102040569,0.870212075149539,0.728466445804326,-1.67437603733828,-0.0371035516693263,0.00275288473833331,0.00552887270311819
0.45,-0.354773753723293,-3.55176915446407,-1.79040858925896,-0.00527391266809,0.0355305087233644,-0.01192959036063,0.576654704259681,6.99838818074215,-4.21119713664331,-0.00817760430556795,0.00158366449435566,0.00582163650438568,-6.64905557374573,2.52706694364467,1.12217980324198,-0.00822226597296793,0.00595524687315912,-0.0037287191197036,0.868668994329028,0.727849708016659,-1.67282275095698,-0.0380949627777303,0.00353034651101329,0.00472478813856733
0.455,-0.354856950882549,-3.54856743866998,-1.78823320744777,-0.00560331287817538,0.0409585404430479,-0.0189016763545077,0.575352374699833,6.99265546971327,-4.20771443387599,-0.0060646160108307,0.00197174194088524,0.00590001187947249,-6.64434072615472,2.5249299233798,1.12108931805267,-0.00614629738667935,0.00613959192079992,-0.00238438994488302,0.867125913508517,0.727232970228997,-1.67126946457557,-0.0393988175580203,0.00465869029326652,0.00400423040228788
0.46,-0.354940148041806,-3.54536572287589,-1.78605782563659,-0.00631260134550189,0.0451378819619529,-0.0257193499348457,0.574050045140439,6.98692275868441,-4.20423173110866,-0.00443280561369091,0.00236137596968384,0.00589322764653677,-6.63962587856372,2.52279290311493,1.11999883286342,-0.00455082917572881,0.00623714164063452,-0.000752869191909455,0.865582832688006,0.726616232441334,-1.66971617819416,-0.0409443213776775,0.00616988283074574,0.00338732266546083
0.465,-0.355023345200948,-3.54216400708179,-1.78388244382518,-0.00747491667397274,0.0479336734608714,-0.0319802526393434,0.572747715580817,6.98119004765556,-4.20074902834134,-0.00351334423399484,0.00276014017303202,0.00577617507050906,-6.63491103097294,2.52065588285005,1.11890834767411,-0.00366711595113711,0.00622304097599848,0.00113561664943675,0.864039751867722,0.725999494653671,-1.66816289181276,-0.0426597904204289,0.00806774161037273,0.00290447821156591
0.47,-0.355106542360204,-3.5389622912877,-1.78170706201377,-0.00913941934829672,0.0493159876897304,-0.0372992992041159,0.571445386021196,6.97545733662668,-4.19726632557401,-0.00350229076301822,0.00315825598459654,0.00553128224192999,-6.63019618338171,2.51851886258518,1.1178178624848,-0.00368997112669454,0.00607615012624668,0.00320976396958474,0.862496671047438,0.725382756866008,-1.66660960543135,-0.0444844280129316,0.0103215619551744,0.00259471400577795
0.475,-0.355189739519346,-3.53576057549361,-1.77953168020258,-0.0113207483377602,0.0493329835493804,-0.0413358046605834,0.570143056461575,6.96972462559785,-4.19378362280669,-0.00453763353429683,0.00353885218788711,0.00514767320587633,-6.62548133579094,2.51638184232031,1.11672737729555,-0.00475571122989825,0.00578081657126654,0.00537084875311494,0.860953590226927,0.724766019078345,-1.66505631904994,-0.0463559843106346,0.0128622015712893,0.00249733122359053
0.48,-0.355272936678602,-3.53255885969946,-1.77735629839117,-0.013992733463184,0.0480847344570405,-0.0438094854334073,0.568840726901954,6.96399191456896,-4.19030092003936,-0.00668587064188976,0.00388640394878203,0.00462028284881777,-6.62076648819993,2.51424482205545,1.11563689210629,-0.00692946081551891,0.00532808471448766,0.00750642667552927,0.859410509406644,0.724149281290678,-1.66350303266853,-0.0481995869036668,0.0155789558495385,0.00264653547338491
0.485,-0.355356133837859,-3.52935714390537,-1.77518091657976,-0.0170876778041063,0.0457170803793236,-0.044511182775076,0.567538397342332,6.95825920354008,-4.18681821727204,-0.00993741556049673,0.00418922619687275,0.00394974911118916,-6.61605164060916,2.51210780179058,1.11454640691699,-0.0102007708520658,0.00471619523209665,0.00949739579166797,0.857867428586133,0.723532543503019,-1.66194974628718,-0.0499306958492494,0.0183186886978338,0.00307073729062031
0.49,-0.355439330996887,-3.52615542811128,-1.77300553476834,-0.0204963684309126,0.0424201012941662,-0.0433191550320686,0.566236067782938,6.95252649251125,-4.18333551450472,-0.014200720017948,0.00443976575610398,0.00314281264305815,-6.61133679301793,2.50997078152569,1.11345592172768,-0.0144777754128319,0.00395105958323391,0.0112246267267976,0.856324347765621,0.722915805715353,-1.66039645990577,-0.0514638302768514,0.0208894354205739,0.00379139801135773
0.495,-0.355522528156143,-3.52295371231713,-1.77083015295716,-0.0240679640325308,0.0384224475724406,-0.0402179325023044,0.56493373822309,6.94679378148237,-4.17985281173739,-0.0192956791505066,0.0046343112071979,0.00221342612104752,-6.60662194542715,2.50783376126083,1.11236543653843,-0.0195805768658076,0.00304727498275359,0.0125777100514659,0.85478126694511,0.722299067927693,-1.65884317352442,-0.0527221625089755,0.023069036798798,0.00482038540425742
0.5,-0.355605725315286,-3.51975199652304,-1.76865477114598,-0.027613677704321,0.0339819746528465,-0.0353089767422228,0.563631408663696,6.94106107045351,-4.17637010897007,-0.0249554785666218,0.0047729769504393,0.00118414271666433,-6.60190709783615,2.50569674099596,1.11127495134917,-0.0252430626422543,0.00202938437195731,0.0134635460963854,0.853238186124827,0.721682330140027,-1.65728988714301,-0.0536499766015685,0.024619759865817,0.00615788467108126
0.505,-0.355688922474542,-3.51655028072895,-1.76647938933456,-0.0309226681090266,0.0293698595452083,-0.0288122539628581,0.562329079103847,6.93532835942466,-4.17288740620275,-0.0308477975208684,0.00486028525755565,8.70674854520164e-05,-6.59719225024514,2.50355972073108,1.11018446615986,-0.0311340666748459,0.000932680497864331,0.0138156426441148,0.851695105304543,0.721065592352367,-1.6557366007616,-0.054226818135137,0.0253208888325753,0.00779081558658449
0.51,-0.355772119633798,-3.51334856493486,-1.76430400752338,-0.0338026753168244,0.0248403376132627,-0.021063905903554,0.561026749544453,6.92959564839578,-4.16940470343542,-0.0366294070453583,0.00490535854431198,-0.00103603021860872,-6.59247740265414,2.50142270046621,1.10909398097056,-0.0369117967806573,-0.000197158518683003,0.0136089332204608,0.850152024484032,0.720448854564701,-1.65418331438019,-0.054477661906674,0.0250402309013477,0.00969020089314502
0.515,-0.35585531679294,-3.51014684914077,-1.76212862571197,-0.0361263841266731,0.0205978889307171,-0.0125003461379153,0.559724419984832,6.92386293736695,-4.1659220006681,-0.0420117592384513,0.004921732568303,-0.00213556107650571,-6.58776255506336,2.49928568020134,1.1080034957813,-0.0422892109334922,-0.00130646646017987,0.0128740722828551,0.848608943663749,0.719832116777038,-1.65263002799878,-0.0544718095030765,0.0238033758924788,0.0118086354717496
0.52,-0.355938513952196,-3.50694513334668,-1.75995324390055,-0.0378363509062227,0.0167863412124197,-0.00361016683222109,0.558422090425211,6.91813022633806,-4.16243929790078,-0.0467812674599803,0.00492711082735846,-0.00315925009471831,-6.58304770747236,2.49714865993646,1.106913010592,-0.0470542642305936,-0.00233876306314225,0.0116926397866417,0.847065862843237,0.719215378989375,-1.65107674161743,-0.0543086846547498,0.0217692787468396,0.01408460852184
0.525,-0.356021711111339,-3.50374341755253,-1.75777786208914,-0.0389140195599186,0.0134855827836303,0.00511551903480211,0.557119760865589,6.91239751530918,-4.15895659513345,-0.0507716539042054,0.00494155335181828,-0.00405819604612776,-6.57833285988136,2.49501163967159,1.10582252540274,-0.0510422684439714,-0.00324076555738794,0.0101740690440911,0.845522782022726,0.718598641201712,-1.64952345523602,-0.0541083521363851,0.0191411364436759,0.0164586663268452
0.53,-0.356104908270595,-3.50054170175844,-1.75560248027796,-0.0393593812415898,0.0107003951793828,0.0131955848970935,0.555817431306195,6.90666480428035,-4.15547389236613,-0.0538384742074458,0.004983965830277,-0.00478998921453302,-6.57361801229035,2.49287461940671,1.10473204021343,-0.0541102610442344,-0.00396595893772085,0.00843708811466294,0.843979701202215,0.717981903414046,-1.64797016885461,-0.0540140334506437,0.0161207691744043,0.0188891901394773
0.535,-0.356188105429737,-3.49733998596435,-1.75342709846655,-0.0391879560400271,0.0083731600214689,0.0201775230426727,0.554515101746574,6.90093209325147,-4.1519911895988,-0.0558608768777495,0.00507013049761101,-0.00532008432005136,-6.56890316469958,2.49073759914184,1.10364155502418,-0.0561386272194628,-0.00447635683585083,0.00660346135100342,0.842436620382159,0.717365165626386,-1.6464168824732,-0.0541798444722257,0.0129023900449803,0.0213493609669273
0.54,-0.35627130258888,-3.4941382701702,-1.75125171665536,-0.0384278022082688,0.00642665982083752,0.0256869903058961,0.553212772186953,6.89519938222261,-4.14850848683148,-0.0567555250616957,0.00521378130674428,-0.0056236398596769,-6.56418831710835,2.48860057887697,1.10255106983487,-0.0570450900342954,-0.0047441286481216,0.00479457141870153,0.840893539561648,0.71674842783872,-1.64486359609185,-0.0547402964192158,0.00965845260446795,0.0238088608410132
0.545,-0.356354499748136,-3.49093655437611,-1.74907633484395,-0.0371151494101518,0.00479647251365731,0.0294608832120358,0.551910442627332,6.88946667119376,-4.14502578406415,-0.0564829241943263,0.00542753285170494,-0.00568660448109405,-6.55947346951757,2.4864635586121,1.10146058464562,-0.0567911083860615,-0.00475247716035602,0.00312472041968208,0.839350458741137,0.716131690051061,-1.64331030971044,-0.0557911479269207,0.00652977129318501,0.0262193369725277
0.55,-0.356437696907278,-3.48773483858201,-1.74690095303276,-0.0352949500725719,0.00343472441159535,0.0313580519954513,0.55060811306771,6.88373396016488,-4.14154308129683,-0.055051712623126,0.00572014744696329,-0.00550580520817221,-6.55475862192679,2.48432653834722,1.10037009945631,-0.0553859395516785,-0.00449638639244527,0.00169066834340797,0.837807377920853,0.715514952263394,-1.64175702332909,-0.0573872593580761,0.00363140670861947,0.0285151305875846
0.555,-0.356520894066534,-3.48453312278792,-1.74472557122135,-0.0330255374542236,0.00230013208487218,0.0313681875959942,0.549305783508316,6.87800124913605,-4.13806037852951,-0.0525273668277404,0.00609207065475922,-0.00508896356217757,-6.55004377433556,2.48218951808236,1.099279614267,-0.0528949599877448,-0.00398375224959895,0.000561908006628287,0.836264297100342,0.714898214475735,-1.64020373694768,-0.0595426327774217,0.0010620142019114,0.0306239978235215
0.56,-0.356604091225677,-3.48133140699377,-1.74255018940994,-0.0303798269242629,0.00135249009321209,0.0296059354101778,0.548003453948468,6.87226853810716,-4.13457767576218,-0.0490317699597355,0.00653498934031702,-0.00445434318723789,-6.54532892674479,2.48005249781748,1.09818912907775,-0.049439191413552,-0.00323516932035114,-0.000222306024379852,0.834721216279831,0.714281476688068,-1.63865045056627,-0.0622293570217306,-0.00109388078803459,0.0324734506079349
0.565,-0.356687288384933,-3.47812969119968,-1.74037480759853,-0.0274416461512418,0.000555063905092742,0.0262882837776024,0.546701124389074,6.86653582707828,-4.13109497299486,-0.0447316437680821,0.00703623024250649,-0.00362953051789302,-6.54061407915378,2.47791547755261,1.0970986438885,-0.0451841004464931,-0.00228167296909848,-0.000650200191245953,0.83317813545932,0.713664738900405,-1.63709716418487,-0.0653797864051624,-0.00277123522786789,0.0339901511762035
0.57,-0.356770485544189,-3.47492797540559,-1.73819942578734,-0.0243008805555554,-0.000123921165045157,0.0217102530709948,0.545398794829225,6.86080311604942,-4.12761227022754,-0.0398260417407279,0.00758367115923049,-0.00264892910523972,-6.53589923156301,2.47577845728773,1.09600815869919,-0.0403274908877049,-0.00116109602467579,-0.000733795705628299,0.831635054639264,0.713048001112742,-1.63554387780346,-0.068892345225342,-0.00393127317674892,0.0351003812607262
0.575,-0.356853682703218,-3.4717262596115,-1.73602404397616,-0.0210484401126115,-0.000714621319435534,0.0162212672943829,0.544096465269831,6.85507040502057,-4.12412956746021,-0.0345342565948581,0.00816878434447592,-0.00155041033504906,-6.53118438397178,2.47364143702286,1.09491767350994,-0.0350876541287456,8.59757592170214e-05,-0.000505549399939339,0.830091973818753,0.71243126332508,-1.63399059142205,-0.0726389770485573,-0.00456585905239608,0.0357338233643016
0.58,-0.356936879862474,-3.46852454381741,-1.73384866216475,-0.0177718237595191,-0.00125064187297379,0.0101995246058046,0.54279413571021,6.84933769399171,-4.12064686469289,-0.0290827826241102,0.00878798653260304,-0.000372610523118782,-6.526469536381,2.47150441675799,1.09382718832063,-0.0296904521266676,0.00141925113749704,-1.44588881848986e-05,0.828548892998242,0.711814525537417,-1.63243730504064,-0.0764735056474946,-0.00469880048201078,0.0358285380860017
0.585,-0.35702007702173,-3.46532282802332,-1.73167328035333,-0.0145520626232925,-0.00177320209706071,0.00402612690178758,0.541491806150589,6.84360498296286,-4.11716416192556,-0.0236927189895318,0.00944260154087636,0.000846703101500996,-6.52175468879,2.46936739649311,1.09273670313138,-0.0243567430084639,0.00280042952190839,0.000678288524397168,0.827005812177731,0.711197787749754,-1.63088401865929,-0.0802408995139478,-0.00438393321198857,0.0353366025382822
0.59,-0.357103274180872,-3.46212111222917,-1.72949789854215,-0.0114615267133258,-0.00233347546932581,-0.00193823685466449,0.540189476590967,6.83787227193397,-4.11368145915824,-0.0185685754395568,0.0101373041792664,0.002071837051987,-6.51703984119899,2.46723037622824,1.09164621794207,-0.0192910900665444,0.00419412628219203,0.00150340534413316,0.825462731357447,0.710581049962087,-1.62933073227794,-0.0837866273115315,-0.00370008592740985,0.0342303311754205
0.595,-0.357186471340128,-3.45891939643502,-1.72732251673074,-0.00856271556573023,-0.00299154802405333,-0.0073718927771375,0.538887147031573,6.83213956090512,-4.11019875639091,-0.0138895697007842,0.0108773581668173,0.00326998023519814,-6.51232499360799,2.46509335596338,1.09055573275276,-0.014672863742793,0.00556811766599692,0.00238737842837502,0.823919650536936,0.709964312174428,-1.62777744589653,-0.086966135914353,-0.00274300665945513,0.0325079121799082
0.6,-0.357269668499271,-3.45571768064093,-1.72514713491933,-0.00590662906878819,-0.0038109710346957,-0.0120101953487448,0.537584817471725,6.82640684987626,-4.10671605362359,-0.00980002123674332,0.011665841451352,0.00441141992627802,-6.50761014601721,2.46295633569851,1.08946524756351,-0.0106464484043406,0.00689301001308475,0.00325730944790721,0.822376569716425,0.709347574386761,-1.62622415951512,-0.0896590970291454,-0.00161421192428567,0.0301986832795481
0.605,-0.357352865658527,-3.45251596484684,-1.72297175310791,-0.00352696380758691,-0.00485113732415532,-0.0156695489440268,0.536282487912331,6.82067413884741,-4.10323335085627,-0.00639205760992142,0.0125021469372663,0.00546967515350601,-6.50289529842598,2.46081931543364,1.0883747623742,-0.00730388805988953,0.00814217315161027,0.00404810807505184,0.820833488896369,0.708730836599102,-1.62467087313371,-0.0917885315630605,-0.000409754213579759,0.0273690221754962
0.61,-0.357436062817783,-3.44931424905275,-1.72079637129673,-0.00143560001234663,-0.00615624130932338,-0.018255279585202,0.534980158352482,6.81494142781852,-4.09975064808894,-0.0036968472629903,0.0133823198517927,0.0064218019863016,-6.49818045083521,2.45868229516877,1.08728427718495,-0.0046761737392863,0.00929218116111767,0.00470921783966896,0.819290408075858,0.708114098811436,-1.6231175867523,-0.0933274365150459,0.000785784039864456,0.024121840515573
0.615,-0.357519259976925,-3.44611253325866,-1.71862098948554,0.000371122748394169,-0.00773988031415649,-0.0197310486480819,0.533677828793088,6.80920871678967,-4.09626794532162,-0.00170513960127332,0.014300050950826,0.00724862829010188,-6.4934656032442,2.45654527490389,1.08619379199564,-0.0027537952847669,0.0103230956911218,0.00520561242412079,0.817747327255347,0.707497361023773,-1.62156430037089,-0.0942807907279964,0.00189936873738415,0.0205836358723058
0.62,-0.357602457136181,-3.44291081746456,-1.71644560767413,0.00190275651177246,-0.0095758182405,-0.0200868809732398,0.532375499233467,6.80347600576081,-4.0927852425543,-0.000392930893142717,0.0152470931507205,0.00793523372091753,-6.48875075565343,2.45440825463902,1.08510330680639,-0.00151235276597436,0.0112188169588639,0.00551549629276674,0.816204246434836,0.70688062323611,-1.62001101398954,-0.0946618592520631,0.00286541241468787,0.0168902709948159
0.625,-0.35768565429521,-3.43970910167047,-1.71427022586272,0.00317365611004875,-0.0116037000898232,-0.0193441190583917,0.531073169673846,6.79774329473193,-4.08930253978697,0.000278077316243418,0.0162132835272883,0.00847200650799996,-6.4840359080622,2.45227123437415,1.08401282161714,-0.000913002121997313,0.011968101681116,0.00562940699423428,0.814661165614552,0.706263885448447,-1.61845772760813,-0.0944854311225428,0.00362069759180855,0.0131817047986289
0.63,-0.357768851454466,-3.43650738587638,-1.71209484405153,0.00420750456782187,-0.0137452071917091,-0.0175788743208418,0.529770840114224,6.79201058370307,-4.08581983701965,0.000374325782996286,0.0171866057231608,0.00885599817580682,-6.47932106047142,2.45013421410927,1.08292233642777,-0.000888638731043176,0.0125659834892543,0.00554851586699438,0.813118084794041,0.705647147660784,-1.61690444122678,-0.09377696673459,0.00410394103192725,0.00959924120664764
0.635,-0.357852048613722,-3.43330567008218,-1.70991946224012,0.00504049358671266,-0.0159208340780187,-0.0149349321866815,0.528468510554831,6.78627787267422,-4.08233713425232,-1.60608427909295e-06,0.0181536090054994,0.00909213758395891,-6.47460621288042,2.4479971938444,1.08183185123852,-0.00133594163383044,0.013015086327253,0.00528111517676742,0.81157500397353,0.705030409873117,-1.61535115484537,-0.0925837548740069,0.00426011317409547,0.00627869446704411
0.64,-0.357935245772865,-3.43010395428809,-1.70774408042871,0.00572158311004569,-0.0180609986556128,-0.0116166957270515,0.527166180994982,6.78054516164536,-4.078854431485,-0.000713967722878288,0.0190998342535233,0.00919371191858311,-6.46989136528941,2.44586017357953,1.08074136604927,-0.00211835411799189,0.0133261421860137,0.00483995212315993,0.810031923153474,0.704413672085458,-1.61379786846396,-0.0909759857183844,0.00404557271839676,0.00333994378167182
0.645,-0.358018442932121,-3.42690223849399,-1.7055686986173,0.00630951407936527,-0.0201108014837631,-0.00786626683626917,0.525863851435588,6.77481245061648,-4.07537172871768,-0.0016059425202791,0.020010243300118,0.00918139815901725,-6.46517651769841,2.44372315331465,1.07965088085996,-0.00307818905018572,0.0135170370348817,0.00424132763869798,0.808488842332963,0.703796934297792,-1.61224458208255,-0.0890382079293628,0.00343192283925653,0.000875718485067591
0.65,-0.358101640091263,-3.4237005226999,-1.70339331680611,0.00686624769004141,-0.0220294827350857,-0.00393470974931976,0.524561521875739,6.76907973958762,-4.07188902595035,-0.00251745587605111,0.0208706961088896,0.00908064426903019,-6.46046167010763,2.4415861330498,1.07856039567065,-0.00405452147383619,0.0136104611949327,0.00350569728112196,0.806945761512452,0.703180196510129,-1.6106912957012,-0.0868602740319288,0.00240745065555586,-0.0010560893305425
0.655,-0.358184837250519,-3.42049880690581,-1.70121793499493,0.00744837955205999,-0.0237871091188265,-5.5333868278063e-05,0.523259192316345,6.76334702855877,-4.06840632318303,-0.00330415461727084,0.0216697805223191,0.0089181760517529,-6.4557468225164,2.43944911278491,1.0774699104814,-0.0049022884674943,0.0136307959472045,0.00265809484156607,0.805402680691941,0.702563458722466,-1.60913800931979,-0.0845312168174333,0.000977518344237288,-0.00243467453830155
0.66,-0.358268034409775,-3.41729709111172,-1.69904255318352,0.00809870063566143,-0.0253617997690349,0.0035758366366985,0.521956862756724,6.75761431752991,-4.0649236204157,-0.00385327575583208,0.0223987754456733,0.00871880304350558,-6.45103197492563,2.43731209252005,1.07637942529215,-0.00550813970012863,0.0136008986831824,0.00172619243851474,0.803859599871657,0.701946720934803,-1.60758472293838,-0.0821345990159754,-0.00083377551493872,-0.00327361218717984
0.665,-0.358351231568918,-3.41409537531763,-1.69686717137211,0.0088386938782099,-0.0267365961023396,0.00681216371942865,0.520654533197103,6.75188160650103,-4.06144091764838,-0.00409585428695866,0.0230505047856315,0.0085029919409377,-6.44631712733462,2.43517507225516,1.07528894010284,-0.00580254488075671,0.013539416469435,0.00073738700884406,0.802316519051146,0.70132998314714,-1.60603143655698,-0.079745865916948,-0.00298191940600366,-0.00361447333312714
0.67,-0.35843442872806,-3.41089365952348,-1.69469178956069,0.00966256417814715,-0.0278935957557058,0.00956335703948661,0.519352203637482,6.74614889547217,-4.05795821488105,-0.004015833747779,0.023620004315531,0.0082850303146559,-6.44160227974385,2.43303805199029,1.07419845491353,-0.00576895222910541,0.0134591183015574,-0.000282265692005439,0.800773438230863,0.700713245359477,-1.60447815017557,-0.077434017446538,-0.00540250096540864,-0.00351923855069886
0.675,-0.358517625887202,-3.40769194372939,-1.69251640774951,0.0105344952465123,-0.0288066765237222,0.0117963220383632,0.51804987407786,6.74041618444332,-4.05447551211373,-0.00365344458514552,0.024106026795425,0.00807199896505713,-6.43688743215262,2.43090103172543,1.07310796972428,-0.00544729046890327,0.0133662482989487,-0.00130771248360701,0.799230357410579,0.700096507571811,-1.60292486379416,-0.0752654710982637,-0.00801312768051038,-0.00306249414837784
0.68,-0.358600823046459,-3.4044902279353,-1.6903410259381,0.0113902590077406,-0.02943442744493,0.0135286302225276,0.516747544518239,6.73468347341446,-4.05099280934641,-0.00310052877030775,0.0245103811762828,0.00786390660119482,-6.43217258456184,2.42876401146056,1.07201748453497,-0.00492925798367773,0.0132605639709968,-0.00231503344144056,0.797687276590068,0.699479769784151,-1.60137157741281,-0.0733052107725365,-0.0107152916161934,-0.0023227826892969
0.685,-0.358684020205715,-3.40128851214121,-1.68816564412668,0.012142473999863,-0.0297156768870136,0.0148153445660059,0.515445214958845,6.72895076238561,-4.04751010657909,-0.00248891289498487,0.02483586805178,0.00765467654902592,-6.42745773697084,2.42662699119568,1.07092699934572,-0.00434656146285783,0.0131359193140768,-0.00328223269854833,0.796144195769557,0.698863031996485,-1.5998182910314,-0.0716151030729819,-0.0133967181283662,-0.00137440733271335
0.69,-0.358767217364857,-3.39808679634706,-1.6859902623155,0.0126887763849829,-0.0295731865220792,0.0157296829831647,0.514142885398996,6.72321805135672,-4.04402740381176,-0.00197332612393987,0.0250848568130668,0.00743383022614228,-6.42274288937983,2.42448997093081,1.06983651415641,-0.00385375840974751,0.0129816975160397,-0.00418987244370329,0.794601114949046,0.698246294208825,-1.59826500465005,-0.0702507928877776,-0.0159354180620835,-0.00028236409500319
0.695,-0.358850414524113,-3.39488508055297,-1.68381488050431,0.012921866915837,-0.0289251762951626,0.0163413767005764,0.512840555839603,6.71748534032784,-4.04054470104444,-0.001712080050935,0.0252588034655333,0.00718916823671319,-6.41802804178883,2.42235295066594,1.06874602896715,-0.00360892945441796,0.0127854327402421,-0.00502096034314144,0.793058034128762,0.697629556421159,-1.59671171826864,-0.0692577180330431,-0.0182058398141461,0.000899290198019972
0.7,-0.358933611683256,-3.39168336475888,-1.6816394986929,0.0127435920539078,-0.0277028398852682,0.0166990717450552,0.511538226279981,6.71175262929901,-4.03706199827711,-0.00184506125334083,0.0253595509483206,0.00691019373043134,-6.41331319419805,2.42021593040106,1.0676555437779,-0.00375180154669012,0.0125365682886759,-0.00576071057844555,0.791514953308251,0.697012818633496,-1.59515843188723,-0.0686724079871065,-0.0200907311227148,0.00212585986186629
0.705,-0.359016808842512,-3.38848164896478,-1.67946411688149,0.0120921487040132,-0.0258709486865602,0.016822882623888,0.51023589672036,6.70601991827013,-4.03357929550979,-0.0024585711056219,0.0253932681473249,0.00659125655947083,-6.40859834660705,2.41807891013619,1.06656505858854,-0.00436896962671889,0.0122306148287079,-0.00639717101501086,0.789971872487968,0.696396080845833,-1.59360514550582,-0.0685349884898082,-0.0215050224874847,0.00335705863611408
0.71,-0.359100006001768,-3.38527993317064,-1.67728873507031,0.0109810163892742,-0.0234312324610901,0.0167164481388936,0.508933567160739,6.70028720724127,-4.03009659274247,-0.00354047173907069,0.0253729724446641,0.00623333482190542,-6.40388349901605,2.41594188987132,1.06547457339929,-0.00544935859154448,0.0118716976100771,-0.00692175228952378,0.788428791667684,0.69577934305817,-1.59205185912441,-0.0688991788061041,-0.0224208658961464,0.00455265149784773
0.715,-0.359183203160796,-3.38207821737655,-1.67511335325889,0.00952286884628174,-0.0204000160743066,0.0163932172190334,0.507631237601117,6.69455449621242,-4.02661388997514,-0.00495746878334749,0.0253131920279978,0.00584428961746247,-6.39916865142527,2.41380486960644,1.06438408820998,-0.00686115065244438,0.0114716688904625,-0.00732875385782861,0.786885710847173,0.695162605270507,-1.590498572743,-0.0698179050649902,-0.0228647557288234,0.00567333896119726
0.72,-0.359266400320053,-3.37887650158245,-1.67293797144748,0.00791366366859263,-0.0167878190722744,0.0158936031433327,0.506328908041496,6.68882178518353,-4.02313118720782,-0.00647969214987928,0.0252214258809679,0.0054376956509854,-6.39445380383427,2.41166784934157,1.06329360302072,-0.00837562760133838,0.0110468267276339,-0.00761307279857665,0.785342630026662,0.694545867482844,-1.58894528636165,-0.0713130894137907,-0.0228851640428542,0.00668558916975897
0.725,-0.359349597479195,-3.37567478578831,-1.6707625896363,0.00639348925068856,-0.0126080069242453,0.0152831212867635,0.505026578482102,6.68308907415471,-4.01964848444049,-0.00782965326903495,0.0251000137233775,0.00502992772622726,-6.38973895624326,2.4095308290767,1.06220311783147,-0.00971615622819998,0.0106152054909425,-0.00776421513835857,0.783799549206151,0.693929129695182,-1.5873919999803,-0.0733607086342136,-0.0225293779949277,0.00756616304175003
0.73,-0.359432794638451,-3.37247306999427,-1.66858720782511,0.00522117435435357,-0.00790723423644876,0.0146434404024235,0.503724248922254,6.67735636312582,-4.01616578167317,-0.00871190990334471,0.0249564470557487,0.00463687335037851,-6.38502410865226,2.40739380881183,1.06111263264216,-0.0105886123070781,0.0101955695230975,-0.00776127517880778,0.782256468385867,0.693312391907519,-1.58583871359883,-0.0758982154342564,-0.0218475481079876,0.00830439223793326
0.735,-0.359515991797593,-3.36927135420018,-1.6664118260137,0.00466770261510683,-0.00278388755376767,0.0140731504208332,0.50242191936286,6.67162365209694,-4.01268307890585,-0.00882150028990689,0.0248066755399511,0.00427225116492692,-6.38030926106148,2.40525678854696,1.06002214745291,-0.0106900690060657,0.00980648757059545,-0.00757676805282857,0.780713387565356,0.692695654119852,-1.58428542721742,-0.0788362923639241,-0.0209008295322662,0.00890342245196237
0.74,-0.35959918895685,-3.36606963840603,-1.66423644420229,0.00500783114009682,0.00262599023184886,0.0137024819179163,0.501119589803011,6.66589094106811,-4.00920037613852,-0.00785870632975838,0.0246696395423371,0.00394655063136631,-6.37559441347025,2.40311976828208,1.0589316622636,-0.00972309678202423,0.009463960238861,-0.00718454840690297,0.779170306745073,0.692078916332193,-1.58273214083607,-0.0820594584994594,-0.0197572429105115,0.00938076359277953
0.745,-0.359682386116106,-3.36286792261188,-1.66206106239088,0.0065008827673954,0.00818374876506418,0.0137085395717862,0.499817260243617,6.66015823003923,-4.0057176733712,-0.00555742160670884,0.0245625065759582,0.00366488329728219,-6.37087956587948,2.40098274801721,1.05784117707429,-0.00742369591998533,0.00917807330569481,-0.006561547977565,0.777627225924789,0.691462178544526,-1.58117885445466,-0.0854156196923072,-0.0184808145333903,0.00976605722726847
0.75,-0.359765583275248,-3.35966620681779,-1.65988568057969,0.00937387275887766,0.0137704466827634,0.0143123547897109,0.498514930684223,6.65442551901035,-4.00223497060388,-0.00170448750887337,0.0245006709869854,0.00342496184288061,-6.36616471828847,2.39884572775235,1.05675069188504,-0.00358059990195863,0.0089509161778581,-0.00568651143325014,0.776084145104278,0.690845440756863,-1.57962556807331,-0.0887190888451908,-0.0171282628125381,0.0100973896033467
0.755,-0.359848780434504,-3.3564644910237,-1.65771029876828,0.0138192614554836,0.0192796333103211,0.0157553045745488,0.497212601124374,6.64869280798152,-3.99875226783655,0.0038659514162174,0.024499414661785,0.00321734723433072,-6.3614498706977,2.39670870748748,1.05566020669573,0.0019702213923704,0.0087772142235435,-0.00454355669756836,0.774541064283767,0.6902287029692,-1.5780722816919,-0.0917785659042235,-0.0157581041900137,0.0104187583408816
0.76,-0.359931977593646,-3.35326277522961,-1.65553491695687,0.0199960250229178,0.0246128853124785,0.0182727480701566,0.495910271564981,6.64296009695263,-3.99526956506923,0.0112826371220013,0.0245719608434304,0.00302773958447296,-6.35673502310647,2.39457168722259,1.05456972150648,0.00935589981877624,0.00864613261499864,-0.00312774572732025,0.772997983463256,0.689611965181538,-1.57651899531049,-0.0944218322053885,-0.0144365519862873,0.010776510921419
0.765,-0.360015174752789,-3.35006105943552,-1.65335953514546,0.0280202157315154,0.0296972720352826,0.0220746789561149,0.494607942005359,6.63722738592378,-3.9917868623019,0.0206312329504819,0.0247249244483422,0.00283954536505271,-6.35202017551569,2.39243466695773,1.05347923631723,0.0186611118701746,0.00854266140247316,-0.00144752444806577,0.771454902642972,0.688995227393875,-1.57496570892908,-0.0965020086966431,-0.0132323605460378,0.0112138133942422
0.77,-0.360098371912045,-3.34685934364143,-1.65118415333427,0.0379462286694831,0.0344989068733541,0.0273260545503669,0.493305612445738,6.63149467489492,-3.98830415953458,0.0319362918053778,0.0249566520265855,0.00263564084783767,-6.34730532792469,2.39029764669286,1.05238875112786,0.029910254804692,0.00844883060847557,0.000475400462787515,0.769911821822461,0.688378489606212,-1.57341242254768,-0.0978986681395175,-0.0122098241167411,0.0117662710314298
0.775,-0.360181569071187,-3.34365762784734,-1.64900877152309,0.0497428026286454,0.0390177335990329,0.0341214644732161,0.492003282886117,6.62576196386604,-3.98482145676725,0.0451380744578855,0.0252584127204749,0.00239973500610214,-6.34259048033368,2.38816062642799,1.05129826593867,0.0430442595627543,0.00834519336013124,0.00260614349760005,0.768368741002178,0.687761751818545,-1.57185913616627,-0.0985224701118981,-0.0114241460534417,0.0124598707323203
0.78,-0.360264766230443,-3.34045591205319,-1.64683338971167,0.0632662227357611,0.0432688225986272,0.0424541431893833,0.490700953326495,6.62002925283721,-3.98133875399993,0.0600669458691491,0.0256149383819735,0.00211867612386543,-6.33787563274268,2.38602360616311,1.0502077807493,0.0578950536482292,0.00821311558129296,0.00489460013754579,0.766825660181894,0.687145014030886,-1.57030584978486,-0.0983233493045859,-0.0109177739142494,0.0133101999453568
0.785,-0.3603479633897,-3.33725419625904,-1.64465800790026,0.0782314356523146,0.0472553910555694,0.0521822928058845,0.489398623766874,6.61429654180833,-3.9778560512326,0.0764150416972194,0.0260035437825595,0.00178588151555882,-6.3331607851519,2.38388658589824,1.04911729556005,0.0741574312927208,0.0080378941891244,0.00727135869038423,0.765282579361383,0.686528276243219,-1.56875256340356,-0.0972985077195975,-0.010717416541619,0.0143223341792057
0.79,-0.360431160548842,-3.33405248046495,-1.64248262608908,0.0941789237525479,0.0509386763849998,0.0629989124966627,0.48809629420748,6.60856383077947,-3.97437334846528,0.0937009760250616,0.0263929379894102,0.001404381566366,-6.32844593756067,2.38174956563337,1.04802681037074,0.0913540089666114,0.00781150267247694,0.00964297365511886,0.763739498540872,0.68591153845556,-1.56719927702216,-0.0954960112473753,-0.0108315929236427,0.0154909002303718
0.795,-0.360514357708098,-3.33085076467086,-1.64030724427766,0.110436289696339,0.0542073981111617,0.0744073671786489,0.486793964647632,6.60283111975062,-3.97089064569796,0.111226064214197,0.0267426677492764,0.000988360369547771,-6.3237310899699,2.3796125453685,1.04693632518149,0.108791656298264,0.00753412133758616,0.011886372771639,0.762196417720361,0.685294800667894,-1.56564599064075,-0.0930137193266595,-0.0112483208295213,0.0167998931192688
0.8,-0.36059755486724,-3.32764904887676,-1.63813186246625,0.126075926644397,0.0568465640688928,0.0857009936606897,0.485491635088238,6.59709840872173,-3.96740794293063,0.128024382098755,0.0270032955695725,0.000563300012095973,-6.31901624237889,2.37747552510362,1.04584583999224,0.125511709384733,0.00721462005683369,0.0138416014172473,0.760653336900077,0.684678062880234,-1.56409270425934,-0.089994767900098,-0.0119328172073161,0.0182224443563316
0.805,-0.360680752026383,-3.32444733308267,-1.63595648065484,0.139871996555453,0.0585056039213411,0.0959458313538529,0.484189305528389,6.59136569769288,-3.96392524016331,0.142810912020762,0.0271165411147117,0.000165379987638672,-6.31430139478812,2.37533850483875,1.04475535480293,0.140238272397359,0.00687047448725558,0.0153035028021844,0.759110256079566,0.684061325092568,-1.56253941787793,-0.0866205366909221,-0.0128255161305917,0.0197214076194599
0.81,-0.360763949185639,-3.32124561728858,-1.63378109884388,0.150261016343789,0.0586670860910607,0.103966528190526,0.482886975968995,6.58563298666402,-3.96044253739598,0.153933461951848,0.0270148167080078,-0.000159526023966095,-6.30958654719689,2.37320148457388,1.04366486961368,0.151330323699939,0.00652729761884041,0.0160133741958788,0.757567175259283,0.683444587304905,-1.56098613149652,-0.0831024356765451,-0.0138407116674303,0.0212515902693697
0.815,-0.360847146344781,-3.31804390149449,-1.63160571703247,0.155484867953386,0.0567105645683283,0.108455680381996,0.481584646409374,6.57990027563514,-3.95695983462866,0.159523298356027,0.0266256823769224,-0.00036183403446623,-6.30487169960611,2.371064464309,1.04257438442437,0.156931442147574,0.00621522243487728,0.0156829439138303,0.756024094438999,0.682827849517242,-1.55943284511511,-0.0796700960135531,-0.0148744010227469,0.0227626540860669
0.82,-0.360930343504037,-3.31484218570034,-1.62943033522106,0.154270743548353,0.0522464210787203,0.108443607275311,0.480282316849753,6.57416756460628,-3.95347713186134,0.158230555466134,0.025892323944545,-0.000406820862077209,-6.30015685201511,2.36892744404413,1.04148389923506,0.155700996858637,0.00595759155944174,0.0141130440287124,0.754481013618488,0.682211111729575,-1.55787955873376,-0.0765535121144912,-0.0158362864170498,0.0242016543775778
0.825,-0.36101354066318,-3.31164046990625,-1.62725495340965,0.146695172124526,0.0455201720577647,0.103883867505834,0.478979987290131,6.56843485357743,-3.94999442909401,0.150162670811731,0.024800415494239,-0.000294435195267702,-6.2954420044241,2.36679042377926,1.04039341404581,0.147747185840566,0.00575851839738184,0.0113435590431773,0.752937932797977,0.681594373941916,-1.55632627235235,-0.073969400168997,-0.0166835583733869,0.0255169217465343
0.83,-0.361096737822436,-3.30843875411216,-1.62507957159846,0.134166988689588,0.0373707388753823,0.0956416724993761,0.477677657730737,6.56270214254855,-3.94651172632669,0.13686653547464,0.0233811370413087,-5.54935933206584e-05,-6.2907271568331,2.36465340351438,1.0393029288565,0.134609053245938,0.00560431648013126,0.00765181192508214,0.751394851977466,0.68097763615425,-1.554772985971,-0.072114890292789,-0.0174059543006401,0.0266620662839483
0.835,-0.361179934981692,-3.30523703831801,-1.62290418978705,0.118533794577002,0.0288069837269413,0.0849036301657572,0.476375328170889,6.55696943151972,-3.94302902355937,0.120354271746958,0.0216884568724412,0.000271339601273217,-6.28601230924232,2.36251638324951,1.03821244366725,0.118287493565478,0.00547675535569337,0.00340494758390206,0.749851771157182,0.680360898366587,-1.55321969958959,-0.0711460479388476,-0.0179731252905061,0.0275921434164966
0.84,-0.361263132140834,-3.30203532252392,-1.62072880797564,0.101392822942089,0.0207182353737511,0.0727259682868443,0.475072998611495,6.55123672049083,-3.93954632079204,0.10235100039234,0.019776440021001,0.000656001279063871,-6.28129746165109,2.36037936298464,1.037121958478,0.100497444752386,0.00536252407117241,-0.0010550960366806,0.748308690336899,0.679744160578924,-1.55166641320818,-0.0711398160327943,-0.0183035701164058,0.0282540542280095
0.845,-0.36134632930009,-3.29883360672983,-1.61855342616423,0.0839603760745976,0.0137903539259406,0.0599392074630005,0.473770669051646,6.54550400946198,-3.93606361802472,0.0841578611312978,0.0176892976226413,0.00107952371911604,-6.27658261406032,2.35824234271978,1.03603147328869,0.0825321653701247,0.00525419123802197,-0.00544623613300116,0.746765609516387,0.679127422791261,-1.55011312682677,-0.0720831276583546,-0.0182742776775361,0.0285936123272973
0.85,-0.361429526459119,-3.29563189093574,-1.61637804435304,0.0671233362816946,0.0084498183136364,0.0471692931359796,0.472468339492252,6.53977129843312,-3.93258091525739,0.0667165689174793,0.0154644515017656,0.00152950233972193,-6.27186776646954,2.3561053224549,1.03494098809938,0.0653272753020283,0.00514764197409829,-0.00955677753472518,0.745222528696104,0.678510685003598,-1.54855984044536,-0.0739058757295669,-0.0177528768954184,0.0285828765248617
0.855,-0.361512723618375,-3.29243017514165,-1.61420266254186,0.0514887494592028,0.00486099428021135,0.0348648246887271,0.471166009932631,6.53403858740424,-3.92909821249007,0.0506676085495843,0.0131430308541674,0.00199459217472599,-6.26715291887854,2.35396830219003,1.03385050291007,0.0495178563336863,0.005039979089742,-0.0132440925606093,0.743679447875593,0.677893947215935,-1.54700655406401,-0.0765116909988996,-0.0166336108633895,0.0282351988864725
0.86,-0.361595920777518,-3.2892284593475,-1.61202728073044,0.0374348051104181,0.00300399043403631,0.0233329122517169,0.46986368037301,6.52830587637538,-3.92561550972275,0.0364038009064478,0.0107770668298494,0.00246170320614904,-6.26243807128753,2.35183128192516,1.03276001772082,0.0354912398442882,0.00492899405380236,-0.0164179224888944,0.742136367055082,0.677277209428269,-1.5454532676826,-0.0797726357343973,-0.0148580525918355,0.0275913672956908
0.865,-0.361679117936774,-3.28602674355341,-1.60985189891903,0.0251559182810619,0.00276454931616098,0.0127865755394661,0.468561350813388,6.52257316534653,-3.92213280695542,0.0241100668522971,0.00842898418062757,0.00291611384518026,-6.25772322369653,2.34969426166028,1.03166953253151,0.0234266844859307,0.00481344848920546,-0.0190201984122169,0.740593286234571,0.676660471640609,-1.54389998130119,-0.0835104795435384,-0.0124084266047726,0.0266946462535775
0.87,-0.36176231509603,-3.28282502775932,-1.60767651710785,0.0147025631786375,0.00397992778628272,0.00338025437154617,0.467259021253994,6.51684045431767,-3.9186501041881,0.0138011707810902,0.00616432588050522,0.00334343979349781,-6.25300837610575,2.34755724139541,1.03057904734226,0.0133335979109285,0.00469343080847002,-0.0210177537161484,0.739050205414287,0.676043733852943,-1.54234669491979,-0.087501969462109,-0.00929383387541818,0.02557827996451
0.875,-0.361845512255172,-3.27962331196522,-1.60550113529644,0.00602209178235769,0.00643853887276237,-0.00478526595977212,0.465956691694146,6.51110774328879,-3.91516740142077,0.00537377077064952,0.00404254216513016,0.00373175294449541,-6.24829352851452,2.34542022113054,1.02948856215301,0.00510417214296758,0.00457032506301599,-0.0224085899390051,0.737507124594003,0.675426996065283,-1.54079340853838,-0.0915086130629177,-0.00555446998586073,0.0242709376242798
0.88,-0.361928709414428,-3.27642159617108,-1.60332575348502,-0.00100798702287426,0.00988527140555452,-0.0116580971356715,0.464654362134752,6.50537503225993,-3.91168469865345,-0.00135080150613943,0.00211409410363889,0.00407163043321527,-6.24357868092375,2.34328320086566,1.0283980769637,-0.00144374860557444,0.00444614403348823,-0.0232212707798617,0.735964043773492,0.674810258277617,-1.53924012215703,-0.0952998090198781,-0.00127050680268695,0.022802514884325
0.885,-0.362011906573684,-3.27321988037698,-1.60115037167361,-0.00655947013116099,0.0140539851137393,-0.0172142973909541,0.463352032574903,6.49964232123105,-3.90820199588613,-0.00660686657890409,0.000423235272558295,0.00435450522120001,-6.23886383333274,2.34114618060079,1.02730759177439,-0.00654730170427807,0.00432245663441518,-0.0235030080844175,0.734420962953209,0.674193520489958,-1.53768683577562,-0.0986601389793474,0.00344130839578297,0.0212006115810858
0.89,-0.362095103732827,-3.27001816458289,-1.59897498986243,-0.0108350954850784,0.0186956843996562,-0.0214506243902032,0.462049703015509,6.49390961020222,-3.9047192931188,-0.010662508104741,-0.000993065418564441,0.00457235070834083,-6.23414898574174,2.33900916033592,1.02621710658514,-0.0104767079140949,0.00419973834833926,-0.0233125693727658,0.732877882132698,0.673576782702291,-1.53613354939426,-0.101402555470434,0.00843899268375837,0.0194881990268816
0.895,-0.362178300891969,-3.2668164487888,-1.59679960805124,-0.0140446660286315,0.0235949696355527,-0.0244067015628651,0.460747373455888,6.48817689917334,-3.90123659035148,-0.0137799342829068,-0.00211300158624058,0.00472029350940752,-6.22943413815074,2.33687214007104,1.02512662139583,-0.0134951018863377,0.00407807536633219,-0.0227217840235963,0.731334801312187,0.672960044914628,-1.53458026301286,-0.103398382674974,0.0135717889536633,0.0176872506527268
0.9,-0.362261498051112,-3.26361473299465,-1.59462422623983,-0.0163844790839582,0.0285811365911051,-0.0261752088926286,0.459445043896267,6.48244418814448,-3.89775388758416,-0.0161845577459037,-0.00293420540317068,0.0047982549445376,-6.22471929055996,2.33473511980618,1.02403613620658,-0.0158273506734514,0.00395778352387142,-0.0218132524740364,0.729791720491676,0.672343307126965,-1.53302697663145,-0.104592931633627,0.0186960867538053,0.015819421348609
0.905,-0.362344695210368,-3.26041301720056,-1.59244884442865,-0.0180321100832541,0.0335226430867157,-0.026865765059386,0.458142714336645,6.4767114771156,-3.89427118481683,-0.0180699558505152,-0.00346663619092389,0.00480762849719459,-6.22000444296896,2.33259809954131,1.02294565101727,-0.0176656061906231,0.0038377747616729,-0.0206686615077058,0.728248639671392,0.671726569339302,-1.53147369025004,-0.104976870373227,0.0236784844771643,0.0139008314609268
0.91,-0.362427892369624,-3.25721130140647,-1.59027346261723,-0.0191491551265103,0.0383079858432187,-0.026573266416961,0.456840384777024,6.47097876608677,-3.89078848204951,-0.019611313262521,-0.00372420609522938,0.00474733810315844,-6.21528959537795,2.33046107927644,1.02185516582801,-0.0191834193461811,0.00371360688415055,-0.0193603110670452,0.726705558851108,0.671109831551636,-1.52992040386863,-0.104551636198406,0.0283884731587133,0.0119438287809602
0.915,-0.362511089528766,-3.25400958561238,-1.58809808080582,-0.0198782621188026,0.0428334511890482,-0.0253947680605961,0.455538055217403,6.46524605505789,-3.88730577928218,-0.020955431532597,-0.0037250864683133,0.00461474967001601,-6.21057474778695,2.32832405901156,1.02076468063876,-0.020525740492417,0.00357832888486268,-0.0179540597696459,0.725162478030597,0.670493093763977,-1.52836711748722,-0.103331262317031,0.0326960037496573,0.0099693479480424
0.92,-0.362594286688022,-3.25080786981829,-1.58592269899441,-0.020337251472056,0.0470041539954503,-0.0234546127721243,0.454235725658009,6.45951334402903,-3.88382307651486,-0.0222057306727761,-0.00349510391301347,0.00440922375305545,-6.20585990019617,2.32618703874669,1.01967419544945,-0.0217936467961454,0.00342521623906845,-0.0165140954106799,0.723619397210314,0.66987635597631,-1.52681383110587,-0.101357787746374,0.0364791666574699,0.00801465668564293
0.925,-0.362677483847165,-3.24760615402414,-1.58374731718322,-0.0206171396852532,0.050738141464992,-0.020905633646141,0.45293339609816,6.45378063300018,-3.88034037374754,-0.0234211285258018,-0.00306804634475803,0.00413431332528739,-6.20114505260494,2.32405001848182,1.01858371026015,-0.0230431678982565,0.00324987046133428,-0.0151024793530156,0.722076316389803,0.669259618188651,-1.52526054472452,-0.0987037473920978,0.0396345927747117,0.00613080281924228
0.93,-0.362760681006421,-3.24440443823005,-1.58157193537204,-0.0207834737963174,0.0539646133819561,-0.0179193311802259,0.451631066538766,6.44804792197129,-3.87685767098021,-0.0246222945533064,-0.00248356435210807,0.00379808918328504,-6.19643020501417,2.32191299821694,1.01749322507084,-0.0242916804028101,0.00305102588168818,-0.0137760042013254,0.720533235569292,0.668642880400984,-1.52370725834311,-0.0954673443256935,0.0420836050994058,0.00437794877281473
0.935,-0.362843878165563,-3.2412027224359,-1.57939655356063,-0.0208792399030861,0.056617553163016,-0.0146745640661084,0.450328736979145,6.44231521094247,-3.87337496821289,-0.0257999301047184,-0.00178421881645325,0.00341260686899543,-6.19171535742316,2.31977597795206,1.01640273988158,-0.025526402219241,0.00283070327285336,-0.0125826056425414,0.718990154748781,0.668026142613321,-1.5221539719617,-0.0917673986133391,0.0437746452782766,0.00282194083301092
0.94,-0.362927075324706,-3.23800100664181,-1.57722117174922,-0.0209284899236435,0.0586306941883073,-0.0113456953572121,0.449026407419524,6.43658249991358,-3.86989226544556,-0.0269240886052192,-0.00101260517769337,0.00299320877942795,-6.18700050983216,2.3176389576872,1.01531225469233,-0.026713919475408,0.00259417389026539,-0.0115577986447501,0.717447073928497,0.667409404825658,-1.52060068558029,-0.0877379877624463,0.0446858232143148,0.00152992969645688
0.945,-0.363010272483962,-3.23479929084772,-1.57504578993803,-0.0209395605549057,0.0599357693905387,-0.00809234598019209,0.447724077859903,6.4308497888847,-3.86640956267824,-0.0279524755574541,-0.000208935291616904,0.00255802476378098,-6.18228566224116,2.31550193742232,1.01422176950302,-0.0278086571159841,0.00235000789680277,-0.010721728761435,0.715903993108213,0.666792667037996,-1.51904739919888,-0.0835222460122527,0.0448276149502242,0.000564518280921628
0.95,-0.363093469643104,-3.23159757505363,-1.57287040812662,-0.0209069394047567,0.0604629514209058,-0.00505251535147982,0.446421748300281,6.42511707785584,-3.86292685991092,-0.0288360961272454,0.000590827445025908,0.00212804420800079,-6.17757081465038,2.31336491715745,1.01313128431377,-0.0287586532682627,0.0021105564265884,-0.0100775860461576,0.714360912287702,0.666175929250333,-1.51749411281753,-0.0792653944527646,0.044243171409675,-2.24721122902092e-05
0.955,-0.36317666680236,-3.22839585925954,-1.57069502631521,-0.0208132564700285,0.0601380703967187,-0.00233503261891202,0.445119418740887,6.41938436682699,-3.85944415714359,-0.0295245882937748,0.00135816711892906,0.0017261287751609,-6.17285596705938,2.31122789689258,1.01204079912446,-0.029511140433612,0.00189170876034458,-0.00961130481289279,0.712817831467419,0.66555919146267,-1.51594082643612,-0.0751024438285664,0.0429984688000487,-0.000193771068305092
0.96,-0.363259863961616,-3.22519414346544,-1.56851964450379,-0.0206342982855884,0.0588762106633936,-6.90415623471555e-06,0.443817089181266,6.41365165579813,-3.85596145437627,-0.0299754005788483,0.0020771145865122,0.00137333300379187,-6.16814111946837,2.30909087662771,1.01095031393521,-0.0300221478301785,0.00171045291447659,-0.00929322537040149,0.711274750646908,0.664942453675007,-1.51438754005471,-0.0711387895748651,0.0411586216619087,7.3717467389526e-05
0.965,-0.363343061120759,-3.22199242767135,-1.56634426269261,-0.0203445940990449,0.056593735224738,0.00190977482789182,0.442514759621645,6.40791894476928,-3.85247875160894,-0.0301606783560105,0.00274246766140496,0.00108726673451979,-6.16342627187737,2.30695385636283,1.0098598287459,-0.0302632502400338,0.00158284993095821,-0.00908496080759988,0.709731669826397,0.664325715887344,-1.5128342536733,-0.0674443903465503,0.0387798524939648,0.000785687971057721
0.97,-0.363426258280015,-3.21879071187726,-1.56416888088143,-0.0199189515665377,0.0532374300683322,0.00342194155987543,0.441212430062023,6.40218623374039,-3.84899604884162,-0.0300639433679373,0.00335045892763752,0.000884678042230632,-6.15871142428659,2.30481683609797,1.00876934355659,-0.0302174886081252,0.00152441344652254,-0.00894863021493386,0.708188589005886,0.663708978099677,-1.51128096729195,-0.0640684713418678,0.0359297141667235,0.00192144575651561
0.975,-0.363509455439157,-3.21558899608311,-1.56199349907001,-0.0193323158461115,0.0487917379809257,0.00455093485993006,0.439910100502402,6.39645352271154,-3.84551334607429,-0.0296735635728537,0.00389702532828151,0.000780987273944267,-6.15399657669536,2.3026798158331,1.00767885836734,-0.0298727318763506,0.00154927940097252,-0.00884981952777685,0.706645508185829,0.663092240312018,-1.50972768091054,-0.061043502280236,0.0326922620852841,0.00343334894578988
0.98,-0.363592652598413,-3.21238728028897,-1.5598181172586,-0.0185604370765442,0.043275787093522,0.00532031380061423,0.438607770942781,6.39072081168268,-3.84203064330697,-0.0289767540074917,0.00437999584499801,0.000787427654389629,-6.14928172910459,2.30054279556822,1.00658837317803,-0.029215910018906,0.00166794763241488,-0.00875732261655418,0.705102427365318,0.662475502524352,-1.50817439452914,-0.0583782663303425,0.0291589759662865,0.00525535629836508
0.985,-0.363675849757556,-3.20918556449487,-1.55764273544719,-0.0175799402507556,0.0367608044019629,0.00573797289530409,0.437305441383387,6.3849881006538,-3.83854794053964,-0.0279528705797943,0.00479406975143171,0.000912068979326595,-6.14456688151358,2.29840577530334,1.00549788798878,-0.0282259201118958,0.00188714932287822,-0.00864592884081254,0.703559346544807,0.661858764736692,-1.50662110814778,-0.0560630161070861,0.0254388805906561,0.00730657850830002
0.99,-0.363759046916698,-3.20598384870078,-1.555467353636,-0.0163709979228829,0.0293741716198409,0.00580277247499144,0.436003111823538,6.37925538962497,-3.83506523777232,-0.0265795736159263,0.00513350566340349,0.00115922157171196,-6.13985203392281,2.29626875503848,1.00440740279953,-0.0268799891205234,0.00220986158689096,-0.00849540957391195,0.702016265724524,0.661242026949026,-1.50506782176637,-0.0540692393273362,0.0216559647713371,0.00949060363338117
0.995,-0.363842244075954,-3.20278213290669,-1.55329197182459,-0.0149236026946872,0.0212751490779047,0.00553556007188091,0.434700782264144,6.37352267859609,-3.831582535005,-0.0248510356427273,0.00540478503637127,0.0015246004932968,-6.13513718633158,2.2941317347736,1.00331691761022,-0.0251728858586388,0.00263344372805853,-0.00828610668156868,0.700473184904013,0.660625289161363,-1.50351453538497,-0.0523386137811777,0.0179182509363984,0.0117001113644699
1,-0.363925441235097,-3.1995804171126,-1.55111659001318,-0.0132400611606143,0.0126416004993793,0.00498222493095324,0.433398452704523,6.36778996756721,-3.82809983223768,-0.0227814112751907,0.00562474539084255,0.0019948649476856,-6.1304223387408,2.29199471450872,1.00222643242091,-0.0231202391821766,0.00314874614261101,-0.00800362666133768,0.698930104083502,0.6600085513737,-1.50196124900356,-0.050790661466549,0.0143052510931177,0.0138292393236569
1.005,-0.364008638394353,-3.19637870131851,-1.548941208202,-0.0113331893940046,0.00368146254326652,0.00418993164694582,0.432096123144902,6.36205725653838,-3.82461712947035,-0.0203944510795551,0.00580576279876356,0.00255221873141129,-6.12570749115002,2.28985769424386,1.0011359472316,-0.0207469560657601,0.00374121721009587,-0.00764803805912072,0.697387023262991,0.659391813586037,-1.50040796262215,-0.0493446441427792,0.0108827444217844,0.0157848980872892
1.01,-0.364091835553609,-3.19317698552442,-1.54676582639081,-0.00922945263233666,-0.00534695352130437,0.0032116493321302,0.430793793585281,6.35632454550949,-3.82113442670303,-0.017730839305882,0.00595419409459366,0.00317610177129326,-6.12099264355879,2.28772067397899,1.00004546204235,-0.018094389196872,0.00439215890080378,-0.00723097139967738,0.695843942442934,0.658775075798374,-1.49885467624074,-0.0479254931906747,0.00770990442439338,0.017483580716597
1.015,-0.364175032712751,-3.18997526973027,-1.5445904445794,-0.00697585697206493,-0.0141268014401695,0.00213264847661234,0.429491464025659,6.35059183448064,-3.8176517239357,-0.0148682455115604,0.006080697128971,0.00384147031911159,-6.11627779596802,2.28558365371411,0.998954976853099,-0.0152411584670251,0.00507934621487446,-0.0067653616047632,0.694300861622423,0.658158338010708,-1.49730138985939,-0.0464595989519709,0.00483256146453015,0.0188426296471766
1.02,-0.364258229872007,-3.18677355393612,-1.54241506276799,-0.00463780653023618,-0.0223072536033415,0.00105962339132719,0.428189134466038,6.34485912345178,-3.81416902116838,-0.011914406172498,0.00619939978972061,0.00451942042199152,-6.11156294837701,2.28344663344924,0.99786449166379,-0.0122961804294632,0.00577746884832984,-0.00626488266335241,0.692757780801912,0.657541600223045,-1.49574810347804,-0.0448845439865516,0.00228222180599187,0.0197894713127936
1.025,-0.36434142703115,-3.18357183814209,-1.54023968095657,-0.00228783489676856,-0.029547190068738,7.79245137947828e-05,0.426886804906644,6.3391264124229,-3.81068631840106,-0.00897607826688909,0.00631716824363475,0.00518061210338969,-6.10684810078601,2.28130961318438,0.996774006474539,-0.00936683076714596,0.00645911705102532,-0.00574982506733189,0.691214699981629,0.656924862435382,-1.49419481709663,-0.0431655134159096,8.37246584134772e-05,0.0202817237185595
1.03,-0.364424624190406,-3.18037012234794,-1.53806429914539,1.34800113745989e-06,-0.0355444925829214,-0.000764970901867736,0.425584475346795,6.33339370139404,-3.80720361563373,-0.00614496059706979,0.00643230723127027,0.0057975140982246,-6.10213325319501,2.27917259291949,0.99568352128523,-0.00654477750637875,0.00709672502109134,-0.00524551940306132,0.689671619161118,0.656308124647719,-1.49264153071522,-0.0413002715919306,-0.00174058819782196,0.020311926824735
1.035,-0.364507821349434,-3.17716840655385,-1.53588891733398,0.00215639420746114,-0.0400478090203688,-0.00144242588202898,0.424282145787402,6.32766099036519,-3.80372091286641,-0.00350699898040675,0.00654315759932835,0.00634476317518119,-6.09741840560423,2.27703557265463,0.994593036095978,-0.00391592645692595,0.00766486596415391,-0.00477498921471631,0.688128538340607,0.655691386860056,-1.49108824433381,-0.0393157957583296,-0.00317368555834638,0.019896502004957
1.04,-0.36459101850869,-3.17396669075976,-1.53371353552257,0.00410424111647923,-0.0428635010594032,-0.00193167356789992,0.42297981622778,6.3219282793363,-3.80023821009909,-0.00114945371363232,0.00665220101400521,0.0068001096876814,-6.09270355801323,2.27489855238975,0.993502550906669,-0.0015677748625779,0.00814209349893581,-0.00435559352498166,0.686585457520096,0.655074649072393,-1.4895349579524,-0.0372611317067722,-0.00420812224914437,0.0190637945701962
1.045,-0.364674215667947,-3.17076497496566,-1.53153815371138,0.00577839707393588,-0.0438618848624586,-0.00221107719146357,0.421677486668159,6.31619556830748,-3.79675550733176,0.000845200216298115,0.00676262311805136,0.00714652404799451,-6.08798871042222,2.27276153212488,0.99241206571736,0.000416968416559345,0.00851222906122368,-0.00399978969160536,0.685042376700039,0.65445791128473,-1.48798167157099,-0.0351947218130109,-0.00484924627227847,0.0178462897178406
1.05,-0.364757412827089,-3.16756325917152,-1.5293627719002,0.00712570763998694,-0.042985926281403,-0.00226662676249726,0.420375157108538,6.31046285727859,-3.79327280456443,0.00241022789716639,0.00687682845237515,0.00737316441417286,-6.08327386283122,2.27062451186001,0.991321580528108,0.00197143301600345,0.00876500650388817,-0.00371406813009746,0.683499295879528,0.653841173497067,-1.48642838518964,-0.0331757536782082,-0.00512075202941016,0.0162785809610386
1.055,-0.364840609986345,-3.16436154337748,-1.52718739008878,0.00810944054119842,-0.0402602113096782,-0.00209869260687355,0.419072827548916,6.30473014624971,-3.78979010179711,0.00350141073655241,0.00699968859080599,0.00747458416308065,-6.07855901524044,2.26848749159514,0.990231095338856,0.00305107625343894,0.0088960733359859,-0.00349666335923995,0.681956215059017,0.653224435709401,-1.48487509880823,-0.0312664034704536,-0.00507095538585496,0.0144001214420537
1.06,-0.364923807145487,-3.16115982758333,-1.52501200827737,0.00871165239642661,-0.0357920077704434,-0.00172370054737024,0.417770497989295,6.29899743522088,-3.78630739902979,0.00410094806324433,0.00713748018471718,0.00745087133544437,-6.07384416764921,2.26635047133027,0.989140610149548,0.00363765868668663,0.00890689582885149,-0.00334014624132802,0.680413134238734,0.652607697921741,-1.48332181242682,-0.0295329182076933,-0.00476967570925523,0.0122563957593807
1.065,-0.365007004304744,-3.15795811178924,-1.52283662646619,0.00893719087047057,-0.029765283805945,-0.00117304737111235,0.416468168429901,6.293264724192,-3.78282469626246,0.00422226489112389,0.00729158159400539,0.00730921069178953,-6.06912932005844,2.26421345106539,0.988050124960239,0.00374455389724091,0.00880484671047908,-0.00323744989398269,0.678870053418223,0.651990960134075,-1.48176852604547,-0.0280394463546838,-0.00429662197020929,0.00989711288784761
1.07,-0.365090201464,-3.15475639599509,-1.52066124465478,0.00881628265545678,-0.0224359305476798,-0.000492860135031605,0.415165838870053,6.28753201316314,-3.77934199349514,0.00391341677967753,0.00745801644258882,0.00706392869685283,-6.06441447246743,2.26207643080053,0.986959639770987,0.00342017919035475,0.0086031538463737,-0.00318296825855717,0.677326972597712,0.651374222346416,-1.48021523966406,-0.0268447339767028,-0.00373481175519109,0.00737615566761427
1.075,-0.365173398623142,-3.151554680201,-1.51848586284336,0.00840240459569939,-0.0141241053871935,0.000257629290070919,0.413863509310659,6.28179930213429,-3.77585929072782,0.00325414209492818,0.0076337979337263,0.0067344069697537,-6.05969962487643,2.25993941053565,0.985869154581678,0.0027445305139089,0.00832031226564822,-0.0031684742989059,0.675783891777201,0.650757484558749,-1.47866195328265,-0.0260025902691458,-0.00317087245060023,0.0047540771399949
1.08,-0.365256595782284,-3.14835296440691,-1.51631048103195,0.0077631624198278,-0.00518816391631441,0.00101561596767691,0.41256117975081,6.2760665911054,-3.77237658796049,0.00234111580797868,0.00781979712217048,0.00634300898198814,-6.05498477728543,2.25780239027078,0.984778669392369,0.00181422933249358,0.00797866620957132,-0.00318104602306146,0.674240810957144,0.650140746771086,-1.47710866690124,-0.0255552546816518,-0.00269223983762166,0.00209984099537591
1.085,-0.365339792941541,-3.14515124861282,-1.51413509922077,0.00696923101574827,0.00400917850970487,0.00172569958336288,0.411258850191416,6.27033388007658,-3.76889388519317,0.00127046897853955,0.00801774911205878,0.00591386106823691,-6.05026992969465,2.25566537000591,0.983688184203118,0.00072531507977782,0.00760246731339943,-0.00320469376288893,0.672697730136633,0.649524008983423,-1.47555538051984,-0.025520068584999,-0.00237875270723691,-0.000509863792079562
1.09,-0.365422990100683,-3.14194953281867,-1.51195971740958,0.00609350962281498,0.0131066031123205,0.00233340160946489,0.409956520631795,6.26460116904769,-3.76541118242584,0.0001405937314152,0.00822725582683433,0.00547198876741697,-6.04555508210365,2.25352834974104,0.982597699013866,-0.000423736543031818,0.00721635522890006,-0.00322224885559529,0.671154649316122,0.64890727119576,-1.47400209413848,-0.0258814117190315,-0.00229393820107413,-0.00299399102336456
1.095,-0.365506187259939,-3.13874781702458,-1.50978433559817,0.0052167742024988,0.0217240308445132,0.00276851785369334,0.408654191072173,6.25886845801881,-3.76192847965852,-0.000932424329292478,0.00844580747153008,0.00504196119521024,-6.04084023451264,2.25139132947616,0.981507213824557,-0.00151665181293952,0.00684409952890483,-0.00321554794894429,0.669611568495839,0.648290533408098,-1.47244880775708,-0.0265914109449997,-0.00248073515987759,-0.00527038290252628
1.1,-0.365589384419081,-3.13554610123049,-1.50760895378676,0.00442125674132638,0.029455342287682,0.00294987699454336,0.407351861512552,6.25313574698998,-3.7584457768912,-0.00182301962684145,0.00867186618518807,0.00464492389105051,-6.03612538692164,2.2492543092113,0.980416728635305,-0.00242783146388681,0.00650638816772089,-0.00316387815795612,0.668068487675328,0.647673795620435,-1.47089552137567,-0.0275735279512484,-0.00296467237776013,-0.00725283403575368
1.105,-0.365672581578337,-3.1323443854364,-1.50543357197557,0.00377461548997647,0.0358909618369775,0.00280865534834858,0.406049531953158,6.2474030359611,-3.75496307412388,-0.00242481354610216,0.00890915365104757,0.00429554248754995,-6.03141053933086,2.24711728894642,0.979326243445996,-0.00305130718845207,0.0062187315335179,-0.00304234879794912,0.666525406854817,0.647057057832768,-1.46934223499426,-0.028727083743254,-0.00376096284691903,-0.00884789031021951
1.11,-0.365755778737594,-3.12914266964231,-1.50325819016416,0.00332480406175651,0.0406678091818646,0.00229776163302201,0.40474720239331,6.24167032493224,-3.75148037135655,-0.00266237669471255,0.00916805609401214,0.00400250351058131,-6.02669569173963,2.24498026868154,0.978235758256744,-0.00331256912392569,0.00599223028233156,-0.0028224493891103,0.664982326034306,0.646440320045109,-1.46778894861285,-0.0299386661046599,-0.00487734330976089,-0.00996921603296872
1.115,-0.365838975896736,-3.12594095384821,-1.50108280835275,0.00310624090032821,0.0435300439043555,0.0013863950353514,0.403444872833916,6.23593761390339,-3.74799766858922,-0.00248399955035136,0.00946254023328727,0.00377184601686203,-6.02198084414886,2.24284324841668,0.977145273067379,-0.0031610687338074,0.00583613599501945,-0.00247589687803857,0.663439245214249,0.645823582257442,-1.4662356622315,-0.031103171006469,-0.0063120991633778,-0.0105642147717508
1.12,-0.365922173055992,-3.12273923805412,-1.49890742654134,0.00314472517035972,0.0443620574876811,5.90307997221529e-05,0.402142543274067,6.2302049028745,-3.7445149658219,-0.00185563048119102,0.00980325581128024,0.00360914534342213,-6.01726599655785,2.2407062281518,0.976054787878127,-0.00256360359358547,0.00575841199445368,-0.00198202510686639,0.661896164393738,0.645206844469783,-1.46468237585015,-0.0321412296837719,-0.00805231782340896,-0.0106247204311165
1.125,-0.366005370215021,-3.11953752225998,-1.49673204473015,0.00345672277029794,0.0431756469796127,-0.00167739758904656,0.400840213714673,6.22447219184565,-3.74103226305457,-0.000762415393531161,0.0101910556743815,0.00351885108370448,-6.01255114896685,2.23856920788693,0.974964302688875,-0.00150535474289092,0.00576359126086405,-0.00133465290647828,0.660353083573227,0.644590106682116,-1.46312908946874,-0.0329995760197315,-0.0100729052226865,-0.0101744154666279
1.13,-0.366088567374277,-3.11633580646583,-1.49455666291897,0.00404145843121187,0.0400732927609049,-0.00378198411729758,0.399537884155052,6.21873948081679,-3.73754956028725,0.000779433033212274,0.0106185511972268,0.0035010139210366,-6.00783630137585,2.23643218762205,0.973873817499623,-1.88909885122951e-06,0.00584990368646723,-0.000541241902029181,0.658810002752944,0.643973368894454,-1.46157580308733,-0.0336410650035487,-0.0123356059175554,-0.00924966490840591
1.135,-0.366171764533419,-3.11313409067174,-1.49238128110755,0.00487607363795364,0.0352262188457668,-0.00618026493644564,0.398235554595431,6.21300676978791,-3.73406685751993,0.00271741119725185,0.0110763230132524,0.00354891454826575,-6.00312145378507,2.23429516735719,0.972783332310314,0.001895110712296,0.00600837943021762,0.000384385696686349,0.657266921932433,0.643356631106791,-1.46002251670592,-0.0340373613382977,-0.0147910678451814,-0.00789116022790047
1.14,-0.366254961692675,-3.10993237487764,-1.49020589929637,0.00592208425717665,0.02887869125586,-0.00877928017958697,0.396933225035809,6.20727405875908,-3.73058415475261,0.00497531766836438,0.011554010782009,0.00365067884891395,-5.99840660619407,2.23215814709231,0.971692847121062,0.00411033692392193,0.00622472194548256,0.00142666364473306,0.655723841111922,0.642739893319128,-1.45846923032451,-0.0341659405601116,-0.0173812972077129,-0.00614819870894966
1.145,-0.366338158851931,-3.10673065908355,-1.48803051748496,0.00712915258782144,0.0213424888511907,-0.011471293489709,0.395630895476188,6.2015413477302,-3.72710145198528,0.00745798611607264,0.0120392710376228,0.00379144176090748,-5.99369175860306,2.23002112682744,0.970602361931697,0.00654968653526224,0.00648120019173137,0.00256767689584138,0.654180760291638,0.642123155531465,-1.4569159439431,-0.0340078383103263,-0.0200368884837314,-0.00408002259264748
1.15,-0.366421356011074,-3.10352894328946,-1.48585513567355,0.00843708496563471,0.0129701219146739,-0.0141368746640983,0.394328565916567,6.19580863670134,-3.72361874921796,0.0100538406397703,0.012520238208808,0.00395446476393376,-5.98897691101206,2.22788410656257,0.969511876742445,0.00910263047066443,0.00675832330286586,0.00378694550058517,0.652637679471354,0.641506417743802,-1.45536265756175,-0.0335473489536279,-0.0226774308809912,-0.00175254253839834
1.155,-0.36650455317033,-3.10032722749537,-1.48367975386213,0.00978895619164242,0.00413561352174701,-0.0166697256641999,0.393026236357173,6.19007592567246,-3.72013604645063,0.0126591713417256,0.0129880460939995,0.00412369731796176,-5.98426206342128,2.22574708629769,0.968421391553136,0.0116662515238237,0.00703800615175054,0.00506393656061287,0.651094598650843,0.640889679956135,-1.45380937118034,-0.0327749164170967,-0.0252217173830582,0.00075798100405155
1.16,-0.366587750329472,-3.09712551170128,-1.48150437205072,0.011143131247093,-0.00477573695896927,-0.018994753358301,0.391723906797324,6.1843432146436,-3.71665334368331,0.0151988558829554,0.0134377955362812,0.00428606412530841,-5.97954721583028,2.22361006603283,0.967330906363884,0.0141658583565624,0.00730608973089871,0.0063802688048208,0.649551517830332,0.640272942168476,-1.45225608479893,-0.0316912273294254,-0.0275977193460757,0.0033591652764739
1.165,-0.366670947488728,-3.09392379590713,-1.47932899023954,0.0124705995851709,-0.0133756038904542,-0.0210542894026229,0.39042157723793,6.17861050361475,-3.71317064091598,0.0176175676248277,0.013867567542814,0.00443177014837482,-5.97483236823928,2.22147304576795,0.966240421174632,0.0165463038332426,0.00755238166435116,0.00771918433012945,0.648008437010049,0.63965620438081,-1.45070279841758,-0.0303075614665083,-0.0297410498327068,0.00594233778178827
1.17,-0.366754144647871,-3.09072208011298,-1.47715360842835,0.0137441232791007,-0.0212746607856019,-0.0227805537695884,0.389119247678536,6.17287779258589,-3.70968793814866,0.0198554935592346,0.0142725336035009,0.00455495700680607,-5.9701175206485,2.21933602550308,0.965149935985323,0.0187482511811568,0.00776986950788086,0.00906355818624158,0.646465356189537,0.63903946659315,-1.44914951203617,-0.0286366841239098,-0.0315811473055549,0.00838589913391641
1.175,-0.366837341807013,-3.08752036431889,-1.47497822661694,0.0149339092012906,-0.0281005679653127,-0.0240960906261903,0.387816918118688,6.16714508155701,-3.70620523538134,0.0218423459657903,0.0146428953407403,0.00465481765950179,-5.9654026730575,2.21719900523821,0.964059450796071,0.0207023833645666,0.00795532551978559,0.0103981132654025,0.644922275369026,0.638422728805484,-1.44759622565476,-0.0266883854241263,-0.0330361306161323,0.0105610370659427
1.18,-0.366920538966269,-3.0843186485248,-1.47280284480576,0.0160104149678128,-0.0335282650898362,-0.024939805430856,0.386514588559294,6.16141237052815,-3.70272253261401,0.0235099199813175,0.0149715911330938,0.00473534239984381,-5.96068782546649,2.21506198497333,0.962968965606763,0.0223413169302743,0.00811087662951475,0.0117148094124188,0.643379194548743,0.637805991017821,-1.44604293927335,-0.0244846808860999,-0.0340257388035311,0.0123367143402856
1.185,-0.367003736125412,-3.08111693273071,-1.47062746299434,0.0169412571077127,-0.0372829088024031,-0.0252668122651432,0.385212258999445,6.1556796594993,-3.69923982984669,0.0247881478123074,0.0152557224106662,0.00480472334715176,-5.95597297787549,2.21292496470846,0.961878480417511,0.0235955521574623,0.00824374656297467,0.0130118250320026,0.641836113728459,0.637189253230158,-1.444489652892,-0.0220700571809507,-0.0344740518199595,0.0135818961095176
1.19,-0.367086933284668,-3.07791521693662,-1.46845208118293,0.0176942232027985,-0.0391626863961876,-0.025047379305385,0.383909929440051,6.14994694847044,-3.69575712707936,0.0256113634986206,0.0154928583460742,0.0048735765357709,-5.95125813028471,2.2107879444436,0.960787995228202,0.0243999815673542,0.00836369667533332,0.0142902032831421,0.640293032907948,0.636572515442491,-1.44293636651059,-0.0195024711725563,-0.0343124161860796,0.014178530533905
1.195,-0.367170130443924,-3.07471350114253,-1.46627669937152,0.0182592933588719,-0.0391277327812027,-0.0243029660533333,0.38260759988043,6.14421423744156,-3.69227442431204,0.0259657672294883,0.015691212444546,0.00494888236539295,-5.94654328269348,2.20865092417872,0.959697510038893,0.0247403147698118,0.00847957050922465,0.0155566442683091,0.638749952087437,0.635955777654832,-1.44138308012919,-0.0168508004301255,-0.0335191494902871,0.014052374516096
1.2,-0.367253327603066,-3.07151178534838,-1.46410131756011,0.0186588370767156,-0.0373374785239008,-0.0231047463787204,0.381305270320809,6.1384815264127,-3.68879172154472,0.0259057588622393,0.0158758306762779,0.00502939580412986,-5.94182843510271,2.20651390391384,0.958607024849641,0.0246688046322232,0.00859623982979394,0.0168209748106262,0.637206871267153,0.635339039867166,-1.43982979374778,-0.0141971830773618,-0.0321484150836807,0.0131903705544921
1.205,-0.367336524762322,-3.06831006955429,-1.46192593574915,0.0189253166996792,-0.0340515559040634,-0.0215056977945038,0.380002940761187,6.13274881538385,-3.68530901877739,0.0254973312271247,0.016065595115943,0.00511087913027451,-5.9371135875117,2.20437688364897,0.957516539660332,0.0242496958563148,0.00871424779486331,0.018080262040047,0.635663790446642,0.634722302079506,-1.43827650736637,-0.0116209546962356,-0.0302880757290018,0.0116179783438013
1.21,-0.367419721921578,-3.06510835376019,-1.45975055393774,0.0190758218376273,-0.0295105768358504,-0.0195026586808068,0.378700611201566,6.12701610435499,-3.68182631601007,0.0247663597024135,0.0162468181116014,0.00519443622552548,-5.9323987399207,2.2022398633841,0.956426054471081,0.0235098674904424,0.00883175384175155,0.0193080851931521,0.634120709626131,0.63410556429184,-1.43672322098496,-0.00917707738408803,-0.0279969561971954,0.00936733848820585
1.215,-0.367502919080607,-3.06190663796605,-1.45757517212633,0.0191127374541746,-0.023916274710693,-0.0170931022587437,0.377398281641945,6.12128339332614,-3.67834361324275,0.0237204852665062,0.0163816559114104,0.0052851769574938,-5.9276838923297,2.20010284311923,0.955335569281829,0.022459964237844,0.00894523673169896,0.0204698378693827,0.632577628805848,0.633488826504177,-1.43516993460361,-0.0068919883586582,-0.0253004871187305,0.0064794792476634
1.22,-0.367586116239863,-3.05870492217196,-1.45539979031514,0.0190395957121874,-0.0174801282395496,-0.0143624430158263,0.376095952082551,6.11555068229725,-3.67486091047542,0.0224058373768378,0.0164390182427777,0.00538331036679229,-5.92296904473892,2.19796582285436,0.95424508409252,0.0211483823051851,0.00904801774189218,0.021550104756584,0.631034547985564,0.632872088716514,-1.43361664822226,-0.0047728486767229,-0.0222307613847849,0.00303100244964783
1.225,-0.367669313399006,-3.05550320637786,-1.45322440850373,0.0188642031303819,-0.0104584771186514,-0.011486913604746,0.374793622522702,6.1098179712684,-3.67137820770809,0.0209145322246355,0.0164075178270501,0.00547914775346618,-5.91825419714792,2.19582880258949,0.953154598903211,0.0196676506159376,0.00912833729012961,0.0225562329999673,0.629491467165053,0.632255350928851,-1.43206336184085,-0.00281772782714913,-0.0188478230610043,-0.000852738079581213
1.23,-0.367752510558262,-3.05230149058377,-1.45104902669232,0.0185902379046508,-0.00315414076842269,-0.00865658758806318,0.373491292963308,6.10408526023954,-3.66789550494077,0.0193443312635469,0.0162838349116787,0.00555540530808729,-5.91353934955691,2.19369178232461,0.952064113713902,0.0181151574348232,0.00916883221771554,0.023496051388729,0.627948386344542,0.631638613141188,-1.43051007545944,-0.00102258029768479,-0.0152300161234808,-0.00500726300608957
1.235,-0.367835707717404,-3.04909977478968,-1.4488736448809,0.0182224246577185,0.0040933501736714,-0.00602426237760273,0.372188963403687,6.09835254921066,-3.66441280217345,0.0177835562167402,0.0160574812070728,0.00559321826027995,-5.90882450196591,2.19155476205974,0.95097362852465,0.0165793954344433,0.00914886581299914,0.0243578736421054,0.626405305524258,0.631021875353525,-1.42895678907803,0.000615707676018054,-0.0114620038208805,-0.00924808006395579
1.24,-0.36791890487666,-3.04589805899553,-1.44669826306972,0.0177820893048341,0.0109241269956114,-0.00370645379003726,0.370886633844066,6.0926198381818,-3.66093009940613,0.0163287163271277,0.0157033726388239,0.00557751179807675,-5.90410965437513,2.18941774179487,0.94988314333537,0.0151581997539297,0.00904806387621901,0.0251053739256131,0.624862224703747,0.630405137565859,-1.42740350269662,0.0021009886457921,-0.00763217253924489,-0.0133873599285728
1.245,-0.368002102035916,-3.04269634320144,-1.44452288125854,0.0173041616253053,0.0169968776123332,-0.00178522349538601,0.369584304284444,6.08688712715295,-3.6574473966388,0.0150795623807134,0.0151861926153583,0.00549733622527284,-5.8993948067839,2.18728072152999,0.94879265814609,0.0139534844100907,0.00884763382953513,0.0256874749386435,0.623319143883236,0.629788399778199,-1.42585021631521,0.00344566257995826,-0.00383304166275562,-0.0172416661354744
1.25,-0.368085299195059,-3.03949462740735,-1.44234749944712,0.0168184639357315,0.0220438276725979,-0.000295101860247286,0.368281974724823,6.08115441612406,-3.65396469387148,0.0141080917788293,0.0144745610554517,0.00534296725112057,-5.89467995919313,2.18514370126513,0.947702172956838,0.0130391974614716,0.00853079416268616,0.0260594402441517,0.621776063062953,0.629171661990533,-1.42429692993386,0.00468091626115476,-0.000155974393875201,-0.0206413682093153
1.255,-0.368168496354315,-3.03629291161326,-1.44017211763571,0.0163431244787241,0.0258993679687851,0.000782737736151272,0.366979645165202,6.07542170509524,-3.65048199110415,0.0134446965442652,0.013551288983169,0.00510614296232998,-5.88996511160212,2.18300668100025,0.946611687767529,0.012446728499718,0.008085393658593,0.0261979529837883,0.620232982242669,0.628554924202874,-1.42274364355245,0.00585778029330781,0.00332324743795271,-0.0234501658482293
1.26,-0.368251693513457,-3.03309119581911,-1.43799673582453,0.0158911951651828,0.0284875369379506,0.00151127806953343,0.365677315605808,6.06968899406635,-3.64699928833683,0.01308795155232,0.0124124586563478,0.00478314007926828,-5.88525026401112,2.18086966073538,0.945521202578249,0.0121748030318694,0.00750673609202465,0.0261003307745696,0.618689901422158,0.627938186415207,-1.4211903571711,0.0070366448997766,0.0065593821028203,-0.0255795625915137
1.265,-0.3683348906726,-3.02988948002502,-1.43582135401311,0.01547458385916,0.0298005892708762,0.0019852638193788,0.364374986045959,6.0639562830375,-3.64351658556951,0.0130146832780434,0.0110635715243733,0.00437583836589373,-5.88053541642012,2.17873264047051,0.944430717388968,0.0121998483455777,0.006797761823738,0.0257788448044205,0.617146820601647,0.627321448627544,-1.41963707078969,0.00827686795792864,0.00954326496977672,-0.0269887888103848
1.27,-0.368418087831856,-3.02668776423093,-1.4336459722017,0.0151029500697539,0.0298868020972957,0.00232193406780076,0.363072656486565,6.05822357200864,-3.64003388280218,0.0131838334300213,0.00951924342933363,0.00389001896202649,-5.87582056882934,2.17659562020563,0.943340232199688,0.0124798464431293,0.00596734416706241,0.0252586124217972,0.615603739781363,0.626704710839881,-1.41808378440828,0.00963270482352709,0.0122980378082863,-0.0276781617915311
1.275,-0.368501284990998,-3.02348604843684,-1.43147059039029,0.0147811461489732,0.0288367366292696,0.00265208136698917,0.361770326926944,6.05249086097976,-3.63655118003486,0.0135388646079812,0.00780317874891967,0.00333297484470879,-5.87110572123834,2.17445859994076,0.942249747010408,0.0129566955341897,0.00502797374102082,0.0245744165659391,0.614060658960852,0.626087973052218,-1.41653049802687,0.0111511473285986,0.0148692137077268,-0.0276787641794271
1.28,-0.368584482150254,-3.02028433264269,-1.42929520857911,0.0145044554187292,0.0267604179394902,0.00311038593704936,0.360467997367323,6.0467581499509,-3.63306847726753,0.0140081427076151,0.00594504233307734,0.00271129033659017,-5.86639087364733,2.17232157967589,0.941159261821127,0.0135567932026946,0.00399288866518337,0.0237619165019963,0.612517578140569,0.625471235264556,-1.41497721164546,0.0128689551959575,0.0173079261418162,-0.0270340160382255
1.285,-0.368667679309397,-3.0170826168486,-1.42711982676792,0.0142514453567915,0.0237686845187744,0.00382746417435097,0.359165667807702,6.04102543892205,-3.62958577450021,0.0145011782369144,0.00397875133995039,0.00202856851201744,-5.86167602605633,2.17018455941102,0.940068776631819,0.0141873767059505,0.00287348068321472,0.0228500161480846,0.610974497320058,0.624854497476893,-1.41342392526411,0.0148124267105293,0.0196488269335359,-0.025780034911777
1.29,-0.368750876468653,-3.01388090105451,-1.42494444495651,0.0139818690179089,0.0199685974540678,0.00492232447650479,0.35786333824808,6.03529272789316,-3.62610307173289,0.014908781931754,0.00194505333005589,0.00128483057274505,-5.85696117846555,2.16804753914614,0.938978291442538,0.0147364642293651,0.00167930777672464,0.0218611704393884,0.609431416499774,0.62423775968923,-1.4118706388827,0.0169966759375641,0.0218958558535174,-0.0239418778977392
1.295,-0.368834073627909,-3.01067918526041,-1.4227690631451,0.0136510284377305,0.0154566680863422,0.00648661318674914,0.356561008688459,6.02956001686434,-3.62262036896556,0.0151243588171249,-0.000109121379367695,0.000480946664482177,-5.85224633087432,2.16591051888127,0.937887806253258,0.0150942149924393,0.000422225689947034,0.02081348398095,0.607888335679263,0.623621021901567,-1.41031735250129,0.0194138844096309,0.0240318572540801,-0.0215507100819674
1.3,-0.368917270787051,-3.00747746946632,-1.42059368133368,0.0132321067003876,0.0103057737413376,0.0085616486589883,0.355258679129065,6.02382730583545,-3.61913766619824,0.0150779121378791,-0.00213597193120313,-0.000375031174729668,-5.84753148328355,2.1637734986164,0.936797321063978,0.0151873584957082,-0.000878739527165396,0.0197200888949396,0.606345254858752,0.6230042841139,-1.40876406611989,0.0220183227421077,0.0260361021959995,-0.018661601148748
