Header,foot_Accel_X,foot_Accel_Y,foot_Accel_Z,foot_Gyro_X,foot_Gyro_Y,foot_Gyro_Z,shank_Accel_X,shank_Accel_Y,shank_Accel_Z,shank_Gyro_X,shank_Gyro_Y,shank_Gyro_Z,thigh_Accel_X,thigh_Accel_Y,thigh_Accel_Z,thigh_Gyro_X,thigh_Gyro_Y,thigh_Gyro_Z,trunk_Accel_X,trunk_Accel_Y,trunk_Accel_Z,trunk_Gyro_X,trunk_Gyro_Y,trunk_Gyro_Z
0,4.26766917928455,-2.13887583478891,-2.32045254523246,-0.00258643922823415,0.0110440023553519,-0.00658930273857432,0.804315417373232,-0.646564971120171,4.433171932254,0.00863326533183804,-0.00674816579750503,-0.00751540355770806,-2.62262635812681,-1.08313994339662,0.34520132044446,0.00858348470974136,-0.00926131339362749,-0.0102048310114316,-2.61800110739557,0.241699703068946,-4.90079363033722,-0.00598445654656732,-0.0433390262492963,0.0388374074826674
0.005,4.26290969526406,-2.1364347211026,-2.3172690858521,-0.00252696695988872,0.0111051390789636,-0.00651324703683932,0.802505262371255,-0.645816878960929,4.42863592614459,0.00864422324164848,-0.0067664146489245,-0.00747202300294319,-2.62089965730797,-1.08223230418025,0.344518822695022,0.00859889615141237,-0.00922333161201093,-0.010212467981076,-2.61637239884419,0.24143307253339,-4.89572859434244,-0.00591984360845643,-0.0434863426576603,0.0388991712598759
0.01,4.25815021124356,-2.13399360741636,-2.31408562647186,-0.0023540376602025,0.0111092735353324,-0.00624588583538686,0.800695107369393,-0.645068786801687,4.42409992003518,0.0085773844397963,-0.0067377867727778,-0.00728916101393432,-2.61917295648925,-1.08132466496389,0.343836324945698,0.00854239587898324,-0.009035420434016,-0.0101251926038456,-2.61474369029258,0.24116644199783,-4.89066355834768,-0.00571407596259938,-0.0433654980830846,0.0385699671063683
0.015,4.25339072722306,-2.13155249373011,-2.31090216709151,-0.00208028507976114,0.010884542751357,-0.00577821351520523,0.798884952367416,-0.64432069464246,4.41956391392578,0.00833972695908288,-0.00658325653993335,-0.00691709466550496,-2.61744625567042,-1.08041702574755,0.343153827196261,0.00831900292391523,-0.00862674891135531,-0.00982494842708508,-2.61311498174121,0.24089981146227,-4.88559852235292,-0.00534366898698327,-0.0424015889415395,0.0373635058316749
0.02,4.24863124320257,-2.12911138004387,-2.30771870771116,-0.001720884383562,0.0104535125935944,-0.00517568656351835,0.79707479736544,-0.643572602483232,4.41502790781637,0.00795622082350012,-0.00631815156249783,-0.00636997356973604,-2.61571955485169,-1.07950938653116,0.34247132944688,0.00795368127279956,-0.00801579501868743,-0.00931547983492744,-2.61148627318971,0.240633180926714,-4.88053348635816,-0.00482775743047961,-0.040619453595086,0.0353743793910489
0.025,4.24387175918207,-2.12667026635756,-2.30453524833081,-0.00128752552221822,0.00984839530939833,-0.00449597694510172,0.795264642363463,-0.642824510324004,4.41049190170695,0.00746789000027581,-0.00596897343729275,-0.00567349520097466,-2.61399285403274,-1.07860174731482,0.3417888316975,0.00748743179357386,-0.00723556247167516,-0.00863452670629805,-2.60985756463822,0.240366550391155,-4.87546845036339,-0.00419590143460311,-0.0381429946428966,0.0327492542925863
0.03,4.23911227516157,-2.12422915267132,-2.30135178895046,-0.000784783010405617,0.00909998443892716,-0.0037708990385201,0.793454487361601,-0.642076418164763,4.40595589559755,0.00691774567393655,-0.00556282350359513,-0.00485621614714078,-2.61226615321402,-1.07769410809846,0.341106333948119,0.00696311620625841,-0.00632204291708859,-0.00783524139112319,-2.60822885608673,0.240099919855595,-4.87040341436862,-0.00347570224609639,-0.0351412581608973,0.0296219493637388
0.035,4.23435279114108,-2.12178803898507,-2.2981683295701,-0.000215671059869426,0.00823536911195343,-0.00301589291154824,0.791644332359624,-0.641328326005521,4.40141988948815,0.00634164869625897,-0.00512327062212526,-0.00394519689340178,-2.61053945239519,-1.07678646888212,0.340423836198738,0.00641634781947121,-0.00530861751086284,-0.00696480668161721,-2.60660014753523,0.239833289320035,-4.86533837837386,-0.00268966708331565,-0.0317721459607236,0.0260993195218505
0.04,4.22959330712058,-2.11934692529877,-2.29498487018975,0.000412142677267889,0.00728633436372246,-0.00224585217873031,0.789834177357648,-0.640580233846293,4.39688388337874,0.00576972826836323,-0.00467301590599689,-0.00296853707302544,-2.60881275157647,-1.07587882966573,0.339741338449357,0.00587692386915591,-0.00422920895650019,-0.00606037937225241,-2.60497143898374,0.239566658784479,-4.8602733423791,-0.00185988506288634,-0.0281771034762549,0.0222953348297876
0.045,4.22483382310008,-2.11690581161253,-2.29180141080951,0.00108518700587184,0.00629044340024355,-0.00147923368561621,0.788024022355671,-0.639832141687066,4.39234787726932,0.00522680678499218,-0.00423313652789237,-0.00195581044333243,-2.60708605075763,-1.07497119044936,0.33905884069992,0.00536916819623197,-0.00311855050659574,-0.00515029039163897,-2.60334273043236,0.23930002824892,-4.85520830638434,-0.00101010835380575,-0.024479600072508,0.0183384979332853
0.05,4.22007433907959,-2.11446469792622,-2.28861795142916,0.00178591871463987,0.00527946429207234,-0.000733138061849734,0.786213867353808,-0.639084049527824,4.38781187115992,0.00472737179851977,-0.00381873601467749,-0.000934023674904664,-2.60535934993891,-1.07406355123302,0.338376342950539,0.00490687723122413,-0.00200702703450431,-0.0042507680705483,-2.60171402188075,0.23903339771336,-4.85014327038958,-0.000163651526667296,-0.0207634197900143,0.0143403733370232
0.055,4.21531485505909,-2.11202358423998,-2.28543449204881,0.00249396753340643,0.0042757338235074,-2.08987310017989e-05,0.784403712351832,-0.638335957368582,4.38327586505051,0.0042750100633124,-0.00343793596334353,7.33425233867832e-05,-2.60363264912007,-1.07315591201666,0.337693845201159,0.00449274397303733,-0.000919487265480335,-0.00336679587913733,-2.60008531332937,0.238766767177804,-4.84507823439482,0.000658017993941936,-0.0170772988384857,0.0103858009396455
0.06,4.21055537103859,-2.10958247055368,-2.28225103266846,0.00318643001037793,0.00330053401775535,0.000645471433791586,0.782593557349855,-0.637587865209369,4.3787398589411,0.00386772430478533,-0.00309427582227388,0.00104324488872754,-2.60190594830135,-1.07224827280029,0.337011347451778,0.00412362162226064,0.000120958899516954,-0.00249889000240637,-2.59845660477777,0.238500136642244,-4.84001319840004,0.00143437398809351,-0.0134686299560206,0.00655603343804373
0.065,4.20579588701816,-2.10714135686749,-2.2790675732881,0.00383743037258111,0.00237738746522384,0.00125337665081075,0.780783402347879,-0.636839773050141,4.37420385283169,0.00349988008635399,-0.00278749913633583,0.0019516013961962,-2.60017924748252,-1.07134063358393,0.336328849702397,0.00379242322616128,0.00109123624121968,-0.0016463224265418,-2.59682789622639,0.238233506106685,-4.83494816240528,0.00214375352788132,-0.00999494673302975,0.00294179915942585
0.07,4.2010364029976,-2.10470024318118,-2.27588411390775,0.00441697016627327,0.00152660079949498,0.00178937615641182,0.778973247346016,-0.6360916808909,4.36966784672229,0.00315933322285138,-0.00251185216940178,0.00277415459032616,-2.59845254666368,-1.07043299436759,0.335646351953017,0.00348519878435889,0.00196966614495172,-0.000805002961505223,-2.59519918767478,0.237966875571125,-4.82988312641052,0.00276117798445494,-0.00670527240049332,-0.000363985698730411
0.075,4.19627691897716,-2.10225912949494,-2.2727006545274,0.00489160210577931,0.000761031683991572,0.00223938925658277,0.77716309234404,-0.635343588731658,4.36513184061288,0.00282693958972949,-0.00225593649974442,0.00348766074582631,-2.59672584584496,-1.06952535515123,0.334963854203579,0.00318070942271395,0.00273717750295677,3.26572903319885e-05,-2.5935704791234,0.237700245035569,-4.82481809041575,0.00325809789834042,-0.00362891353476207,-0.00327392925803075
0.08,4.19151743495667,-2.09981801580864,-2.26951719514705,0.00523039553856948,8.64414168968851e-05,0.00259186856297324,0.775352937342063,-0.63459549657243,4.36059583450347,0.00248186219481711,-0.00200728241461148,0.00407253128702237,-2.59499914502601,-1.06861771593486,0.334281356454255,0.00285618120634212,0.00337857233698693,0.000871471798307768,-2.59194177057191,0.237433614500009,-4.81975305442099,0.00360594785262267,-0.000787410990877325,-0.00571298700018283
0.085,4.18675795093617,-2.09737690212239,-2.26633373576669,0.0054121179290155,-0.000496701998979119,0.0028427117039129,0.773542782340087,-0.633847404413203,4.35605982839406,0.00210795139464348,-0.00175862317181492,0.00451577833918824,-2.59327244420729,-1.06771007671853,0.333598858704818,0.00249426033998701,0.00388364384336851,0.00170531121731413,-2.59031306202041,0.23716698396445,-4.81468801842622,0.00378047389203439,0.00178659515036012,-0.00762597061064552
0.09,4.18199846691567,-2.09493578843609,-2.26315027638645,0.00542491234516534,-0.000991874712176387,0.0029942473789761,0.771732627338224,-0.633099312253961,4.35152382228465,0.0016951935472378,-0.00150932570236705,0.00480992147837403,-2.59154574338845,-1.06680243750213,0.332916360955437,0.00208448376116043,0.00424571835223862,0.00251548887864972,-2.58868435346892,0.236900353428894,-4.80962298243146,0.00376127351561877,0.00404115402731787,-0.00897038177862454
0.095,4.17723898289518,-2.09249467474984,-2.2599668170061,0.00526117103255219,-0.00140558864002736,0.00304943328763798,0.769922472336248,-0.632351220094719,4.34698781617524,0.00123738621787102,-0.0012617325779129,0.00494986790790451,-2.58981904256973,-1.06589479828577,0.332233863206056,0.00162052583565995,0.00445958114151372,0.00327689001688149,-2.58705564491743,0.236633722893334,-4.80455794643669,0.00352932452115663,0.00591199422654856,-0.0097033165214472
0.1,4.17247949887468,-2.0900535610636,-2.25678335762575,0.00491840488169114,-0.0017453309602011,0.00301279100074994,0.768112317334271,-0.631603127935506,4.34245181006584,0.000730517138415936,-0.00101752304820877,0.00493452605831883,-2.58809234175089,-1.06498715906943,0.331551365456676,0.00109843791407015,0.00452396421489292,0.00396676919911032,-2.58542693636593,0.236367092357774,-4.79949291044193,0.00307080971215022,0.00734302927177325,-0.00979881452367272
0.105,4.16772001485418,-2.0876124473773,-2.2535998982454,0.00440478227016249,-0.00201602201328605,0.00289820415578661,0.766302162332295,-0.630855035776264,4.33791580395643,0.000171999760742896,-0.000776172740458784,0.0047716258997211,-2.58636564093217,-1.0640795198531,0.330868867707295,0.000516079401908742,0.00444662152599066,0.00457093474132081,-2.58379822781455,0.236100461822218,-4.79442787444717,0.00238426922709338,0.00830690584139018,-0.00928425541438885
0.11,4.16296053083369,-2.08517133369105,-2.25041643886505,0.00373864304050878,-0.00221810056560419,0.00273063189808704,0.764492007330432,-0.630106943617037,4.33337979784702,-0.000440169261294049,-0.000535570581132597,0.00447736730080243,-2.58463894011334,-1.06317188063673,0.330186369957914,-0.000127700175401515,0.00424388025436969,0.00508210218883348,-2.58216951926295,0.235833831286659,-4.78936283845239,0.00147986019190959,0.0088002900062075,-0.00823847708190053
0.115,4.15820104681325,-2.08273022000475,-2.24723297948469,0.00294222676619515,-0.00235010668841812,0.00253797597941744,0.762681852328569,-0.629358851457795,4.32884379173761,-0.00110664425010926,-0.000294359428458376,0.0040709413313813,-2.58291223929461,-1.06226424142034,0.329503872208477,-0.00083247576914933,0.00393473862889127,0.00549387495914964,-2.58054081071157,0.235567200751102,-4.78429780245763,0.000372153711626506,0.00882333698255281,-0.00675197250992427
0.12,4.15344156279269,-2.08028910631856,-2.24404952010434,0.00203907787629994,-0.00241574216153518,0.00234014391718967,0.760871697326593,-0.628610759298553,4.32430778562821,-0.00182280845484848,-5.35621127427813e-05,0.00357183475221815,-2.58118553847578,-1.061356602204,0.328821374459096,-0.00159239587539034,0.00353769456875227,0.00580182557054354,-2.57891210215996,0.235300570215543,-4.77923276646287,-0.0009220196926021,0.00838685856471658,-0.00490465547660113
0.125,4.14868207877225,-2.07784799263226,-2.2408660607241,0.00105680671306598,-0.00243034482456339,0.00214193328163352,0.759061542324616,-0.62786266713934,4.3197717795188,-0.00257405247271798,0.000183645510526251,0.00300165987588025,-2.57945883765694,-1.06044896298764,0.328138876709716,-0.00239138230695764,0.00307236654207689,0.00601034353935664,-2.57728339360858,0.235033939679983,-4.77416773046811,-0.00237931971460767,0.00754227247545537,-0.0027726433510029
0.13,4.1439225947517,-2.07540687894601,-2.23768260134375,2.9264679862142e-05,-0.00241928841411166,0.00193482277062435,0.757251387322754,-0.627114574980098,4.31523577340939,-0.00333500015351082,0.000412064293088238,0.00238562292230716,-2.57773213683811,-1.05954132377127,0.327456378960335,-0.00320227660686526,0.00256091419843479,0.00613191938023264,-2.57565468505697,0.234767309144424,-4.76910269447333,-0.00396678575233217,0.00638196811443312,-0.000433668341627158
0.135,4.13916311073126,-2.07296576525971,-2.2344991419634,-0.00100434142240784,-0.00240996392157281,0.00170557044448513,0.755441232320777,-0.626366482820856,4.31069976729998,-0.00407267632736987,0.000623201113323057,0.00175137796472196,-2.57600543601927,-1.05863368455493,0.326773881210954,-0.00398997859749649,0.00202676667159749,0.00617794835553881,-2.5740259765056,0.234500678608867,-4.76403765847857,-0.00564186136080592,0.00500577347007869,0.00203675565696655
0.14,4.13440362671071,-2.07052465157346,-2.23131568258304,-0.00200256558797243,-0.00242411862540333,0.00144499484417398,0.753631077318801,-0.625618390661629,4.30616376119058,-0.00475204443920343,0.000804977785232084,0.00112687325062609,-2.57427873520055,-1.05772604533857,0.326091383461574,-0.00471707317635437,0.00149270567552393,0.00615251934490722,-2.5723972679541,0.234234048073308,-4.75897262248381,-0.00735444790819793,0.00349644281191625,0.0045660362236648
0.145,4.12964414269027,-2.06808353788716,-2.22813222320269,-0.00292812719956475,-0.00246951360694026,0.00115760502434437,0.751820922316824,-0.624870298502401,4.30162775508117,-0.00534733632306812,0.000945692674060104,0.000538126010527446,-2.57255203438172,-1.0568184061222,0.325408885712193,-0.00535551557546172,0.000980128580649209,0.00605382483928171,-2.57076855940261,0.233967417537748,-4.75390758648905,-0.00905393574251118,0.00191814717635625,0.00707962215347098
0.15,4.12488465866977,-2.06564242420092,-2.22494876382234,-0.00375406816814227,-0.00253249088216258,0.00087033278832782,0.750010767314961,-0.624122206343174,4.29709174897175,-0.00585348739084138,0.00103873241495588,7.61564080580175e-06,-2.57082533356299,-1.05591076690584,0.324726387962755,-0.00589843411873072,0.000509094537704036,0.00587800867573713,-2.56913985085112,0.233700787002192,-4.74884255049427,-0.0106962407805175,0.000322396391392369,0.00949453460083562
0.155,4.12012517464922,-2.06320131051467,-2.22176530444199,-0.00446206451317373,-0.00258236412814867,0.000627611361449161,0.748200612312985,-0.623374114183932,4.29255574286235,-0.0062817339617761,0.00108161021388758,-0.000445615150553822,-2.56909863274416,-1.0550031276895,0.324043890213375,-0.00635567512973396,9.80068490391598e-05,0.00562127522773004,-2.56751114229962,0.233434156466632,-4.74377751449951,-0.0122408875528587,-0.00124743401694662,0.0117171291860368
0.16,4.11536569062878,-2.06076019682843,-2.21858184506164,-0.00503718676211394,-0.00258905085158919,0.000467875833592592,0.746390457311009,-0.62262602202469,4.28801973675294,-0.00664203400119605,0.0010735123583417,-0.000806339258943865,-2.56737193192544,-1.05409548847311,0.323361392463994,-0.00673615589413554,-0.000238104392441486,0.00528395184027749,-2.56588243374813,0.233167525931076,-4.73871247850475,-0.0136481584819915,-0.00275234186597525,0.0136573607070771
0.165,4.11060620660828,-2.05831908314212,-2.2153983856814,-0.00546846146428707,-0.00253776329573691,0.000402286724614799,0.744580302309032,-0.621877929865477,4.28348373064354,-0.00693356256993627,0.00101741452255089,-0.00106535358805858,-2.5656452311066,-1.05318784925674,0.322678894714613,-0.00703867893292829,-0.00048965526417377,0.00487723355536154,-2.56425372519675,0.232900895395517,-4.73364744250999,-0.0148873822968602,-0.00415332251091073,0.0152512747940983
0.17,4.10584672258778,-2.05587796945588,-2.21221492630104,-0.00575248299872186,-0.00242568762067826,0.000422578591618736,0.742770147307169,-0.621129837706235,4.27894772453412,-0.00715309459197455,0.00092150951974763,-0.00121960842294382,-2.56391853028788,-1.05228021004041,0.321996396965233,-0.00726038533547653,-0.000651928288416402,0.00442317588989127,-2.56262501664514,0.232634264859957,-4.72858240651523,-0.0159425085998548,-0.00540727399940607,0.0164588831734639
0.175,4.10108723856729,-2.05343685576958,-2.20903146692069,-0.00589429137167989,-0.00224961623596885,0.000525381390072066,0.740959992305193,-0.620381745546993,4.27441171842472,-0.00730781129375661,0.000795985984860756,-0.00126975461873049,-2.56219182946893,-1.05137257082404,0.321313899215795,-0.00740914184584867,-0.000722870964047194,0.003946526538122,-2.56099630809376,0.232367634324401,-4.72351737052047,-0.0168076835399971,-0.00646650660436614,0.0172433554395053
0.18,4.09632775454679,-2.05099574208333,-2.20584800754034,-0.00590597233869984,-0.00200770939437787,0.000712217569077662,0.739149837303216,-0.619633653387766,4.26987571231531,-0.00741241805901647,0.000649114925233826,-0.00122022389713818,-2.56046512865021,-1.05046493160771,0.320631401466414,-0.00750041393232026,-0.000704213257734881,0.00346873026121817,-2.55936759954216,0.232101003788841,-4.71845233452571,-0.0174863444990746,-0.00728605480870135,0.0175780426342396
0.185,4.0915682705263,-2.04855462839708,-2.20266454815999,-0.00580497561857146,-0.00171262370299711,0.000968473571026293,0.737339682301354,-0.618885561228538,4.2653397062059,-0.00747553381051559,0.000485728249612368,-0.00108166689346009,-2.55873842783137,-1.04955729239134,0.319948903717034,-0.00754376092771124,-0.000604795917898539,0.0030075413594602,-2.55773889099078,0.231834373253282,-4.71338729853093,-0.0179963495062736,-0.00783393546683263,0.01747702007631
0.19,4.08680878650586,-2.04611351471084,-2.19948108877963,-0.0056130914863488,-0.00139028608195274,0.00126417927024111,0.735529527299377,-0.61813746906931,4.2608037000965,-0.0074998220524462,0.000308592351952118,-0.000870037246814297,-2.55701172701265,-1.04864965317498,0.319266405967653,-0.00754300269582713,-0.000439355411993047,0.00257809728007197,-2.55611018243917,0.231567742717722,-4.70832226253617,-0.0183681047706409,-0.00809080414081388,0.016993902153745
0.195,4.0820493024853,-2.04367240102459,-2.19629762939928,-0.00535508245395811,-0.00106504244264883,0.00157546726833304,0.733719372297401,-0.617389376910069,4.25626769398708,-0.00749349964049687,0.00012079726670448,-0.000602409295523617,-2.55528502619381,-1.04774201395861,0.318583908218272,-0.00750758249228979,-0.000223392249250123,0.00219324669231374,-2.55448147388779,0.231301112182166,-4.70325722654141,-0.0186351001668843,-0.00804211356002408,0.0161896173471891
0.2,4.07728981846486,-2.04123128733829,-2.19311417001893,-0.00505489240824464,-0.000756634730044742,0.00188457532859096,0.731909217295424,-0.616641284750827,4.25173168787768,-0.00746689547956183,-7.42466994804709e-05,-0.00029513928604226,-2.55355832537498,-1.04683437474225,0.317901410468892,-0.00744902564593963,2.84611604867109e-05,0.00186263495710555,-2.5528527653363,0.231034481646606,-4.69819219054665,-0.0188306747742374,-0.00768228489575437,0.0151250979820515
0.205,4.07253033444431,-2.03879017365205,-2.18993071063858,-0.00473093149064704,-0.000489961726547858,0.00215894843810992,0.730099062293561,-0.615893192591599,4.24719568176827,-0.00741597613006257,-0.000274549967160729,3.50787249537056e-05,-2.55183162455626,-1.04592673552591,0.317218912719454,-0.00736448155583406,0.000300274591373899,0.00159128621785695,-2.5512240567848,0.23076785111105,-4.69312715455187,-0.0189916733558196,-0.0070285170541381,0.0138820145824852
0.21,4.06777085042387,-2.03634905996574,-2.18674725125834,-0.00439468060642758,-0.00029612769294637,0.0023498027103439,0.728288907291585,-0.615145100432372,4.24265967565886,-0.00732025482956887,-0.000479408976356868,0.000371586609852334,-2.55010492373742,-1.04501909630955,0.31653641497013,-0.00723462683135746,0.00057512060107137,0.0013801092641668,-2.54959534823331,0.230501220575491,-4.68806211855711,-0.019154962517972,-0.00612057131590554,0.0125630220168945
0.215,4.06301136640332,-2.0339079462795,-2.18356379187799,-0.00405284891104739,-0.000201836331228124,0.00241451545295978,0.726478752289609,-0.61439700827313,4.23812366954945,-0.00715775405475235,-0.000687342565218393,0.000700141732148257,-2.5483782229187,-1.04411145709318,0.31585391722075,-0.00703855648386209,0.000838533623315364,0.00122867022844401,-2.54796663968182,0.230234590039931,-4.68299708256235,-0.0193455299333374,-0.00500527324863138,0.0112650513209371
0.22,4.05825188238282,-2.03146683259325,-2.18038033249763,-0.00370992671747929,-0.00022087612359128,0.00233345259679729,0.724668597287632,-0.613648916113888,4.23358766344004,-0.0069170540582827,-0.000894493742873249,0.00101023108024257,-2.54665152209986,-1.04320381787682,0.315171419471312,-0.0067658079183275,0.00108069619403806,0.00113785830413493,-2.54633793113032,0.229967959504375,-4.67793204656758,-0.0195686335862839,-0.00372608212367464,0.0100601506135961
0.225,4.05349239836238,-2.02902571890701,-2.17719687311728,-0.00337020574727582,-0.00035178201094459,0.00211220261973741,0.722858442285769,-0.612900823954675,4.22905165733064,-0.00660043961941454,-0.00109397442133644,0.00129440913502227,-2.54492482128114,-1.04229617866045,0.314488921721932,-0.0064195792149249,0.00129608880948053,0.00111108326976434,-2.54470922257894,0.229701328968815,-4.67286701057282,-0.0198107414749411,-0.00232361132357421,0.00899462955600122
0.23,4.04873291434183,-2.02658460522071,-2.17401341373693,-0.00304020139609561,-0.000577191946514886,0.00177930546628854,0.721048287283793,-0.612152731795433,4.22451565122123,-0.00622495890151012,-0.00127539697582463,0.00154688702887997,-2.54319812046231,-1.04138853944411,0.313806423972551,-0.00601790207896445,0.00148227549435433,0.00115410527732244,-2.54308051402734,0.229434698433256,-4.66780197457805,-0.0200457265640569,-0.000839040564592812,0.00809414308354478
0.235,4.04397343032139,-2.0241434915344,-2.17082995435658,-0.00272982352118453,-0.000864697104185202,0.00138329106786238,0.71923813228193,-0.611404639636206,4.21997964511182,-0.00582175868203649,-0.00142512315141052,0.00176254012845871,-2.54147141964347,-1.04048090022772,0.31312392622317,-0.00559302445708807,0.0016388513842312,0.00127441690149572,-2.54145180547596,0.229168067897696,-4.66273693858329,-0.0202384530554685,0.000683155481736291,0.00736773134207244
0.24,4.03921394630083,-2.02170237784821,-2.16764649497622,-0.00244848721942097,-0.00117438414542002,0.000982603584287482,0.717427977279954,-0.610656547476964,4.21544363900241,-0.00542659275368079,-0.00152946418542326,0.00193754769564296,-2.53974471882464,-1.03957326101138,0.31244142847379,-0.00518170433773653,0.00176689422751014,0.00148024371583088,-2.53982309692435,0.22890143736214,-4.65767190258852,-0.0203421460794635,0.00219542570706652,0.00681089202629663
0.245,4.03445446228039,-2.01926126416191,-2.16446303559599,-0.00219784958919512,-0.00147391852860425,0.000621025855009763,0.715617822278091,-0.609908455317722,4.210907632893,-0.0050607981291045,-0.00158102298887163,0.00207173611340559,-2.53801801800591,-1.03866562179502,0.311758930724352,-0.00480569511787687,0.00186891385114857,0.0017758558957183,-2.53819438837297,0.22863480682658,-4.65260686659376,-0.0203091052734621,0.00365614306739519,0.00641188370700158
0.25,4.0296949782599,-2.01682015047567,-2.16127957621563,-0.00196905386807907,-0.00174897553960351,0.000304166924113543,0.713807667276114,-0.609160363158509,4.2063716267836,-0.004718473886849,-0.00158287046380604,0.00217007670241627,-2.53629131718708,-1.03775798257868,0.311076432974971,-0.00445860545072318,0.00194876228312764,0.00215464491796555,-2.53656567982148,0.228368176291021,-4.647541830599,-0.0201187356984066,0.00504158780057225,0.00616033353437199
0.255,4.0249354942394,-2.01437903678936,-2.15809611683528,-0.00174823045685894,-0.00199604744134926,7.88528329893868e-06,0.711997512274138,-0.608412270999267,4.2018356206742,-0.00437619233540229,-0.00154540966798124,0.00224075606307828,-2.53456461636836,-1.03685034336232,0.310393935225591,-0.00411589989060774,0.00201092316522388,0.00259930643410639,-2.53493697126999,0.228101545755464,-4.64247679460424,-0.0197834900654241,0.00634298114867891,0.00604797941819409
0.26,4.0201760102189,-2.01193792310312,-2.15491265745493,-0.00152516524780089,-0.00220514761962536,-0.000287362505551227,0.710187357272162,-0.607664178840025,4.19729961456478,-0.00401659959480765,-0.00147933348930117,0.0022913031918207,-2.53283791554952,-1.03594270414595,0.30971143747621,-0.00375911304953677,0.00205944275664938,0.00308949048505701,-2.53330826271849,0.227834915219905,-4.63741175860946,-0.019322907822361,0.00754910915162229,0.0060609235505458
0.265,4.01541652619841,-2.00949680941682,-2.15172919807458,-0.00129856135814266,-0.00235031516699694,-0.000572491728922642,0.708377202270299,-0.606916086680812,4.19276360845537,-0.00364409721854051,-0.00139172649380747,0.00232632992156645,-2.5311112147308,-1.03503506492962,0.309028939726829,-0.00339186699472685,0.00209734234475459,0.00360659290197154,-2.531679554167,0.227568284684345,-4.6323467226147,-0.0187432158069057,0.00863367290640239,0.00617466268387472
0.27,4.01065704217791,-2.00705569573063,-2.14854573869422,-0.00107537737717576,-0.00239440977274468,-0.000812573365449318,0.706567047268322,-0.60616799452157,4.18822760234597,-0.00328297399058099,-0.00128668597145699,0.00234776485414803,-2.52938451391196,-1.03412742571322,0.308346441977449,-0.00303795467037972,0.0021266181374106,0.00413330263191821,-2.53005084561551,0.227301654148789,-4.62728168661994,-0.018039171386005,0.00955896312604569,0.00635760561765707
0.275,4.00589755815747,-2.00461458204433,-2.14536227931387,-0.000863232694003119,-0.00230771355802455,-0.000975437498980805,0.704756892266346,-0.605419902362328,4.18369159623656,-0.00295655523555241,-0.00116871201864254,0.00235674170407669,-2.52765781309313,-1.03321978649689,0.307663944228011,-0.00272023197313081,0.00214835766464743,0.00465410479297859,-2.52842213706401,0.227035023613229,-4.62221665062516,-0.0172087874488111,0.0102991055116608,0.00658265058674612
0.28,4.00113807413692,-2.00217346835808,-2.14217881993352,-0.00066137057871054,-0.0020875535263584,-0.00106421731710319,0.702946737264369,-0.604671810203101,4.17915559012715,-0.00266291203028843,-0.00104591572068756,0.00235561333803576,-2.52593111227441,-1.03231214728052,0.306981446478687,-0.0024360885239786,0.00216286650229025,0.00515785610919802,-2.52679342851252,0.22676839307767,-4.6171516146304,-0.0162683739742123,0.010866405235466,0.0068389847082664
0.285,3.99637859011648,-1.99973235467178,-2.13899536055328,-0.000461914156280595,-0.00175394736380398,-0.00111292684830743,0.701136582262507,-0.603923718043859,4.17461958401774,-0.00237833757183294,-0.000928384536964631,0.00234757567006336,-2.52420441145546,-1.03140450806416,0.306298948729307,-0.00216104247289884,0.00216983778853531,0.00563786018080742,-2.52516471996114,0.22650176254211,-4.61208657863564,-0.0152522982828226,0.0113062059280773,0.00712926805053048
0.29,3.99161910609592,-1.99729124098553,-2.13581190117293,-0.000259116676631748,-0.00132593991730748,-0.00115021759256528,0.69932642726053,-0.603175625884646,4.17008357790834,-0.00208364559702073,-0.000823467880888825,0.00233456744635095,-2.52247771063674,-1.03049686884779,0.305616450979869,-0.00187537538941436,0.00216858231198986,0.00608821704189398,-2.52353601140953,0.226235132006554,-4.60702154264088,-0.0141959522904306,0.011662058437077,0.00745356377431805
0.295,3.98685962207549,-1.99485012729923,-2.13262844179258,-5.19620230126119e-05,-0.000810448245272532,-0.00117863828025755,0.697516272258554,-0.602427533725404,4.16554757179892,-0.0017759872206607,-0.000735459279871789,0.00231703605741332,-2.5207510098179,-1.02958922963143,0.304933953230488,-0.00157593564758386,0.00215840233351243,0.00649922548004442,-2.52190730285815,0.225968501470994,-4.60195650664612,-0.0131160357352099,0.0119476771564178,0.00779691461891631
0.3,3.98210013805499,-1.99240901361298,-2.12944498241222,0.000161303473280257,-0.000209332627708393,-0.00117955051446281,0.695706117256577,-0.601679441566162,4.16101156568951,-0.00146025664388353,-0.000669953489128436,0.00229575982973308,-2.51902430899918,-1.02868159041509,0.304251455481108,-0.00126717504921285,0.00213896334102788,0.00685363578494496,-2.52027859430655,0.225701870935435,-4.59689147065136,-0.0119975472899119,0.0121376961968663,0.00812582314377117
0.305,3.97734065403449,-1.98996789992668,-2.12626152303187,0.000386477236680196,0.000473538077076285,-0.00112376515514868,0.693895962254715,-0.600931349406935,4.15647555958011,-0.0011406667319701,-0.000635721394279237,0.00227268092325471,-2.51729760818034,-1.02777395119872,0.303568957731727,-0.000952582288555427,0.00211029051197459,0.00712790337368626,-2.51864988575517,0.225435240399879,-4.5918264346566,-0.0107960465727812,0.012176940608147,0.00839297984991267
0.31,3.972581170014,-1.98752678624049,-2.12307806365152,0.000631117698609217,0.00123216840087367,-0.000986648225886782,0.692085807252738,-0.600183257247707,4.1519395534707,-0.000817067026951677,-0.000640111751355248,0.00224933019666713,-2.51557090736162,-1.02686631198239,0.30288645998229,-0.000631422128945414,0.0020721469811405,0.00730576943699871,-2.51702117720367,0.225168609864319,-4.58676139866184,-0.00946505756017918,0.0120244634375438,0.00855769861202263
0.315,3.96782168599344,-1.98508567255419,-2.11989460427117,0.000901498627449691,0.00205981840364271,-0.00076538222638994,0.690275652250762,-0.599435165088465,4.14740354736129,-0.000481640120830278,-0.000682520841468467,0.00222506866039641,-2.51384420654279,-1.025958672766,0.302203962232966,-0.000295992158224774,0.00202370105955564,0.00739593101299157,-2.51539246865218,0.224901979328763,-4.58169636266706,-0.00799074518345285,0.0117092181394834,0.00861138355029989
0.32,3.963062201973,-1.98264455886789,-2.11671114489081,0.00120329766423622,0.00294704115335725,-0.000478977602006626,0.688465497248785,-0.598687072929238,4.14286754125188,-0.000119360684121148,-0.000753997955840279,0.00219834607047343,-2.51211750572406,-1.02505103354966,0.301521464483528,6.79719414360333e-05,0.0019648604403282,0.00743090261514832,-2.51376376010069,0.224635348793203,-4.5766313266723,-0.00639504217913423,0.0113303001874278,0.00857679462067782
0.325,3.95830271795251,-1.9802034451817,-2.11352768551058,0.00154460040225126,0.00387696284289976,-0.000150819972860862,0.686655342246922,-0.597938980769996,4.13833153514248,0.000286673950119399,-0.000842840666309023,0.00217002996224301,-2.51039080490523,-1.02414339433329,0.300838966734148,0.000476569960678021,0.00189843810766736,0.00744735238201641,-2.51213505154919,0.224368718257644,-4.57156629067754,-0.00470851515805183,0.0110020263978405,0.00848154778615003
0.33,3.95354323393201,-1.9777623314954,-2.11034422613022,0.0019371033567497,0.00482124190482554,0.000204973964901543,0.684845187244946,-0.597190888610768,4.13379552903307,0.000750119973583175,-0.000938970696938381,0.00214538399161221,-2.50866410408651,-1.02323575511693,0.30015646898471,0.000943051238036748,0.00183128218947086,0.00747075317420642,-2.5105063429977,0.224102087722088,-4.56650125468276,-0.00295053536103212,0.0108105863853143,0.00833742948889909
0.335,3.94878374991151,-1.97532121780915,-2.10716076674987,0.0023949907227882,0.00573762894473276,0.000586386460331774,0.683035032242969,-0.596442796451541,4.12925952292366,0.00127862237580693,-0.00103478611453079,0.00213423905213734,-2.50693740326756,-1.02232811590059,0.299473971235386,0.00147512965234139,0.00177436752584662,0.00751178331486952,-2.50887763444621,0.223835457186532,-4.561436218688,-0.00112863656197578,0.010804107077687,0.00813586065037787
0.34,3.94402426589102,-1.97288010412285,-2.10397730736952,0.00293298278762446,0.00656792888524367,0.00100241108795506,0.681224877240993,-0.595694704292299,4.12472351681426,0.00187198191497585,-0.00112486331279877,0.00215048031953899,-2.50521070244872,-1.0214204766842,0.298791473486006,0.00207310685413984,0.00174244990595117,0.0075665055787511,-2.50724892589471,0.223568826650968,-4.55637118269324,0.000755810978002493,0.0109935578738936,0.00784867806094812
0.345,3.93926478187052,-1.97043899043661,-2.10079384798917,0.00356474550421061,0.00724219761086687,0.00146934758355128,0.67941472223913,-0.594946612133057,4.12018751070484,0.00252325553227649,-0.0012055170704435,0.0022103294543603,-2.50348400163,-1.02051283746786,0.298108975736625,0.0027308323002437,0.0017524518780426,0.00761937660851289,-2.50562021734333,0.223302196115409,-4.55130614669848,0.00270438366756105,0.0113601413278599,0.00743295681123416
0.35,3.93450529785002,-1.9679978767503,-2.09761038860881,0.00430364911902827,0.00770197186399589,0.00200162178325037,0.677604567237154,-0.594198519973844,4.11565150459543,0.00322772055722285,-0.00127437570425872,0.00232877974227966,-2.50175730081116,-1.0196051982515,0.297426477987187,0.00344438016260292,0.00181969745567055,0.00765609056182157,-2.50399150879173,0.223035565579853,-4.5462411107037,0.00472536127847913,0.0118826184779468,0.00684885269199332
0.355,3.92974581382953,-1.96555676306406,-2.09442692922846,0.00516459586085307,0.00792987607323094,0.00260170105604918,0.675794412235291,-0.593450427814602,4.11111549848603,0.00399383043208705,-0.0013302359517132,0.00251610406065044,-2.50003059999244,-1.01869755903513,0.296743980237807,0.00422273206294854,0.00195406097607662,0.00768017032854192,-2.50236280024035,0.222768935044293,-4.54117607470894,0.00683928605534711,0.0125704665868599,0.00608229923394457
0.36,3.92498632980909,-1.96311564937787,-2.09124346984811,0.0061613281022087,0.00794754946703045,0.00325846020238691,0.673984257233315,-0.592702335655375,4.10657949237662,0.00484093173550214,-0.00137280204952239,0.00277699888989167,-2.49830389917361,-1.01778991981877,0.296061482488426,0.00508543216529565,0.00215929687704937,0.00771253078987174,-2.50073409168874,0.222502304508737,-4.53611103871418,0.0090724371861129,0.0134618479460522,0.00514613312267499
0.365,3.92022684578853,-1.96067453569157,-2.08806001046787,0.00729894965731747,0.00778218517723696,0.00395278063891206,0.672174102231452,-0.591954243496133,4.10204348626721,0.00578449802065714,-0.00140221388229523,0.00311175084761507,-2.49657719835488,-1.0168822806024,0.295378984739045,0.00604792312220794,0.00243494571823037,0.00777365595117131,-2.49910538313736,0.222235673973177,-4.53104600271941,0.0114388328330736,0.0145867342283268,0.00405957336546516
0.37,3.91546736176809,-1.95823342200532,-2.08487655108752,0.00856740333733611,0.00744048374726838,0.00466101324281991,0.670363947229475,-0.591206151336905,4.0975074801578,0.00682413762546349,-0.00141868725511278,0.00351705883106327,-2.49485049753605,-1.01597464138607,0.294696486989665,0.00710963074581289,0.00277775750964629,0.00786929780515774,-2.49747667458587,0.221969043437621,-4.52598096672465,0.0139247423765651,0.0159365049954164,0.00283311155846342
0.375,3.91070787774754,-1.95579230831902,-2.08169309170717,0.00993793424796198,0.00690346388664791,0.00535355235250608,0.668553792227499,-0.590458059177678,4.0929714740484,0.00793919030371062,-0.00142170799281143,0.00398584814442577,-2.49312379671733,-1.0150670021697,0.294013989240284,0.00824951307710284,0.00318190046591677,0.00798618874198575,-2.49584796603438,0.221702412902061,-4.52091593072988,0.0164801134692098,0.0174540700821312,0.00146799334984192
0.38,3.9059483937271,-1.95335119463277,-2.07850963232681,0.0113626263736227,0.00613730075408802,0.0059958430694747,0.666743637225522,-0.589709967018436,4.08843546793899,0.0090884054677119,-0.00140925892118201,0.00450662683210805,-2.49139709589849,-1.01415936295336,0.293331491490846,0.00942564743422628,0.00363853472869544,0.00809452402433801,-2.49421925748288,0.221435782366502,-4.51585089473512,0.019019055322556,0.0190408696024253,-3.65416515125214e-05
0.385,3.9011889097066,-1.95091008094647,-2.07532617294646,0.012780147493691,0.00512893347134103,0.00656189123504568,0.66493348222366,-0.588961874859208,4.08389946182957,0.0102143598348278,-0.00137931613794407,0.00506256511928228,-2.48967039507966,-1.013251723737,0.292648993741466,0.0105796714028186,0.00413437422462788,0.00816222899754445,-2.49259054893139,0.221169151830942,-4.51078585874035,0.0214406795675172,0.0205936152030476,-0.00166849422732764
0.39,3.89642942568611,-1.94846896726023,-2.07214271356611,0.0141260859580838,0.00392708708817616,0.00704962477418841,0.663123327221683,-0.588213782699967,4.07936345572017,0.0112532054180517,-0.00133310392276343,0.00563131693512172,-2.48794369426082,-1.01234408452061,0.291966495992085,0.0116466956310179,0.00465031667736889,0.00817360459531666,-2.4909618403799,0.220902521295386,-4.50572082274559,0.023659631462776,0.0220511501958,-0.00338626694951794
0.395,3.89166994166561,-1.94602785357398,-2.06895925418587,0.0153395179604246,0.0026357504607455,0.00746871999365014,0.661313172219707,-0.587465690540739,4.07482744961077,0.0121468645708478,-0.00127665995602422,0.00618711250902293,-2.4862169934421,-1.01143644530427,0.291283998242648,0.0125676821166043,0.00516256007285196,0.0081289140875623,-2.4893331318284,0.22063589075983,-4.50065578675083,0.0256109532538585,0.0233924066755944,-0.00511514522031535
0.4,3.88691045764512,-1.94358673988768,-2.06577579480552,0.0163640174672766,0.00136412882186229,0.00781045021675459,0.65950301721773,-0.586717598381497,4.07029144350135,0.0128517657008741,-0.00121912291273436,0.00670433552847995,-2.48449029262326,-1.0105288060879,0.290601500493267,0.0132982513473866,0.00564608011303887,0.00802627755934306,-2.48770442327691,0.220369260224267,-4.49559075075607,0.0272301811561188,0.0245911863953081,-0.00676181446163718
0.405,3.88215097362462,-1.94114562620143,-2.06259233542517,0.0171513262850798,0.000191024744669051,0.00804546730305307,0.657692862215868,-0.58596950622227,4.06575543739195,0.0133394388138214,-0.00116913694935801,0.00716118940888655,-2.48276359180443,-1.00962116687154,0.289919002743886,0.0138092635026047,0.00607900136116928,0.00785301563228827,-2.48607571472553,0.220102629688711,-4.49052571476129,0.0284491093704509,0.0255984024299877,-0.00824057246423469
0.41,3.87739148960418,-1.93870451251519,-2.05940887604481,0.0176707027676745,-0.000837693159429151,0.00815118017475444,0.655882707213891,-0.585221414063042,4.06121943128254,0.013594121894308,-0.00113190454661055,0.0075428070521489,-2.48103689098571,-1.00871352765517,0.289236504994506,0.0140844325808083,0.00644641146158651,0.00759508551317113,-2.48444700617392,0.219835999153151,-4.48546067876653,0.0292184765603806,0.0263673535937776,-0.00949859642837175
0.415,3.87263200558363,-1.93626339882894,-2.05622541666446,0.0179147862794173,-0.00169385498737702,0.00813303279841806,0.654072552211915,-0.584473321903815,4.05668342517313,0.0136114149513762,-0.00110746690912031,0.00784179384589879,-2.47931019016687,-1.00780588843884,0.288554007245182,0.0141189065842342,0.00674134724204054,0.00725130574094209,-2.48281829762254,0.219569368617591,-4.48039564277177,0.0295291000478292,0.0268813742650184,-0.010521347252054
0.42,3.86787252156313,-1.93382228514264,-2.05304195728411,0.0178966701105065,-0.00235005376993844,0.00802369162636839,0.652262397209938,-0.583725229744573,4.05214741906372,0.0133970371663517,-0.0010901721138536,0.00805609274283482,-2.47758348934815,-1.00689824922247,0.287871509495744,0.0139178629754913,0.00696289690642125,0.0068395016118184,-2.48118958907094,0.219302738082035,-4.47533060677701,0.0294114833639194,0.027159382567129,-0.0113160036596702
0.425,3.86311303754263,-1.93138117145639,-2.04985849790376,0.0176433852520668,-0.0027798552521348,0.00785752446988477,0.650452242208075,-0.582977137585331,4.04761141295432,0.0129710788216773,-0.00107129371729997,0.00818702359453555,-2.47585678852931,-1.00599061000611,0.287189011746364,0.0135007971862935,0.00711348752747454,0.00638741234155256,-2.47956088051956,0.219036107546476,-4.47026557078225,0.0289162693881852,0.0272329162751825,-0.0118878490528606
0.43,3.85835355352214,-1.92894005777009,-2.04667503852352,0.0171888070205284,-0.00297033676100643,0.00764158814660009,0.648642087206099,-0.582229045426104,4.04307540684491,0.0123718100291075,-0.00104281540949356,0.00823838969784717,-2.47413008771059,-1.00508297078977,0.286506513996983,0.0129055134249085,0.00719695907173633,0.00591568927219556,-2.47793217196806,0.21876947701092,-4.46520053478748,0.0280898729451812,0.0271129575901478,-0.0122257918706239
0.435,3.85359406950164,-1.92649894408385,-2.04349157914316,0.0165691997698686,-0.00292685035252374,0.00736236741745139,0.646831932204122,-0.581480953266876,4.03853940073549,0.0116463601535644,-0.000998623355626002,0.00821701091176234,-2.47240338689176,-1.00417533157341,0.285824016247602,0.0121789562739352,0.00721922747077957,0.00543163601811116,-2.47630346341657,0.21850284647536,-4.46013549879272,0.0269698804362293,0.0267893308918444,-0.0123147292734887
0.44,3.84883458548114,-1.92405783039754,-2.04030811976281,0.0158252902389407,-0.00267083334935699,0.00701312096887265,0.645021777202146,-0.580732861107634,4.03400339462609,0.0108406090608178,-0.00093464408203112,0.00813436759605543,-2.47067668607303,-1.00326769235704,0.285141518498222,0.0113672563526526,0.00719031010013495,0.0049360654495918,-2.47467475486508,0.2182362159398,-4.45507046279795,0.0256029587986046,0.02625754953233,-0.0121625350870713
0.445,3.8440751014607,-1.9216167167113,-2.03712466038246,0.0150029249971081,-0.00223515496202823,0.00659791046667241,0.643211622200283,-0.579984768948407,4.02946738851669,0.00999936120039221,-0.000848352470371381,0.00800566513625408,-2.46894998525408,-1.00236005314068,0.284459020748841,0.0105158120108893,0.00712352572672649,0.00442915956017481,-2.47304604631358,0.217969585404241,-4.45000542680319,0.0240524806865276,0.0255259778821068,-0.0118033752892915
0.45,3.83931561744015,-1.91917560302505,-2.03394120100211,0.0141465443253156,-0.00165336308299226,0.0061272888133025,0.641401467198307,-0.579236676789179,4.02493138240727,0.00916201856030585,-0.000736796580911021,0.00784677520085302,-2.46722328443536,-1.00145241392434,0.283776522999403,0.00966465652597626,0.00703318246074621,0.0039126739266676,-2.47141733776209,0.217702954868681,-4.44494039080843,0.022388079094491,0.0246125568321201,-0.0112844104632053
0.455,3.83455613341971,-1.91673448933881,-2.03075774162176,0.0132939971973324,-0.000950347258576213,0.00562856909609291,0.63959131219633,-0.578488584629937,4.02039537629786,0.00835222469625945,-0.000595959877563753,0.00767322620235394,-2.46549658361653,-1.00054477470798,0.283094025250023,0.00883803961830611,0.00693421828774191,0.00339372854528483,-2.46978862921071,0.217436324333125,-4.43987535481367,0.0206808773940679,0.023558026125831,-0.0106648953194119
0.46,3.82979664939916,-1.91429337565251,-2.0275742822414,0.0124768723169887,-0.000145252832050247,0.00514054424803214,0.637781157194354,-0.57774049247071,4.01585937018846,0.00758148420859927,-0.000422116937619903,0.0074994907416558,-2.46376988279781,-0.999637135491611,0.282411527500642,0.00804807754561523,0.00684102922150376,0.00288481027063856,-2.4681599206591,0.217169693797565,-4.43481031881889,0.0190019125095988,0.0224207812942543,-0.0100111728092668
0.465,3.82503716537872,-1.91185226196626,-2.02439082286105,0.011720704180406,0.000739024364476077,0.004684392446129,0.635971002192491,-0.576992400311468,4.01132336407905,0.00686446014225744,-0.000212143317254962,0.00733598409056862,-2.46204318197897,-0.998729496275246,0.281729029751205,0.00730981828205053,0.00676378639707726,0.00239670840304723,-2.46653121210772,0.216903063262009,-4.42974528282413,0.0174104329909591,0.0212380995330501,-0.00937396476696674
0.47,3.82027768135822,-1.90941114827996,-2.0212073634807,0.0110423792671361,0.0016739447907246,0.00425245945192535,0.634160847190628,-0.576244308152241,4.00678735796964,0.00622176230735892,3.74249864732923e-05,0.00718712619987684,-2.46031648116025,-0.997821857058881,0.281046532001881,0.00664383317755879,0.00670664667702116,0.00193292732223474,-2.46490250355612,0.21663643272645,-4.42468024682937,0.0159418616035553,0.0200046286280151,-0.00877522579882956
0.475,3.81551819733772,-1.90697003459368,-2.01802390410046,0.0104492159184735,0.00263332491168592,0.00383220764713184,0.632350692188652,-0.575496215993013,4.00225135186023,0.00566639116525671,0.000328095456931716,0.00705431872720827,-2.45858978034141,-0.996914217842516,0.2803640342525,0.00606305779844945,0.00667072584543015,0.00149196891726224,-2.46327379500474,0.21636980219089,-4.41961521083461,0.014610377169898,0.0187038605231146,-0.00822437296421301
0.48,3.81075871331723,-1.90452892090744,-2.01484044472011,0.00994198240195001,0.00360091133840065,0.00343522246088801,0.630540537186675,-0.574748123833771,3.99771534575083,0.00519199759742355,0.00065440477352041,0.00694103295746735,-2.45686307952258,-0.996006578626151,0.279681536503062,0.00556175531678539,0.00665840532986322,0.00107322503480803,-2.46164508645313,0.21610317165533,-4.41455017483983,0.0134219380236066,0.0173580834173221,-0.00774434496445844
0.485,3.80599922929673,-1.90208780722122,-2.01165698533987,0.0095168220402374,0.00456893020495057,0.00309730970964201,0.628730382184813,-0.574000031674544,3.99317933964142,0.00477513263110187,0.00100435247724109,0.0068530409041871,-2.45513637870386,-0.995098939409814,0.278999038753739,0.00511774206642666,0.00667355567599754,0.00067817922501746,-2.46001637790175,0.215836541119778,-4.40948513884507,0.0123785362634387,0.0160318758376096,-0.00737255248584597
0.49,3.80123974527623,-1.89964669353495,-2.00847352595952,0.00916578437724045,0.00552805930306133,0.00285117882178348,0.626920227182836,-0.573251939515302,3.98864333353201,0.00439034266670955,0.00136490243835734,0.0067939893501209,-2.45340967788502,-0.994191300193449,0.278316541004301,0.00470677359657923,0.00671783397629037,0.000307227906572728,-2.45838766935026,0.215569910584215,-4.40442010285031,0.0114732192395147,0.0147895684397942,-0.00713736527510502
0.495,3.79648026125574,-1.89720557984867,-2.00529006657916,0.00887900030801126,0.00645704328798876,0.00270271564607599,0.62511007218086,-0.572503847356074,3.9841073274226,0.00402524794978805,0.00172469580205679,0.00676238539856093,-2.45168297706618,-0.993283660977085,0.27763404325492,0.00431718913958036,0.00678770215659094,-4.17960544787219e-05,-2.45675896079877,0.215303280048655,-4.39935506685553,0.0106892210501308,0.0136630932561796,-0.00704021551024548
0.5,3.79172077723524,-1.8947644661624,-2.00210660719881,0.00864412596519625,0.00731977471795761,0.00262997726708982,0.623299917178883,-0.571755755196847,3.97957132131319,0.00368059154741818,0.00207462656784073,0.00675100718732106,-2.44995627624735,-0.992376021760748,0.27695154550554,0.0039498849525138,0.00687398627231433,-0.000373964687791545,-2.45513025224727,0.215036649513099,-4.39429003086077,0.00999818093711153,0.0126465344301564,-0.00705145949070141
0.505,3.78696129321474,-1.89232335247613,-1.99892314781846,0.0084431140798501,0.00807124463858431,0.00259715026531142,0.621489762177021,-0.571007663037605,3.97503531520379,0.00335907151202646,0.00240913811475124,0.00674762278213343,-2.44822957542863,-0.991468382544383,0.276269047756159,0.0036071519182923,0.00696338546840705,-0.000698179134149197,-2.45350154369578,0.214770018977539,-4.38922499486601,0.00935592110968533,0.0117026244064138,-0.0071155716960669
0.51,3.78220180919425,-1.88988223878988,-1.99573968843811,0.00825492207207026,0.00867196405986109,0.00257153121714733,0.619679607175044,-0.570259570878378,3.97049930909438,0.00305855537872208,0.00272522251799454,0.0067389432277429,-2.44650287460979,-0.99056074332799,0.275586550006722,0.00328623351873547,0.0070423869907885,-0.00102508908381354,-2.45187283514429,0.21450338844198,-4.38415995887125,0.00871205028385407,0.0107833061993254,-0.00717445411952623
0.515,3.77744232517375,-1.88744112510361,-1.99255622905787,0.00806285249353332,0.00910297946260741,0.00253628902289229,0.617869452173068,-0.569511478719136,3.96596330298497,0.00277250191176282,0.00301934112303103,0.00671599716106043,-2.44477617379107,-0.989653104111653,0.274904052257398,0.00298028893516014,0.00710174888088635,-0.00136260381395096,-2.45024412659291,0.214236757906423,-4.37909492287648,0.00802892413137688,0.00985576491401383,-0.00719710424647254
0.52,3.77268284115331,-1.88500001141733,-1.9893727696774,0.00785570702123499,0.00936466491711455,0.00249015835095429,0.616059297171091,-0.568763386559908,3.96142729687556,0.00249122296710976,0.00328728977673444,0.00667458866412394,-2.44304947297223,-0.988745464895288,0.27422155450796,0.00267968742442534,0.0071368557389164,-0.00171543825807713,-2.4486154180413,0.213970127370864,-4.37402988688171,0.00728380160251554,0.00890543205273168,-0.00717862149458448
0.525,3.76792335713276,-1.88255889773109,-1.98618931029716,0.0076236237585571,0.00946285879210869,0.00243664243091093,0.614249142169228,-0.568015294400666,3.95689129076615,0.0022032027583151,0.00352704017150502,0.00661180699257247,-2.44132277215351,-0.987837825678952,0.27353905675858,0.00237291316742563,0.007144931383132,-0.00208844662039949,-2.44698670948992,0.213703496835308,-4.36896485088695,0.00645642156027485,0.00791922987432462,-0.00711526913371559
0.53,3.76316387311232,-1.88011778404481,-1.98300585091681,0.00735984849473307,0.00940678802494672,0.00237807117096527,0.612438987167252,-0.567267202241439,3.95235528465675,0.00189927153219535,0.00373982265659725,0.00652646854787059,-2.43959607133468,-0.986930186462558,0.272856559009199,0.0020506768196824,0.00712553065256216,-0.0024864853067064,-2.44535800093831,0.213436866299748,-4.36389981489218,0.0055306095429052,0.00688347442445209,-0.00700508901082699
0.535,3.75840438909177,-1.87767667035854,-1.97982239153646,0.007067373756895,0.00921955510742406,0.00231792279383606,0.610628832165276,-0.566519110082211,3.94781927854734,0.00157733691708629,0.00392862040280235,0.00642311173693444,-2.43786937051595,-0.986022547246222,0.272174061259761,0.00171097846084207,0.00708385275530182,-0.00291032368268331,-2.44372929238693,0.213170235764192,-4.35883477889742,0.00450960016990855,0.0057988740426281,-0.00687345426520469
0.54,3.75364490507133,-1.87523555667229,-1.97663893215611,0.00675862862874187,0.00893816016614594,0.00226179527357705,0.608818677163299,-0.565771017922984,3.94328327243793,0.00124214436843548,0.00409717968978299,0.00631163792197981,-2.43614266969712,-0.985114908029857,0.271491563510438,0.00135891290236129,0.00703017238611485,-0.00335525560811816,-2.44210058383533,0.212903605228629,-4.35376974290266,0.00341776695705638,0.00468359201710198,-0.0067736579155884
0.545,3.74888542105083,-1.87279444298602,-1.97345547277575,0.00644793318339267,0.00860005759085325,0.00221406724444608,0.607008522161436,-0.565022925763742,3.93874726632852,0.000900996499755421,0.00425056859123891,0.00620220617938291,-2.43441596887828,-0.984207268813492,0.270809065761057,0.00100204947446392,0.00697520618987618,-0.0038136836606428,-2.44047187528395,0.212636974693076,-4.3487047069079,0.00228617382482848,0.00355992129757499,-0.00675650178546499
0.55,3.74412593703033,-1.87035332929975,-1.97027201339552,0.00614615880857874,0.00823294899171407,0.00217505559400224,0.60519836715946,-0.564274833604514,3.93421126021912,0.000560979480873089,0.00439570596792599,0.006101520153469,-2.43268926805945,-0.983299629597155,0.270126568011619,0.000647401789770856,0.00692675595088889,-0.00427702772668992,-2.43884316673245,0.212370344157517,-4.34363967091312,0.00114224720042955,0.00244438543525065,-0.00684637107420957
0.555,3.73936645300984,-1.86791221561347,-1.96708855401516,0.00585981332256487,0.00785296502041622,0.00214075595415543,0.603388212157483,-0.563526741445273,3.92967525410971,0.000228724015203637,0.00454087407642045,0.00601199663617141,-2.43096256724061,-0.982391990380791,0.269444070262239,0.000301170221530668,0.00688879835785952,-0.0047350714703073,-2.43721445818096,0.212103713621953,-4.33857463491837,9.47887120268583e-06,0.00134771611256244,-0.00703622314520684
0.56,3.73460696898934,-1.86547110192723,-1.9639050946347,0.00559100664929979,0.00746551010509555,0.00210378528824395,0.601578057155507,-0.562778649286045,3.92513924800029,-8.95465513973553e-05,0.00469463300332481,0.00593155130156863,-2.42923586642189,-0.981484351164426,0.268761572512858,-3.11508559516105e-05,0.00686102160347032,-0.00517423968960173,-2.43558574962947,0.211837083086397,-4.33350959892361,-0.00109008781107713,0.000277959422498161,-0.00728881275445769
0.565,3.72984748496884,-1.86302998824095,-1.96072163525434,0.00533861011008992,0.00706705303311167,0.00205454164202883,0.599767902153644,-0.562030557126803,3.92060324189089,-0.00038751788730372,0.00486440265497712,0.0058545740481548,-2.42750916560306,-0.980576711948061,0.268079074763477,-0.000344120502795389,0.00683941945075561,-0.00557786070759974,-2.43395704107797,0.211570452550838,-4.32844456292885,-0.00213437898398278,-0.000757598724339031,-0.00754522460487232
0.57,3.7250880009484,-1.86058887455468,-1.95753817587411,0.00510387270136605,0.00664938026579314,0.00198200575186689,0.597957747151668,-0.561282464967576,3.91606723578148,-0.000655561090252974,0.00505401400335777,0.00577672537282958,-2.42578246478433,-0.979669072731724,0.267396577014097,-0.000628676485863435,0.00682023236210762,-0.00593239803346006,-2.43232833252648,0.211303822015282,-4.32337952693408,-0.00310139431176774,-0.00175373616671399,-0.00775563576590743
0.575,3.72032851692785,-1.85814776086841,-1.95435471649375,0.0048973733862518,0.00620482222648726,0.00187392304374094,0.596147592149691,-0.560534372808348,3.91153122967208,-0.000876308639925057,0.00526107161674553,0.00570068761020982,-2.4240557639655,-0.978761433515359,0.266714079264716,-0.00086719343063379,0.00680471765170558,-0.00623568852098285,-2.4306996239751,0.211037191479722,-4.31831449093931,-0.00396951288579986,-0.00270990014606031,-0.00791649025444716
0.58,3.71556903290741,-1.85570664718216,-1.9511712571134,0.00473721501220691,0.0057300607292403,0.00171907092226408,0.594337437147715,-0.559786280649107,3.90699522356266,-0.00102726836684314,0.00547771490451117,0.00563526097653289,-2.42232906314678,-0.977853794298994,0.266031581515279,-0.00103619445607216,0.00679856833551438,-0.00649621390407757,-2.42907091542349,0.210770560944166,-4.31324945494455,-0.00471777861632168,-0.00362915852102727,-0.00806894183889287
0.585,3.71080954888686,-1.85326553349589,-1.94798779773305,0.00463650945186725,0.00523122865248443,0.00151572160306174,0.592527282145852,-0.559038188489879,3.90245921745326,-0.00109539295772291,0.00569592696075596,0.00558810831403935,-2.42060236232794,-0.976946155082629,0.265349083765898,-0.00112166968027989,0.00680676680084548,-0.00672437487244359,-2.42744220687212,0.210503930408606,-4.30818441894978,-0.00533148699513955,-0.00451572423616603,-0.00826131863254239
0.59,3.70605006486642,-1.85082441980961,-1.9448043383527,0.00459233993095541,0.00472995505570382,0.0012810642300582,0.590717127143989,-0.558290096330637,3.89792321134385,-0.00109180363250663,0.00591243524835405,0.00556038577430954,-2.41887566150922,-0.976038515866264,0.264666586016517,-0.00113440180743142,0.00683018098275549,-0.00692635164947076,-2.42581349832051,0.210237299873047,-4.30311938295502,-0.0058101312301014,-0.00537448628587109,-0.00852105124030141
0.595,3.70129058084586,-1.84838330612337,-1.94162087897246,0.00458665374468425,0.00426204082334412,0.00104959481614904,0.588906972142013,-0.55754200417141,3.89338720523444,-0.00104953108126576,0.00612789881138491,0.00554654838438067,-2.41714896069027,-0.975130876649928,0.263984088267136,-0.00110767371261818,0.00686508159583545,-0.00710179184355152,-2.42418478976913,0.209970669337491,-4.29805434696026,-0.00616310030254759,-0.00620712767841468,-0.00884661801373232
0.6,3.69653109682542,-1.84594219243709,-1.93843741959211,0.00459447530572469,0.00386912072356077,0.000862347924517956,0.587096817140036,-0.556793912012182,3.88885119912503,-0.00100852295987083,0.00634218499374955,0.00553606668009595,-2.41542225987155,-0.974223237433563,0.263301590517756,-0.00108191492174262,0.00690302534962914,-0.00724146193561681,-2.42255608121752,0.209704038801927,-4.2929893109655,-0.00639398452088843,-0.00700303859046289,-0.00920375025287714
0.605,3.69177161280493,-1.84350107875082,-1.93525396021175,0.00459061108504216,0.00359010087766558,0.000757354441134378,0.585286662138174,-0.55604581985294,3.88431519301562,-0.00100409657323556,0.00655154706799578,0.00551554582978026,-2.41369555905271,-0.973315598217198,0.262619092768318,-0.00109288079546285,0.00693173029768925,-0.00732821104291839,-2.42092737266614,0.209437408266371,-4.28792427497072,-0.00649358963961033,-0.00773682335331842,-0.0095309465726551
0.61,3.68701212878437,-1.84105996506457,-1.9320705008314,0.004555855248349,0.00344816991127948,0.00075942822830562,0.583476507136197,-0.555297727693713,3.87977918690622,-0.00105957966882323,0.00674944046455011,0.00547364740647326,-2.41196885823399,-0.972407959000833,0.261936595018994,-0.00116407049333159,0.00693971351925255,-0.00734742888462559,-2.41929866411465,0.209170777730812,-4.28285923897596,-0.00645340005828635,-0.00838516302813535,-0.0097722897725196
0.615,3.68225264476393,-1.8386188513783,-1.92888704145105,0.00448332951791538,0.00343622986395354,0.000869280562758544,0.581666352134221,-0.554549635534471,3.87524318079681,-0.00117978478475052,0.00692833321256879,0.00540703118788876,-2.41024215741515,-0.971500319784468,0.261254097269614,-0.00129997863465216,0.00692218991732212,-0.00730057802450887,-2.41766995556316,0.208904147195256,-4.2777942029812,-0.00628526375334927,-0.00895019995406175,-0.00991857552743675
0.62,3.67749316074338,-1.83617773769203,-1.9257035820707,0.00437800968795303,0.00351953767989899,0.00106455761173114,0.579856197132244,-0.553801543375243,3.8707071746874,-0.00135204861106406,0.00708000748902948,0.00532029657918347,-2.40851545659632,-0.970592680568132,0.260571599520233,-0.00148715544541057,0.00688113392074041,-0.00720526665010195,-2.41604124701166,0.208637516659696,-4.27272916698644,-0.00602167013301425,-0.00945734286159552,-0.0100052377982257
0.625,3.67273367672294,-1.83373662400575,-1.92252012269034,0.00424956199267469,0.00365492961307878,0.00131267360595386,0.578046042130381,-0.553053451216016,3.86617116857799,-0.00155477351250269,0.00719447136909481,0.00522004237011928,-2.4067887557776,-0.969685041351767,0.259889101770796,-0.00170301199421941,0.00681964363592293,-0.00708207018107153,-2.41441253846017,0.208370886124136,-4.26766413099166,-0.00569713860890321,-0.00992759826534872,-0.010068343773964
0.63,3.66797419270245,-1.83129551031951,-1.9193366633101,0.00410698214825401,0.00380535876369153,0.00158045131949055,0.576235887128405,-0.552305359056774,3.86163516246859,-0.0017637139121207,0.00725914597071765,0.00511030588002773,-2.40506205495876,-0.968777402135402,0.259206604021415,-0.00192231093111126,0.00673760614263917,-0.00694426184644449,-2.41278382990868,0.20810425558858,-4.2625990949969,-0.00533379579460405,-0.0103555715814777,-0.0101106257163682
0.635,3.66321470868195,-1.82885439663323,-1.91615320392975,0.00395742680363597,0.00394370695488703,0.0018369548503324,0.574425732126429,-0.551557266897547,3.85709915635918,-0.00195435157034627,0.00726032192416988,0.0049919014732849,-2.40333535414004,-0.967869762919037,0.258524106272034,-0.00211967014609112,0.00663150223390676,-0.00679600045178636,-2.4111551213573,0.207837625053021,-4.25753405900214,-0.00494019302081604,-0.0107088912233003,-0.0101000417969311
0.64,3.65845522466145,-1.82641328294696,-1.9129697445494,0.00380589064375776,0.00405426772982273,0.00205709188920151,0.572615577124566,-0.550809174738305,3.85256315024977,-0.00210653787766879,0.00718902867215344,0.00486377256913342,-2.4016086533212,-0.966962123702672,0.257841608522654,-0.00227449323665291,0.00649729939274348,-0.00663417158157682,-2.40952641280569,0.207570994517464,-4.25246902300736,-0.00451868392830297,-0.0109488374064196,-0.00999438635471436
0.645,3.65369574064096,-1.82397216926071,-1.90978628516905,0.00365520851416543,0.00413392622330311,0.00222594627539762,0.570805422122589,-0.550061082579077,3.84802714414036,-0.00220979256498796,0.00704769881865142,0.0047249449079014,-2.39988195250237,-0.966054484486335,0.257159110773216,-0.00237656916881123,0.00633414416669135,-0.00645063659416376,-2.40789770425431,0.207304363981905,-4.2474039870126,-0.00407384611356093,-0.0110555981823101,-0.00977060411439761
0.65,3.64893625662046,-1.82153105557447,-1.9066028257887,0.00350775037749316,0.0041896571657686,0.00233641228916316,0.568995267120613,-0.549312990419836,3.84349113803095,-0.00226058193231311,0.00684904507104914,0.00457532384895236,-2.39815525168353,-0.96514684526997,0.256476613023835,-0.00242323644160068,0.00614475120578421,-0.00623304893144309,-2.4062689957027,0.207037733446345,-4.24233895101784,-0.00361206279073679,-0.0110265671649299,-0.00942416515221027
0.655,3.64417677260002,-1.81908994188819,-1.90341936640834,0.00336745237088592,0.00423240822487017,0.00238230475121294,0.567185112118636,-0.548564898260622,3.83895513192154,-0.00225433068641915,0.00660827642322403,0.00441505692751166,-2.39642855086481,-0.964239206053605,0.255794115274455,-0.0024109472891534,0.00593260592004272,-0.00596623608168631,-2.40464028715132,0.206771102910785,-4.23727391502308,-0.00313497411739855,-0.010854429759812,-0.00894630380271151
0.66,3.63941728857947,-1.81664882820192,-1.90023590702799,0.00323977444174369,0.00426944413038482,0.00235861159231152,0.565374957116774,-0.54781680610138,3.83441912581214,-0.00218529008144431,0.0063380541429796,0.00424523128640942,-2.39470185004598,-0.96333156683724,0.255111617525074,-0.00233475537955071,0.00570145906553952,-0.00563988124385516,-2.40301157859972,0.206504472375226,-4.23220887902831,-0.00264120865205124,-0.0105284794016569,-0.00832638972144991
0.665,3.63465780455903,-1.81420771451567,-1.89705244764764,0.0031305589660489,0.00429784484610207,0.00226805408911257,0.563564802114797,-0.547068713942153,3.82988311970273,-0.00205331408966671,0.00604802679532757,0.00407027686866756,-2.39297514922725,-0.962423927620904,0.254429119775693,-0.00219488273150736,0.00545785938012424,-0.00525870530931098,-2.40138287004834,0.20623784183967,-4.22714384303355,-0.00213539941698955,-0.0100580778370015,-0.00757781717654066
0.67,3.62989832053847,-1.8117666008294,-1.8938689882674,0.00304624565037976,0.0043036538458945,0.0021204654871132,0.561754647112821,-0.546320621782911,3.82534711359332,-0.0018634126973678,0.00574456745413723,0.00389811424367285,-2.39124844840842,-0.961516288404539,0.253746622026313,-0.00199624885099158,0.0052112151296439,-0.00484220219530351,-2.39975416149684,0.20597121130411,-4.22207880703878,-0.00162887405520801,-0.00947388428504167,-0.0067398188541497
0.675,3.62513883651803,-1.80932548714313,-1.89068552888705,0.00299507043405861,0.00426624007730889,0.00192367144574126,0.559944492110844,-0.545572529623684,3.82081110748391,-0.00161684690244331,0.00542965583353991,0.00373709516819033,-2.3895217475897,-0.960608649188202,0.253064124276904,-0.0017397199527134,0.00497015776757266,-0.00441404284904753,-2.39812545294535,0.205704580768554,-4.21701377104401,-0.00113061348742512,-0.00880185277927836,-0.00585024991733558
0.68,3.62037935249754,-1.80688437345688,-1.8875020695067,0.00298675003150941,0.00416395994263819,0.0016784302851058,0.558134337108982,-0.544824437464442,3.81627510137451,-0.0013069239127127,0.00510159308337497,0.00359346067006005,-2.38779504677086,-0.959701009971809,0.252381626527523,-0.00141812839403401,0.0047400492227019,-0.00399399322883154,-2.39649674439386,0.205437950232994,-4.21194873504925,-0.000641703262210501,-0.0080481139148097,-0.00492825717888605
0.685,3.61561986847698,-1.80444325977061,-1.88431861012634,0.00302877830964227,0.00398244719863077,0.00138406003247853,0.556324182107005,-0.544076345305214,3.81173909526509,-0.00092704238051397,0.00475976484613991,0.00347101342236126,-2.38606834595203,-0.958793370755444,0.251699128778114,-0.00102462299597727,0.00452413977143728,-0.00359649897862693,-2.39486803584236,0.205171319697438,-4.2068836990545,-0.000159119439939514,-0.00721453941541767,-0.00398458104470776
0.69,3.61086038445654,-1.80200214608433,-1.88113515074599,0.00312182823519422,0.00372298423301686,0.00104753394142149,0.554514027105029,-0.543328253145987,3.80720308915568,-0.000482565189851268,0.00441005520548715,0.00337177678077122,-2.3843416451333,-0.957885731539108,0.251016631028762,-0.000564812677232376,0.0043260096572013,-0.00323152820951442,-2.39323932729087,0.204904689161879,-4.20181866305974,0.000317462046337878,-0.00632408436167746,-0.00304066724699927
0.695,3.60610090043599,-1.79956103239806,-1.87795169136564,0.00325994050140929,0.00340110924625104,0.000684552060234943,0.552703872103052,-0.542580160986745,3.80266708304628,8.25086098482462e-06,0.00406433683450648,0.00329681619115528,-2.38261494431447,-0.956978092322743,0.250334133279352,-5.76064599671358e-05,0.00415029042043925,-0.00290551279591885,-2.39161061873949,0.204638058626319,-4.19675362706496,0.000784036186503385,-0.00542281014259157,-0.00213105030103122
0.7,3.60134141641555,-1.79711991871181,-1.87476823198529,0.00343502475358623,0.00303668779993198,0.000312821545641334,0.550893717101189,-0.541832068827517,3.79813107693688,0.000523754073279789,0.00373491634122218,0.00324681453690454,-2.38088824349563,-0.956070453106406,0.249651635529972,0.000474653392191127,0.00400149745847634,-0.00262225621004726,-2.38998191018788,0.204371428090763,-4.1916885910702,0.00123569161984472,-0.00455916725731745,-0.00128950745700527
0.705,3.59658193239505,-1.79467880502554,-1.87158477260493,0.00363982034059548,0.0026469985151888,-5.27310960459048e-05,0.549083562099213,-0.541083976668276,3.79359507082746,0.00104559817752755,0.00343072236668884,0.00322218314548311,-2.3791615426768,-0.955162813890013,0.248969137780591,0.00101312549156359,0.00388294483444715,-0.00238356060621868,-2.38835320163651,0.2041047975552,-4.18662355507544,0.0016688988375974,-0.00376845662730618,-0.000538835803528921
0.71,3.59182244837456,-1.79223769133927,-1.86840131322458,0.00386788086598489,0.00224602866153507,-0.000399806362488787,0.54727340709735,-0.540335884509048,3.78905906471805,0.00155871166321162,0.00315709201489377,0.00322304144610989,-2.37743484185808,-0.954255174673676,0.248286640031182,0.00154245170068682,0.0037966770237888,-0.00218959802046539,-2.3867244930849,0.203838167019644,-4.18155851908068,0.00208080095418099,-0.00307135528326977,0.00010968775101807
0.715,3.58706296435406,-1.78979657765302,-1.86521785384434,0.00411278301166957,0.00184575162128923,-0.000717181000132588,0.545463252095374,-0.53958779234982,3.78452305860865,0.00204934930119013,0.00291667384973997,0.00324924576408043,-2.37570814103924,-0.953347535457311,0.247604142281801,0.0020487581368923,0.00374379580828551,-0.00203916814352441,-2.38509578453352,0.203571536484084,-4.17649348308591,0.00246771900527783,-0.00247680790457166,0.000654027804414275
0.72,3.58230348033356,-1.78735546396675,-1.86203439446399,0.00436746732697433,0.00145725495488324,-0.000993692047614128,0.543653097093511,-0.538839700190579,3.77998705249924,0.00250369439268026,0.00271021216415482,0.00330029793349676,-2.37398144022052,-0.952439896240946,0.246921644532421,0.00251820503879473,0.00372461777245223,-0.00192988133045461,-2.38346707598203,0.203304905948524,-4.17142844709115,0.0028240250312872,-0.00198452270323429,0.00109935208287722
0.725,3.57754399631307,-1.78491435028047,-1.85885093508364,0.00462355591063208,0.00109157700212274,-0.00121783349583874,0.541842942091534,-0.538091608031351,3.77545104638983,0.00290701244165528,0.00253714304418102,0.00337496651178883,-2.37225473940168,-0.95153225702461,0.24623914678304,0.00293608037806491,0.00373848372598064,-0.00185831432987435,-2.38183836743053,0.203038275412968,-4.16636341109638,0.00314141539335413,-0.0015871410415844,0.00145599912904886
0.73,3.57278451229263,-1.7824732365942,-1.85566747570329,0.004870241162247,0.000760347027968677,-0.00137748892097548,0.540032787089558,-0.537343515872109,3.77091504028042,0.00324274470311943,0.00239592272622206,0.00347049563083325,-2.37052803858296,-0.950624617808216,0.245556649033631,0.00328582574153163,0.00378310782281876,-0.0018201203979724,-2.38020965887904,0.202771644877412,-4.16129837510161,0.0034081655548119,-0.00127193717895827,0.00173754904083184
0.735,3.56802502827207,-1.78003212290795,-1.85248401632293,0.00509329721083005,0.000476617595082588,-0.00145952492281432,0.538222632087582,-0.536595423712882,3.76637903417102,0.00349149852341853,0.00228446963279515,0.00358200388390424,-2.36880133776413,-0.94971697859188,0.24487415128425,0.00354796373470017,0.0038541424451072,-0.0018102867678549,-2.37858095032755,0.202505014341853,-4.15623333910685,0.00360840234047019,-0.00102189067765112,0.00195960496208262
0.74,3.56326554425164,-1.77759100922168,-1.84930055694258,0.00527707120177739,0.000253977953569715,-0.00145153245681031,0.536412477085719,-0.535847331553654,3.76184302806161,0.00363353931963079,0.00220059377723428,0.0037033359983769,-2.3670746369454,-0.948809339375515,0.244191653534841,0.00370260402999187,0.00394599255903373,-0.00182375928091131,-2.37695224177605,0.202238383806293,-4.15116830311209,0.00372462200463045,-0.000817430920154721,0.00213890357149993
0.745,3.55850606023108,-1.77514989553541,-1.84611709756223,0.00541133631125476,9.98052265987911e-05,-0.00134885166408606,0.534602322083742,-0.535099239394413,3.7573070219522,0.00365913698574689,0.00214068612343071,0.00382922938473672,-2.36534793612657,-0.947901700159179,0.243509155785461,0.00373996949812054,0.00405314531177121,-0.00185583579808145,-2.37532353322456,0.201971753270737,-4.14610326711733,0.00374738939214092,-0.000641037823623962,0.00229043249321679
0.75,3.55374657621064,-1.77270878184916,-1.84293363818199,0.00549779072001335,7.3176056262802e-06,-0.00116167655141036,0.532792167081766,-0.534351147235171,3.75277101584279,0.003579163848554,0.00209766941776126,0.00395692620064225,-2.36362123530785,-0.946994060942785,0.24282665803608,0.00367118753583452,0.00417077748889517,-0.0019021073878239,-2.37369482467307,0.201705122735177,-4.14103823112255,0.0036853960971823,-0.000482439783103,0.00242350745894359
0.755,3.54898709219009,-1.77026766816289,-1.83975017880164,0.0055482329700549,-4.16454674084133e-05,-0.000911932229891223,0.530982012079789,-0.533603055075957,3.74823500973338,0.00342125379151995,0.00206235171385804,0.00408594599930114,-2.3618945344889,-0.94608642172642,0.242144160286671,0.00352436049729858,0.00429502478975036,-0.00195878707531284,-2.37206611612169,0.201438492199614,-4.13597319512779,0.00356250069958111,-0.000338631618093104,0.00254180874824936
0.76,3.54422760816965,-1.76782655447661,-1.83656671942128,0.00557651296069193,-6.52939123042691e-05,-0.000622633248833091,0.529171857077927,-0.532854962916716,3.74369900362397,0.00321505417931162,0.00202735816675875,0.00421664760957835,-2.36016783367018,-0.945178782510084,0.24146166253729,0.00332952655934731,0.00442317090093357,-0.00202328888383042,-2.37043740757008,0.201171861664061,-4.13090815913303,0.00340471471389618,-0.000209286376983494,0.00264711826548326
0.765,3.53946812414915,-1.76538544079037,-1.83338326004093,0.00559316038958829,-7.51011874004595e-05,-0.0003115089145433,0.52736170207595,-0.532106870757474,3.73916299751457,0.00298307231695317,0.00198899904572671,0.0043490442775846,-2.35844113285134,-0.944271143293719,0.240779164787909,0.00310934559258287,0.00455334732769765,-0.00209415422596585,-2.3688086990187,0.200905231128502,-4.12584312313827,0.00323199229619057,-9.34837923991329e-05,0.00274161668169605
0.77,3.53470864012866,-1.76294432710409,-1.83019980066058,0.00560484135278004,-7.6048453120748e-05,9.01852239687832e-06,0.525551547073974,-0.531358778598246,3.73462699140516,0.00274040550586225,0.00194660087061996,0.0044824682746624,-2.3567144320325,-0.943363504077354,0.240096667038529,0.00287885418720306,0.00468406375222897,-0.00217047701581944,-2.36717999046709,0.200638600592942,-4.12077808714349,0.00305794642413349,1.06351854204757e-05,0.00282767836914919
0.775,3.52994915610816,-1.76050321341782,-1.82701634128023,0.00561522351813189,-6.85273740028904e-05,0.000330436574301822,0.523741392071997,-0.530610686439005,3.73009098529575,0.00249664145047255,0.00190143554497796,0.00461565198881854,-2.35498773121378,-0.942455864860989,0.23941416928912,0.00264743485399521,0.00481395078281343,-0.00225135997227688,-2.36555128191571,0.200371970057382,-4.11571305114873,0.00289152351721581,0.000105347287002975,0.00290722381560065
0.78,3.52518967208761,-1.75806209973155,-1.82383288189988,0.00562548066880469,-4.98251600741721e-05,0.000647272585146881,0.521931237070135,-0.529862594279791,3.72555497918634,0.00225707307509761,0.00185587356992632,0.00474673537673202,-2.35326103039495,-0.941548225644652,0.238731671539739,0.00242008292385759,0.00494151452434599,-0.00233543778994087,-2.36392257336422,0.200105339521826,-4.11064801515397,0.00273803334640629,0.000192883350269017,0.00298131672563797
0.785,3.52043018806717,-1.7556209860453,-1.82064942251952,0.00563450724903782,-1.53361043965638e-05,0.000956525708713504,0.520121082068158,-0.529114502120549,3.72101897307694,0.00202346251951897,0.00181269867261042,0.00487316814611492,-2.35153432957622,-0.940640586428287,0.238049173790358,0.00219820714913738,0.00506484697586632,-0.00242046293969015,-2.36229386481273,0.199838708986267,-4.10558297915919,0.00259972417427995,0.000275045688845291,0.00304994701115537
0.79,3.51567070404667,-1.75317987235903,-1.81746596313928,0.00563917708140574,4.05129987745933e-05,0.00125724040949877,0.518310927066182,-0.528366409961308,3.71648296696753,0.00179463645684947,0.0017746993296631,0.00499172331661156,-2.34980762875739,-0.939732947211922,0.237366676040949,0.00198025078139952,0.00518151685171765,-0.00250307281696163,-2.36066515626123,0.199572078450711,-4.10051794316443,0.00247617658044501,0.000352977480604225,0.00311210205571533
0.795,3.51091122002617,-1.75073875867275,-1.81428250375893,0.00563486760873354,0.000123572750147922,0.00155011905471305,0.516500772064205,-0.52761831780208,3.71194696085811,0.00156711888838284,0.00174455319268246,0.00509875764983739,-2.34808092793867,-0.938825307995586,0.236684178291569,0.001762345799852,0.00528876683773177,-0.00257878785012115,-2.35903644770974,0.199305447915151,-4.09545290716967,0.00236473373080548,0.000427135603910647,0.00316612401042897
0.8,3.50615173600568,-1.74829764498648,-1.81109904437858,0.00561628378387902,0.000239390741514063,0.00183712997931128,0.514690617062342,-0.526870225642853,3.70741095474871,0.00133589479819843,0.00172490421969363,0.0051907114105737,-2.34635422711983,-0.937917668779193,0.236001680542188,0.00153909949115273,0.005383982373179,-0.00264220918775264,-2.35740773915825,0.199038817379591,-4.09038787117491,0.00226108580029641,0.00049748746080959,0.003210228232723
0.805,3.50139225198518,-1.74585653130023,-1.80791558499823,0.00557839917610566,0.000392684999700152,0.00212108340637542,0.512880462060366,-0.526122133483611,3.70287494863931,0.00109526221572305,0.00171850570663393,0.00526467991017752,-2.344627526301,-0.937010029562828,0.235319182792807,0.00130446909855373,0.00546524157380106,-0.00268729743109523,-2.35577903060675,0.198772186844035,-4.08532283518014,0.00215997427044104,0.000563896555230002,0.00324299952951852
0.81,3.49663276796468,-1.74341541761396,-1.80473212561787,0.00551716150867614,0.00058685353705169,0.00240512063776884,0.51107030705839,-0.525374041324383,3.69833894252989,0.000839659102499653,0.00172828112896119,0.00531874412468658,-2.34290082548216,-0.936102390346491,0.234636685043398,0.00105260180210299,0.00553161316172882,-0.00270756195792423,-2.35415032205526,0.198505556308472,-4.08025779918539,0.0020558916666329,0.000626634984652712,0.00326363197854709
0.815,3.49187328394419,-1.74097430392769,-1.80154866623752,0.00542991403880162,0.000823392064595128,0.00269215132622386,0.509260152056413,-0.524625949165156,3.69380293642048,0.000564460366591236,0.00175721722619395,0.00535200133309539,-2.34117412466344,-0.935194751130126,0.233954187294017,0.00077863740983594,0.00558312530391263,-0.00269618460846042,-2.35252161350388,0.198238925772912,-4.07519276319063,0.00194381118191842,0.000687037734649024,0.00327182407423966
0.82,3.48711379992369,-1.73853319024144,-1.79836520685717,0.00531590283795229,0.00110143986864299,0.00298443835651971,0.50744999705455,-0.523877857005928,3.68926693031108,0.000266703274652221,0.00180833387673985,0.00536470807197262,-2.3394474238446,-0.93428711191379,0.233271689544637,0.000479441597463446,0.00562086479619511,-0.0026462372333863,-2.35089290495227,0.197972295237356,-4.07012772719585,0.00181993710564278,0.000748239274662947,0.00326770222055905
0.825,3.48235431590325,-1.73609207655517,-1.79518174747682,0.00517685542180725,0.00141796075486503,0.0032834492369037,0.505639842052688,-0.523129764846686,3.68473092420167,-5.45194048304993e-05,0.00188497395097033,0.00535867928900935,-2.33772072302577,-0.933379472697396,0.232589191795228,0.000154002824862832,0.00564741486826107,-0.0025508777887969,-2.3492641964009,0.1977056647018,-4.06506269120109,0.00168214347258949,0.00081574281473934,0.00325209941141842
0.83,3.4775948318827,-1.73365096286889,-1.79199828809658,0.00501705263521095,0.00176820729186976,0.00358983749465907,0.503829687050711,-0.522381672687445,3.68019491809226,-0.000398084001506408,0.00199101815516981,0.00533737911452319,-2.33599402220705,-0.93247183348106,0.231906694045847,-0.000196600975288313,0.00566699486681592,-0.00240330055139647,-2.34763548784929,0.197439034166241,-4.05999765520633,0.00152996397873655,0.000897717542503015,0.00322673570672417
0.835,3.47283534786226,-1.73120984918265,-1.78881482871623,0.00484262391361098,0.00214576344445406,0.00390339750370165,0.502019532048735,-0.521633580528203,3.67565891198285,-0.000761097771171184,0.00213060305487553,0.00530530292809505,-2.33426732138821,-0.931564194264695,0.231224196296466,-0.000569482875295252,0.00568480633934765,-0.00219650118188853,-2.34600677929791,0.197172403630681,-4.05493261921157,0.00136431771530969,0.00100508021676322,0.00319383054938232
0.84,3.4680758638417,-1.72876873549637,-1.78563136933587,0.00466040495850174,0.00254238910148842,0.00422304370638538,0.500209377046872,-0.52088548836899,3.67112290587345,-0.00113935586300396,0.0023076143032976,0.00526699284038826,-2.33254062056949,-0.93065655504833,0.230541698547086,-0.000960429491186762,0.00570597936662854,-0.00192305317181963,-2.34437807074642,0.196905773095125,-4.04986758321679,0.00118697516229489,0.00115128463845707,0.00315550790050673
0.845,3.46331637982126,-1.7263276218101,-1.78244790995552,0.0044768167490607,0.00294813881260989,0.00454697534364664,0.498399222044895,-0.520137396209748,3.66658689976403,-0.00152803495381949,0.0025253269535266,0.00522621187041173,-2.33081391975065,-0.929748915831993,0.229859200797677,-0.00136461904819318,0.00573471798882469,-0.00157504274965248,-2.34274936219492,0.196639142559565,-4.04480254722203,0.000999721640912147,0.00135175355075856,0.00311352507633445
0.85,3.45855689580077,-1.72388650812383,-1.77926445057517,0.00429699633507303,0.00335176126806475,0.00487308328898864,0.496589067042919,-0.51938930405052,3.66205089365463,-0.00192254589833416,0.0027862160436702,0.00518548579109903,-2.32908721893193,-0.928841276615628,0.229176703048267,-0.00177748620433945,0.00577384960151007,-0.00114426475687803,-2.34112065364343,0.196372512024009,-4.03973751122727,0.000803344736681506,0.00162300456990691,0.00306944432351941
0.855,3.45379741178027,-1.72144539443761,-1.77608099119482,0.00412412123227808,0.00374124806735775,0.00519941791676384,0.494778912040942,-0.518641211891278,3.65751488754523,-0.00231939040170027,0.0030918400857216,0.00514587423125291,-2.3273605181131,-0.927933637399263,0.228494205298915,-0.00219558146387445,0.00582461417164079,-0.000622721974986872,-2.33949194509194,0.19610588148845,-4.03467247523251,0.000596576304005705,0.00198149808527672,0.00302510107123583
0.86,3.44903792775978,-1.71900428075134,-1.77289753181446,0.00395874379372313,0.0041043331306961,0.00552430205209214,0.49296875703908,-0.517893119732051,3.65297888143581,-0.00271674805587892,0.00344266061609274,0.00510664865979761,-2.32563381729426,-0.927025998182899,0.227811707549506,-0.00261716367822847,0.00588633588751103,-3.43681036564058e-06,-2.33786323654044,0.19583925095289,-4.02960743923774,0.000375143543437284,0.00244220105963077,0.00298309878528189
0.865,3.44427844373928,-1.71656316706506,-1.76971407243411,0.00379828615807959,0.00442872977256035,0.00584578995146974,0.491158602037103,-0.517145027572823,3.6484428753264,-0.00311446621607397,0.00383769086069495,0.00506490202396437,-2.32390711647543,-0.926118358966562,0.227129209800125,-0.00304219085476469,0.00595596159795723,0.000718419661825234,-2.33623452798895,0.19557262041733,-4.02454240324298,0.000131165010690137,0.00301681331805611,0.00294726682640667
0.87,3.43951895971878,-1.71412205337879,-1.76653061305387,0.003637183128849,0.0047022283074388,0.00616081168833845,0.489348447035127,-0.516396935413582,3.643906869217,-0.00351350361872953,0.0042740567849904,0.00501564861833189,-2.3221804156567,-0.925210719750169,0.226446712050745,-0.00347173077723765,0.00602803033693987,0.00154408010495046,-2.33460581943746,0.195305989881771,-4.01947736724821,-0.000147004582740642,0.00371158249707474,0.00292340744187776
0.875,3.43475947569829,-1.71168093969254,-1.76334715367352,0.00346764731055223,0.00491300117894944,0.00646467890289152,0.48753829203315,-0.51564884325434,3.63937086310759,-0.00391535758024792,0.00474657785019065,0.00495260732177419,-2.32045371483787,-0.924303080533804,0.225764214301364,-0.00390731423331243,0.00609531045273225,0.00246944669570505,-2.33297711088608,0.195039359346215,-4.01441233125344,-0.000474661867636253,0.00452474868449169,0.00292043573794622
0.88,3.42999999167779,-1.70923982600627,-1.76016369429317,0.00328031239159239,0.00505006588898855,0.00675096310511682,0.485728137031288,-0.514900751095126,3.63483485699818,-0.00432175704752775,0.00524717672664134,0.00486897073156606,-2.31872701401915,-0.923395441317467,0.225081716551955,-0.00435054268434196,0.00614939502759257,0.00348317441474148,-2.33134840233447,0.194772728810655,-4.00934729525868,-0.000870554569944719,0.00544371820103823,0.00295135324460325
0.885,3.42524050765729,-1.70679871231999,-1.75698023491282,0.00306448254903203,0.00510357188277167,0.00701120491360279,0.483917982029311,-0.514152658935885,3.63029885088877,-0.00473428840714194,0.0057639010253233,0.00475772576507997,-2.31700031320031,-0.922487802101102,0.224399218802546,-0.00480263129808878,0.00618076783570192,0.00456463463861128,-2.32971969378309,0.194506098275099,-4.00428225926392,-0.00135646681764436,0.0064419728592494,0.00303363115116896
0.89,3.4204810236368,-1.70435759863375,-1.75379677553246,0.00280863074292745,0.00506499800269403,0.00723438357124333,0.482107827027335,-0.513404566776643,3.62576284477937,-0.00515366223739537,0.00627975446043061,0.00461209941673734,-2.31527361238159,-0.921580162884766,0.223716721053165,-0.00526357415781408,0.00617892976470137,0.00568169546941101,-2.32809098523148,0.194239467739539,-3.99921722326916,-0.00195636059234342,0.00747570456860774,0.00318932042923296
0.895,3.4157215396163,-1.70191648494747,-1.75061331615211,0.00250143912752893,0.00492748633353674,0.00740638034199467,0.480297672025358,-0.51265647461743,3.62122683866996,-0.00557868888309358,0.00677154530161457,0.00442645758259449,-2.31354691156275,-0.920672523668401,0.223034223303813,-0.00573099252847181,0.00613295549166399,0.00678831076770535,-2.3264622766801,0.19397283720398,-3.99415218727438,-0.00269499739399154,0.00848030069853954,0.00344503914401074
0.9,3.41096205559586,-1.6994753712612,-1.74742985677176,0.00213304716525042,0.00468614798931533,0.00750931701483801,0.478487517023495,-0.511908382458174,3.61669083256054,-0.00600494956202333,0.00720863038814036,0.00419726125764901,-2.31182021074392,-0.919764884452036,0.222351725554404,-0.00619866926880193,0.0060320666861457,0.00782200500221134,-2.32483356812861,0.193706206668423,-3.98908715127962,-0.00359597673325148,0.00936690037689314,0.00383144937164998
0.905,3.40620257157531,-1.69703425757496,-1.74424639739152,0.00169651918535427,0.00433820907256977,0.00752071324065216,0.476677362021519,-0.51116029029896,3.61215482645114,-0.00642307838702806,0.00755152199305748,0.00392404043910253,-2.3100935099252,-0.918857245235671,0.221669227805023,-0.00665468511172286,0.00586617133167932,0.00870133031011678,-2.32320485957712,0.19343957613286,-3.98402211528486,-0.00467909898254919,0.0100192069274651,0.00438214409256652
0.91,3.40144308755487,-1.69459314388868,-1.74106293801117,0.00118968780383698,0.00388312613430802,0.00741561621348872,0.474867207019543,-0.510412198139718,3.60761882034173,-0.00681849167823614,0.00775464422789109,0.00361013628405648,-2.30836680910625,-0.917949606019306,0.220986730055614,-0.00708128719753231,0.005627210627953,0.00933206761066026,-2.32157615102562,0.193172945597304,-3.97895707929008,-0.00595618958049365,0.0103044998959307,0.00512971140474488
0.915,3.39668360353431,-1.69215203020241,-1.73787947863082,0.000617307247111233,0.00332258035778723,0.00717737339561507,0.473057052017566,-0.509664105980477,3.60308281423233,-0.00717584043178071,0.00778147904169804,0.00326213385413971,-2.30664010828752,-0.917041966802969,0.220304232306233,-0.00746036876408307,0.00531234136682057,0.00963947127970176,-2.31994744247413,0.192906315061748,-3.97389204329532,-0.00742353685482916,0.0101266536300111,0.00609413971480063
0.92,3.39192411951387,-1.68971091651613,-1.73469601925046,-6.51915406264109e-06,0.00265989280841254,0.00681079592924025,0.471246897015703,-0.508916013821249,3.59854680812291,-0.00748436061466576,0.00762347524153288,0.00288869485689781,-2.30491340746869,-0.916134327586605,0.219621734556824,-0.00778012784422986,0.00492746065314981,0.00960926788347755,-2.31831873392264,0.192639684526188,-3.96882700730056,-0.00905261676884841,0.00949387444755771,0.00726832466946073
0.925,3.38716463549338,-1.68726980282989,-1.73151255987011,-0.000657200021151509,0.00190017832855803,0.00634206122264564,0.469436742013727,-0.508167921662022,3.59401080201351,-0.00773642097796735,0.00729863714057459,0.00250103904959882,-2.30318670664997,-0.91522668837024,0.218939236807444,-0.00803348859297655,0.00448728470996494,0.00928662401786102,-2.31669002537114,0.192373053990629,-3.9637619713058,-0.0107868079641105,0.00851847168237924,0.00861507435105285
0.93,3.38240515147288,-1.68482868914361,-1.72832910048976,-0.00130267859285841,0.00105471471664237,0.00580905161724661,0.46762658701175,-0.50741982950278,3.5894747959041,-0.00792441462782845,0.00683219189186581,0.00211424765343121,-2.30146000583113,-0.914319049153875,0.218256739058091,-0.00821362721096306,0.00401196648653508,0.00873481269659452,-2.31506131681965,0.192106423455069,-3.95869693531104,-0.012548465419167,0.00734839520264371,0.0100756231060536
0.935,3.37764566745238,-1.68238757545734,-1.72514564110952,-0.00190886665406644,0.000145714293955145,0.00525437515064121,0.465816432009774,-0.506671737343552,3.58493878979469,-0.00804209857399869,0.00624492689097117,0.0017468223637881,-2.29973330501241,-0.913411409937538,0.217574241308682,-0.00831455365608601,0.00352400904405557,0.00800642264383449,-2.31343260826827,0.191839792919513,-3.95363189931628,-0.014250982984664,0.00611322657765754,0.0115781313776248
0.94,3.37288618343189,-1.6799464617711,-1.72196218172917,-0.00244262090439841,-0.000799408723870625,0.00471441113452838,0.464006277007911,-0.505923645184325,3.58040278368529,-0.00808247607922261,0.00555623163380923,0.00141822204495245,-2.29800660419357,-0.912503770721173,0.216891743559273,-0.00832936273279882,0.00304648661222618,0.00714456398498682,-2.31180389971667,0.191573162383953,-3.94856686332152,-0.0158121657781545,0.00491268859629126,0.0130473581066037
0.945,3.36812669941139,-1.67750534808482,-1.7187787223487,-0.00287271575729366,-0.00176011125236984,0.00420615864531582,0.462196122006048,-0.505175553025097,3.57586677757588,-0.00803254378945475,0.0047903013021286,0.00114607867166924,-2.29627990337485,-0.91159613150478,0.216209245809893,-0.00824559561030038,0.00260154737516337,0.00619210663200112,-2.31017519116529,0.191306531848397,-3.94350182732676,-0.0171667177056035,0.00382072434814416,0.0144151207110689
0.95,3.36336721539095,-1.67506423439855,-1.71559526296846,-0.00317167994092132,-0.00272310480460177,0.00373229494212246,0.460385967004072,-0.504427460865855,3.57133077146647,-0.00787709134000644,0.00397571347090018,0.000945455204275948,-2.29455320255602,-0.910688492288443,0.215526748060512,-0.00804904475259338,0.0022097698621539,0.00519221184023258,-2.30854648261368,0.191039901312838,-3.93843679133198,-0.0182672609030547,0.00289057823586625,0.0156178065804196
0.955,3.3586077313704,-1.67262312071227,-1.71241180358811,-0.00331962877556309,-0.00366855250294667,0.0033037088262186,0.458575812002096,-0.503679368706614,3.56679476535706,-0.00761270073128168,0.00314015882943933,0.000829681780512405,-2.2928265017373,-0.909780853072078,0.214844250311103,-0.00773729247771497,0.00189039323595333,0.00418228683267502,-2.3069177740623,0.190773270777282,-3.93337175533722,-0.0190751768131443,0.00215823556123949,0.0165830045796215
0.96,3.35384824734996,-1.67018200702603,-1.70922834420776,-0.00330880508082758,-0.00456099437709193,0.00295196605422743,0.456765657000233,-0.502931276547386,3.56225875924765,-0.00725759908865855,0.00230785005738127,0.000809555914569892,-2.29109980091835,-0.908873213855742,0.214161752561722,-0.007329402691212,0.00166039352528775,0.00319095008931445,-2.30528906551081,0.190506640241722,-3.92830671934246,-0.0195586392020134,0.00164324974831634,0.0172286644024732
0.965,3.34908876332941,-1.66774089333975,-1.70604488482741,-0.00314436896680394,-0.00536173401745019,0.00271207099892482,0.454955501998256,-0.502183184388159,3.55772275313824,-0.00684252243381845,0.00149928282837413,0.000890124153827702,-2.28937310009962,-0.907965574639377,0.213479254812341,-0.00685701413434277,0.00153088092547635,0.00223890821266573,-2.30366035695931,0.190240009706162,-3.9232416833477,-0.0197036796786009,0.00134905470756409,0.0174901983307317
0.97,3.34432927930897,-1.66529977965348,-1.70286142544705,-0.00284142285758933,-0.00604946288050248,0.00259468902075336,0.45314534699628,-0.501435092228917,3.55318674702883,-0.0063925223879738,0.000730976209323454,0.00106781736852834,-2.28764639928079,-0.907057935423012,0.212796757062961,-0.00634639072549381,0.00150341349194111,0.00134016353158847,-2.30203164840782,0.189973379170603,-3.91817664735292,-0.0195265650906556,0.00126437102845902,0.0173538020017172
0.975,3.33956979528847,-1.66285866596724,-1.69967796606682,-0.00242132542157747,-0.00662284801363442,0.00258237436004873,0.451335191994303,-0.500687000069689,3.54865074091943,-0.00592139920209558,1.57082364540442e-05,0.00133142294757073,-2.28591969846195,-0.906150296206647,0.21211425931358,-0.00581283316677639,0.00157073543461861,0.000503827443416513,-2.30040293985633,0.189706748635043,-3.91311161135816,-0.01907092151544,0.00136646133562708,0.0168553372131842
0.98,3.33481031126792,-1.66041755228096,-1.69649450668635,-0.00190693443106168,-0.00709300865510818,0.00264214706392256,0.449525036992441,-0.499938907910447,3.54411473481002,-0.00543354578510428,-0.000638821841212999,0.00166568647735026,-2.28419299764323,-0.905242656990282,0.211431761564171,-0.00526219697103374,0.0017200459793498,-0.000264834623883593,-2.29877423130483,0.189440118099487,-3.9080465753634,-0.0183947535564127,0.0016272758874138,0.0160557325164166
0.985,3.33005082724748,-1.65797643859469,-1.69331104730611,-0.00131932371991253,-0.00748297274767612,0.00273046319772569,0.447714881990464,-0.49919081575122,3.53957872870061,-0.0049228031981059,-0.00123169527143399,0.00205301446465049,-2.2824662968244,-0.904335017773946,0.21074926381479,-0.00468952999400681,0.00193420192686854,-0.000965141839496126,-2.29714552275345,0.189173487563927,-3.90298153936862,-0.0175670023827814,0.00201949164430741,0.0150316371149874
0.99,3.32529134322692,-1.65553532490841,-1.69012758792587,-0.000680212112212109,-0.0078198083337077,0.00280064151527194,0.445904726988488,-0.498442723591992,3.5350427225912,-0.00437922462507738,-0.0017655197042946,0.00247321018959957,-2.28073959600567,-0.903427378557581,0.210066766065381,-0.00408603982101037,0.00219253329214154,-0.00159930385418996,-2.29551681420185,0.188906857028371,-3.89791650337386,-0.0166673770202606,0.00251638526195706,0.0138701265092819
0.995,3.32053185920648,-1.65309421122217,-1.68694412854552,-1.6333550462027e-05,-0.008114577854723,0.00281874756618866,0.444094571986511,-0.497694631432751,3.5305067164818,-0.00380324300644938,-0.00223994488044684,0.00290391645189477,-2.27901289518684,-0.902519739341216,0.209384268316001,-0.00345360390970171,0.00247344177216751,-0.00216705671391521,-2.29388810565047,0.188640226492812,-3.8928514673791,-0.0157753331260362,0.00308612655560415,0.0126498931220789
1,3.31577237518593,-1.65065309753589,-1.68376066916517,0.000641524735983151,-0.00835388239852976,0.00277004055214518,0.442284416984648,-0.496946539273509,3.52597071037239,-0.00320932741607363,-0.002649632537418,0.00332260152694982,-2.27728619436812,-0.901612100124851,0.20870177056662,-0.00280841835353008,0.00275697117986021,-0.00266253281992281,-2.29225939709897,0.188373595957252,-3.88778643138434,-0.0149561948280135,0.00368914427189891,0.0114278905170429
1.005,3.31101289116549,-1.64821198384962,-1.68057720978481,0.00126294408955258,-0.0085127253559118,0.00265461521077814,0.440474261982672,-0.496198447114296,3.52143470426299,-0.00262004562122763,-0.00298850062764984,0.0037092086590139,-2.27555949354928,-0.900704460908486,0.208019272817239,-0.00217463347093022,0.00302611367407181,-0.00307895490483389,-2.29063068854748,0.188106965421696,-3.88272139538957,-0.0142598950430547,0.00428584527125733,0.010244028192246
1.01,3.30625340714499,-1.64577087016337,-1.67739375040446,0.00182011275259528,-0.008570786499785,0.002484239404745,0.438664106980696,-0.495450354955054,3.51689869815357,-0.00206290173294818,-0.00325397291445271,0.00404800139715618,-2.27383279273045,-0.899796821692149,0.20733677506783,-0.00158080411768836,0.00326746195275174,-0.00341654888715267,-2.28900197999599,0.187840334886136,-3.87765635939481,-0.0137298668123029,0.00484793009509564,0.00913282150344127
1.015,3.3014939231245,-1.6433297564771,-1.67421029102411,0.00229010252052465,-0.00851289883714552,0.00227915680290879,0.436853951978719,-0.494702262795812,3.51236269204416,-0.00156716611201556,-0.00344556292326059,0.00432851680094998,-2.27210609191161,-0.898889182475784,0.206654277318449,-0.00105676767818315,0.00347231768455038,-0.00368173731024469,-2.28737327144449,0.18757370435058,-3.87259132340004,-0.0134001225267298,0.00535687595169004,0.00812701168184405
1.02,3.296734439104,-1.64088864279083,-1.67102683164376,0.00265897955105758,-0.00831678625586238,0.00206209576293718,0.435043796976856,-0.493954170636584,3.50782668593476,-0.00115715257256362,-0.00355965974190286,0.00454607433025345,-2.27037939109289,-0.897981543259419,0.205971779569069,-0.000627266549661876,0.00363809263039865,-0.00387744429340771,-2.28574456289311,0.187307073815017,-3.86752628740527,-0.0132768578171214,0.00578990802469084,0.00725208507866349
1.025,3.2919749550835,-1.63844752910458,-1.66784337226341,0.00292374087887957,-0.00794452653896276,0.00185446360794054,0.43323364197488,-0.493206078477357,3.50329067982535,-0.000848143399658426,-0.00358611447664416,0.00470136825729772,-2.26865269027405,-0.897073904043054,0.20528928181966,-0.000308145233986828,0.00376852317204684,-0.00399575696304978,-2.28411585434151,0.187040443279457,-3.86246125141051,-0.0133250226593406,0.00610947012687519,0.00652174397035922
1.03,3.28721547106301,-1.63600641541831,-1.66465991288317,0.00309113830444151,-0.00734852489458664,0.00167671643361044,0.431423486972903,-0.492457986318129,3.49875467371594,-0.000646943060655606,-0.00351039415019765,0.00479962360636102,-2.26692598945522,-0.896166264826718,0.204606784070279,-0.000106812412770482,0.00387237554729382,-0.00401960477049255,-2.28248714579013,0.186773812743901,-3.85739621541575,-0.0134705216689446,0.00626616121763838,0.00593795713320161
1.035,3.28245598704257,-1.63356530173203,-1.66147645350281,0.00317616219620318,-0.00649773079894613,0.00155108500981388,0.429613331970927,-0.491709894158888,3.49421866760653,-0.000553753635333014,-0.0033236748816886,0.0048509931109112,-2.2651992886365,-0.895258625610353,0.203924286320898,-2.34105272201572e-05,0.00396156459859641,-0.00393543757636764,-2.28085843723852,0.186507182208342,-3.85233117942099,-0.0136175589802807,0.00621903446624322,0.00549252979711021
1.04,3.27769650302201,-1.63112418804576,-1.65829299412246,0.00320040942899177,-0.00540811832765393,0.00150454552804761,0.427803176969064,-0.49096180199966,3.48968266149713,-0.000564144987185743,-0.00303467207400956,0.00487108941160521,-2.26347258781766,-0.894350986393988,0.203241788571518,-5.19551859308165e-05,0.00404900288909886,-0.00374794456977091,-2.27922972868714,0.186240551672785,-3.84726614342621,-0.0136691568045719,0.0059593980584199,0.00516819171458829
1.045,3.27293701900157,-1.62868307435951,-1.65510953474211,0.00318848922961279,-0.00414177097317658,0.00156604188004644,0.425993021967088,-0.490213709840432,3.48514665538772,-0.000670087724896671,-0.00266929570251436,0.00487818701088532,-2.26174588699894,-0.893443347177652,0.202559290822109,-0.000181564146474465,0.00414601309019969,-0.00347930642762686,-2.27760102013565,0.185973921137226,-3.84220110743145,-0.0135373528503783,0.00551127768617776,0.00493959440843508
1.05,3.26817753498102,-1.62624196067324,-1.65192607536176,0.00316386748819475,-0.00277676663054558,0.00175155267737018,0.424182866965111,-0.489465617681191,3.4806106492783,-0.000856941211252808,-0.00225902439054829,0.00488873123800148,-2.2600191861801,-0.892535707961258,0.201876793072728,-0.000394517576080019,0.00426054257531758,-0.00315674303423143,-2.27597231158416,0.18570729060167,-3.83713607143669,-0.013163150606611,0.00491677427283608,0.00477771637456633
1.055,3.26341805096058,-1.62380084698697,-1.64874261598129,0.00314747066974323,-0.00138516067720601,0.0020465042621405,0.422372711963135,-0.488717525521949,3.4760746431689,-0.00109802353202961,-0.00183240852466847,0.00491585392133747,-2.25829248536138,-0.891628068744922,0.201194295323319,-0.000661511258030147,0.00439745722955389,-0.00280567710327175,-2.27434360303266,0.18544066006611,-3.83207103544193,-0.0125503385421345,0.0042314930812348,0.00465686755661494
1.06,3.25865856694008,-1.62135973330072,-1.64555915660105,0.00315846614161226,-2.99936458674453e-05,0.00240572916567505,0.420562556961272,-0.487969433362721,3.47153863705949,-0.00135433208093546,-0.00141342638289344,0.00496986960276987,-2.25656578454254,-0.890720429528557,0.200511797573938,-0.000941456210580424,0.00455939519647259,-0.00244786036890251,-2.27271489448117,0.185174029530549,-3.82700599944717,-0.0117624460184091,0.00352118033746309,0.0045560146114498
1.065,3.25389908291953,-1.61891861961448,-1.64237569722081,0.00321485930188799,0.00123222402126431,0.00276983859593794,0.418752401959409,-0.487221341203494,3.46700263095008,-0.00158037017796535,-0.00102123108026562,0.0050579917397277,-2.25483908372371,-0.889812790312192,0.199829299824586,-0.00118731493602254,0.00474681660546597,-0.00209801761390371,-2.27108618592968,0.184907398994993,-3.82194096345241,-0.0108756384361222,0.00284885140098741,0.00445346813272136
1.07,3.24913959889909,-1.6164775059282,-1.63919223784046,0.0033323361749142,0.0023528474669609,0.00308101536948045,0.416942246957433,-0.486473249044266,3.46246662484067,-0.00173208419652248,-0.000669306068982193,0.00518392582432991,-2.25311238290487,-0.888905151095841,0.199146802075148,-0.00135408658219009,0.00495816691854031,-0.00176255273352432,-2.26945747737818,0.184640768459433,-3.81687592745764,-0.00994649762867682,0.00226509803239295,0.00432420017736123
1.075,3.24438011487854,-1.61403639224193,-1.63600877846011,0.00351888761805668,0.0033014810300104,0.00329639479728059,0.415132091955456,-0.485725156885024,3.45793061873127,-0.00177928524206419,-0.000364474876761299,0.0053472956326986,-2.25138568208615,-0.887997511879476,0.198464304325796,-0.00141127810291808,0.00519011614893723,-0.0014430360126887,-2.26782876882669,0.184374137923877,-3.81181089146287,-0.00902076615528163,0.0018072811482153,0.00414429608113477
1.08,3.2396206308581,-1.61159527855568,-1.63282531907976,0.00376873004109788,0.00407789525543708,0.0033990440971813,0.413321936953594,-0.484977064725783,3.45339461262186,-0.00171768646487426,-0.000106720984357607,0.00554294005007764,-2.24965898126732,-0.887089872663125,0.197781806576387,-0.00135494685609651,0.00543746513238045,-0.00114088359618819,-2.26620006027531,0.184107507388317,-3.80674585546811,-0.00815405049147151,0.0015016972400128,0.00389738601520912
1.085,3.2348611468376,-1.60915416486941,-1.6296418596994,0.00406491262287167,0.00470693682603597,0.00339472507662333,0.411511781951617,-0.484228972566555,3.44885860651245,-0.00156497658200802,0.000108934543122812,0.00576224347745774,-2.24793228044859,-0.88618223344676,0.197099308827006,-0.00120358153735673,0.00569381841080224,-0.000858596007646758,-2.2645713517237,0.183840876852758,-3.80168081947335,-0.00741176672391448,0.00136570802955898,0.00357613745861158
1.09,3.23010166281711,-1.60671305118314,-1.62645840031905,0.0043888388710961,0.00521867758010119,0.00329673843506078,0.409701626949641,-0.483480880407328,3.44432260040305,-0.00134386787226804,0.000289497966795821,0.00599585642763203,-2.24620557962976,-0.88527459423041,0.196416811077597,-0.000980854561926634,0.00595276771469122,-0.000597730439898344,-2.26294264317232,0.1835742463172,-3.79661578347859,-0.00685054048938337,0.0014093108629127,0.00317895383086692
1.095,3.22534217879661,-1.60427193749689,-1.6232749409387,0.00472588992742067,0.00563413541430682,0.00311571261047901,0.407891471947778,-0.482732788248086,3.43978659429364,-0.0010711636398647,0.00044220491437743,0.00623486938801087,-2.24447887881104,-0.884366955014045,0.195734313328245,-0.000704541728106198,0.00620811441415934,-0.000357342011450013,-2.26131393462072,0.183307615781642,-3.79155074748381,-0.00650534715517738,0.00163570486598423,0.00270751171352711
1.1,3.22058269477611,-1.60183082381062,-1.62009148155835,0.00506527625516111,0.00596210939185774,0.00285887892392453,0.406081316945802,-0.481984696088858,3.43525058818422,-0.000757389818041107,0.000574128168383463,0.00647056410130018,-2.2427521779922,-0.88345931579768,0.195051815578836,-0.000386144767735772,0.00645352038872581,-0.000134068720648188,-2.25968522606934,0.183040985246084,-3.78648571148905,-0.00638893264715615,0.00204091343164635,0.00216740384856924
1.105,3.21582321075562,-1.59938971012434,-1.61690802217811,0.00539864004225518,0.00619966738350293,0.0025324078266957,0.404271161943825,-0.481236603929617,3.43071458207482,-0.00040949288152039,0.000692262003126572,0.00669419978603079,-2.24102547717348,-0.882551676581329,0.194369317829455,-3.35969021012063e-05,0.00668244357340323,7.73005641693434e-05,-2.25805651751784,0.182774354710526,-3.78142067549429,-0.00649441454482404,0.00261276895327206,0.00157012690854984
1.11,3.21106372673518,-1.59694859643807,-1.61372456279776,0.0057187498800171,0.00633271485192117,0.00214341550589107,0.402461006941849,-0.480488511770389,3.42617857596542,-3.3146428018333e-05,0.000803697445926461,0.00689665604440623,-2.23929877635464,-0.881644037364978,0.193686820080075,0.000346406210775633,0.00688793737036211,0.000283213597952051,-2.25642780896635,0.182507724174966,-3.77635563949951,-0.00679683332063339,0.00332953048505926,0.000934964518499619
1.115,3.20630424271462,-1.59450748275182,-1.6105411034174,0.00601810287618855,0.00633659980662261,0.0017015593726087,0.400650851939986,-0.479740419611161,3.421642569856,0.000365313754131505,0.000915857970772326,0.00706773961489766,-2.2375720755357,-0.880736398148599,0.193004322330665,0.000746420312606149,0.00706212053103567,0.000490654084788927,-2.25479910041486,0.182241093639407,-3.77129060350475,-0.0072537222468737,0.00415821562658265,0.000290564993989583
1.12,3.20154475869418,-1.59206636906555,-1.60735764403705,0.00628786547389064,0.0061767978554836,0.00122056229867536,0.398840696938009,-0.47899232745192,3.41710656374659,0.000777235704153747,0.00103670347440904,0.00719571378264613,-2.23584537471697,-0.879828758932263,0.192321824581285,0.00115656234476128,0.00719584301574935,0.000706471561034129,-2.25317039186336,0.181974463103849,-3.76622556750999,-0.00780485093757264,0.00505256421265747,-0.000323513863325278
1.125,3.19678527467363,-1.58962525537927,-1.6041741846567,0.00651667410333171,0.00581622971649532,0.000720351014111841,0.397030541936033,-0.478244235292692,3.41257055763719,0.00118880974366066,0.00117507636822202,0.00726766993064003,-2.23411867389814,-0.878921119715883,0.191639326831876,0.0015616809924675,0.00727925716678419,0.000936861189455033,-2.25154168331187,0.181707832568291,-3.76116053151523,-0.00837777575333963,0.00595293684385042,-0.000858394393214223
1.13,3.19202579065319,-1.58718414169303,-1.60099072527635,0.00668821847707963,0.0052417973693729,0.00023057238215759,0.395220386934056,-0.477496143133465,3.40803455152778,0.00157459986864906,0.00134154648272264,0.00727156389824568,-2.23239197307942,-0.878013480499533,0.190956829082523,0.00193498656065389,0.00730428787753523,0.0011870555065851,-2.24991297476038,0.181441202032733,-3.75609549552046,-0.00891183671381438,0.00679296811397164,-0.00126687797494964
1.135,3.18726630663264,-1.58474302800676,-1.59780726589611,0.00677923394414136,0.00449595265653408,-0.000206543925142889,0.393410231932194,-0.476748050974223,3.40349854541837,0.00189134131632455,0.0015487640177026,0.0071990432420328,-2.23066527226058,-0.877105841283168,0.190274331333114,0.00223202840974148,0.00726774451430259,0.0014609599059501,-2.24828426620888,0.181174571497175,-3.75103045952569,-0.00938699020615211,0.00750901344015515,-0.00151747518030223
1.14,3.1825068226122,-1.58230191432048,-1.59462380651576,0.00676087175113056,0.0036741938649897,-0.000537756763116533,0.391600076930217,-0.475999958814995,3.39896253930896,0.00208052872779725,0.00180962684433589,0.00704577693692073,-2.22893857144186,-0.876198202066817,0.189591833583734,0.00239341516452804,0.00717109685828292,0.0017601672140856,-2.2466555576575,0.180907940961616,-3.74596542353093,-0.00981930030505434,0.00803928857225569,-0.00159324370622702
1.145,3.1777473385917,-1.57986080063421,-1.5914403471354,0.00660454608395119,0.00288715616291408,-0.000707857361805584,0.389789921928241,-0.475251866655768,3.39442653319956,0.00208209435965038,0.0021329807835096,0.00680979531293424,-2.22721187062302,-0.875290562850466,0.188909335834353,0.00235861806421973,0.00701723766120944,0.00208192668243224,-2.2450268491059,0.180641310426056,-3.74090038753617,-0.0102286786316212,0.00831972131436571,-0.00147954101863221
1.15,3.1729878545712,-1.57741968694796,-1.58825688775505,0.00629365912772915,0.00222106714404259,-0.000679970163864881,0.387979766926264,-0.474503774496526,3.38989052709015,0.00185784717695105,0.00251699912901374,0.00649332869882529,-2.2254851698043,-0.874382923634087,0.188226838084944,0.00208986873680593,0.00680965658275009,0.00241594666389369,-2.24339814055452,0.180374679890498,-3.7358353515414,-0.0106253867356957,0.00830383319025912,-0.00116573771105177
1.155,3.16822837055071,-1.57497857326169,-1.5850734283747,0.00583589742038658,0.00171697919375656,-0.000456491949489677,0.386169611924402,-0.473755682337298,3.38535452098074,0.00141306868616226,0.00294321890974945,0.00610776819927674,-2.22375846898547,-0.873475284417751,0.187544340335563,0.00159437361804052,0.00655488191255985,0.00274169344504219,-2.24176943200291,0.18010804935494,-3.73077031554664,-0.011020369463963,0.00799562704489444,-0.000659440152122048
1.16,3.16346888653015,-1.57253745957541,-1.58188996899435,0.00526217709466274,0.00137667878901336,-7.54719894163051e-05,0.384359456922425,-0.473007590178057,3.38081851487133,0.000793052539513502,0.00337735772811225,0.00567409466925968,-2.22203176816674,-0.872567645201372,0.186861842586154,0.000920840170759065,0.00626324271249454,0.00302898322863096,-2.24014072345153,0.179841418819381,-3.72570527955187,-0.0114255411037801,0.0074470241761361,1.30004110606648e-05
1.165,3.15870940250971,-1.57009634588917,-1.57870650961399,0.00461276334334143,0.0011870282520514,0.000414225193062724,0.382549301920449,-0.472259498018829,3.37628250876192,5.78846378126701e-05,0.00377832454500008,0.00521710913492421,-2.22030506734791,-0.871660005985021,0.186179344836773,0.000133398806470097,0.00594651375034262,0.00324398211726853,-2.23851201490004,0.179574788283825,-3.72064024355711,-0.0118407668167346,0.00672039393766258,0.0008208231628752
1.17,3.15394991848922,-1.5676552322029,-1.57552305023364,0.0039262756763686,0.00113983166885752,0.000969795103479004,0.380739146918472,-0.471511405859601,3.37174650265251,-0.000736424506248365,0.00411277404475729,0.00475923568307949,-2.21857836652907,-0.870752366768656,0.185496847087393,-0.000708546395481114,0.00561614970516285,0.00336251175834588,-2.23688330634855,0.179308157748265,-3.71557520756234,-0.0122553869923018,0.0058651459478734,0.00173606860167623
1.175,3.14919043446872,-1.56521411851662,-1.57233959085329,0.00323609947800407,0.00123898039859589,0.00155870936307737,0.378928991916609,-0.47076331370036,3.36721049654311,-0.00154444143965184,0.00436824486740209,0.00431746370790966,-2.21685166571024,-0.869844727552305,0.184814349338012,-0.00155786031939722,0.0052836756935329,0.00338283875378665,-2.23525459779705,0.179041527212705,-3.71051017156758,-0.0126679756532822,0.00492312426346602,0.00273006849110063
1.18,3.14443095044822,-1.56277300483035,-1.56915613147305,0.00256961700249241,0.00149940330257311,0.00216224423264532,0.377118836914747,-0.470015221541118,3.3626744904337,-0.00233432312938628,0.00455231392576718,0.00390399223078256,-2.21512496489152,-0.86893708833594,0.184131851588603,-0.00238257843004673,0.00496125395501856,0.00332208766432741,-2.23362588924556,0.178774896677147,-3.70544513557282,-0.0130946452522258,0.00393836057875222,0.00377165002174811
1.185,3.13967146642773,-1.5603318911441,-1.5659726720927,0.00195079045663444,0.00194138130631289,0.00277560370287293,0.37530868191277,-0.46926712938189,3.35813848432429,-0.00308461475284338,0.00467822367365027,0.00352970414742891,-2.21339826407268,-0.868029449119575,0.183449353839222,-0.00316153830592526,0.00466156008800313,0.00319982402722804,-2.23199718069407,0.17850826614159,-3.70038009957806,-0.0135507896896976,0.00295575977565413,0.00482907058746178
1.19,3.13491198240723,-1.55789077745783,-1.56278921271235,0.00140442870889951,0.00258564169410494,0.0034024477363835,0.373498526910794,-0.468519037222663,3.35360247821488,-0.00377658620568943,0.00475346421591952,0.0032071747482202,-2.21167156325384,-0.867121809903225,0.182766856089813,-0.00387579663173667,0.00439769150752026,0.00302785453500017,-2.23036847214257,0.17824163560603,-3.69531506358329,-0.0140289259246929,0.00201479136970854,0.00586995949531264
1.195,3.13015249838679,-1.55544966377155,-1.55960575333199,0.000955583177500876,0.00345337403047499,0.00405327585566029,0.371688371908931,-0.467770945063435,3.34906647210548,-0.00439433009979824,0.00477954897607489,0.00295066035557758,-2.20994486243512,-0.866214170686874,0.182084358340433,-0.00450871315360532,0.00418310932021486,0.00281061043248481,-2.22873976359108,0.177975005070472,-3.69025002758853,-0.0144971410167667,0.00114815273498672,0.00685887313933081
1.2,3.12539301436624,-1.55300855008528,-1.55642229395164,0.000625505580996426,0.00456758200053107,0.00474830830056768,0.369878216906955,-0.467022852904194,3.34453046599607,-0.00493091297217745,0.00475587773201155,0.00277461693181805,-2.20821816161629,-0.865306531470509,0.181401860591052,-0.00505242779511953,0.00403138425473767,0.00254832223639554,-2.2271110550397,0.177708374534914,-3.68518499159377,-0.0149095672012009,0.000385001198530674,0.00775456914662081
1.205,3.1206335303458,-1.55056743639904,-1.55323883457129,0.000430701436033091,0.00595097703374473,0.00551671633754972,0.368068061904978,-0.466274760744952,3.33999445988665,-0.00538908650087259,0.0046801992340057,0.00269327326430514,-2.20649146079757,-0.864398892254144,0.180719362841671,-0.00550862718275741,0.00395592452924931,0.00223895839306273,-2.22548234648809,0.177441743999356,-3.680119955599,-0.0152091309873888,-0.000247191042958104,0.00850772659227225
1.21,3.11587404632525,-1.54812632271276,-1.55005537519094,0.000381736756774421,0.00762400872348577,0.00639483315915032,0.366257906903002,-0.465526668585724,3.33545845377725,-0.00578160401257545,0.00454872179365753,0.00271998192672756,-2.20476475997873,-0.863491253037793,0.180036865092291,-0.00588890888797652,0.0039693875323724,0.00187991337514655,-2.22385363793671,0.177175113463797,-3.67505491960424,-0.0153293052513942,-0.000723518383239255,0.00906116353868001
1.215,3.11111456230481,-1.54568520902649,-1.54687191581058,0.000479443886942882,0.00960240729310959,0.00742289407911617,0.364447751901139,-0.464778576426497,3.33092244766785,-0.00613334904667222,0.00435975393915159,0.00286460096717336,-2.20303805916001,-0.862583613821428,0.179354367342881,-0.00621731036737745,0.00408208582538504,0.00147098998687377,-2.22222492938511,0.176908482928239,-3.66998988360947,-0.0152084187138829,-0.00102333722629072,0.00935698743373347
1.22,3.10635507828431,-1.54324409534024,-1.54368845643035,0.000718056458596723,0.0118821631390244,0.00862420849872093,0.362637596899162,-0.464030484267262,3.32638644155844,-0.00646610927953916,0.00411636305010679,0.00313037041541938,-2.20131135834106,-0.861675974605077,0.178671869593501,-0.00651552335759039,0.00429887441481974,0.00101773578723308,-2.22059622083373,0.176641852392679,-3.6649248476147,-0.0148091887069486,-0.00113276073139572,0.00935526159259851
1.225,3.10159559426381,-1.54080298165397,-1.54050499704999,0.00109419304497303,0.0144176259500849,0.0099762025362582,0.360827441897186,-0.46328239210802,3.32185043544902,-0.00677230715709691,0.00382553033362029,0.00351185724592961,-2.19958465752234,-0.860768335388713,0.177989371844092,-0.00677681050997069,0.0046157474491221,0.000532920996886526,-2.21896751228223,0.176375221857121,-3.65985981161994,-0.014130681504628,-0.00104739338567236,0.0090536769914288
1.23,3.09683611024332,-1.53836186796769,-1.53732153766964,0.00160714236981544,0.0171170636918082,0.011411347416744,0.35901728689521,-0.4625342999488,3.31731442933962,-0.00701474634644767,0.0034964322917249,0.00399500616518673,-2.1978579567035,-0.859860696172362,0.177306874094711,-0.00696563588038617,0.00501947301194119,3.50106948652988e-05,-2.21733880373074,0.176108591321563,-3.65479477562518,-0.013204777614035,-0.000772511379355367,0.00848441971444913
1.235,3.09207662622282,-1.53592075428145,-1.53413807828929,0.00225002613371423,0.0198565065995856,0.0128472458688409,0.357207131893347,-0.461786207789565,3.31277842323021,-0.00715305905931726,0.00313931457635547,0.00455938005954849,-2.19613125588478,-0.858953056955997,0.17662437634533,-0.00704378338159035,0.00549072488934661,-0.000455020912091617,-2.21571009517925,0.175841960786006,-3.64972973963042,-0.0120810639544556,-0.000321114501068954,0.00769135116184218
1.24,3.08731714220232,-1.5334796405952,-1.53095461890894,0.00300302257422117,0.0224919106124284,0.0142089713352507,0.35539697689137,-0.461038115630323,3.3082424171208,-0.00716411816651797,0.00276589574689834,0.00518006046908173,-2.19440455506594,-0.858045417739632,0.17594187859595,-0.00699058831919584,0.00600696530776973,-0.000915935846838398,-2.21408138662775,0.175575330250446,-3.64466470363564,-0.0108168353842975,0.000286601383671995,0.00671568469789008
1.245,3.08255765818183,-1.53103852690893,-1.52777115952858,0.00383278763509268,0.0248599529955904,0.0154300089725707,0.353586821889394,-0.460290023471096,3.30370641101139,-0.00704419910498354,0.00239099103390536,0.00582826558412671,-2.19267785424711,-0.857137778523281,0.175259380846569,-0.00680515796909701,0.00654352554940707,-0.00132685094073671,-2.21245267807626,0.175308699714888,-3.63959966764088,-0.00947506105732345,0.00102204393110604,0.00559695936954807
1.25,3.07779817416133,-1.52859741322266,-1.52458770014823,0.00469781648933995,0.0267777485015847,0.0164443229840919,0.351776666887417,-0.459541931311861,3.29917040490199,-0.00679974756434968,0.0020319156520507,0.00647295788346052,-2.19095115342839,-0.856230139306916,0.17457688309716,-0.00649703503768223,0.00707460300924473,-0.00166777195486761,-2.21082396952488,0.175042069179328,-3.63453463164612,-0.00811922309452148,0.00184826922851735,0.00437687915910179
1.255,3.07303869014083,-1.52615629953641,-1.52140424076799,0.00555700029556454,0.0280701633009786,0.0171886127164592,0.349966511885555,-0.458793839152627,3.29463439879258,-0.00643738582560893,0.00170336216446335,0.00708350191800957,-2.18922445260955,-0.855322500090566,0.173894385347779,-0.00607573458218394,0.00757418566507399,-0.00192254279404779,-2.20919526097327,0.174775438643771,-3.62946959565136,-0.00680823863371006,0.00272248835121293,0.00310260656019405
1.26,3.06827920612034,-1.52371518585014,-1.51822078138764,0.00637506166427335,0.0286139826440223,0.017615291145292,0.348156356883578,-0.458045746993399,3.29009839268317,-0.00596116693391697,0.00141236703597501,0.00763114699005994,-2.18749775179083,-0.854414860874215,0.17321188759837,-0.00554757908774989,0.00801618932656995,-0.00208314213844647,-2.20756655242189,0.174508808108213,-3.62440455965658,-0.0055992779239121,0.00359826502029651,0.00183158697584453
1.265,3.06351972209984,-1.52127407216386,-1.51503732200729,0.00712269500672102,0.0283334497489662,0.0176890834103028,0.346346201881602,-0.457297654834157,3.28556238657376,-0.00537191568858779,0.00116056836245024,0.00808934078036446,-2.18577105097199,-0.85350722165785,0.172529389848989,-0.00491517298369035,0.00837525718124324,-0.0021497397629146,-2.20593784387029,0.174242177572655,-3.61933952366182,-0.00454946532616042,0.00442394054155424,0.000635257480779904
1.27,3.05876023807934,-1.51883295847762,-1.51185386262694,0.00777568742070645,0.027159372666603,0.0173712772205676,0.344536046879625,-0.45654956267493,3.28102638046435,-0.00466543583501094,0.000950521330100368,0.00843488123634883,-2.18404435015327,-0.852599582441485,0.171846892099609,-0.00417596636847868,0.00862926900623347,-0.00212659776603361,-2.20430913531891,0.173975547037095,-3.61427448766706,-0.00370973070393067,0.00514295360970795,-0.00040658310117854
1.275,3.05400075405885,-1.51639184479134,-1.50867040324658,0.00831848915855749,0.0250508440694718,0.0166353320762342,0.342725891877762,-0.455801470515695,3.27649037435494,-0.00383730884437819,0.000784885031257412,0.00865174182098036,-2.18231764933432,-0.85169194322512,0.171164394350228,-0.00332673800764219,0.0087630870839924,-0.00202053929867577,-2.2026804267673,0.173708916501537,-3.60920945167229,-0.00311731717633326,0.00570919166131655,-0.00123137349474669
1.28,3.04924127003841,-1.51395073110507,-1.50548694386623,0.00875018553047194,0.0220683510154771,0.0155052026702722,0.340915736875786,-0.45505337835646,3.27195436824554,-0.00289190365209957,0.000659518081412631,0.00873549713936764,-2.1805909485156,-0.850784304008783,0.170481896600847,-0.0023718281368942,0.0087716567319978,-0.0018427645774571,-2.20105171821592,0.173442285965979,-3.60414441567752,-0.00279169090882114,0.00610869545309555,-0.00182459566426938
1.285,3.04448178601785,-1.5115096174188,-1.50230348448588,0.00908337171279598,0.018377790751467,0.0140558425730722,0.33910558187381,-0.454305286197233,3.26741836213613,-0.00184331365833289,0.000563373842190261,0.00869259741042406,-2.17886424769677,-0.849876664792404,0.169799398851438,-0.00132411298853426,0.00865931866942114,-0.00160865512160549,-2.19942300966443,0.17317565543042,-3.59907937968276,-0.00273537292975796,0.00635783349822275,-0.00221688449295986
