Header,foot_Accel_X,foot_Accel_Y,foot_Accel_Z,foot_Gyro_X,foot_Gyro_Y,foot_Gyro_Z,shank_Accel_X,shank_Accel_Y,shank_Accel_Z,shank_Gyro_X,shank_Gyro_Y,shank_Gyro_Z,thigh_Accel_X,thigh_Accel_Y,thigh_Accel_Z,thigh_Gyro_X,thigh_Gyro_Y,thigh_Gyro_Z,trunk_Accel_X,trunk_Accel_Y,trunk_Accel_Z,trunk_Gyro_X,trunk_Gyro_Y,trunk_Gyro_Z
57.29,-2.11867545589567,-0.384021992999622,1.51665405294494,-0.817856955329924,2.11340767837376,0.0872730149710169,-0.761436215791379,0.710979805949608,-1.05232227809934,-0.306971294740895,1.48673721094929,-0.533935696574592,-2.37297698851978,-0.521851287104241,0.426056037037798,-0.463625876555586,-0.0484477334260406,-0.353618623957948,-1.51429275507882,0.00147255878806664,0.230614545367369,0.193750762645363,0.192014769868722,-0.651854149496071
57.295,-1.59734090196238,0.710783435355545,1.22937136788161,-0.708311355447772,1.96323371625065,0.0908248780691983,-0.921385736427357,0.30945889159238,-0.807622236709601,-0.23325107575754,1.46207036868556,-0.519627096936929,-2.01702171854478,-0.392418358376209,0.282216692256769,-0.389068620073585,-0.0597193114978676,-0.389098893824315,-1.54459628252474,-0.0232295410821492,0.191895301347756,0.226966067001523,0.17025988563235,-0.642595828520942
57.3,-0.994078407393751,1.31588109610182,0.78355055270949,-0.598997285902509,1.80246834900412,0.0912638064447786,-0.989234918411269,-0.10037676496379,-0.403169692061133,-0.162229684293349,1.43028819391054,-0.501518161810273,-1.62504518380074,-0.176304489548133,0.0790684758399328,-0.316008783787237,-0.0693649808670316,-0.428764782020684,-1.51263977405446,-0.0436939183452174,0.128370926863197,0.256968563551499,0.149584514859961,-0.628362752355968
57.305,-0.374869844438038,1.47713823348916,0.504177696561752,-0.492785736779846,1.63553169472146,0.0890773500786444,-1.32100455122854,-0.461785356984812,-0.0421756220941502,-0.0955895405733678,1.3923569413986,-0.480243158440997,-1.18950875721551,0.0378752939357859,-0.150439647561017,-0.246198957110298,-0.0771585231272581,-0.472173772036785,-1.46253614800354,-0.0521269795244973,0.065722788935458,0.282879047913021,0.130760682100454,-0.609522109876613
57.31,-0.312638762601879,0.90271332433876,0.73834542296001,-0.391992709163121,1.46658265024338,0.0847586064336012,-1.41348601208035,-0.488571366282824,-0.04843682711344,-0.0345614311977459,1.34926640884627,-0.456453595979577,-0.967194055498783,0.0592256444575086,-0.167605543661279,-0.180967570115266,-0.0829726800924786,-0.518719576293508,-1.40279142385414,-0.0607652778747019,0.0126750188917835,0.303908759253805,0.114393711097125,-0.586595830710466
57.315,-0.509718717276088,0.0521479045074095,1.02302245153954,-0.298369735004652,1.29938510476505,0.0787881504894276,-1.03497096610206,-0.403979771785247,0.114282009174332,0.0200469996375768,1.30203854513404,-0.430814235293878,-0.855495459415758,0.0104535939452043,-0.167179877495522,-0.121249547012891,-0.0867845516768784,-0.567660966728821,-1.35876957805989,-0.0528038791937785,-0.00520934827406217,0.319394615316958,0.100857444719606,-0.560242338381394
57.32,-0.681041834055889,-0.530100084690464,1.25224909877586,-0.213152803599914,1.13721009530706,0.0716162485673067,-0.578001458745032,-0.200802033691499,0.102169481954366,0.0677838657203157,1.25172006154382,-0.403996563564431,-0.553651691003369,-0.179751652888151,-0.273699435418971,-0.0676519665498028,-0.0886687337223854,-0.618158598162286,-1.33012923874589,-0.0527881569378722,-0.0121401788800349,0.328841812644929,0.090264998645228,-0.531237087957786
57.325,-0.724584870298324,-0.496443241973252,1.2884570613457,-0.137022087669604,0.982866879972637,0.063745514132,-1.01986027768081,-0.00998427309391282,-0.562873827590384,0.10857275084462,1.19936404916989,-0.376653022244966,-0.524611410705356,-0.359340245939851,-0.28322013804803,-0.0204295630113059,-0.088798863663127,-0.669284656320612,-1.30581895149831,-0.0788449456710074,-0.00232187719757263,0.331951268661062,0.082540290265154,-0.500432594068845
57.33,-0.782767692094051,-0.117992717626689,1.23378317620843,-0.0701062292733861,0.838720789185461,0.0557705218437926,-0.893440288707307,-0.135057015864003,-0.320850989971429,0.14270750694196,1.14601084847914,-0.349395285402198,-0.467872823645699,-0.342116108823859,-0.375587106798892,0.0205162541786572,-0.0874423875949869,-0.720040080273028,-1.26366223957714,-0.106410889333312,0.014688657530678,0.328627211902935,0.0774850433124806,-0.468708277108124
57.335,-0.554395363493934,0.393267434354784,0.86515305247328,-0.0121331376498932,0.706614284430826,0.0482784426618016,-1.0682207589263,-0.178798837800082,-0.38836678576762,0.170738541575739,1.09267018788438,-0.322792590375561,-0.319286892935862,-0.289305281310972,-0.494647141876106,0.0555305443785323,-0.0849357231468586,-0.769401376584685,-1.2081898763074,-0.13356923229224,0.0212087771589542,0.318975981343668,0.0747817507944956,-0.43692130192787
57.34,-0.480750054977356,0.68009122002312,0.66786590270584,0.0374124011869457,0.587807652403892,0.0417380446884125,-1.02019758258083,-0.0682372814286142,-0.301472977105143,0.193362384173017,1.04030143203878,-0.297370777396931,-0.444301268989008,-0.169659880770925,-0.540977530287748,0.0851020994928993,-0.0816569853642385,-0.816367078511839,-1.0913461374778,-0.185117491410667,0.0272157843332608,0.303302591576743,0.0739984138272182,-0.405858960381177
57.345,-0.571049162170463,0.747471136031885,0.61887081918666,0.0792033989714029,0.482999374392016,0.0364839324648533,-0.9834515462746,0.0208505661301029,-0.333049576380111,0.21135909256767,0.989786595835977,-0.27360262158317,-0.497529644483894,-0.17141790684381,-0.570089400967813,0.109809614771673,-0.0780040639636454,-0.859998298420114,-1.0155124732341,-0.196992725556412,0.0241195101849725,0.282102881314369,0.0746243816913595,-0.376202222449978
57.35,-0.586694052214213,0.625664995783343,0.751224103787131,0.114009169545097,0.392379756630315,0.0327563987823211,-1.00083064070042,-0.119896481732195,-0.254998311954722,0.225532477343097,0.941898209653471,-0.251897767396408,-0.613577755353898,-0.152190838579875,-0.520362654939159,0.13027098020903,-0.0743723083447251,-0.899461955086761,-0.950763550069583,-0.145825268328176,0.0121965643857362,0.256042388789902,0.0761235142260747,-0.348500524114877
57.355,-0.527925810504886,0.3958846931278,0.827891238740828,0.142641770857754,0.315691119965265,0.0307114447167978,-1.00045852915128,0.0612619045544697,-0.265749307716531,0.236666801227144,0.897277918816342,-0.232593324753286,-0.722759716118125,-0.153146446967961,-0.506954909702319,0.147107840597203,-0.0711341926490435,-0.934062227481287,-0.886597320674596,-0.093270707499482,-0.00299931094801565,0.225932202269451,0.0779772683038073,-0.32315385025478
57.36,-0.509283799173265,0.210257502720501,0.878701208481273,0.16591470156468,0.252299644255414,0.0303989653977199,-0.990050526910001,0.0821293096120134,-0.205862338477268,0.245506724896555,0.856427768947964,-0.215944250148244,-0.848296661381904,-0.204463377842567,-0.460158759741237,0.160931813416388,-0.0686225783164958,-0.963260581479339,-0.822348299885574,-0.0578811216947745,-0.0177314650811897,0.19271764179225,0.0796923488001722,-0.300409610535035
57.365,-0.483819408086606,0.154314306643952,0.918268920763368,0.184602018287759,0.201274673656745,0.0317627480828633,-1.087332402057,0.123974626145771,-0.212972903146916,0.252726999258895,0.819698635698653,-0.202117667861708,-0.894792450503062,-0.221799342757376,-0.403011504310784,0.172319143578248,-0.0671149554302782,-0.986698102397803,-0.777022456238139,-0.0386644873371283,-0.0252839862004395,0.157461793440243,0.0808054806918859,-0.280370128588041
57.37,-0.470151793973231,0.250495797546389,0.871031195153746,0.199407833797023,0.161463312014774,0.034662583439891,-1.13672043642104,0.11088946316618,-0.157797013821326,0.258902050979631,0.787275974945962,-0.191190987075216,-1.00171045006728,-0.17413639603498,-0.357186609800955,0.181783319473574,-0.0668220911503861,-1.00421194809044,-0.740105298481501,-0.00253222629595246,-0.0366257837082378,0.121305397020191,0.0809212056923957,-0.26299780979586
57.375,-0.496811567733609,0.35802759246411,0.821711706635401,0.210957948301404,0.131561419960666,0.0388964629476678,-1.05767791393403,0.205410642698141,-0.127997946227247,0.264498126648146,0.759173763164925,-0.183151623079193,-1.10304136557038,-0.0570276771172049,-0.324376396439629,0.189767816787283,-0.0678839544658637,-1.01583710025218,-0.725640098536956,0.0291350425020882,-0.0433110307645602,0.0854150284736587,0.0797578724023786,-0.248122285125917
57.38,-0.487257374244972,0.376889364851346,0.810992264309179,0.219798567009286,0.110193865280927,0.0442311630279754,-1.00928586133554,0.268771542541369,-0.0761326688946335,0.269872096161606,0.735235466955028,-0.177900243644369,-1.2081052542491,0.0666165350762371,-0.218007013840596,0.196643468134213,-0.0703699464367576,-1.02180198073562,-0.722298052786562,0.069583263483788,-0.0463440437924957,0.0509346082561347,0.0771705316641136,-0.235460540225398
57.385,-0.452541048562126,0.31698052725894,0.826977215762553,0.226395438936811,0.0959950565962029,0.0504370455855086,-0.977161680716217,0.293525268944481,-0.0206227204756222,0.275270681050931,0.715136684150652,-0.175257371945025,-1.29677129900932,0.137891922696971,-0.147448747137148,0.202704817412655,-0.0742825363975,-1.02252384433903,-0.728938973191901,0.114549169848679,-0.0562426761306184,0.0189483104475396,0.0731499695548283,-0.224645886814324
57.39,-0.422216382107764,0.263033914341383,0.849821182761478,0.231145792534177,0.0876485012939924,0.057289900405527,-0.960305132208746,0.291107683488622,0.00386101929220507,0.280850449722299,0.69840146087855,-0.174971283033204,-1.37226715801569,0.203267703625204,-0.107379545093496,0.208185551259335,-0.0795658396975354,-1.01858819088236,-0.744766200205133,0.14156011556739,-0.0581950335284391,-0.00954745264445158,0.0678114225886482,-0.215248624161787
57.395,-0.438630155345959,0.250323969152281,0.862253651528555,0.234397588224186,0.0838858322595864,0.0645374120965798,-0.986927302322872,0.267383451137903,0.001024994744285,0.286714030937005,0.684449494211806,-0.176731172548806,-1.3871986814315,0.223180259372967,-0.0606125734225269,0.213287599606851,-0.0861169773952923,-1.01069429313064,-0.75923168412955,0.161429309992448,-0.059724165449968,-0.0336747972652789,0.0613802291965736,-0.206785241095699
57.4,-0.461357434174049,0.281019895776626,0.854043772994404,0.236455566840631,0.0835055433868649,0.0718879826385603,-0.997040938443212,0.221899033476371,-0.00172287079364835,0.292929154449846,0.672655197567512,-0.180187920684332,-1.32706263244339,0.229948706907525,-0.00286490797205839,0.218191738202738,-0.0937963197421811,-0.999591044353334,-0.776406633826228,0.178412122562175,-0.0566273675907156,-0.0527037329327512,0.0541655981928905,-0.198736252114495
57.405,-0.482271983137068,0.304336947206862,0.83592401530404,0.237577771195544,0.0854238479689555,0.0790448328730441,-0.980418655648729,0.198045366739399,-0.0413381152179573,0.299526797464421,0.662384095526687,-0.184974988661332,-1.1930812025756,0.201504497083548,0.0351907027170303,0.223048663445582,-0.102437014878166,-0.986040165617931,-0.797933134172953,0.204415229233879,-0.0366249834872486,-0.0660695105198236,0.0465237056175543,-0.190579188732365
57.41,-0.487063641544213,0.331303992085465,0.827038404526674,0.237976471170965,0.088713860244354,0.0857465706357239,-0.983086509846614,0.198905301790502,-0.0589627667717678,0.306499340819688,0.653007829516504,-0.190724148604873,-1.1149613055736,0.162758921279804,0.0471674118695917,0.227972021533599,-0.111855198844544,-0.970802218639124,-0.817010174587632,0.204464338620836,-0.0153429037272412,-0.0733836140175307,0.038826273780455,-0.181821857758708
57.415,-0.480598594564285,0.306818845542302,0.834812335081667,0.23781345724422,0.0926212901023265,0.0917893433531934,-0.98947052715945,0.158794969588885,-0.0983190134169956,0.313794680458733,0.643914266593901,-0.197078984313869,-0.998543175543334,0.0795672077113819,0.0291284352440381,0.233028572127787,-0.121858255738784,-0.954629059524298,-0.839881050645887,0.205858638121511,0.00754761800388669,-0.0744452466997732,0.0314371471975428,-0.172031905956556
57.42,-0.487113124850317,0.282971468976811,0.849079855526702,0.237189295111868,0.0965659460247963,0.0970320989756452,-0.990549374386723,0.181741606051734,-0.103483395291896,0.321307051009693,0.634523882793379,-0.203708873835679,-0.921264955094678,0.0171997012810874,0.0128152177759613,0.238225242148562,-0.132251090717627,-0.938251492020334,-0.867901263353232,0.199806846160305,0.0371896642371767,-0.069247487964527,0.0246909445088075,-0.160861616369214
57.425,-0.48326085816089,0.276225608414727,0.848126397744608,0.236159091426569,0.100123308277086,0.101389772744415,-1.00523671810543,0.210420514861708,-0.123894238743143,0.328897954587987,0.624326261697246,-0.210321876930739,-0.861177907938869,-0.0527221572417683,-0.00946091306912902,0.243525100669279,-0.142845862834961,-0.922342791948011,-0.900856186862474,0.186323483572496,0.0685796581543595,-0.0579693993203787,0.0188727055195376,-0.148055803112835
57.43,-0.483894959931052,0.281137970261601,0.852446324550351,0.234762694855981,0.10299606348456,0.104818544315813,-1.01853922709511,0.202217430378775,-0.141221341043192,0.336433914924539,0.612922095234447,-0.216674244944757,-0.837504843246134,-0.0814705042107929,-0.0209517248709208,0.248880391558644,-0.153472404495137,-0.907476682121934,-0.929211607717185,0.179858397823353,0.0855750864127454,-0.0409566851525399,0.0141892549441548,-0.133453764422666
57.435,-0.481394545012202,0.293810139553582,0.846700026528104,0.233018544905671,0.104994513516304,0.107296824031913,-1.00912299877595,0.179456172239689,-0.146195733308161,0.343785791548015,0.600042252308249,-0.222577590345552,-0.848830573923452,-0.103362280667103,-0.05632520469866,0.254229868699054,-0.163980214733539,-0.894115990139723,-0.9594686282021,0.163017549930107,0.107398304974065,-0.0186989536993171,0.010730267110621,-0.117005976132208
57.44,-0.476412247684073,0.311017245779753,0.834120010639606,0.23092062182901,0.106020027778589,0.108826356268247,-0.996318638572749,0.12800978095592,-0.140783011784283,0.350822842121983,0.585549762199408,-0.22790156465299,-0.871450600047349,-0.108750576164307,-0.0925490824307097,0.259492486538466,-0.174238893691148,-0.882611457492238,-0.975601600263439,0.139968749893955,0.119044499327972,0.00819352251592069,0.0084629447674772,-0.0987786288159993
57.445,-0.463812627784478,0.314491280839621,0.829707437119921,0.228483193257207,0.10605521329501,0.109464178051733,-0.992601585519617,0.0748406482940979,-0.140028940770017,0.357448740227903,0.569428846903412,-0.232566817229684,-0.89694479659893,-0.0994587734441154,-0.12852568191779,0.264603925501489,-0.184145533244151,-0.873197090247053,-0.997359372423172,0.123537669499678,0.122209546390671,0.0390089569875813,0.00728362850395903,-0.0789294373998889
57.45,-0.453269975328409,0.315764294291406,0.826496986364514,0.225756064143538,0.105167628363595,0.109333703921275,-1.00169778110843,0.0095068095554435,-0.124202565608089,0.363614166324203,0.551755511173614,-0.2365346446662,-0.929207450903145,-0.0775794680187453,-0.156058092083577,0.269531919571493,-0.193626308345894,-0.866010338902969,-1.03531762181061,0.0927078579331792,0.12729557396394,0.0729510123705846,0.0070610899501596,-0.0576981215106177
57.455,-0.448520637321544,0.326190297600144,0.828235473794585,0.222781017800749,0.103493133320028,0.108584091380228,-1.01477178490957,-0.016773728537918,-0.11884350557169,0.369278258738886,0.532670540940735,-0.239801460892085,-0.964070064561367,-0.0606850820795466,-0.169841655310715,0.274241399386415,-0.202626448836172,-0.861124245236375,-1.06426220287463,0.0757262401511227,0.132342912778339,0.109167529861247,0.00763381678627595,-0.0354189157955015
57.46,-0.447629618868064,0.32824620547141,0.824625390661121,0.219568954503125,0.101189277132276,0.107342319949313,-1.02387254258268,-0.0122402681953611,-0.117922267420188,0.374390011018803,0.512365885433659,-0.2423923339705,-1.00739636325814,-0.0558716157721105,-0.164195898584538,0.278678743605299,-0.211102241437344,-0.858560415753364,-1.09370830664176,0.05330651052398,0.134544423616281,0.146791615865072,0.008808576545092,-0.0125154224475818
57.465,-0.463189193562039,0.317227719772307,0.832034858583778,0.216120490164663,0.0984032164799649,0.105699241295773,-1.01806027883355,0.00337849501114346,-0.128037148949024,0.378908476181802,0.491071339517871,-0.244350185513341,-1.04387527738497,-0.0452168075617178,-0.165681308887769,0.282794221706151,-0.219020629530865,-0.858288986786959,-1.1140109634481,0.0358031568385226,0.137654574653892,0.184980813494589,0.0103834056855098,0.0105252302851241
57.47,-0.455160333082491,0.315819492773661,0.825264143856478,0.212468584065041,0.0952760156433183,0.103735495179235,-1.01204934680362,0.0383257044985768,-0.132608426272744,0.382841053659676,0.469041725066658,-0.245726002009028,-1.07972743986503,-0.0657848388443738,-0.153419104595879,0.286581317418545,-0.226364798197031,-0.860221584871435,-1.13119692347218,0.0213224678968001,0.133368162083218,0.222950713151605,0.0121726825096476,0.0331861915205952
57.475,-0.447130060041124,0.323925716088224,0.821463440701254,0.208755713179343,0.0919681097390178,0.101578079093658,-1.00388266987409,0.0649986940319868,-0.136386157998777,0.386317187135124,0.446551856099696,-0.246570451136838,-1.09877937382886,-0.0693987571169261,-0.158050383527236,0.290149351698337,-0.233149173887882,-0.864192901103896,-1.13934495843231,0.00645140714576093,0.132112914321143,0.260009434602583,0.0140219830628601,0.0549676138198279
57.48,-0.450716898672704,0.328412375760942,0.82312025801568,0.205297294746608,0.0886778361660925,0.0994394078169411,-0.995239033828669,0.0887472833564791,-0.136296227803742,0.389653811040096,0.42388836747895,-0.2469260049351,-1.09019622173637,-0.0593050552721504,-0.170338353980277,0.293788285472131,-0.239432474033787,-0.869952745366488,-1.13977558279106,-0.00297188564062575,0.125367107212522,0.295588515640725,0.0158158362187849,0.0754253412020421
57.485,-0.451179404841964,0.322150822521111,0.823657721787638,0.202520306299536,0.0856217358705075,0.0975765948224789,-1.00905320356468,0.110492505532871,-0.144625868097069,0.393297002818611,0.401322540980209,-0.246824577192419,-1.08783824745769,-0.0403218208202665,-0.176736424374799,0.297914189356702,-0.245303602639051,-0.877200339915221,-1.14060987649732,-0.0111703257991395,0.116842180416449,0.329256369543902,0.0174850891700811,0.0941614619419635
57.49,-0.459427573412488,0.312350769374464,0.829827960209844,0.200823955634897,0.0829929202216289,0.09621221739861,-1.00192976087368,0.138221123257302,-0.148541937337774,0.39767950417897,0.379077089505041,-0.246290864206261,-1.05506099592596,-0.00616893875087008,-0.188464851714441,0.302932798086882,-0.250850081291798,-0.885637551008127,-1.13660873684099,-0.0115747832699243,0.122986561956769,0.360717233429489,0.0190162309405174,0.110789609021988
57.495,-0.464757763906258,0.321569372178596,0.82580620185904,0.200546266171306,0.0809573130099118,0.0955312530135554,-1.00836201549681,0.157844672684407,-0.150264173929726,0.403179524613936,0.357314575423551,-0.245343270513575,-1.02372381101349,0.0272314653505893,-0.197491017282554,0.309200091761059,-0.256149224082395,-0.894986334836637,-1.12369581481983,-0.0177906181357823,0.123178005791033,0.389811655486719,0.0204543526901625,0.124938646748425
57.5,-0.460514173265629,0.329193320431743,0.820229494188884,0.202014833504108,0.0796717503279894,0.0957260544131278,-1.01094226011141,0.176408473842257,-0.149876915035755,0.410166648176039,0.336143046520954,-0.243993006231646,-0.99650586574134,0.0668459624528345,-0.205890661792967,0.317066426612289,-0.261278877616181,-0.904981686573869,-1.11026024217114,-0.0113398773768828,0.12143555237258,0.41651817416601,0.0218909113234256,0.136284819405354
57.505,-0.461352169937123,0.324326478121893,0.819006704647285,0.205480664230612,0.0792393294868552,0.0969463315927504,-1.01043206498789,0.197036115313697,-0.142269583603203,0.418936847174917,0.315615396563873,-0.242252081609567,-0.979219359349765,0.0904301840185736,-0.204664279610998,0.326812239559277,-0.266306380306901,-0.91539243616809,-1.09855891847617,0.00452579645394849,0.117028344123613,0.440946231082509,0.0234389668922865,0.144554709624985
57.51,-0.458702032955201,0.319606142328028,0.81441106163461,0.210959785361069,0.07962767980413,0.0991815266728899,-1.01577634179475,0.21115608438791,-0.142215039934791,0.429554635034511,0.295723956053746,-0.240146266301523,-0.964376429229732,0.100206860644518,-0.201031262015543,0.33849339481672,-0.271258190446214,-0.92605828130883,-1.07515322470591,0.0168163899997618,0.113880952038755,0.463317909552694,0.0252200863272255,0.149503105178792
57.515,-0.452141391013434,0.311671937310159,0.826047727942908,0.218222870215472,0.0806766819781704,0.102257128498452,-1.00577079479395,0.234936786949796,-0.140863674346597,0.441836202506711,0.276407637112222,-0.237714173843383,-0.952374352685829,0.0916257070673695,-0.195700071152152,0.351924961348215,-0.276114937737042,-0.936887811146946,-1.05593936352566,0.0375922224405093,0.10624136249049,0.483937340867576,0.0273883339674065,0.150912665316302
57.52,-0.455525340811741,0.312508936666475,0.822786734245381,0.226980005787567,0.0822100809602392,0.105972367236246,-0.997888983726071,0.237671577505957,-0.142942785861024,0.455528529325191,0.257572973360315,-0.234992164830299,-0.949838397956858,0.0666487234189103,-0.182128631537049,0.366856519364585,-0.280844410870208,-0.947818910374425,-1.0309153291626,0.0514533817625611,0.102321379018242,0.503155190732681,0.030149471074341,0.148624149562329
57.525,-0.463509920864207,0.311016742762862,0.819768859427925,0.237019017633871,0.0841124633004642,0.110199369310758,-0.992810655210228,0.216357734920071,-0.132252640264506,0.470450790118116,0.239114285593637,-0.232008713359607,-0.948434781762086,0.0127077502240024,-0.183315509758875,0.38310901422288,-0.28543112995443,-0.958798276335162,-1.00558785984236,0.0651531493038957,0.093316573347993,0.521344215252668,0.0337169822806925,0.142558504307387
57.53,-0.458435749678338,0.31096788964743,0.824980424150077,0.248150687571306,0.0862920972503334,0.114845737711808,-0.99491227543767,0.192857395911906,-0.139848494390065,0.486442355054408,0.220923949880603,-0.228796351332864,-0.984426142383513,-0.0320218860179326,-0.198797840878009,0.400521590621163,-0.289870522460744,-0.969798358889037,-0.971038435375197,0.0792481646415103,0.0952824201203448,0.538886366569465,0.038245133682962,0.132705462517018
57.535,-0.453617803932093,0.312351090950282,0.822190630928572,0.260119408809619,0.0886230560018713,0.119791961483636,-0.997952261837888,0.152969036983788,-0.128936356136543,0.503270668131146,0.202900432834433,-0.225401718496869,-0.987524383328112,-0.0679526989008565,-0.191179479852695,0.418860381733645,-0.294151784482269,-0.980830324798717,-0.950562301190156,0.0807777046828514,0.0924624104140832,0.556160971246772,0.0438026405858684,0.119102552173324
57.54,-0.450240755958143,0.309754582154148,0.819877930474885,0.272619994784725,0.0909561436465515,0.124895073077857,-0.999238521161159,0.13121684083392,-0.123451290569031,0.520647262151515,0.184962780523423,-0.221882539969015,-0.996667372934219,-0.101447947693464,-0.194467966619938,0.437834465759042,-0.298257001629537,-0.991925160306413,-0.930496352417048,0.0822789880710558,0.0950829895394859,0.57353043382796,0.050388753730017,0.101823068602115
57.545,-0.449964791756336,0.314581611452746,0.822733785359861,0.28539823310252,0.0931804664499434,0.130049893821579,-1.00052206339579,0.120602024444866,-0.11582184958521,0.538331317891541,0.167069881223248,-0.218298202880698,-1.0025938824127,-0.118326755351181,-0.193106440739321,0.457197669617409,-0.302175585897402,-1.00309235785895,-0.912054202820736,0.0813326268568003,0.108057458332556,0.59132294709304,0.0579662872354416,0.0809721969570136
57.55,-0.44408137037095,0.317719599195093,0.824481595774053,0.298367958172503,0.0952810986038956,0.135271101495139,-1.00072416535218,0.0881185746490399,-0.11301126084297,0.556251872892001,0.149236916449762,-0.214704259298087,-1.02540668008703,-0.13289651527041,-0.177485874250083,0.47686755812196,-0.305925871651821,-1.01428272581317,-0.907368786712801,0.081458623139478,0.127538459678369,0.609814525830936,0.0664710022951076,0.0566988831458577
57.555,-0.442334621483296,0.316556221599372,0.824234607765923,0.311588360116244,0.0973177110666475,0.140679304501686,-0.998665731704316,0.07368967434733,-0.109223308696472,0.574491488114868,0.131537739603348,-0.211161668754345,-1.02348859763282,-0.145656145707941,-0.173281104528197,0.496907519796132,-0.309556969765368,-1.02539145347815,-0.898082953051611,0.0757633878052056,0.141119328654226,0.629218357333798,0.0757810012586286,0.0292035671474793
57.56,-0.451147754177621,0.321321478171286,0.822867885170685,0.325078540525146,0.0993291515284846,0.146360917993959,-0.999638204008197,0.0591118850486697,-0.10811965724233,0.593105251728322,0.114094593065022,-0.207754572048811,-1.02759378154494,-0.162413786599089,-0.168102165632658,0.517347958842327,-0.313121094329587,-1.03629216679785,-0.884209333106634,0.0686457375159296,0.161333823922689,0.649684076397828,0.0856902393014144,-0.00127446847329845
57.565,-0.390907107392995,0.328374955998957,0.820332075722871,0.338710786200844,0.101295196110428,0.152276275977282,-1.00059121484576,0.0609808385961125,-0.122421459698728,0.612015955274749,0.0970720817161898,-0.204594709299926,-1.03522504347017,-0.168494187185136,-0.167042807746366,0.538083954337885,-0.316654362277222,-1.0468437110732,-0.898115133703594,0.0547715959782554,0.177398665814751,0.671304906177154,0.0959325854879559,-0.034466128051653
57.57,-0.449601792141974,0.325260164415568,0.824255087351779,0.352246357382673,0.103178264981619,0.158284792325817,-0.994134708978991,0.0650096570145763,-0.123817859511085,0.631043175469686,0.0806759461617131,-0.201810429204816,-1.01567537317457,-0.170942174943127,-0.177715235556801,0.558905792373676,-0.320176797229408,-1.05687071013606,-0.892731471537279,0.0445198110110354,0.181391536929184,0.694132217915702,0.106235646996094,-0.0700859869354463
57.575,-0.449351530085735,0.325758354401549,0.825594627004188,0.365368587679577,0.10493354289404,0.16418364214849,-0.993643501027535,0.0841612695936067,-0.130341732251742,0.649920115466999,0.0651470772044933,-0.199535718311066,-0.989415694864443,-0.161463595439806,-0.179686127662738,0.579517630373274,-0.323690328588606,-1.06616319075839,-0.889441010260292,0.0343088658666147,0.200610394319511,0.71818271201009,0.116343907447702,-0.107853453458547
57.58,-0.446380339220289,0.325660263790022,0.825522341549594,0.377745993032678,0.106499299101162,0.169752843086891,-0.994071117674333,0.103846497937879,-0.130976410620693,0.668351751473859,0.0507573255477944,-0.197901781010878,-0.974034590556078,-0.160186060488957,-0.178566031757797,0.599595484287812,-0.327187482148204,-1.07447825390324,-0.88856288450043,0.0265184728770751,0.207298734811813,0.743425469053129,0.126013234525331,-0.147472299710368
57.585,-0.450354818352542,0.325196186141145,0.820622719381526,0.389160752921967,0.107835231708438,0.174834680552849,-0.981490553404426,0.115044896486907,-0.136772740298389,0.686154540264773,0.0378052387512649,-0.19702719543551,-0.970548009493766,-0.158354001641201,-0.190332749278504,0.618924895454615,-0.330675757447297,-1.08152743679873,-0.883958282857393,0.00498824151178194,0.203708289375641,0.769770502274826,0.135019129035518,-0.188588725945805
57.59,-0.450936431452386,0.33175150286505,0.824506520642558,0.399551643088686,0.108945574096568,0.179366138598764,-0.98351979766647,0.121882513586466,-0.138553995064629,0.703304303536419,0.0265971390128139,-0.197011649189735,-0.966886459113765,-0.14665222929153,-0.199598324457619,0.637449439908642,-0.334185259657747,-1.08698933616572,-0.88690293801214,-0.00682876284134047,0.197332321372662,0.797077199687926,0.143169666857114,-0.230796199755134
57.595,-0.451615040374422,0.327518283246217,0.820746751918544,0.408923480833047,0.109836989850757,0.183326244461138,-0.978457134420587,0.127228759092803,-0.135758601021575,0.719838912529307,0.0174180145313894,-0.197937092681551,-0.952180763419321,-0.132193587458418,-0.202793930147847,0.655176824462111,-0.337752647790861,-1.09055631443717,-0.88422746246896,-0.0148055570945438,0.197756487722323,0.82516877217738,0.150297264338421,-0.273668538634519
57.6,-0.446466905391088,0.328259416388325,0.820029737496385,0.417235871999125,0.110467920293386,0.186661477757945,-0.981320463105193,0.129145377973535,-0.130061144749999,0.735740978478124,0.0105057481882437,-0.199870900082092,-0.938669172444192,-0.119762244547583,-0.197469101790942,0.672064712926003,-0.341403943334721,-1.09198157775275,-0.880496414118837,-0.026762439261021,0.185859159269992,0.853841646898038,0.156242962124465,-0.316772670058728
57.605,-0.443913230830453,0.32779716484538,0.816405560848502,0.424383159617232,0.110754294735214,0.18926245101351,-0.98722624112811,0.145592331417066,-0.114073437016802,0.750920279138553,0.00603464361827619,-0.202862458554595,-0.925848603728317,-0.102354363605811,-0.172500159342726,0.688004639892765,-0.345152170155262,-1.09109087182981,-0.880825034362244,-0.0351867838069827,0.179561052867975,0.88287483960275,0.160883457228958,-0.359656549930991
57.61,-0.441547249674481,0.326432064927376,0.816052598151291,0.4302910165438,0.110633858284657,0.191020731703841,-0.987091713882705,0.155272525924998,-0.106783828936128,0.765320920504916,0.00410963715020329,-0.206934151802482,-0.938612095810608,-0.0750132463480798,-0.161680677156887,0.702928538668502,-0.349012600431266,-1.08775468588863,-0.883968863771871,-0.00466940681776564,0.169092596024194,0.912040049917961,0.164201378620644,-0.401830920199075
57.615,-0.441445576470254,0.332281612959986,0.813840477162961,0.434998706354764,0.110105657862658,0.191894859451295,-0.985646677242229,0.169127831636125,-0.0969324174814484,0.779009461630021,0.00476291476380694,-0.212078803388586,-0.953204884197604,-0.059757237166201,-0.122188767726024,0.716895617023987,-0.353017174137189,-1.08187802989964,-0.887856758017763,-0.00063442293712439,0.163705760743291,0.941105755620683,0.166301860083962,-0.442772448037733
57.62,-0.439298499445792,0.323383471197383,0.811989782130846,0.438594154680694,0.109179582178322,0.191892160265752,-0.987526869633436,0.16739810840464,-0.0800134160999095,0.79210026860249,0.00794359381735066,-0.218268648696302,-0.973270998531756,-0.0501498329264772,-0.0847452242292077,0.730018312068855,-0.357207875663253,-1.07344733418681,-0.893633238283732,-0.0125205192650028,0.154744558249378,0.969836351483078,0.167333721638796,-0.481953492522848
57.625,-0.437144704510534,0.320415748393934,0.820112075312085,0.441075494532352,0.10779874123699,0.190994301834139,-0.986421253171142,0.160820583477492,-0.07355076253243,0.804600432295683,0.0135082959546485,-0.225465795961115,-0.985636973100624,-0.0393051535736468,-0.0505060766819307,0.742309145443971,-0.361617779374457,-1.06258457839196,-0.897543823858286,-0.00224706702194464,0.153962175939926,0.997994678234758,0.167412100422647,-0.518869803125987
57.63,-0.434747572170727,0.325002034909886,0.814947658239975,0.442310044632052,0.105837320764832,0.189128797460739,-0.983483174349133,0.151842095245386,-0.0608630418150016,0.816362402940424,0.0212287839482041,-0.23362367266112,-0.996028864288691,-0.0281170793528393,-0.0131896275950775,0.753633935988364,-0.366262869754919,-1.0495405023162,-0.908297174153418,0.0364596369936315,0.164595438780066,1.02534791173782,0.166634021553931,-0.553046584786707
57.635,-0.436645385876996,0.324834275534952,0.817703502303673,0.442108435883172,0.103164363541209,0.186204529955211,-0.981078357438711,0.137919773230695,-0.0523527784138328,0.827165727164987,0.0308144123399542,-0.242682819076287,-1.01731493231729,-0.0225475246067381,0.0193490988144568,0.763791963549447,-0.37114933178711,-1.03464172899107,-0.923685770834731,0.0703849362351056,0.166194159598658,1.05166972536147,0.165141346190205,-0.584035931889527
57.64,-0.444508234652374,0.314371265687507,0.82254638108747,0.440304767671458,0.0996942826673538,0.182150591968646,-0.980002420702087,0.124502280282452,-0.0454567162358702,0.836809125142068,0.0419330970168505,-0.252569757659678,-1.0125763787776,-0.0147326258419676,0.0210541021609637,0.772605851436531,-0.376284018684587,-1.01825140443563,-0.934794403597708,0.0704996068947612,0.164637131164881,1.0767374655823,0.163139011339066,-0.611422281720796
57.645,-0.435079780036237,0.308576200475466,0.821973797285068,0.43680475524013,0.0954086629722233,0.176940972357978,-0.976639713542558,0.125261628709375,-0.0508470853951222,0.845168775556816,0.054227190553671,-0.263200658448182,-1.01982164251377,0.00115729766506468,0.0400314580223928,0.779977752258228,-0.381682740730127,-1.00074913627165,-0.93927046086666,0.0413250918339959,0.160666687032307,1.10033055085567,0.160874861598551,-0.634832598596852
57.65,-0.445258506935699,0.307750893499524,0.826713526802545,0.431595441105522,0.0903522853920567,0.170605027914315,-0.972319335837777,0.121142268029712,-0.0521652518547778,0.852211856594535,0.0673287571652913,-0.274488934473591,-1.02628868567358,0.0066355637413601,0.0388983593358642,0.785901026865638,-0.387373985792528,-0.982518010804728,-0.947966042334156,0.0262110165616693,0.155389878751363,1.12223456360771,0.158612802193525,-0.653945882618198
57.655,-0.440527844650789,0.30653809733229,0.828066455063134,0.424703004992933,0.0845975623484171,0.163205401837032,-0.965614063816785,0.116764771453227,-0.0495443992707346,0.857950233124395,0.0808739266146891,-0.28635373364465,-1.02844804717959,0.0058057113113103,0.0404852385781105,0.790412993133896,-0.393394030621449,-0.963942911824516,-0.956482192379009,0.0196186115236835,0.149092998262795,1.14224721675739,0.156600333931533,-0.668503073654118
57.66,-0.440056178668416,0.309681534236288,0.8269422989524,0.416128634542145,0.0782054167420255,0.154795265458506,-0.958272003452179,0.108212185817455,-0.0551289836715785,0.862369034185134,0.0945157340523558,-0.298726377059752,-1.03375337757265,0.0025276148492259,0.0325157238124252,0.793523257045112,-0.39977779020121,-0.945409117022861,-0.958807142084352,0.0185977810260981,0.152986223634693,1.16018213254904,0.155053144934924,-0.678315060325788
57.665,-0.443349645755846,0.321079645254424,0.824170033230735,0.405759329293753,0.0711816354537467,0.14536169982155,-0.961783963089787,0.102000021516766,-0.0631789456198433,0.865324122450046,0.107934093005056,-0.311556628750831,-1.03418853356173,0.00278258589255415,0.0154156154293802,0.795111356403491,-0.406547179406005,-0.927302628596194,-0.967671845453853,0.0448134918980768,0.147250372787922,1.17587199660314,0.154155273060153,-0.683268474968383
57.67,-0.442110441690662,0.321477927510396,0.821724206027749,0.393271115147402,0.0634247981797451,0.134761429830519,-0.969654577327636,0.0921358149446692,-0.0770339447505544,0.866428765436047,0.120842035750268,-0.3248164293914,-1.02817518417441,-0.000378555632884087,-7.30944960505835e-05,0.794814128997764,-0.413698170639798,-0.910017514326823,-0.980025613640714,0.0643528774185989,0.142970215643939,1.18917029212422,0.154050095895422,-0.683329540752291
57.675,-0.44611388453179,0.319179547133281,0.825007746445617,0.378140995462913,0.0547297533785223,0.122714894098982,-0.977709938167215,0.104107883560136,-0.0805466551459719,0.865063463187508,0.132992170944236,-0.338494293167279,-1.01791600881641,0.00834612176769348,-0.0363389760812002,0.792035762025381,-0.421198830220971,-0.893945295493595,-0.97910710559056,0.0646332821739535,0.142732388708765,1.19995008799323,0.154834127705698,-0.678543280278808
57.68,-0.450099607233971,0.318518684089464,0.82540447443424,0.359829408853226,0.0448875690475925,0.108913516025431,-0.9822171619942,0.114718633904303,-0.0989685577707421,0.860576908620183,0.144187053683795,-0.352580553647789,-1.0136537602648,0.0123734345754873,-0.0654827785648405,0.786147531652167,-0.429005060075967,-0.879431498439752,-0.994578747296184,0.0848636939626939,0.144838617995055,1.20810286278699,0.156567816376182,-0.669031059553301
57.685,-0.460434232668865,0.320626955536719,0.822804697057324,0.337998211128003,0.0337987395316236,0.0931633483260855,-0.985106127484021,0.117476007855332,-0.108756289228211,0.852529586198342,0.15429100976431,-0.367055658099378,-1.00476843623326,0.0109734725088415,-0.0989864744651821,0.776729195962248,-0.437081874868264,-0.866724030822282,-1.00541747125131,0.0950279415658294,0.15007185455663,1.21354154148521,0.159290338743498,-0.654985253247504
57.69,-0.456579671245615,0.329103013720378,0.819250195304512,0.312589422389634,0.0214983193580886,0.0754415604935176,-0.985272173458656,0.123032582042721,-0.115275261616112,0.840788862676827,0.163237514578217,-0.381891146873587,-1.00003893045085,0.015407108641944,-0.118069250735814,0.763662246018204,-0.445413662394177,-0.855943498378735,-1.01283322695646,0.10290250412418,0.157010543163568,1.21620995068224,0.163026960868643,-0.636657325345061
57.695,-0.45279423081189,0.33778688059575,0.819481470476848,0.283792699634836,0.00812259681961656,0.0558796677125803,-0.990160091572148,0.123348158422538,-0.114302213912138,0.825501232548572,0.171029332928919,-0.397056162428592,-0.98105151872356,0.0263054555225209,-0.13228239508904,0.747101407556575,-0.454003521373439,-0.847075863310664,-1.02689303759894,0.102571168686284,0.157932212311837,1.21609423278957,0.167792371194729,-0.614344927024741
57.7,-0.450247651299298,0.336813056329195,0.818265795271764,0.251966364864184,-0.00613425655278958,0.034721094383636,-0.99349318181676,0.118960517107498,-0.112704771268499,0.807009066243305,0.177730132892258,-0.412524704081942,-0.969713579358639,0.032758232851926,-0.124465354921822,0.727391555560811,-0.462868794375474,-0.839983752024479,-1.02930269952102,0.0894390519653329,0.150844766155214,1.21323149180374,0.173591666399395,-0.588373571795409
57.705,-0.453505877239758,0.332109225439977,0.823514887833945,0.217498912570335,-0.0210789863713018,0.0122326589871436,-1.00111531511611,0.120109371102566,-0.108455094779125,0.785698436922276,0.183450644244314,-0.428284081750776,-0.957310270817697,0.0439825307093388,-0.117442934444089,0.704916549696604,-0.472031289969814,-0.83443712209375,-1.02548262790066,0.0797462217295652,0.143799691229917,1.20771600680731,0.180415130786113,-0.559075789584229
57.71,-0.453864518492505,0.336606106444697,0.82129996818973,0.180724793844007,-0.0365463137294893,-0.0113638604919829,-1.00256441865713,0.122914027929967,-0.109889770115395,0.761903190718154,0.188340451931083,-0.444333970592323,-0.948335714028679,0.037141855737759,-0.110800873822338,0.680004643568778,-0.481506202417868,-0.830136745500692,-1.02986771445676,0.0832597346375841,0.140156662441489,1.1996969912623,0.188236910889218,-0.526793372910316
57.715,-0.455392214870867,0.337762349093226,0.820902474081743,0.141960596937804,-0.0523716480869779,-0.035873263559226,-0.996218972624605,0.134085205141902,-0.111970267881361,0.73593786425527,0.192585262548426,-0.460675968448525,-0.934441007308843,0.0354615409900829,-0.104604650788904,0.652962245764336,-0.491298137546819,-0.826718486351753,-1.03096890028504,0.0830180739154648,0.132487644062216,1.18936628563957,0.197026293591289,-0.491893026033913
57.72,-0.452800539818734,0.341848234584604,0.818274020983114,0.101524566756028,-0.0683714133713165,-0.0610996358763912,-0.992521360443255,0.145638615063332,-0.113835165180319,0.708111068336764,0.196396461363729,-0.477308889990788,-0.929089266214469,0.0360612820252997,-0.097043823427282,0.624087889875927,-0.501401439469629,-0.823767377666685,-1.03106977888462,0.0838220868032541,0.125098732633519,1.17694924112575,0.206752697772735,-0.454755602993826
57.725,-0.450634813637099,0.33772344291834,0.826115106165023,0.059712040310738,-0.0843428500526267,-0.0868454658712081,-0.992255920958861,0.166382283093904,-0.120685072516552,0.678690781638042,0.199996348457236,-0.494228903220219,-0.918293313730885,0.0365685189112635,-0.0896662815341029,0.593638199657625,-0.511799671841123,-0.820844828694588,-1.02972387063089,0.0926676137991461,0.122858411133772,1.16269984727539,0.217377894108654,-0.415746155801141
57.73,-0.445130442660511,0.336385102392428,0.820720124057758,0.0168091680834631,-0.100052478199901,-0.112903693064953,-0.99448409989111,0.168723144080927,-0.118584109384499,0.647915199191623,0.203614784827169,-0.511424963992648,-0.911948537428482,0.0345290366028744,-0.0811650600787494,0.561839037505077,-0.522463515560605,-0.817502029992714,-1.0203030116768,0.0923204643756352,0.123176086276761,1.14689068974769,0.228853316827838,-0.375205320360492
57.735,-0.447318770252814,0.345636344250167,0.821517222695701,-0.0268991421982041,-0.115233943594406,-0.139078458707481,-0.995393617404981,0.159542339397154,-0.107842910462056,0.616003993835553,0.207494397839946,-0.528874021367122,-0.913433652927102,0.0386635001299447,-0.0721121285652493,0.528896673914252,-0.533346262050326,-0.813283315272984,-1.02140503032616,0.0880768405239856,0.129265573034603,1.12980285338206,0.241116432025936,-0.333460209364691
57.74,-0.449220770078838,0.349409972753893,0.815778765305535,-0.071168234725057,-0.129611322293088,-0.165238202288714,-1.00107922283432,0.147584593816408,-0.0995909278112304,0.583119450647542,0.211890697461382,-0.546540857508385,-0.933202118750482,0.0312803604455856,-0.063275924316363,0.494958947117853,-0.544378860470564,-0.807739292975824,-1.01917245812073,0.0897543814553454,0.134157307023885,1.11172119699939,0.254075749304534,-0.290821716218094
57.745,-0.430769240384614,0.342387366817406,0.871115378024826,-0.115819628717347,-0.142918475400864,-0.191341243263447,-0.959857470616828,-0.0173628952938847,-0.079732834149958,0.54933807315739,0.217067663824233,-0.564378189739278,-0.959373422892758,0.0369420663119672,-0.0572241847769502,0.460086974361535,-0.555467801437317,-0.800443409240707,-1.0165346810299,0.0928937540072646,0.0877471943653448,1.09293076229501,0.267599207891518,-0.247567014305238
57.75,-0.43892166828456,0.332031890632899,0.814429447629136,-0.16072861774026,-0.154905042058062,-0.217429611175426,-0.985230636704082,0.130323504019351,-0.121028281247114,0.514664432442679,0.223295688686346,-0.582324332676951,-0.986652828995592,0.0119701533171671,-0.0271620581718568,0.424268945055465,-0.566495078827252,-0.790999509289929,-1.0121947609951,0.0999126494457752,0.148104916309899,1.07371284356836,0.281515285131866,-0.203928610676704
57.755,-0.44453377672121,0.331840726368898,0.826499999118236,-0.205800162604802,-0.165349018885099,-0.243621018377872,-1.00593850637707,0.11712024958863,-0.0922451113813829,0.479062932094381,0.230852633593323,-0.600300225386308,-0.987426202226235,0.00190794029120315,-0.0371560344040641,0.387451655041087,-0.577318524440755,-0.779041288091661,-1.01068971418833,0.107514542789893,0.155756629157652,1.0543424999201,0.295622645062933,-0.160095156926158
57.76,-0.456640635756463,0.35462389185067,0.810621986067312,-0.250947616360628,-0.174071707334704,-0.270101958759064,-0.995888447954751,0.11466788394053,-0.0607272346736932,0.442489884910341,0.240027250387699,-0.618209104277629,-1.02894776051301,-0.0146722613739069,-0.0233399702474395,0.349571973250234,-0.587773733828296,-0.764227146844291,-1.01084211782506,0.110615634423942,0.157052143631118,1.03508911234499,0.309696782701768,-0.116214934142044
57.765,-0.422553843690947,0.343153912208199,0.816834093817626,-0.296072427715315,-0.180926023455397,-0.297109990209603,-0.982840742123377,0.104952190405421,-0.0660059914767302,0.404920837227438,0.25111948754903,-0.635938743769905,-1.05092363973841,-0.0427444526128338,-0.0122178978231315,0.310583561873544,-0.597678292165008,-0.746234045953104,-1.01009231950212,0.118628024672337,0.166321717322617,1.01621478414714,0.323500572141196,-0.0723999368142532
57.77,-0.447474859517891,0.340328354484989,0.814415510098067,-0.341033571815797,-0.185755964830547,-0.324905018550119,-0.975804463952492,0.0867351742390658,-0.0645981405597491,0.366386230843814,0.264430964540081,-0.653361912555598,-1.06142906175077,-0.0607813068684339,-0.00364800712922542,0.270492754597651,-0.606837160496211,-0.72474878770247,-0.99149373413081,0.125859729836281,0.170748220021455,0.997962810920267,0.336832880420544,-0.0287417996007237
57.775,-0.454041048944001,0.349735234826801,0.811988104879857,-0.38561055938061,-0.188374901860408,-0.353747098509428,-0.979435928497848,0.104142657975974,-0.0548322964293527,0.327026784785394,0.280257527831975,-0.670339824715779,-1.06495362479396,-0.0715122876023194,0.00791106183079954,0.229413685925005,-0.615052245246342,-0.699453060880749,-0.983875121234697,0.132133881365731,0.169977986754493,0.980554447968025,0.349567644848904,0.0146724913461009
57.78,-0.440246194504484,0.350157800092897,0.812742145062187,-0.429483029940478,-0.188587619534151,-0.383889344350168,-0.972147097405349,0.107464035822504,-0.0511274369005224,0.287145910214942,0.2988970470735,-0.686735722523055,-1.06248596654299,-0.0773944933272476,0.015114820396527,0.187618657408512,-0.622137637282466,-0.670014080213958,-0.970695858276797,0.141699409264572,0.175719706029455,0.964214534067405,0.361593839660062,0.0577700838595451
57.785,-0.444625999810427,0.360203316676755,0.81487207290017,-0.472223354795682,-0.186196687767629,-0.415575321602617,-0.968782147914639,0.105594464153203,-0.0535071911076346,0.2472412278092,0.320655102926545,-0.702427476443835,-1.06407801262593,-0.0852447086259299,0.0164421459567251,0.145568222199202,-0.627932390357677,-0.636090497202433,-0.962086225543071,0.149584652611977,0.182076145297415,0.94919756307118,0.37272844410801,0.100499669540125
57.79,-0.433494802978146,0.358571838612518,0.802198166327776,-0.513278619689616,-0.180956544069752,-0.44902968735063,-0.964743136114359,0.129584834054616,-0.0444282134835762,0.208031967818156,0.345833502659102,-0.717308648393062,-1.05604381842535,-0.093961696043318,0.013122678146601,0.103939615388359,-0.632306433387956,-0.5973388265192,-0.950030456261985,0.161316875537322,0.188429456794233,0.935783891221915,0.382720608544363,0.142803881708594
57.795,-0.421665134578814,0.362317860034443,0.794023709110264,-0.551941862521914,-0.172526035836152,-0.484438599620326,-0.973422205911307,0.144182566811858,-0.0329909593637249,0.170495277598678,0.374716323727266,-0.731285550801669,-1.04238227892589,-0.0898628674966984,0.018097838859778,0.0636646938775279,-0.635165210785472,-0.553408094731964,-0.936643116959876,0.175353825703416,0.196134042116242,0.924264254076569,0.391308515636449,0.184582968271567
57.8,-0.410032013878716,0.381716450157572,0.79568431934613,-0.587324448590407,-0.160449287588027,-0.521924211141503,-0.98019916989718,0.150876215234126,-0.0300732508505685,0.135904602952636,0.40756336653467,-0.744276397672164,-1.03740944988478,-0.0782018443043225,0.0347758688126294,0.0259692885710875,-0.636456486848148,-0.503930403267525,-0.940432855208891,0.178571591711469,0.194679066020542,0.91493352318302,0.398255900793564,0.225678610573564
57.805,-0.439244112094255,0.449356923996065,0.853982007875213,-0.618332100642703,-0.144145007640804,-0.56151991898559,-0.996819586490988,0.161280398342037,-0.0332293793991154,0.10586309868642,0.444604152540358,-0.756209717376417,-1.05245002346621,-0.0499205956196623,0.0462123333917021,-0.00759241764180588,-0.636178267877194,-0.448515207205387,-0.949616071151762,0.184086580027747,0.1789139491079,0.908089526493296,0.403370344190242,0.265873523976567
57.81,-0.462469224854312,0.406994750062652,0.815526530069344,-0.643748300335882,-0.122946482070561,-0.603222428402233,-1.03348201525677,0.240716835429483,-0.0355803802002664,0.0821987672925504,0.486025362803842,-0.767021001442878,-1.06001944274665,0.00355817989793602,0.0559673999402969,-0.0352401536686717,-0.634375597122818,-0.386764973347919,-0.985501716543868,0.172630272771587,0.157899566818032,0.904027738256044,0.406539764902488,0.304883507979953
57.815,-0.409187860951303,0.424970160459877,0.797022278519079,-0.66262811946041,-0.0962998767638636,-0.647261329242272,-1.0553830800609,0.294976508823848,-0.0169345052301324,0.0664641014282065,0.531944600876027,-0.776650471816633,-1.08006522120401,0.0713767450320613,0.0604473202230374,-0.0554611572794793,-0.631102935736377,-0.318350139872802,-1.03060474466581,0.159783912049166,0.164865881803773,0.90302652968,0.407813378986644,0.342313239741189
57.82,-0.383980254232065,0.395510547706524,0.778666984140055,-0.674781672495004,-0.0640213659048646,-0.694418209712794,-1.03720098085025,0.302160961264893,0.00733023514957085,0.0593140421588006,0.582376925806472,-0.7850430525425,-1.10552274071747,0.110919932071429,0.0768861043500259,-0.0676236442907801,-0.626374847311768,-0.243116757413629,-1.11310303429052,0.122062013976967,0.176713170411476,0.905329986221294,0.407452224559143,0.377612807220206
57.825,-0.380448603587606,0.392275052211968,0.79210431296969,-0.680729272081114,-0.026303424008234,-0.745955842224022,-1.00954751223493,0.27107796592111,0.0204449146004448,0.0605411172984817,0.637223059193608,-0.792146282400452,-1.13552105902696,0.0990505844747651,0.0934966909328946,-0.0719390384165168,-0.620171916631986,-0.161116382284312,-1.17050247453154,0.09816810921658,0.173542701898721,0.911145282831287,0.4058455583724,0.410118311240112
57.83,-0.423044535219377,0.411764670600011,0.840218525948767,-0.68116144567516,0.0165386648218253,-0.803209321372577,-0.97162873941129,0.189898188524756,0.0118386283760833,0.0697371939072296,0.696288771828013,-0.79790326770659,-1.1873667657589,0.0486750598652759,0.142224791532935,-0.0688042713550739,-0.612498926013166,-0.07253242633041,-1.25437477395177,0.0213181083675241,0.148517902221364,0.920652146361792,0.403379661425147,0.439155294876163
57.835,-0.447876058583089,0.403573960589328,0.812898687273009,-0.676548986854919,0.0642640719073239,-0.867308618287175,-0.92889472070191,0.0971563106572929,0.00404419383588471,0.086775497609487,0.759307547643294,-0.80224381996942,-1.22274794453645,0.00361346937535344,0.20477177804637,-0.0583232076200615,-0.603426405926762,0.0223971733781125,-1.29436070382785,-0.0275553325865056,0.117311859224568,0.93400265968226,0.400409190533869,0.464108326269079
57.84,-0.414714068668165,0.405385979127045,0.794288848146722,-0.667096567916747,0.116729736620768,-0.939142744280329,-0.948788366835371,0.0776277742349211,0.00953002807280999,0.111861443352696,0.825946318091238,-0.805076871087103,-1.23365524973471,-0.016403942220975,0.263368481428545,-0.0402557253555246,-0.593096395388144,0.12339819657829,-1.28666136478582,-0.0425734288950638,0.080225145782676,0.951306585166842,0.397295562573803,0.484442418309313
57.845,-0.403117786564799,0.387229326785408,0.80678736661365,-0.652795345270752,0.173871531709088,-1.01938528343943,-0.971321320215629,0.0428721700161431,0.0389579458731375,0.145454173442342,0.895801249974214,-0.806284245565363,-1.23374380070213,-0.0182559852621184,0.291139672724982,-0.0140952307506389,-0.581720441815726,0.2301417885882,-1.22835819450455,-0.0394613249747073,0.0370395340788731,0.972616469840216,0.39440649725292,0.499727333143178
57.85,-0.397563604013612,0.445916783919586,0.777239228521623,-0.633453421386076,0.23570169849073,-1.10850685608698,-1.01886507591795,0.145988648883551,0.0328754013457133,0.188210237225009,0.968394359473845,-0.805712399328869,-1.20681959706289,-0.0265695937915102,0.309482849735526,0.0208755464482765,-0.569579320967453,0.342220288499892,-1.15217842664245,-0.0452652352362535,-0.015826196405604,0.997918562529754,0.3920755810166,0.509673777156292
57.855,-0.429258691501271,0.456295436655736,0.823991139172849,-0.608718585215452,0.302283900525861,-1.20676583338576,-1.02948292109371,0.164823862600283,0.0385651062226974,0.240924956615639,1.04317118879137,-0.803160058800605,-1.18410668875321,-0.0335210777959705,0.339374363372498,0.065526695613098,-0.557018852879806,0.459123171944826,-1.09377165137648,-0.0738007697861725,-0.0777344951343619,1.027126074877,0.390563441808393,0.514161793379325
57.86,-0.441245822690506,0.44853581767688,0.815806379839196,-0.578118570298601,0.373697713454698,-1.3141966983729,-1.05463028529773,0.1639063184474,0.0424433153072045,0.304439408383202,1.11949722516025,-0.798365334343824,-1.17383305346922,-0.0749364564665791,0.384493778056592,0.12078945663141,-0.544439716814326,0.580213734633444,-1.07530795722304,-0.101859810407884,-0.114531433328142,1.06007257157656,0.390040964452205,0.513258802454185
57.865,-0.403421282008043,0.458188802541523,0.815111704270355,-0.541182791743477,0.44998182134638,-1.43070017262679,-1.08757473126932,0.130740457121922,0.0506062419440618,0.379451717962587,1.19665638850973,-0.790994823056598,-1.18433779330222,-0.125265534746282,0.429353498280306,0.187470587060476,-0.53226888892098,0.704715688203762,-1.07750117109965,-0.11180277742911,-0.12916419378444,1.09650157715627,0.390636393011692,0.507198388735751
57.87,-0.400151100959129,0.43681682124186,0.827532277190978,-0.497658542088575,0.531004050860027,-1.55624030520164,-1.10559768069733,0.116307532361978,0.0561754208761188,0.46623520645893,1.27385513493235,-0.780642843895816,-1.18498119992074,-0.157021592398879,0.459729191056638,0.265975101090368,-0.52091136077255,0.831705842242581,-1.08630721873932,-0.0966716950487571,-0.120307618852671,1.13605755045356,0.392509360614418,0.496312771159498
57.875,-0.415621724746106,0.46200034479567,0.844125443030783,-0.447651230553557,0.616328913270466,-1.69093303614012,-1.12990034207156,0.109684935658426,0.0603431850489435,0.564468361114212,1.3502359100252,-0.766849739500074,-1.20743676494693,-0.187935172542952,0.500881081052504,0.356138024168271,-0.510716860521111,0.960103116797103,-1.06894962720848,-0.0823037306905787,-0.104505917406835,1.17829177845164,0.395807645109636,0.480998395064636
57.88,-0.435847974408207,0.50105899247831,0.856495728194133,-0.39157323160113,0.705197480995355,-1.83493546000457,-1.15592889383787,0.130169190100502,0.0483556527264016,0.673299731986621,1.424899383879,-0.749125844771416,-1.2135876828684,-0.212418594312258,0.531484135407082,0.457287375045548,-0.501975102487147,1.0886745463492,-1.04960837501335,-0.0815566230302229,-0.0859453946846637,1.22267435338932,0.400549745016435,0.461733879598511
57.885,-0.430700956800009,0.510253846013689,0.861926808393672,-0.330047033867973,0.796586893153756,-1.98831270926098,-1.16772412150635,0.186936988779276,0.0578632441653052,0.791467095536146,1.49692394341804,-0.726969581502521,-1.22352770473173,-0.234357161648866,0.550269371154457,0.568362052736297,-0.494910135172229,1.21607294643678,-1.02846561757794,-0.0908202922196644,-0.0796615973388222,1.2685976922172,0.406612602240163,0.43907527317283
57.89,-0.3893078457025,0.508242405473907,0.856822785294699,-0.263879828285545,0.889247289193398,-2.15096465190396,-1.17515104929673,0.207620431272057,0.0744186287831521,0.917340927657222,1.56538099183867,-0.699891584666242,-1.2463279879949,-0.263093569589767,0.597212548285835,0.687954605560173,-0.489664925350724,1.34087956392297,-1.01840117601756,-0.110971564649965,-0.0814661379496736,1.31538665971998,0.413772226925338,0.413624427340234
57.895,-0.404885641044238,0.481221526362059,0.858849138843062,-0.194040037909335,0.981706471075954,-2.32254034991155,-1.23445573274494,0.20229354798877,0.0690262323991683,1.04897898101428,1.62935626534627,-0.667446221804551,-1.25017199637614,-0.305808354200662,0.64162258178739,0.814363003845593,-0.48629155063018,1.4616379880214,-1.00820775802248,-0.120020101126862,-0.0712526910451015,1.36232655804329,0.421680892088352,0.386013459115554
57.9,-0.454409048400185,0.433028991013435,0.847393672051347,-0.121600444063091,1.07230130648852,-2.50235351860189,-1.30299110010321,0.173238846631693,0.0456508297390951,1.18422655889176,1.68797100988874,-0.629255498180656,-1.24384985924901,-0.366262589645595,0.82111370376363,0.945687970890312,-0.484745019699095,1.57689856881061,-0.999224961326848,-0.123694393611557,-0.0574122271533004,1.40868718828281,0.42987480228088,0.356883390484336
57.905,-0.442831306653947,0.533519260328094,0.824990794681958,-0.047691475259617,1.15925500623658,-2.68935654410161,-1.35104473759977,0.159884123805382,0.0381663399998743,1.32080885380959,1.74039006698484,-0.585022255899815,-1.27379212986824,-0.426802799588344,1.13431396255538,1.07992432141983,-0.484874272417015,1.68527798460681,-0.995250496816393,-0.126822050351177,-0.0442781967338322,1.45372536401387,0.437889347654558,0.326827178777456
57.91,-0.462555335588315,0.476742565056263,0.832849373948397,0.026534323218057,1.24075610690402,-2.88213887444215,-1.35237124670328,0.194707203301584,-0.0219953094138203,1.45641383820637,1.78582253277545,-0.534541759575684,-1.2049546116554,-0.573494288950667,0.935794724648306,1.21504212342552,-0.486420041569799,1.78551269883381,-1.00052517078696,-0.116185425851767,-0.0186672152653163,1.49668579077652,0.445368874678515,0.296331775744254
57.915,-0.505096649355199,0.39550730153204,0.82622469337108,0.0999535576217433,1.31499493799717,-3.07887971185147,-1.3342940147239,0.2373751327851,-0.0545306524612773,1.58878420967058,1.82352933106276,-0.477718163433926,-1.10559211232784,-0.798995566796086,0.703565650309326,1.3490724892451,-0.489029033746319,1.87648870827293,-1.01262911706706,-0.102216683440572,-0.00187479626930966,1.53683137308797,0.452054313308892,0.265772172297126
57.92,-0.551704346327999,0.469801726121387,0.847633513549582,0.171550145801299,1.38018252139401,-3.27726295211217,-1.35882920959444,0.223142227678976,-0.0764305278174758,1.71581824650484,1.85283928568471,-0.414578704342877,-1.06402594374365,-0.988382898866413,0.507973331434361,1.48019842146596,-0.492280491479069,1.95725554225708,-1.02424959011692,-0.102078510799097,0.0117085115570169,1.57349493791537,0.457701224921158,0.235450140829396
57.925,-0.615879073792423,0.462589873093727,0.843322784030445,0.240529250906634,1.4346139011773,-3.47442876136154,-1.37349667844905,0.175644192816157,-0.0978120158287763,1.83569167298705,1.87316386338534,-0.345266603439933,-0.97346354910214,-1.02831959003139,0.178712802436837,1.60686741022808,-0.495717450186194,2.02704660852255,-1.02770335482539,-0.122616093085436,0.0161439708118437,1.60611117099433,0.462060609820185,0.205617344408094
57.93,-0.634690384044917,0.318741312274907,0.85529180829659,0.306463038427918,1.47678349447699,-3.66699399330725,-1.35874924846083,0.0817748113554427,-0.141837811246143,1.94699732293813,1.88400485587174,-0.270004519098655,-0.976434792381526,-0.930111261119589,-0.117690860250268,1.72792592767737,-0.498879691187726,2.08530992499055,-1.02364192062331,-0.141378628185298,0.0108674356574625,1.63421049837581,0.464950309563416,0.176454167499232
57.935,-0.682449087910499,0.154316700092456,0.867880285164684,0.369430710172219,1.50549980726692,-3.85110291746608,-1.3200899992795,-0.0192768109940825,-0.192535155790771,2.04885296893328,1.88495916503733,-0.189046350052019,-0.940626643875283,-0.813138628175895,-0.238623336546197,1.84272440262283,-0.5013376835475,2.13173004830732,-1.01288323713042,-0.160014300021088,0.00346571407979924,1.6574036840741,0.466322667984799,0.148046314950216
57.94,-0.695538157533728,0.12529015670096,0.842747820480105,0.43011143221104,1.51994644617048,-4.0224807648913,-1.2960471625441,-0.0746908988396262,-0.234963628973618,2.1409347621348,1.87572925072479,-0.102641006163876,-0.979778492287281,-0.66259207336231,-0.122413671816706,1.95114621197224,-0.502725200358487,2.16622403466467,-0.99939719490809,-0.161713342736657,-0.0133167262815624,1.67539272311111,0.466241328268448,0.12040965308918
57.945,-0.655962213670582,0.217015489864756,0.826323209247747,0.489796406468722,1.51967965606075,-4.17655062874007,-1.30918613235917,-0.062003333409836,-0.251480568340697,2.22342300719355,1.85613747583639,-0.0110111481372882,-1.03672750831932,-0.610903580034931,-0.0886881190954974,2.0535498154762,-0.502755704405553,2.18891448795976,-0.98880413980027,-0.182754676447539,-0.0274495250621045,1.68799185797847,0.464814302613358,0.0935334801451437
57.95,-0.690877097282959,-0.0561257958549557,0.777947263708017,0.550289462542074,1.50459345659111,-4.30867373196309,-1.32533641119672,-0.0495388345826571,-0.257356729968142,2.29685956857624,1.82613092936709,0.0856539681347399,-1.07292530734022,-0.582292226676261,-0.07966935308846,2.15062686078335,-0.501209983687137,2.20009374271044,-0.972463617575512,-0.184701237583676,-0.0387471074841482,1.69512483418241,0.462176865963087,0.0673874270778242
57.955,-0.631215323476201,0.253387678098386,0.801289081901221,0.613750691377394,1.47489385877529,-4.41441988493614,-1.32622810265976,-0.00634871556841399,-0.271160362287698,2.36199136638826,1.78577893120873,0.187186368955571,-1.07604105296074,-0.540057982957865,-0.182784315886999,2.24324389337069,-0.497920142689731,2.2001889219496,-0.950491836750084,-0.204828151181529,-0.0424063929379849,1.69681752032294,0.458484745379275,0.0419262465466335
57.96,-0.676633627912618,0.356016605289869,0.772574908109124,0.682545872449109,1.43108737815336,-4.48979574370873,-1.27973899248239,0.0798379706872318,-0.260194865449,2.41966088112585,1.73527342188624,0.293417620938056,-1.06310926135031,-0.505785663449242,-0.169528842117747,2.33232662488821,-0.492763185876232,2.18973081107962,-0.933104405677413,-0.218744025687968,-0.0444173301820558,1.69319901156813,0.4538809462737,0.0171121121908087
57.965,-0.631262314416523,0.475281013536278,0.991312908221096,0.759053032669063,1.37395756931997,-4.53149166774623,-1.23388693609887,0.1414214630398,-0.182538591010645,2.47069258200494,1.67492280221853,0.404154625847387,-1.12699442678298,-0.527841138598373,0.0282205758350875,2.41874288113989,-0.485639940634947,2.16932946396693,-0.912623805370559,-0.225208189590284,-0.0599190113638302,1.68448527306299,0.448507745855138,-0.00710102861786207
57.97,-0.462730428582524,0.519235146404654,0.60598130147171,0.845473054077993,1.30456014835805,-4.53707145979097,-1.22080998131996,0.208795722818471,-0.233806041444552,2.51581654514619,1.60513908780053,0.519154408192647,-1.21924469185289,-0.740453749793214,0.124559580135799,2.50322013934735,-0.476461821527608,2.13966726978104,-0.909333733482737,-0.223502197422885,-0.057183109294192,1.67095863281208,0.442553936172527,-0.0307957381929162
57.975,-0.662653490143098,0.751012581064368,0.78016197458926,0.943736460353894,1.224256166913,-4.50501896452836,-1.16768251488545,0.274813134764055,-0.363166774440916,2.55569946915903,1.52643394892084,0.638108074752132,-1.19952065676696,-0.916852246643759,-0.427099894231773,2.58636208289995,-0.465174302382055,2.10150613593683,-0.903885948286748,-0.210387305363651,-0.0506746210343647,1.6529684401444,0.436260593519867,-0.0540685895378563
57.98,-0.795116573328702,0.840476823557217,0.668541888441999,1.05539237300542,1.13468668950597,-4.43479647047489,-1.04622108618817,0.353915677656209,-0.395166353840736,2.59096758812787,1.43941837728994,0.760626074862253,-1.13120032227103,-0.771171679304987,-0.738401982370941,2.6686578436894,-0.45177426082507,2.05568057105781,-0.903293703894346,-0.217899773454047,-0.0375714094901726,1.63093524846787,0.4298826317353,-0.0769868137045725
57.985,-0.81471176668363,0.900855788836732,1.07856642585566,1.18140270490398,1.03763710640441,-4.32699950045421,-0.959744342275837,0.355888368996409,-0.492835095217297,2.62215129419473,1.34479453502524,0.8862139759179,-1.15702194805632,-0.725135275748304,-0.785401910727941,2.75041921492207,-0.43629517741298,2.00306605412891,-0.904670679050747,-0.225736932225696,-0.0107810941559505,1.60534424715981,0.423633340331507,-0.0995610298568248
57.99,-0.786501333764322,0.832154230384149,0.959331994860739,1.32196381736554,0.934880584738552,-4.18347092868431,-0.924554181096737,0.373929052709112,-0.468096361943037,2.64964263496602,1.24334351896093,1.01425554832757,-1.15823867350399,-0.76795788037416,-0.829561874510664,2.83173444286907,-0.418790178282964,1.94454580596024,-0.903446571428093,-0.223699906567745,0.0144997252014956,1.57673193449028,0.41764337354922,-0.121727721587866
57.995,-0.762750302969736,0.826445222458203,1.32002034270612,1.47644786853789,0.828081317470326,-4.00726427327486,-0.870490322383669,0.400706409947452,-0.483602574956381,2.6737143597818,1.13591292672443,1.14401747599239,-1.13341779297255,-0.769719779343985,-0.866957141019202,2.91248684019478,-0.399330956844324,1.88099628760824,-0.907712827332151,-0.216464072257847,0.0374884537689161,1.54567331401587,0.411966765350586,-0.143343043905207
58,-0.774692451343195,1.0207837842892,1.69025235040755,1.64343347898145,0.718736803290321,-3.80248755146064,-0.851125481249023,0.405224077876246,-0.438019510653456,2.69455795405078,1.0234027186245,1.2746666007026,-1.07657273293676,-0.753559328806251,-0.863734515843684,2.99239659602381,-0.378012136410663,1.81328371902712,-0.914971468953447,-0.184194263229727,0.0695463178542051,1.5127814264526,0.406612573414502,-0.164192651436538
58.005,-0.657363802495077,1.73154846968857,1.55018421117128,1.82078028771066,0.60812041318665,-3.57410128682927,-0.78002031777712,0.382306656206588,-0.326609280401423,2.71230768206797,0.906748288876335,1.40528950041897,-1.03501724283015,-0.740026551301419,-0.858864087603452,3.07105283199805,-0.354951795995319,1.74225556123453,-0.934470756308109,-0.1533746882714,0.0981124997103835,1.47871445807131,0.401565253393694,-0.184010879112923
58.01,-0.282708489362686,2.24376443666115,1.20324783497391,2.00576679299997,0.497241982827531,-3.32767463839129,-0.789416449950001,0.33826568883763,-0.193460510777278,2.72707468122872,0.786902785163772,1.53491985335649,-0.946095537376799,-0.736825884072464,-0.847337865881301,3.14795886264805,-0.330296945245004,1.66873007126781,-0.958296053854125,-0.116632886764679,0.122782131504951,1.44417108891009,0.39680124509047,-0.202497154613762
58.015,0.0111000735184335,2.46389045534893,0.712476058894417,2.19529229527317,0.386831976635701,-3.06911065605815,-0.77459887100734,0.361605757252953,-0.0427044998718506,2.73899931952297,0.664821785224855,1.66257534974267,-0.886511542159075,-0.71511605516573,-0.833576570400131,3.22259840536687,-0.304236677426173,1.59348836765906,-0.985410403479185,-0.0911726045557481,0.13455568740567,1.40987189325076,0.392304275407761,-0.219321765687575
58.02,0.113465356076617,1.90055754210048,0.456241723033388,2.38604857476882,0.277320887081111,-2.80443803733944,-0.743587557129631,0.421424228341014,0.0190064520299129,2.74826239937163,0.541446642391233,1.78728897973417,-0.854363244069889,-0.684661581272643,-0.81321635448581,3.29446661088661,-0.276997800165629,1.51725552686429,-0.99702112952679,-0.0824489711870857,0.1395298489345,1.37653576085825,0.38806117118617,-0.234140770357574
58.025,0.114300904030759,1.4494025099545,0.5184300312205,2.57462190969491,0.16883826850725,-2.53968401211375,-0.724071053652402,0.485563957077745,0.0213089309810566,2.75503875392978,0.417681683536571,1.90812783758458,-0.835973857128508,-0.648977327412418,-0.802212687522932,3.3630494308797,-0.248815353613831,1.44067022786181,-1.00491421595573,-0.0808363102219112,0.135850177517737,1.34485696972967,0.384047572122886,-0.246638666229322
58.03,-0.00576285483625774,1.30510999058767,0.720517647984228,2.75762189798876,0.0612697977861762,-2.28070902829658,-0.694563114564587,0.488064495077326,-0.0336788334187387,2.75947315701837,0.294373235256184,2.02421212259319,-0.840438793786536,-0.573056888906491,-0.782701967947541,3.42782214130501,-0.219914481434819,1.3642667671293,-1.01180450598122,-0.063268981876321,0.125680060896516,1.31549038492819,0.380221472389683,-0.256563702516109
58.035,-0.0364649993941981,1.24040361323758,0.858668722338368,2.93187444083424,-0.045665594159482,-2.03298176560026,-0.678669994857468,0.473868331186024,-0.0738814508581072,2.76171152623181,0.172298511006415,2.13474173173044,-0.8492689054505,-0.486458985874724,-0.757828628379372,3.48829639666868,-0.190518463848201,1.28847545576563,-1.0228185822696,-0.0437670292018223,0.116273743986616,1.28903561923244,0.376528106736869,-0.263731271323265
58.04,-0.0306374486132984,1.16733816745889,0.931283847089012,3.09458815330421,-0.152360451446936,-1.80139904149007,-0.667269536847624,0.432215233292255,-0.0831457040309031,2.76192745745443,0.0521580252628255,2.23902178681383,-0.874386400259675,-0.417264038083516,-0.71258015257058,3.54406259367142,-0.160853746797014,1.21362429040026,-1.0466368504251,-0.0329604185967942,0.0936279223182913,1.26600344530516,0.372918548488915,-0.268029921441499
58.045,0.013332382388494,1.03576754886179,0.917748580083931,3.24343789958729,-0.259257941165332,-1.59019367137261,-0.679312163959431,0.396003849512773,-0.0668556963496116,2.76031402472655,-0.0654346869417293,2.33647793550811,-0.842547375502228,-0.338311173105996,-0.674442066608452,3.59479827085393,-0.131139634035842,1.13993811720644,-1.07166757628524,-0.0311778971786832,0.0789521743002019,1.24678118252071,0.369372075375512,-0.269441629333439
58.05,0.0442861764476652,0.828163499709954,0.887691070177629,3.37661255497139,-0.366768112172321,-1.40287245215311,-0.695894303437434,0.365474781912795,-0.028581324360596,2.75707955390133,-0.179958828665484,2.42666405743923,-0.836056650952414,-0.291294457388697,-0.646984652700641,3.64027437359016,-0.101582996064276,1.06754421863656,-1.09543082211015,-0.0420818005986822,0.0567029262974491,1.2316139680178,0.365899648828325,-0.268046707214579
58.055,0.0512826718492996,0.707141343331828,0.893449889987566,3.49288730059437,-0.475198635450317,-1.24212470996345,-0.721180820432823,0.315284087587958,-0.0206688030928243,2.75248120795468,-0.290977895318599,2.50927110918361,-0.815732090931954,-0.225132301664694,-0.634967135213401,3.68039108904519,-0.0723918351396859,0.996484797673291,-1.10493781253961,-0.050914136890568,0.0323826860045861,1.22058719505512,0.362515747481386,-0.264003407372926
58.06,0.0149057990504038,0.607233501937958,0.93381809435301,3.59167922130947,-0.584721619831777,-1.10974626220508,-0.741333571733893,0.263844813414311,-0.0269447455993122,2.7468617196218,-0.398124730966459,2.58413400986135,-0.782939538698905,-0.182726003436441,-0.602111631810791,3.71521429144064,-0.0437893973199356,0.926730934376635,-1.10251243542524,-0.0670287393406726,0.00849188049147318,1.21360931050788,0.359202144673304,-0.257521309947605
58.065,-0.0111526573769414,0.523972941877315,0.957741512776605,3.67301205351812,-0.695359750606257,-1.00665641983897,-0.756331846137241,0.193538192315435,-0.0402822289159871,2.74064081887095,-0.501093787154777,2.65122574385085,-0.734242458721944,-0.149201236836355,-0.590408182451127,3.74496820529197,-0.0160075846590459,0.858199472883875,-1.0871092549033,-0.080458659813788,-0.0197044307505891,1.21041328692271,0.35590399943963,-0.248843951075603
58.07,-0.0275196724485024,0.428119943667373,0.993599495404015,3.73741787672446,-0.806984038887664,-0.932983119189166,-0.774629323477646,0.113659610903286,-0.0507537965748392,2.73427889551337,-0.599636759726787,2.71064021424447,-0.708745268157069,-0.117291315477841,-0.550107926776506,3.76999905638792,0.010730939163609,0.79077761165563,-1.06708742878768,-0.101349572052781,-0.0356739900559531,1.21057640072625,0.352557193179945,-0.238236357629918
58.075,-0.0457342757765408,0.324894864527062,1.01851427344866,3.78584566362055,-0.919321526550698,-0.888150228045458,-0.789733328069253,0.0552228255507717,-0.054005336373484,2.72825677596393,-0.693550528953377,2.76257284061527,-0.711666084119727,-0.0878213836994008,-0.54105267915284,3.79074943325791,0.0362212279961762,0.724356936349519,-1.0444819224848,-0.115502950832496,-0.0421330736003874,1.2135508683015,0.349114417183359,-0.225962952590898
58.08,-0.0655012906310596,0.229236073362443,1.02515813150633,3.81959128918996,-1.03195226756947,-0.870945148590439,-0.820569679445976,-0.00466529933368882,-0.0525708019277093,2.72307779322228,-0.782662018597272,2.80730147680894,-0.722816144272336,-0.0882450182459936,-0.533669009139376,3.80774925672157,0.0602709750518839,0.658868063857963,-1.02383509422106,-0.132010440812221,-0.0382113259309373,1.21871254899194,0.345547917044184,-0.212251270425513
58.085,-0.0793218833339637,0.13187554864615,1.04109836419145,3.84018152916684,-1.14430530028529,-0.879617409612602,-0.844420915815906,-0.0603025102162886,-0.0575640930565386,2.7192310337867,-0.866832403763317,2.84516035641112,-0.733337966119318,-0.0782718642474063,-0.493447235680992,3.82157079111773,0.0827115289429013,0.594287095890059,-1.01269720289625,-0.143747689907101,-0.0219487675080752,1.22542397956111,0.341842904040023,-0.197284607728653
58.09,-0.109835081252323,0.0729906378624725,1.06667912034137,3.8491854782387,-1.25568667705681,-0.912047899375182,-0.85388748957361,-0.106169509262621,-0.0556667779957155,2.71708919359104,-0.945978515665565,2.87650495263382,-0.747849518716931,-0.0992451106424993,-0.475159035323318,3.83272611331712,0.103440763096494,0.530613524497585,-0.997604300486757,-0.18001940525133,-0.00953056917100398,1.23308324871662,0.338016791929266,-0.181254183150036
58.095,-0.14079518963124,0.0111880867262355,1.08745558390921,3.84808457182193,-1.36531331147919,-0.965887151206431,-0.866318272376384,-0.139907526443272,-0.0774562216856005,2.7168478965271,-1.02007256625379,2.90168430275084,-0.755564328598292,-0.114342858350236,-0.462694564486483,3.84160122642217,0.12244717174452,0.467866731653495,-0.980319495575372,-0.197701762875132,0.0139489047774606,1.24114589056777,0.334150020243725,-0.164401040404755
58.1,-0.161146774026544,-0.0516054267938305,1.10448652931774,3.83826845914072,-1.47232097419188,-1.03858729296035,-0.885784059856741,-0.154414396885284,-0.0858897313827694,2.71856176336299,-1.08911446657572,2.92102843823631,-0.768317294365315,-0.108066514058823,-0.436698010419312,3.84847456437752,0.139785475346199,0.40610768939903,-0.967950037211907,-0.203733264703504,0.0285607206427941,1.24913628436024,0.330382011208954,-0.146992045309132
58.105,-0.181257206461807,-0.10891500673865,1.11725255992877,3.82104491176582,-1.57577292858054,-1.12741606457306,-0.89475445122801,-0.168173366370699,-0.0936258214058286,2.72218705581629,-1.15311143187399,2.93483713215776,-0.777040780269894,-0.113073251714239,-0.423302988273003,3.85354069527255,0.155545441125651,0.345444361488359,-0.958609423316579,-0.206139452673463,0.038918549084446,1.25665949977197,0.32687408424899,-0.129276090586209
58.11,-0.2172222323123,-0.158705732237379,1.12813028553303,3.79760357882243,-1.67468335341098,-1.22951363692722,-0.918229554877568,-0.203697061036556,-0.105861538005349,2.72758239141438,-1.21207364722784,2.94336455031696,-0.777757641705354,-0.108772278910067,-0.401311017011689,3.8568983856518,0.169839972916563,0.286015225331891,-0.955592444185593,-0.213344837339046,0.0475755990535555,1.26340862973021,0.323774099487923,-0.111463063019878
58.115,-0.232522567142115,-0.189267952149429,1.13456068469865,3.76898620672878,-1.76803443587462,-1.34194628429509,-0.932436809958853,-0.216942843160592,-0.107589356774152,2.73450896082725,-1.2660095692796,2.94680790789111,-0.771677526346206,-0.103764298250966,-0.387272407594503,3.85854108729935,0.182795370568045,0.227975295402088,-0.947603778173242,-0.207201703438946,0.0599872723867852,1.26916327802062,0.32119688107524,-0.0937148554731132
58.12,-0.272029762442222,-0.238231395494761,1.1378388476658,3.73608055510071,-1.85477714483491,-1.46173654448384,-0.939924170149801,-0.229127475079702,-0.120037573564247,2.74264507673961,-1.3149185613237,2.94530145248985,-0.762996967166329,-0.102446168450324,-0.358533603798188,3.85836243082846,0.194535984162531,0.171488030837531,-0.937482525820921,-0.2044535997725,0.0803058117471339,1.27378580640232,0.319212034122462,-0.0761391573350717
58.125,-0.301551561141764,-0.276578072139096,1.14330280445363,3.69960295497799,-1.93382692763365,-1.5859005649913,-0.954960229888147,-0.229098417008136,-0.132533300974569,2.75158844838695,-1.35878954333831,2.9389101772495,-0.756807106846556,-0.0978925548123806,-0.349495976924569,3.85615210853283,0.205174339938402,0.116712635457332,-0.935581372013732,-0.19825458777352,0.0867425042516705,1.27722161258641,0.317831848040494,-0.0587950806549467
58.13,-0.333031730440847,-0.297780665629287,1.13533380249398,3.66007248015308,-2.00406901448439,-1.71149159992927,-0.961015170323673,-0.229595815791487,-0.14091756071395,2.76084624275254,-1.3976051407688,2.9276245509979,-0.751121613640058,-0.0953532976378171,-0.343678204892341,3.85158283310556,0.214807727755896,0.063787612678339,-0.934648161127329,-0.189346452474628,0.0938764265557604,1.27949310270632,0.317003055736707,-0.0417104273817057
58.135,-0.346956271546813,-0.303477730816613,1.13222072447703,3.61778816246139,-2.0643898699769,-1.83564616653297,-0.971184556229057,-0.228514700563646,-0.147036736471974,2.76982101282916,-1.43134579229328,2.91135804230906,-0.746796792284076,-0.092922038186925,-0.324754102094818,3.84419592224762,0.22351857581665,0.012816333445593,-0.955935448307215,-0.183068582205597,0.0964608964622533,1.28067943457771,0.316608836952433,-0.0249008196198244
58.14,-0.385302178896761,-0.327735882948695,1.11879343734035,3.57277995439906,-2.1137465136827,-1.95566935242256,-0.979001971588808,-0.208765188266469,-0.160626073144609,2.77777238620564,-1.45999360129738,2.88994224947172,-0.755172827026288,-0.0972092324077304,-0.255142230562671,3.8333660981048,0.23138654098925,-0.0361448276417827,-0.967548714715776,-0.174110861457834,0.0957442401597392,1.28089516398482,0.316482121414326,-0.0083868905782739
58.145,-0.413641479890644,-0.335678570749503,1.10514848920274,3.52477694597019,-2.15122421164595,-2.06910751281542,-0.987856125982936,-0.207913664665467,-0.163176939995234,2.78378938312916,-1.48353536559605,2.8631280562206,-0.762560622396213,-0.102782815786287,-0.273890767956686,3.81827783574069,0.238497308319786,-0.0830902760717591,-0.975920224610586,-0.172203072422803,0.0975100994168436,1.28027966839626,0.316421805265187,0.00779878666827401
58.15,-0.451011030030409,-0.33624133464497,1.1034852196005,3.47326175457466,-2.17603879305004,-2.17372481812133,-0.991663458305915,-0.206694980881467,-0.171803011546089,2.78682500507535,-1.5019645705417,2.83060398955999,-0.765635536197873,-0.097606709899503,-0.278232729707746,3.7979616575093,0.244927291158652,-0.128058691658238,-0.98151007073352,-0.170750313048755,0.0917082697862365,1.27899077506246,0.316199581166694,0.0236172321501945
58.155,-0.483385339772063,-0.329478582733574,1.10635359469231,3.41749408334911,-2.18758054738744,-2.26751554074259,-1.00092737776893,-0.206887381600027,-0.178530796938959,2.78570151011688,-1.51528777003806,2.79201000169185,-0.773506388509131,-0.0741793029346348,-0.268802902602357,3.7713041586988,0.250742116558945,-0.171131244873717,-0.99003538426722,-0.151786657490618,0.0896098101176332,1.27719667840098,0.315567208209763,0.0390191661381359
58.16,-0.504791945598396,-0.320947342024679,1.0870850399074,3.35642786956056,-2.18553413275417,-2.34884980444538,-1.01144887688417,-0.20697819862443,-0.181649375613151,2.77903303566161,-1.52353470482662,2.74693702724397,-0.792066702246124,-0.0574794809758628,-0.257259561431811,3.73698180345355,0.256030769365786,-0.212436686435595,-0.997717420035071,-0.134939287234727,0.0777183525904724,1.2750726602726,0.314285661413641,0.053932146631555
58.165,-0.517457485224472,-0.309151117424643,1.0428727537808,3.28871808441918,-2.16991090687086,-2.41654155454576,-1.0246457851933,-0.203300335056435,-0.18389731918836,2.7652257416489,-1.52676328472249,2.69494846560296,-0.817357600763673,-0.0354614454065979,-0.226377308671678,3.69346943722019,0.260912315304751,-0.252142244579658,-1.00046820669476,-0.144165804850021,0.0706372901478846,1.2728002861915,0.312160064303487,0.0682703118081524
58.17,-0.53173471323619,-0.297042830830725,1.0062576669774,3.21286394417499,-2.1409828328331,-2.46977524449022,-1.04497845696493,-0.213144105606424,-0.175539019276673,2.74258994471853,-1.5250603563497,2.63562575803288,-0.843492107258958,-0.0145690909446751,-0.187411975678858,3.63915496039592,0.265502182802726,-0.290433268513533,-1.00655197079536,-0.142334699356331,0.0659804219725938,1.27055935558136,0.309050978404874,0.0819577201218936
58.175,-0.544525296680761,-0.285601599435443,0.985136614346728,3.12729325147583,-2.09928279851132,-2.50809367982029,-1.04481473899091,-0.22343601037083,-0.17440111330879,2.70940360108418,-1.51854522150338,2.5686010479382,-0.86627359489711,-0.000371057456507337,-0.155173635850152,3.57240788628658,0.269900905962982,-0.327506241890194,-1.00405212459231,-0.150408982342347,0.0496204923166584,1.26851561042987,0.304868469714451,0.0949285882091107
58.18,-0.571456606032438,-0.272313092531793,0.981723158507286,3.03044055989934,-2.04562637810944,-2.53139269398513,-1.05072507258566,-0.228070552169522,-0.179706029201618,2.66396984829446,-1.50737053574574,2.49358799681552,-0.893692813599396,0.0223819337119181,-0.13289747721211,3.49164300314797,0.274190874166711,-0.36356825722972,-1.00177656136599,-0.145808442305808,0.0426176991679985,1.26680508082291,0.299557305933821,0.107113040145669
58.185,-0.598135735757237,-0.267108804601972,0.972292479433483,2.92096078377145,-1.98102996613213,-2.53977533433477,-1.05229284351254,-0.242351835108387,-0.186192088737904,2.60479134145321,-1.49171547344703,2.41043279318472,-0.908614706025496,0.0388761901503531,-0.116960848545587,3.39549495662891,0.27839563770038,-0.398821400358424,-0.993238048025643,-0.140458695038093,0.0334609404910446,1.26551234894414,0.293071356752461,0.118437216046693
58.19,-0.615843229745978,-0.264094506438929,0.94829090382641,2.79788289400895,-1.90663882167986,-2.53346672614606,-1.06519076966939,-0.255497667112994,-0.187236022671135,2.53071112365033,-1.47178112165204,2.31914934668709,-0.918236893849939,0.0626484321315874,-0.0920610713991417,3.28295883090063,0.282453556395337,-0.433444151630333,-0.984750662440082,-0.136640409811724,0.0355702103387729,1.26465634780736,0.28535760978376,0.128829350374145
58.195,-0.621838283934779,-0.265313167739354,0.919126911288537,2.66053268678588,-1.82377598667675,-2.51295571543393,-1.07180941531821,-0.268447697592742,-0.184705175772422,2.44087543046184,-1.44779414707458,2.21991349639094,-0.925252891911688,0.100118289358823,-0.0818179101563491,3.1533584594978,0.286253667377925,-0.467587345704658,-0.980735601723655,-0.136591666089444,0.0275971803091651,1.26419696135311,0.276370056865736,0.13821453617233
58.2,-0.624413978478535,-0.276645048409263,0.899060245932348,2.50845623056191,-1.73396802050971,-2.4791124919354,-1.08276586531404,-0.282260225297726,-0.184750802248266,2.33469489088102,-1.42000779198411,2.11305675225491,-0.919446236668941,0.140069435341531,-0.0624332295429855,3.0063119094698,0.289671003295127,-0.501368455157219,-0.97525139587266,-0.142016823458086,0.0199590572583381,1.26405047935861,0.266096821456588,0.146511410068836
58.205,-0.632994803686258,-0.287097148608126,0.889595666181094,2.34156888740438,-1.63883611852527,-2.433051927773,-1.09302281016775,-0.303505721288951,-0.185407767341007,2.21198123499355,-1.38869016552097,1.99908855826641,-0.91201704629057,0.197473720914779,-0.0377593715769042,2.84186315108656,0.29254159596662,-0.534848832463352,-0.963767351514071,-0.16416211476548,0.0247546393904359,1.26409200356744,0.254561629901757,0.153643888290063
58.21,-0.650587648536824,-0.290187052400058,0.886095017117581,2.16033362302053,-1.53999408971934,-2.37595027298744,-1.09783330600256,-0.31842727933191,-0.179600158883916,2.07310180499913,-1.3541085006888,1.87871047044154,-0.916337179170286,0.254544686245735,-0.0338097325607533,2.66062785378093,0.294629865114915,-0.568012705141764,-0.958212923878848,-0.174253777728708,0.0267886998774889,1.26414767102023,0.241798086081944,0.159555741703362
58.215,-0.651913923474278,-0.306584877511509,0.874034340559521,1.96573101426376,-1.4390707904555,-2.30905381373581,-1.10200433955634,-0.347505309351282,-0.184660543749903,1.91895959304946,-1.31652269906021,1.75279299856905,-0.906225806778144,0.309747710894066,-0.0146873206756553,2.46377007355348,0.295650599989233,-0.600767400518816,-0.965270684072235,-0.174214255622962,0.0349185024570723,1.26399530109852,0.227838698811751,0.164213594633791
58.22,-0.639452907492094,-0.32905231105568,0.844298754233238,1.75920462570506,-1.33772361135551,-2.23369030964048,-1.10243896040778,-0.372767285915417,-0.179145588319467,1.75094509167016,-1.27618198969936,1.62234950785088,-0.934335138998112,0.363563699446143,-0.00702649770981906,2.25295202338936,0.295298387157169,-0.632946279740083,-0.962214107474893,-0.16016305051391,0.0376459538039029,1.26337252407222,0.212725157355542,0.167608652504339
58.225,-0.601579945980211,-0.366651741650061,0.770639837101502,1.5427956397628,-1.23751336831278,-2.15107379271953,-1.10191321595239,-0.40022767427348,-0.151318294390345,1.57103747916987,-1.23331482195028,1.48853304880095,-0.945947632282899,0.420337687246047,0.0156278364341916,2.03042667914558,0.293227783731413,-0.664292151203087,-0.970547322579111,-0.156412003497874,0.0373503077706494,1.26198328148836,0.196511197450038,0.169775471691183
58.23,-0.527176156432387,-0.451006578787503,0.610216856806874,1.31921637078637,-1.139795024358,-2.06215148604451,-1.10645356750558,-0.415568179305754,-0.128922283673729,1.38185224088892,-1.18812520186527,1.35261536043346,-0.947508249641709,0.460422654620224,0.0225948189144426,1.79907599955607,0.289043475077334,-0.694454482936201,-0.95852179956213,-0.162573480846517,0.042801252613094,1.25950593578871,0.17926204471281,0.170801424289387
58.235,-0.536806670833924,-0.453379587599976,0.577843137646474,1.09162008096513,-1.04578165027208,-1.96773146347437,-1.10590886553751,-0.417955635278313,-0.118086182172998,1.18642964924796,-1.14080714637706,1.21592287068169,-0.922953756281928,0.492556425015584,0.0165650782667158,1.56219750428913,0.282360005442383,-0.723036239748593,-0.961864468385413,-0.168378615575514,0.0483312131177274,1.25560519612367,0.161065309515667,0.17079163107473
58.24,-0.632952690939272,-0.354197600904611,0.679180425385363,0.863338230532419,-0.956623264831764,-1.86863369711778,-1.0899561811971,-0.417736128540925,-0.138875604367245,0.987985552308934,-1.09156078945716,1.07977656954805,-0.924252752920152,0.530468773521699,0.0232197205814273,1.32325531085629,0.272866861207901,-0.749649010940587,-0.958126166187515,-0.142798794784465,0.0655863579978748,1.24994411194689,0.142042808597711,0.169824226909207
58.245,-0.751930231718454,-0.248891863487848,0.818595768383582,0.637839551701155,-0.873344394145761,-1.76562521385791,-1.05154727233311,-0.428579496652842,-0.195444657153667,0.789841803274226,-1.04059565066668,0.945466518190598,-0.95430818983924,0.536542439556555,0.0316021474614603,1.0858057792293,0.260337816671908,-0.773930193981236,-0.954894473922614,-0.13707857689062,0.0688624521773566,1.24219689086828,0.122358139287455,0.167939090171665
58.25,-0.785430460714776,-0.223295723339138,0.839297679034264,0.418748076074606,-0.796741861058333,-1.65930478616004,-1.00140019930293,-0.434005306793912,-0.227329568951365,0.595410830896208,-0.988128917136404,0.814234702946598,-0.96243198179275,0.551686752293526,0.0571749310287702,0.853475585437661,0.244621038955545,-0.795541271492626,-0.959044500832275,-0.13955160417887,0.0656237536664464,1.23206544322838,0.102229453863003,0.165141259183951
58.255,-0.741913900801997,-0.300127901094862,0.706960913328195,0.209783453106913,-0.727326351420485,-1.55007881826798,-0.993769244208884,-0.439312405905635,-0.221680527769299,0.408130864909921,-0.934384953146879,0.68725028847246,-0.948382195936465,0.501232954412013,0.0929055840205357,0.629891954829086,0.225638569342221,-0.814170913722063,-0.958893908212673,-0.144036149668584,0.0705597019912997,1.21929687362148,0.0819295461531924,0.161399780455304
58.26,-0.683115585876241,-0.343818281027217,0.580692239671774,0.0146953733396972,-0.665255975529939,-1.43816646556244,-0.990232367875478,-0.422728979347552,-0.206477819780163,0.231422248727886,-0.8795921517534,0.565586887185348,-0.924363670960871,0.457099343159869,0.116773476283227,0.418633029461219,0.203374856841844,-0.829540520127313,-0.960763944163691,-0.141218854649112,0.0741075123390117,1.20369756415477,0.0617301878850204,0.156654123722377
58.265,-0.615779201775643,-0.184124902399773,0.574585745182969,-0.162830550037359,-0.610278623567797,-1.32363479066784,-0.985620747142643,-0.378809533560184,-0.214475547647131,0.0686351749771269,-0.823979675993293,0.450200484223956,-0.917140676200458,0.384219663380327,0.116444231059234,0.223170847348994,0.177864803147192,-0.841413220312628,-0.962029170730675,-0.12742993499738,0.0751948124594103,1.18514630196402,0.0418292832513484,0.150827053031969
58.27,-0.789954873161716,-0.0844718878807024,0.826541721208991,-0.319413542161281,-0.561782884889043,-1.20653570595932,-0.947779179187751,-0.300739216970638,-0.270618938961739,-0.077143810221854,-0.767782053554947,0.341901264312963,-0.904178060156433,0.308391947088455,0.10067704671893,0.0466811158019145,0.149221591478782,-0.849604482964284,-0.951807442561054,-0.117217383639249,0.083036076450348,1.16361201808056,0.0223826640487407,0.143827099420995
58.275,-0.857801810650513,-0.568506490700502,0.895264053779948,-0.452290276547177,-0.518934371981507,-1.08708610309047,-0.9078296494484,-0.24948518815287,-0.28229319663153,-0.203363887844354,-0.711248635619588,0.241331185461616,-0.864016635901847,0.211464065899198,0.104835744335681,-0.10821991971026,0.11768627626715,-0.853982202904533,-0.963080384051113,-0.10563877425373,0.0900280252985596,1.13917332079246,0.00362749714330853,0.135542840787072
58.28,-0.849433148807822,-0.886408286799001,1.15407172350858,-0.559504877405028,-0.480771194864408,-0.965767190615994,-0.89719118724192,-0.251357006018277,-0.278682215038008,-0.308157939096106,-0.654648015025582,0.148961021830712,-0.826909369811958,0.123414456061465,0.137253601131343,-0.23961853460768,0.0836402780855159,-0.854457401036112,-0.961888960896351,-0.090821702285035,0.0878930419039181,1.11203122970997,-0.0140651392099367,0.125846637168774
58.285,-0.79850106355562,-1.51625868741715,1.44853497684799,-0.639963598244458,-0.446245750138706,-0.843355426866031,-0.91972566252638,-0.255400825194675,-0.222342390275123,-0.390344501802907,-0.598263200656678,0.0651006531127177,-0.765835645433513,0.0850279787993285,0.129920377767357,-0.346306122796274,0.0475770324587453,-0.850975093137857,-0.965879594689485,-0.0837467749204596,0.0822784174233056,1.08251288193727,-0.0302548107264431,0.114612707510736
58.29,-0.534440053132401,-2.19939752415997,1.36484733989713,-0.693458209835088,-0.414287378284126,-0.720956891488324,-0.939426853200499,-0.323241811279202,-0.0863064093024762,-0.449400718819538,-0.542379767291846,-0.010088995841355,-0.727017369636901,0.0244090284692216,0.0989594143421121,-0.427752963516477,0.0100698605675473,-0.843505242905068,-0.979058157043394,-0.0503492727341091,0.0804819201306985,1.05106947301302,-0.0445150971604735,0.101739846976994
58.295,-0.438012107824998,-0.736546330496281,1.52978593068185,-0.720689526844164,-0.38389561581378,-0.600026766778406,-1.00196637455392,-0.473916767692944,0.0694971016401606,-0.485463705899589,-0.48727797042042,-0.0765853811432765,-0.657398682770188,-0.0627056765013931,0.104993600009631,-0.484108014067507,-0.0282482773139682,-0.832040188342057,-0.988634034103468,-0.0317442560349073,0.0769221417677164,1.01826931024923,-0.0564723562077949,0.0871681587026119
58.3,-0.407696235995399,0.741390883497848,1.44971345142497,-0.723235874565027,-0.354208471023608,-0.482307664952425,-1.05866355351771,-0.566624658012047,0.187566457112672,-0.499319941392277,-0.43323700791469,-0.134490430553405,-0.649855339686705,-0.153495554577046,0.0734647551795611,-0.516185574403134,-0.0667047187156874,-0.816606555253025,-0.999748603732149,-0.0107290264571482,0.0708740504920597,0.984785559153024,-0.0658220964926292,0.0708896978089418
58.305,-0.292595678245125,1.48522946077619,0.969164883793095,-0.703403204932014,-0.324507209961009,-0.369675195466815,-1.09600810197176,-0.631038033181667,0.263366128759886,-0.492310479212563,-0.380540215192799,-0.18400964388894,-0.697099347103218,-0.263207728852052,0.0166765428752161,-0.525369328366281,-0.104622702863527,-0.797280262438235,-1.00442900634108,0.0121420398104631,0.0633343077043952,0.95137949046314,-0.0723693249098941,0.0529631067500256
58.31,-0.25205402735003,1.27873384418098,0.858810529467214,-0.664005975478607,-0.294195637154541,-0.263957647384826,-1.09199320286227,-0.575034547948566,0.231362514636762,-0.466188968285897,-0.329468721899916,-0.225430188402971,-0.73716524020807,-0.341176186032233,-0.011058176630711,-0.513470061832908,-0.14136013195128,-0.774188904113752,-1.01927872507734,0.0410222490719143,0.0699730590624548,0.91887389998087,-0.076052021129058,0.0335279355919664
58.315,-0.549154999580159,0.652350210116733,1.01711028416464,-0.608128595164289,-0.262780398736516,-0.166753038254272,-1.03235188697581,-0.435625339209797,0.111389373559143,-0.422983628520992,-0.280289148211319,-0.259101036789912,-0.819149539241164,-0.413939535650691,0.0451442665315951,-0.482586477221215,-0.176338578201314,-0.74749943019325,-1.04738646938838,0.0615101898473259,0.0637081552659696,0.888113006968044,-0.0768914463080784,0.0128068826819848
58.32,-0.733529669891345,-0.216902846020655,1.08669648664835,-0.538849404676824,-0.229829422551652,-0.0792357449558248,-0.955685789434115,-0.250578664499995,0.0145813383516451,-0.364825723163352,-0.233248202884868,-0.285416600959833,-0.902356509227291,-0.490726013210705,0.167609412204127,-0.434934475521724,-0.209079563961492,-0.717415671837167,-1.06459371864753,0.0990881633796358,0.0514119303604909,0.859923727448507,-0.074976994405058,-0.00889333584733328
58.325,-0.749369863288466,-0.758907567908032,1.12019824628705,-0.458990849880359,-0.194943135683799,-0.00201576501460451,-0.948179328787713,-0.116164396959787,-0.0695076485624327,-0.293784470896244,-0.188570748165841,-0.304808778624695,-0.970537060069595,-0.55294105026844,0.283217712937383,-0.372684341984708,-0.239240406447715,-0.68419604495491,-1.06589737748659,0.121193914865594,0.0500674172511505,0.835086071290076,-0.0705311224335754,-0.0311776070362381
58.33,-0.697163471408312,-0.64332483748098,1.0443432090968,-0.370996335243223,-0.157789662386425,0.0648967843273492,-1.03176115622584,-0.0683630797978725,-0.10034698994534,-0.211810703650157,-0.146449382176045,-0.317746770316692,-1.04103239116454,-0.596949734515511,0.409896610521101,-0.297903354626836,-0.266617780855923,-0.648157950179345,-1.06371651481425,0.147517291918031,0.0482352920557711,0.81429846469574,-0.063897692384205,-0.0535738789037808
58.335,-0.771382439402834,-0.229269421225129,0.931543699534666,-0.277085602652234,-0.118243634047596,0.121919411238103,-1.11289337347984,-0.0222890241757827,-0.120142862554793,-0.1209000132787,-0.107043525464147,-0.324754779388545,-1.06510282236291,-0.54265743113342,0.452765530112193,-0.212713492643351,-0.291104531194912,-0.609687243687197,-1.05467910755818,0.154689192224014,0.0423202783925699,0.798140498041897,-0.0554502931919086,-0.0755659099187987
58.34,-0.73356151810495,0.25457291710509,0.78240256145281,-0.179628783687173,-0.0765826159414919,0.169542927132049,-1.17371860461045,0.0579617630558078,-0.119997560429527,-0.0233998992105973,-0.0705009600691258,-0.326441247290376,-1.11098838818558,-0.497349691995761,0.449484402414599,-0.119591101301616,-0.312623925699809,-0.569284740669005,-1.06600389715092,0.160952122163232,0.0316364807218507,0.787050125669735,-0.0455646878932817,-0.0966263758762702
58.345,-0.711237233060235,0.572214431963603,0.767205155752475,-0.0812442866913828,-0.0335278440662414,0.208164890430141,-1.27361690256519,0.233970292784412,-0.132142095085078,0.0779362259354242,-0.0369727031584844,-0.323493730922754,-1.22920571731699,-0.50191486078226,0.464295963531392,-0.0214159095976762,-0.331106779155607,-0.527589898465286,-1.0694661264269,0.16266078046415,0.0196543030982155,0.78130847625409,-0.034638542003651,-0.116237832696486
58.35,-0.515279520992362,0.775380406985353,0.966302875657821,0.0154876270294654,0.00991623921877429,0.238211345607506,-1.44051104474035,0.51457759794262,0.00296507475434279,0.180225718941997,-0.00661009700516202,-0.316635103860565,-1.28898645980223,-0.464697183843351,0.49830368906614,0.078806721028622,-0.346520654639843,-0.485353474789314,-1.0815061315895,0.163671945624158,0.000696428581105339,0.781018088322938,-0.0230831948162803,-0.133922266500812
58.355,-0.311348680717199,0.445870353299414,1.07955473195749,0.108247434177952,0.0526131691968906,0.260218253423804,-1.49713932916204,0.660662146954011,0.144780567760016,0.280694776671202,0.0204474357066424,-0.306589794773712,-1.40129296802633,-0.450227541029963,0.440412661938874,0.178183798537051,-0.358889828108954,-0.443393661364593,-1.08577449200299,0.141168277537848,-0.0165457050534788,0.786086016998116,-0.0113007408489723,-0.149283762354745
58.36,-0.196376881113694,0.0091297614298816,1.20027473818774,0.195025425222728,0.0933782856384959,0.27478779274668,-1.60457139408538,0.663564024940847,0.233961053184025,0.376785480486301,0.0440969615058932,-0.294071452727517,-1.54932035923856,-0.452293346147048,0.378600183902212,0.274040857540055,-0.368293070848904,-0.402532533828756,-1.1120943334705,0.11657133900488,-0.0367740876199859,0.796222489340622,0.000351109152258618,-0.162031249031381
58.365,-0.250640161567126,0.00864083047819444,1.13447398519143,0.274199334956253,0.131106442772516,0.2825986181042,-1.65654824810112,0.497741485768615,0.239519599847281,0.466289930835982,0.0642875884053261,-0.279767073657647,-1.71338373011412,-0.433962208433202,0.388753184054022,0.364054504649935,-0.374869212485175,-0.363526803958674,-1.13433984120076,0.101067954641438,-0.0571061995346884,0.810950227613664,0.0116110406450076,-0.17197913755035
58.37,-0.400462923363344,0.206574762646362,0.995052198210921,0.344662817490192,0.164926208755251,0.284506908420037,-1.54769903344939,0.143737894564483,0.156691075581905,0.547508036167776,0.0810120545131341,-0.264316318433302,-1.8812207569717,-0.400504037582557,0.425741340209985,0.446408719119407,-0.378833118169125,-0.327029349006111,-1.14827653568114,0.0719818390201185,-0.0719581805060675,0.829634931785495,0.0223218287440384,-0.179041741599557
58.375,-0.502425180273161,0.344278480929656,0.875226115744159,0.405885022040974,0.194261477820721,0.281599726652302,-1.29467210560851,-0.24039980720419,0.0381966405924069,0.619323885459033,0.0943014530899668,-0.248300644286084,-1.87259262977892,-0.346682938049073,0.419245534061414,0.519870018500413,-0.380480555176517,-0.293571845589243,-1.17322028313521,0.00853278965525074,-0.072447112924939,0.851533554889092,0.0323796405138561,-0.183220629676549
58.38,-0.504813317505305,0.312381766600937,0.838225389448823,0.457821417778927,0.218786087459762,0.275103399711781,-1.083484837592,-0.438951384968814,-0.0111234385807171,0.681152362283394,0.104230925939163,-0.232241136350557,-1.72664021510507,-0.287600315035486,0.400845571674256,0.583735430808022,-0.380166245329668,-0.263555734379183,-1.20398655035253,-0.0458532441180257,-0.0715038901121014,0.875828814180927,0.0417034862073759,-0.184600155221231
58.385,-0.484998922672485,0.150939121410778,0.866337292665534,0.500749589938442,0.238363325864847,0.26622507163573,-0.868930419153607,-0.486410770017032,-0.07019210099128,0.73282634279888,0.11091756390191,-0.216594557248994,-1.49307628436544,-0.276983683349285,0.347966268242296,0.637723963980657,-0.378269271901723,-0.237255230348345,-1.22869556338156,-0.0874001785023854,-0.071430295918215,0.901652561137467,0.0502406813488926,-0.183355699457902
58.39,-0.50637351946004,0.0928797170144866,0.877098067939529,0.535187423483473,0.253037922593998,0.25606353336616,-0.792720683847598,-0.414617601696226,-0.111695236929089,0.774551757439952,0.114516213138175,-0.201743334262939,-1.18448705805051,-0.303751747232382,0.245616170475645,0.681934863118295,-0.375174816708819,-0.214814363291065,-1.23965719099326,-0.133917253020636,-0.0851813169413639,0.928121431769455,0.0579587428359727,-0.179747072362649
58.395,-0.508375924621311,0.144514116806929,0.853214278337499,0.561908821676757,0.263055136512267,0.245607659082576,-0.794199559727298,-0.260755128008783,-0.136980201432806,0.806930831897423,0.115226722685045,-0.187985177777245,-1.06291568676538,-0.286325155850304,0.158556130809063,0.716871292020362,-0.371273314436831,-0.196228656281587,-1.23205641993125,-0.175364327458881,-0.0916470064298281,0.954374638879469,0.0648262583604628,-0.17408763289553
58.4,-0.518742302448753,0.247155347467485,0.834288312751222,0.58189224570164,0.268830615551336,0.235712179420873,-0.824356496109124,-0.0939854239716556,-0.150493744078116,0.830904130590902,0.11329524638928,-0.175532815060791,-0.822494825814443,-0.324443751958676,0.049862753685904,0.743383648456458,-0.366948718189024,-0.181349445080054,-1.1856712688861,-0.211315296540789,-0.101575444531177,0.979596405270284,0.0708054964815847,-0.166716292200402
58.405,-0.508148912918364,0.341350980425751,0.810683176689807,0.596167129075746,0.270874917987473,0.227023958630433,-0.873528545128259,0.111535260856832,-0.163323677067417,0.847588367573913,0.108995608517512,-0.164523704041541,-0.666104812078143,-0.40036711024588,-0.0566517410969747,0.76251084842946,-0.362551768968974,-0.169926639649472,-1.13591403217815,-0.236238958979976,-0.112303100531419,1.00303433442544,0.0758442274665803,-0.157984315936359
58.41,-0.490054274759812,0.354067949063128,0.81714317877788,0.605697085457307,0.269735469280042,0.219949512297036,-0.917814619021321,0.246743301791279,-0.161959444437654,0.858138530267021,0.102608619425447,-0.15503117536027,-0.632167631179566,-0.333279281732162,-0.121153065538887,0.775344983378714,-0.358380899678411,-0.161651993112504,-1.09176213022272,-0.24047043417048,-0.121284341673432,1.02402603370046,0.0798642243186872,-0.148240287467595
58.415,-0.485178970556722,0.293963725498284,0.832226060641998,0.611314244831816,0.265950013466017,0.214654279766064,-0.977976267182815,0.362949810477596,-0.177626325619842,0.863653695892693,0.0944118065918199,-0.147075884131088,-0.589069514951126,-0.238942669221401,-0.203942658761977,0.782937954978303,-0.354671873543294,-0.156184985296088,-1.06544962802607,-0.240026095415277,-0.112889484192735,1.04202528243242,0.0827661053416624,-0.137811815711283
58.42,-0.497543348940977,0.251572561790435,0.845554362438769,0.613718690030817,0.260019215295169,0.211093356390945,-1.00222961507386,0.441748344164605,-0.208712763879821,0.865148586385747,0.0846803385447639,-0.140636094030212,-0.618297353707973,-0.0892940541901362,-0.253759936496264,0.78627146697953,-0.35160088571066,-0.153157382853438,-1.03830156710778,-0.226183147990786,-0.103840087988936,1.05662871489426,0.0844398732944196,-0.126978924819124
58.425,-0.503904139204004,0.263454004233599,0.841128275746692,0.613557198384462,0.25242531258266,0.209113164714239,-1.02002394988381,0.467051869937402,-0.24284952936089,0.863599410471803,0.0736902061910412,-0.135655216955546,-0.718977785895026,0.0629878288963632,-0.256508747858807,0.786298908101387,-0.349304591327123,-0.152170315728675,-0.999854273740188,-0.205436259988823,-0.0828538533785619,1.06760462652256,0.0847586098792656,-0.11594341297551
58.43,-0.495221556145184,0.279641288508006,0.832295454667204,0.611401780069244,0.243629451053607,0.208505423322033,-1.04216074374187,0.448632002041496,-0.255673263198534,0.859896365776792,0.0617042510181311,-0.132054653830321,-0.88385148547713,0.176624729758517,-0.277686067967616,0.78389654727917,-0.347882566199203,-0.15282690661587,-0.966554631255293,-0.194915601173514,-0.0664382262878678,1.07490288740321,0.0835776234969179,-0.104833016529281
58.435,-0.477788035116733,0.285397958923275,0.83470731555718,0.607612631563821,0.234017156558869,0.208956889864544,-1.02368052522472,0.397916598117084,-0.259235051449263,0.854697820865854,0.0489522807446319,-0.129751623746815,-0.991206534899285,0.262866038808746,-0.304490497718996,0.779719387142907,-0.347377619381408,-0.154778805634955,-0.936803758991636,-0.165060622792258,-0.0536624618359042,1.07864499920513,0.0807632591861913,-0.0937307391872717
58.44,-0.470611004174626,0.293856853302982,0.836159223268446,0.60228889330379,0.223863136875364,0.210022395702736,-1.01413965196466,0.298721923177319,-0.247726391984564,0.848375840578651,0.0356294719892294,-0.128670378299176,-1.07421232473616,0.330071792554284,-0.326821256066892,0.77414618323265,-0.347770649245553,-0.157733854817552,-0.906815979431253,-0.129056662141715,-0.0549516775272237,1.07911406215351,0.0762311319364618,-0.0826832275482397
58.445,-0.460250976366485,0.296425605669645,0.828315182890519,0.595355528133371,0.213353713271039,0.21119004362011,-1.00608165210635,0.215572569461885,-0.240326258222279,0.841089058042584,0.0219073589555091,-0.128742486889749,-1.11800381488517,0.347554389895031,-0.335796064344055,0.767349218933434,-0.348998024056185,-0.16143672222106,-0.885568283104757,-0.0842058079302084,-0.0582484667324086,1.07674617171139,0.0699644336252147,-0.071692854385079
58.45,-0.460004119763024,0.308258566743314,0.831180155399497,0.586739289438077,0.202656416017993,0.212018900711419,-0.990652594737072,0.157665521988435,-0.230855174756958,0.832937541519944,0.00794884851277955,-0.129897219215655,-1.11150548870613,0.337642772629305,-0.338054464529837,0.759445226682376,-0.350981937732359,-0.165645619841748,-0.870649296449424,-0.0419559254380368,-0.065712198791434,1.0721201069881,0.0619966427095311,-0.0607147069055238
58.455,-0.453461637693199,0.31510726907661,0.831805220068845,0.576540267992258,0.191987355406116,0.212266031626074,-0.981152596222486,0.133487627069362,-0.229174033033724,0.824120128504025,-0.00607817484422252,-0.132048933243896,-1.09730545036745,0.305689094284867,-0.331267744097009,0.750649430331421,-0.353659107934333,-0.170113046523899,-0.862125418088949,-0.0128109936512359,-0.0837584104297347,1.06593598059059,0.0523877300672883,-0.0496592245230093
58.46,-0.450194897782714,0.306543222781558,0.828409273254196,0.56501136565392,0.181597397160751,0.211869857329632,-0.978398734018431,0.11968918561526,-0.219636493430781,0.814920248569546,-0.0200076523859313,-0.135097288619949,-1.05112072094255,0.26635765837445,-0.306639761098412,0.741261883690141,-0.356978384831812,-0.174594008278442,-0.862182449684844,0.0232214875677048,-0.092392306246114,1.0589652927649,0.04125362009761,-0.0384057433112796
58.465,-0.449195647316971,0.298524961268788,0.827449641183089,0.552384434222228,0.171694111338749,0.210820013509381,-0.976095091476333,0.120067424394643,-0.210603187683778,0.805551435918332,-0.0336966184774857,-0.138940142929341,-1.00768785611849,0.204169625178,-0.27328874473027,0.731516057157318,-0.360874406462981,-0.178877374819205,-0.880564284109484,0.0604476579110621,-0.100731657947163,1.05199053673883,0.0288138520664051,-0.0268285429654133
58.47,-0.456807948900078,0.304402393677051,0.83161187818513,0.538797714943165,0.162396489057933,0.209079993764979,-0.984773577662604,0.107325182329845,-0.19013662886833,0.796100975994629,-0.0470290182586974,-0.143480317735935,-0.985227839518246,0.139658914890183,-0.249946996067022,0.72152299236612,-0.365258736084057,-0.18280010830533,-0.892028871516721,0.103276944502086,-0.0921763660977545,1.04576643014505,0.01537561085297,-0.014816729587915
58.475,-0.447973793187036,0.294722035193271,0.827229745388032,0.524342602894815,0.153738699714849,0.206589660195757,-0.991022287907965,0.099397860771759,-0.183425891617987,0.786585767029883,-0.0599054569615032,-0.148622820954374,-0.971405610712453,0.0760143512412458,-0.21692939510444,0.711325437644315,-0.370030104126492,-0.186240054296087,-0.918970031945881,0.129419510123632,-0.0868438547193505,1.04099304164678,0.00129150511255662,-0.00227812320410898
58.48,-0.455930200455685,0.279846270461259,0.842719997328068,0.509081681812928,0.145680265473286,0.203273591389723,-0.995883135243699,0.103929713737201,-0.173410643415585,0.776974404101066,-0.0722438330845268,-0.154273243281888,-0.987989703540796,0.0417743171345046,-0.188348822606678,0.700919393962998,-0.375079070668448,-0.189115207269277,-0.946343998834743,0.130730263420372,-0.0808139258893009,1.03828539781848,-0.0130480123506019,0.0108560782275779
58.485,-0.458021543765925,0.271149391681231,0.84134946006043,0.493034556054002,0.138117838615375,0.199046827165984,-0.98827627400392,0.120962331852131,-0.165214440071346,0.767173392592824,-0.0839883367581681,-0.160338392349812,-1.02860137999475,0.0179470387723206,-0.15982615217264,0.690240798617995,-0.380286876107946,-0.191392927643697,-0.967776518517268,0.119581200513957,-0.0658171489081339,1.03815090280896,-0.0272164512429197,0.0246137235516268
58.49,-0.454859501508057,0.263555052832301,0.83650218285164,0.476185115665906,0.130906933488785,0.193832411400254,-0.992463637534596,0.138736901537648,-0.163403719490406,0.757034489347794,-0.0951143363102878,-0.166725092496721,-1.04603442305123,0.0206386194073092,-0.149450258820512,0.679172978211458,-0.385527453061361,-0.193095645478269,-0.989678239500267,0.113598192705718,-0.0485366408700934,1.04097785197657,-0.0407711442368101,0.0389604542638942
58.495,-0.461144258023901,0.263956979899052,0.838263478670177,0.458507417310271,0.123886915167337,0.187577359369268,-0.995080770943314,0.164590010545443,-0.164884688074621,0.746385440932879,-0.105627350265603,-0.173337675141668,-1.06748758116716,0.0326961821638569,-0.128972527348793,0.667576872046401,-0.390673198687403,-0.194298230814637,-1.00843476132413,0.116594042350977,-0.0328530923126971,1.04702381497072,-0.0532776151645728,0.0537871526664159
58.5,-0.460280431779862,0.276902802326794,0.844144525497555,0.439996150970721,0.116904094594573,0.180258716514746,-1.00413469444686,0.188315508787611,-0.160869988848326,0.735071725901342,-0.115557426447966,-0.180076520640877,-1.05343390803146,0.046560646443759,-0.113559817447463,0.655331490933519,-0.39560352633689,-0.195118001783215,-1.04118808638949,0.110970679878279,-0.0164659541434071,1.0564022825059,-0.0643339017671247,0.0689108999172328
58.505,-0.459406505517247,0.276879254149095,0.842937584806253,0.420696795215136,0.109833337025743,0.171887911877542,-1.00265117688071,0.22043730376028,-0.151464081650602,0.722999764623417,-0.12495158732223,-0.186838379113519,-1.07979779859491,0.0618059761816958,-0.0976957584864513,0.642375289697255,-0.400214858134074,-0.195699855449997,-1.06197469630412,0.0988837679820005,-0.00809662461656543,1.06907638091098,-0.0735944497843802,0.0840876389792337
58.51,-0.453614720654009,0.269556458891448,0.84701820945884,0.400742242365341,0.102606082898744,0.16252814439486,-0.996483764407241,0.231009887740596,-0.146042368986134,0.710183493008856,-0.133866660489104,-0.193516768686832,-1.0757371757043,0.0367082900498945,-0.0916243085490063,0.628750784255707,-0.404431507111335,-0.196197493150807,-1.09083816558052,0.0784230202566689,0.0120449462052526,1.0848669467286,-0.0807883800863754,0.0990321656233575
58.515,-0.448539490543813,0.274670541731488,0.842448491299525,0.380400739976191,0.0952509800913321,0.152329441783171,-1.00053979645936,0.22534047321366,-0.137415038841883,0.696798155919529,-0.142361411211864,-0.200000975891407,-1.02695793027121,0.0472532749737484,-0.0912443588412649,0.614656509697435,-0.408216798075017,-0.19674744697294,-1.11452362680124,0.0668309367346066,0.0257911108333666,1.10347598669431,-0.0857205815746445,0.113441584548755
58.52,-0.454382452158534,0.287314586590676,0.840210751291192,0.360088644777626,0.0879119159744514,0.141545751986608,-0.990154298139944,0.216614118517681,-0.133287595400733,0.6831928346352,-0.150489032116306,-0.206177245760179,-1.03421449316751,0.0604776217652677,-0.0759778552438696,0.600458753416865,-0.411574978447671,-0.197442137984099,-1.13655432664989,0.0549181019010759,0.0334527587500979,1.12451842944689,-0.0882425653667215,0.127010370000704
58.525,-0.441556663071768,0.302215530656763,0.834123551280945,0.340298359852109,0.0807976327307469,0.130491776359415,-0.988674866969944,0.215350209298006,-0.13965820115859,0.669811855104721,-0.158294225187264,-0.211937178319185,-1.04426622891795,0.0775841327136209,-0.0812864001543781,0.586613795377319,-0.414536573230147,-0.198320729054504,-1.16081047789069,0.047054621353471,0.0396480013973729,1.14755059427522,-0.0882162654939691,0.139427651659311
58.53,-0.451889129406441,0.299493926782994,0.833281652654389,0.321502638857867,0.0740999706188231,0.119472033378146,-0.976476485339159,0.222865057356268,-0.1492129039379,0.657095050804278,-0.165813436336714,-0.217189454814698,-1.02836362413643,0.0917122426679461,-0.0963673200368158,0.573568882345046,-0.417142427674336,-0.199379311142353,-1.17155854884192,0.0537991419927923,0.0427288178925011,1.17209164442929,-0.0855215131058519,0.150375585091902
58.535,-0.452913984498092,0.297592462649271,0.832283793103594,0.30412902512296,0.0679561308786215,0.108750011384532,-0.969863574206175,0.224983943111333,-0.152826386345104,0.645455756868283,-0.173073422647056,-0.221865736538888,-1.01524593874208,0.0993764012833464,-0.0956667973220312,0.561739427974013,-0.419443068541552,-0.200581420315402,-1.17209425108807,0.0715732725566258,0.0359767894451279,1.19764425090182,-0.0801046533976393,0.159547642977959
58.54,-0.451348040010251,0.30205994781123,0.832259246320168,0.288593885530275,0.0624603768689718,0.0985651185535174,-0.965711651939896,0.221391183019278,-0.156478305251653,0.635317984422975,-0.180089147316023,-0.225918612844133,-1.00129520443795,0.0994672284791149,-0.0947573126027003,0.551545288108864,-0.421506197664599,-0.201861529802887,-1.15933559863795,0.0721223891322378,0.0354779166431192,1.22371952077144,-0.0720178606511155,0.166672618854936
58.545,-0.450683395612489,0.310198717556309,0.830810818040069,0.275330763970376,0.0576883642855365,0.0891538967914983,-0.964216535270614,0.205933770046104,-0.156532176117217,0.627144916059358,-0.186862885046258,-0.229317252579482,-0.992486836593164,0.0739126220954504,-0.104746168894194,0.543439391555393,-0.423419781972447,-0.203126073559927,-1.14245833387749,0.0633803124816777,0.0385696014742169,1.24986431820745,-0.0614296074733245,0.171531350638713
58.55,-0.456010422103963,0.30056157469486,0.831734043900416,0.264769713156925,0.0537133772050085,0.0807300514998679,-0.973588341590202,0.195479040038153,-0.167338240305023,0.621425138081376,-0.19338167395148,-0.232047820481175,-0.988366963748639,0.0629973314233324,-0.103263948437005,0.537894414791819,-0.425287969972851,-0.204251271613562,-1.11778712193805,0.0708429103994052,0.0420520670692678,1.27568563075377,-0.048615744920311,0.173974818249181
58.555,-0.455320112313448,0.2973405630615,0.833100535708732,0.257271779991778,0.0506052460082631,0.0734286327137089,-0.977117641990012,0.185164425091859,-0.170291662461053,0.618616754020972,-0.19961419348613,-0.234118850148475,-0.984682420369315,0.0442530866761232,-0.106665729517126,0.535347519675328,-0.42722074880097,-0.20508416767133,-1.10372864176379,0.0635921291407619,0.0394384341077366,1.30086737013541,-0.0339376027015076,0.1739401943619
58.56,-0.449228660022778,0.300669112104396,0.827838167256042,0.253071309826577,0.0484087444685832,0.0672790619821884,-0.987794862078103,0.169854931227487,-0.16251190215987,0.619078518664999,-0.205519022643397,-0.235561643957592,-0.980912601723125,0.0126245476276075,-0.116413832292301,0.536134036154637,-0.429318865477434,-0.205467269341883,-1.09626833976811,0.0611260779897105,0.0407608230069524,1.32517369869332,-0.0178100936287575,0.171439935188806
58.565,-0.449517042259091,0.300486961331705,0.827061125731671,0.252251358284289,0.0471097508813804,0.0622264929811754,-0.995545469064615,0.154491752591308,-0.163223026575293,0.623011518493526,-0.211069140709193,-0.236420807708176,-0.975248195610253,-0.00828568623589663,-0.118596798785417,0.54043419735062,-0.431656670570382,-0.205286809961924,-1.08689640719804,0.0605733970004207,0.039843009602675,1.34843570398573,-0.000662659565028673,0.166520487442831
58.57,-0.453402499973434,0.294454960427295,0.832843655147616,0.254740835973373,0.0466145771256705,0.0581575475203805,-0.985814546027635,0.137906822221088,-0.160623537100819,0.630431787771131,-0.216267602329048,-0.236746308568981,-0.9614274601023,-0.0229823631751247,-0.120687039938575,0.548249162054528,-0.434272495977983,-0.204502429708739,-1.06811237467159,0.0686755635355659,0.0512314500962254,1.37053648844433,0.0170801523618043,0.159233088024607
58.575,-0.451034484177202,0.287440173401047,0.835709901621802,0.260358462124735,0.0467674787556058,0.0549377089731618,-0.980710954021199,0.130528168145338,-0.156073246281107,0.641213129306651,-0.221132635164163,-0.236595250862271,-0.959516875046893,-0.0391592087483151,-0.109935636823206,0.559441567208256,-0.43717875890255,-0.203129620170632,-1.05262216098302,0.0639107039952684,0.0570927580828243,1.39141035592996,0.0349708252887388,0.149654290244555
58.58,-0.452700504019234,0.281124874597463,0.833549869876189,0.268904995404653,0.0473952637761701,0.052484201887112,-0.973196381824443,0.12480536389262,-0.149078026707919,0.655182558091736,-0.225676182153502,-0.236033611415668,-0.968406757367601,-0.0615628549487447,-0.104370730846943,0.573826663761177,-0.440383510665238,-0.20120806866921,-1.03188050037138,0.0583650510292387,0.0538197728652594,1.41104071302056,0.0525104078198834,0.13792655398426
58.585,-0.452418499395478,0.291621613994267,0.828939723509337,0.280219014170899,0.0483419268662918,0.0508126360414705,-0.968659036850276,0.128894605762932,-0.150423467737649,0.672175459758183,-0.229902353770991,-0.235131062331957,-0.97169890392484,-0.0734918224091715,-0.106100211577672,0.59122682864371,-0.443899529407019,-0.198791911556601,-1.01719286148487,0.0545123958303029,0.0515800261093048,1.42944143451869,0.0691796051803224,0.124261592127967
58.59,-0.452448606274274,0.291403115642885,0.832090746367266,0.294146095413159,0.0494724599474659,0.0500064296795206,-0.973907592008993,0.140730059808056,-0.140587510371071,0.692008774696567,-0.233815426022587,-0.233956827814619,-0.981369625124762,-0.0735115117637843,-0.0930575118027245,0.61144694346,-0.447735781036415,-0.195953726684831,-0.995677785591063,0.0473219054223111,0.0434884071872647,1.44663733440799,0.0844987173268757,0.108908063411451
58.595,-0.456660562490524,0.288943816725452,0.831237834600856,0.310474009605644,0.0506560766944327,0.0501566268292742,-0.970261959247196,0.156375189216183,-0.135712516324423,0.714423375756362,-0.237425148733799,-0.232581572008597,-0.989442245940267,-0.0735059422084816,-0.0866432885287741,0.634218368392973,-0.451886431005674,-0.192787462255476,-0.971897280313001,0.0425039628429678,0.0430113835415716,1.46265738494839,0.098063984882572,0.0921249408005611
58.6,-0.446693489430297,0.294909804395682,0.828511357237679,0.328890631690514,0.0517496416900028,0.0513229321659374,-0.964946877189107,0.16984050727984,-0.125359300908036,0.739047561356381,-0.240750633002862,-0.231081230031814,-0.989836803588336,-0.0781957767288658,-0.081563659336523,0.659162713868394,-0.456326953285789,-0.189408215492915,-0.959338113733523,0.034208907086969,0.036650865354918,1.4775354017779,0.109561282865776,0.0741734942207678
58.605,-0.44584050975486,0.29361940001916,0.829183993678771,0.348968369463281,0.0525879185048099,0.05351261473798,-0.961413949528633,0.17891999681515,-0.125166393576959,0.765386935502776,-0.243822297465352,-0.229539667359809,-0.99563546233118,-0.0827623027230976,-0.0707115098302342,0.685781356801962,-0.461015352033834,-0.185948666879014,-0.9462772326543,0.0317957871940073,0.0374198869320592,1.49131202271842,0.118771422248201,0.0553165638704319
58.61,-0.443361153097553,0.293975205073958,0.83260472308001,0.370162381855135,0.0529787285325628,0.0566663085524107,-0.968357100600233,0.175661949730437,-0.113127443039929,0.792827995618467,-0.246680643950041,-0.228049860179865,-0.994255512880873,-0.0859648241800113,-0.0788001791821507,0.713458535136363,-0.465894569584906,-0.182553308038973,-0.947682658665394,0.0250590037972053,0.0376932221323163,1.50403563288621,0.125569927106871,0.035817836154204
58.615,-0.429437501177081,0.303438052423038,0.848100112899258,0.391816779234918,0.0527018233960885,0.0606480675457545,-1.00152904210101,0.143525431951203,-0.137117808934607,0.820648399089352,-0.249372686246756,-0.226713240628899,-1.01207434973763,-0.0845909478927196,-0.0832979483023172,0.74147133095074,-0.470894123543332,-0.179372709292748,-0.940166429491084,0.0266402686285715,0.0407798407097221,1.51576137359849,0.12992150050995,0.0159393172976826
