Header,foot_Accel_X,foot_Accel_Y,foot_Accel_Z,foot_Gyro_X,foot_Gyro_Y,foot_Gyro_Z,shank_Accel_X,shank_Accel_Y,shank_Accel_Z,shank_Gyro_X,shank_Gyro_Y,shank_Gyro_Z,thigh_Accel_X,thigh_Accel_Y,thigh_Accel_Z,thigh_Gyro_X,thigh_Gyro_Y,thigh_Gyro_Z,trunk_Accel_X,trunk_Accel_Y,trunk_Accel_Z,trunk_Gyro_X,trunk_Gyro_Y,trunk_Gyro_Z
67.755,-0.642364641657206,0.519949595386872,0.86956625516334,-0.0196868536807093,3.43003778322194,-3.68391601609498,-1.39575525417663,0.135689578724062,0.0762173178178266,0.835564088254932,2.18883185496624,-0.545448243142218,-1.1488111290538,-0.223628126174601,0.134161589891316,0.508983703927748,-0.411662579592548,2.34738073164147,-0.915402191551995,-0.168986636206742,-0.0533878817265262,0.84861205490697,0.295964766487126,0.175810027027474
67.76,-0.64463244249141,0.479265000794259,0.941843143710592,-0.0349180244690409,3.18007583843825,-3.8128034165328,-1.37906778279059,0.191215543028495,0.0101075502492163,0.883576978907947,2.11737694266745,-0.469775575438972,-1.11554596000512,-0.13843257229747,-0.0331979432460944,0.577676064606296,-0.411851646107285,2.41021082959899,-0.889204896769142,-0.193891617749954,-0.0883354488598421,0.884562265880103,0.298642847255603,0.150020623537174
67.765,-0.736863342134945,0.266838493633107,1.08654256452797,-0.0503851425419474,2.89076580666745,-3.9275207539449,-1.32633011100168,0.289133117757723,-0.0838541558897209,0.928875457972071,2.03449652239114,-0.387074146499188,-1.12592888599869,-0.0944225371572022,-0.154853123073126,0.648003562227223,-0.411017871889733,2.46259290463769,-0.86633933156518,-0.221232402213131,-0.122796047339675,0.918011079642371,0.297668024535479,0.122658534251844
67.77,-0.909584830214693,0.227800462336783,1.205754029755,-0.0634453392762621,2.56756310572514,-4.02444536472445,-1.20873745352609,0.402227650962702,-0.234862073022069,0.971133765157382,1.94055279470041,-0.297724245102926,-1.15570992581539,-0.128739010059284,-0.272745436010871,0.719731764577918,-0.409134245399275,2.50447632490134,-0.850728209922345,-0.248373300241269,-0.136311206169397,0.948145478776327,0.293058360246164,0.093562779207693
67.775,-1.16097673640336,0.427279528617135,1.48797084156488,-0.0712973969326322,2.21701055557534,-4.10023094229676,-1.12161714500905,0.457780446987889,-0.340390134945359,1.00997746705502,1.83602325705458,-0.202231901437469,-1.16809870349056,-0.183160355024641,-0.349808752629784,0.792512123672907,-0.4061399746581,2.53598512271586,-0.823828395116117,-0.283317966230551,-0.148390526161659,0.974239369007733,0.284954880026678,0.0626127816603912
67.78,-1.33412398614678,0.615035665989429,1.87829800158606,-0.0711713486653737,1.84648781004275,-4.15194996306653,-1.03225432662565,0.474677974553006,-0.394155812852421,1.04498746343687,1.72148439391201,-0.101222562198804,-1.2287924760648,-0.279518232298545,-0.402229476092987,0.865883828805818,-0.401933051454907,2.55740362349644,-0.800038434605876,-0.307984538975789,-0.139540647761568,0.995662308253146,0.273623142911988,0.0297205546844287
67.785,-1.49518518071948,0.881525762243821,2.54033878158034,-0.0604500496524075,1.46392563835007,-4.17709579438276,-0.965193740369966,0.399898975807939,-0.572243051594116,1.07576244532933,1.59761115503106,0.00457306061243812,-1.20078057015426,-0.372167368927592,-0.457585309076673,0.939325433138829,-0.396396786430398,2.56917044999051,-0.780790256436148,-0.327345048205578,-0.120121687624512,1.01191532552356,0.259441309614809,-0.00512458888232285
67.79,-1.31529373879071,1.41607243980891,3.6796850284798,-0.0367769148549862,1.07747063353343,-4.17356205066639,-0.927506201473125,0.250183462543912,-0.735798317569981,1.10197959657884,1.46517794785288,0.114341587896079,-1.20433052756391,-0.423351221855885,-0.487322472539885,1.01230805843012,-0.389427738383923,2.57186731044653,-0.779460926946331,-0.328688606152669,-0.0913948410975863,1.02266936691763,0.242884366714564,-0.0418186558452469
67.795,-1.54735079935199,0.838106608560647,3.88688882924077,0.00183058939394179,0.695121685411053,-4.13966251741136,-0.931616466054878,0.110179859245674,-0.799753414897743,1.12343206323029,1.32505178038207,0.22721675477218,-1.18807167900891,-0.448286023701507,-0.457358905028567,1.08433398698094,-0.380952636894104,2.56619738582705,-0.789841906904833,-0.315730772038587,-0.0536830271641389,1.02778650546806,0.224510771691975,-0.0801377372481934
67.8,-1.01161199188141,0.587604800344047,3.15440131840077,0.0568715322212271,0.324368610831701,-4.07420161858779,-0.996336908206758,0.0101834367552418,-0.568601600132506,1.14004854192472,1.17817968996314,0.342311970146394,-1.1853357670925,-0.458563217417321,-0.420307594015299,1.15496406900079,-0.370937669021757,2.552951230624,-0.798574893293903,-0.291938207552909,-0.0259565588804217,1.02731859635401,0.204937499480272,-0.119746521589928
67.805,-0.330328554962866,0.496680433483085,2.07104381257885,0.129270421504062,-0.0281372237282104,-3.97657499860161,-1.09022136528076,-0.0650513244420386,-0.206286629228416,1.15189807487642,1.02557245517708,0.458752100605249,-1.21602895656064,-0.461895060079978,-0.414290892104852,1.22383541455378,-0.359391790874763,2.53296490170018,-0.835732558302064,-0.250556544663404,0.0115974631163671,1.02148802312055,0.184801358168657,-0.160210857789036
67.81,-0.0881852669446068,0.551407213140744,1.32294528736872,0.21932817907734,-0.356845338351464,-3.84685110796838,-1.09526576770919,-0.0184910470070765,0.0640076552676745,1.15918669253897,0.868285215286415,0.575703288719953,-1.23448468471084,-0.471039886968409,-0.428872926466129,1.29067399789628,-0.346367412566204,2.50708292155471,-0.866250755472577,-0.19752675868008,0.0341288186844726,1.01066428126268,0.164724702277921,-0.201016436599194
67.815,0.00257301258109506,0.636132012487474,1.02187142024286,0.326719214857955,-0.657484660760695,-3.68581809111709,-1.07309421643326,0.0575276745393595,0.10483672555835,1.16224658296273,0.707396050125109,0.692398026889703,-1.26780482771019,-0.483449441172678,-0.462507311823686,1.35530106658898,-0.331958751693202,2.47612947898532,-0.905403038236438,-0.13803435588477,0.0609621847653,0.995342556209207,0.145289091951652,-0.241593607410738
67.82,-0.065014938077305,0.781132634364365,0.795976738279796,0.450521459475801,-0.927157311064352,-3.49500616416742,-1.03437665665106,0.0999372981912799,0.0802083788502458,1.16151389264869,0.54398307335506,0.808152308712775,-1.34981842261348,-0.497745144056373,-0.500427329339115,1.41762862107945,-0.316295133508422,2.44088374604813,-0.953270337621495,-0.09787094381021,0.0882063962082961,0.976121421198086,0.12700838277953,-0.281346419045716
67.825,-0.208241093781805,0.897764607330898,0.755462473864044,0.589277362148395,-1.1643415318487,-3.27667632778811,-0.917815207557807,0.0750100562887547,-0.0122536457971188,1.15750203230696,0.379099286672295,0.922374501946633,-1.38326875733497,-0.509024181538197,-0.533662169226378,1.47764786436497,-0.29953343753136,2.40206196185002,-0.998852563320972,-0.0577753906139253,0.105087646621144,0.953682706633178,0.110307085642561,-0.319680352945702
67.83,-0.299253131258902,1.01622822530223,0.814297047333702,0.741086731185783,-1.36880313617992,-3.03376720497015,-0.799598504004933,0.052553072455445,-0.105080599686032,1.15078242821253,0.213745700852073,1.03456785340115,-1.39208974244575,-0.514827912736539,-0.562886898976699,1.53541895177178,-0.281857086926376,2.36031018372298,-1.0503177461052,-0.0198682811069703,0.119902747460552,0.928777390106522,0.0955120433731191,-0.356021133987644
67.835,-0.347684452775504,1.1463438285512,0.850232209266456,0.903723279455574,-1.54144466963813,-2.76981044746474,-0.70323024866103,0.0437675225776072,-0.169580284348799,1.1419771064798,0.0488484672037874,1.1443288356549,-1.38534156312535,-0.485201003191332,-0.581560745695207,1.59106610570978,-0.263482885498575,2.31620295775737,-1.10281819580634,0.0129923077097378,0.129711601308397,0.902211912291212,0.0828449018090684,-0.389816657184734
67.84,-0.29443200549914,1.20142823628483,0.811828869109417,1.07476782634353,-1.68412793819072,-2.48881919609513,-0.645800255430967,0.0559806712335711,-0.199984037459957,1.13176146037162,-0.114753842020562,1.25134386805114,-1.35461306207353,-0.447699554264143,-0.568845957817761,1.64477906316678,-0.244672385576761,2.2702433687514,-1.13710944465375,0.0335316995361684,0.130301998326861,0.874829105585751,0.0724068338503091,-0.420519128811935
67.845,-0.225681350530209,1.17575775505795,0.731841593066425,1.25172427304484,-1.79949146963944,-2.19516867138016,-0.620091853792158,0.0603791073400015,-0.185398884418814,1.12085171280896,-0.276318914388035,1.35538355775534,-1.28723169933652,-0.383601842094276,-0.555283578664075,1.69680430192497,-0.225729118683336,2.22286000955096,-1.14509538560754,0.0602160391293759,0.116923587730966,0.847475660889408,0.0641716624620601,-0.447588356210317
67.85,-0.156330906180297,1.14117909619431,0.6417063291965,1.4320762624977,-1.8907773878982,-1.89349806227018,-0.633241734733512,0.0753832792250377,-0.142412677117504,1.10995001454106,-0.435216496219548,1.45628872760518,-1.22746897644145,-0.357931030840662,-0.547838245415546,1.74740500079738,-0.20696448069189,2.1743971130329,-1.13662472575855,0.0818233282349881,0.103072078136848,0.820951637680631,0.0580004475968093,-0.470557186390172
67.855,-0.106680822088576,1.10003963748495,0.569917608079773,1.6133229171773,-1.96165165901709,-1.58860297244189,-0.661684278873641,0.100764326976479,-0.133565030217133,1.09968650981227,-0.59094424753616,1.55394939676497,-1.16424927064306,-0.31772852903795,-0.536203414267274,1.79681493642917,-0.188661762537421,2.12511266644235,-1.12335162536577,0.0941125091526579,0.0680409346701757,0.795967868600683,0.0536718408240596,-0.489096008752306
67.86,-0.0712940728542345,1.05064772408688,0.535916735466812,1.79304844278566,-2.01599809639155,-1.28527998696814,-0.67260013436568,0.163319164861803,-0.122509338970801,1.0906054712242,-0.743129400985961,1.64828502153109,-1.0831452710716,-0.285028702203134,-0.516223360503346,1.8452209710118,-0.171070639838643,2.07519801536757,-1.10967753600893,0.088915484191958,0.0438342039368762,0.773133800797832,0.0509187573151866,-0.503005851628793
67.865,-0.0723544849660296,1.01747571701471,0.53890089601289,1.96899490603988,-2.05772002133346,-0.988158913770639,-0.672710161630554,0.216457288447127,-0.127249847700134,1.08316707131467,-0.891521060241026,1.73922815221197,-1.04193190809243,-0.276419541142359,-0.500968691317813,1.892757614424,-0.154410478967342,2.02480302404099,-1.09665775135884,0.0630211215615389,0.00437061164805582,0.752953147953387,0.0494658407280409,-0.512187287669269
67.87,-0.122274594604632,0.960434247073612,0.624319480807442,2.13910213400108,-2.09058792675584,-0.701565259042647,-0.644743179743748,0.293324948589173,-0.154768945264406,1.07773238452797,-1.03598368949984,1.82671087957687,-1.0009108603566,-0.276786362883417,-0.484463357146718,1.93949318143086,-0.138859056251805,1.97404814906393,-1.08976796131841,0.0414670813091928,-0.0169250807357422,0.735803260747764,0.0490613896415566,-0.516641341385578
67.875,-0.165921597423454,0.917990210074699,0.703162361903094,2.3015302182872,-2.1181288459315,-0.42941265074448,-0.633135529200122,0.314335437585042,-0.172350367954352,1.07454671165815,-1.17648725597171,1.91065461952358,-0.995500382930085,-0.287492026562247,-0.486042047669767,1.98541741113634,-0.124538141565457,1.92302488469938,-1.0598289660706,-0.0185104135330633,-0.032011759458498,0.721911668771149,0.0494869010034327,-0.51647872256415
67.88,-0.191644006597144,0.86384446569029,0.754358537849244,2.45467731738401,-2.14354386383972,-0.175121507406875,-0.610422922932812,0.298033758015211,-0.184432238662289,1.07373503906356,-1.31308695749709,1.99096189885445,-0.987616855753392,-0.296763956275663,-0.47038020879529,2.03043806144613,-0.111507054943092,1.87179244573873,-1.02539188110474,-0.0955549339767448,-0.0255563719709381,0.711350630248844,0.0505343293885639,-0.51190651892608
67.885,-0.21400433081506,0.79600098344156,0.790962235136006,2.59718658712713,-2.16963310713665,0.0584338067775021,-0.635947545104431,0.250890881182986,-0.161592175211601,1.0753039318466,-1.44590112742833,2.06751341692426,-0.992716105192917,-0.3123797647083,-0.466390603761433,2.07438452993399,-0.0997597693130518,1.82038103734155,-1.01524308266376,-0.110531604829768,-0.013927705875528,0.704044435978654,0.052004720805172,-0.503206858380669
67.89,-0.209012112713284,0.687416787736548,0.81209199461535,2.72794083717036,-2.19871234841608,0.268954137501708,-0.642917560359627,0.202845104216925,-0.150656834367988,1.07914585977457,-1.57509717242162,2.14017363823165,-0.962727995728986,-0.352054134297366,-0.46969501510576,2.11701747195904,-0.0892225494096834,1.76880793152159,-1.00891639148924,-0.0987826927147087,0.012412810814882,0.699777040587948,0.0537775019407661,-0.490728687720871
67.895,-0.209102096731686,0.565054985088913,0.831381809777971,2.84605873021476,-2.23255407335547,0.454726480268386,-0.675162803632199,0.162521706181502,-0.140882268211569,1.08505289627212,-1.70087565573734,2.20879893926352,-0.970451769930828,-0.359642168869386,-0.440073890586011,2.15804484614324,-0.0797589908578175,1.71709023256917,-0.999319696387047,-0.111075225856112,0.0259291083026812,0.698209071426212,0.0558673213859644,-0.47488086639184
67.9,-0.2216203262436,0.457360990497851,0.870088734831789,2.95090936226403,-2.27238129599599,0.614624797162792,-0.689929960003366,0.108148970362791,-0.138220706257882,1.09274807940406,-1.82344221457496,2.273245167175,-0.945485040662589,-0.369309192123328,-0.435415985539094,2.19714806920492,-0.0711886693672258,1.66523881455344,-0.985223469548042,-0.138818324920853,0.0545193755762041,0.698914424909576,0.0583840088808414,-0.456110450098563
67.905,-0.243934128270251,0.363553891135984,0.932956322414883,3.04214182807529,-2.31889131344632,0.748104816216145,-0.721870074778574,0.0410194050600174,-0.1315325562886,1.10193087615453,-1.94297588542506,2.33337886316768,-0.916899390587138,-0.37703717426252,-0.437774856717197,2.23401895071019,-0.063315273550473,1.61324406729648,-0.973958151382849,-0.159675355038192,0.0666920365392424,0.701427112214871,0.0614486552355008,-0.434874934133367
67.91,-0.243952829113277,0.313753379742444,0.964124417946304,3.11970890576846,-2.37229450659118,0.855179794056072,-0.743904320276809,-0.0083535454460375,-0.12613430733068,1.11232343785869,-2.05960463554708,2.38909157518699,-0.884028781067572,-0.372351023804536,-0.408219596698859,2.26839855425053,-0.0559547498282414,1.56106602261658,-0.946048530212606,-0.161462112441622,0.0923136697434082,0.705286830962623,0.0651286705699043,-0.41162053518803
67.915,-0.22432127224938,0.253557898708396,0.972544226735949,3.18385338669768,-2.43239576113908,0.936342816486404,-0.766831144927256,-0.0478735776465063,-0.122258575702066,1.12369594422416,-2.1733910493642,2.44030845375845,-0.863280658553962,-0.365043874555376,-0.400575039977155,2.30009870192825,-0.0489500631075006,1.50862769505255,-0.923136395259449,-0.154136347700082,0.119504403699938,0.710081346053676,0.0693911538982682,-0.386771414540418
67.92,-0.213601496738394,0.179933296142788,0.981804624960262,3.23504643512976,-2.49873108083456,0.992419197291224,-0.791296687347487,-0.0983291508026278,-0.102746064576455,1.135862746231,-2.28432514231382,2.48698652522663,-0.819722351730225,-0.339749045830003,-0.388364520672927,2.32899814211404,-0.0421676244061462,1.4558129010592,-0.900325813141687,-0.14607765798676,0.144297089406425,0.715484746317638,0.0740698127219725,-0.360727718775348
67.925,-0.222412925835914,0.0692384749300536,1.01191070412222,3.27394769086627,-2.5706768455303,1.02444196865236,-0.812616141827417,-0.133178048146163,-0.105072345314811,1.14869285611454,-2.39231709582462,2.52911742719779,-0.834706727370775,-0.302977798731986,-0.41284297958833,2.35505079264998,-0.0355022546465604,1.40247847324929,-0.89390512192008,-0.137955328966631,0.156774059128665,0.721281643337915,0.0788527659919496,-0.333855926509005
67.93,-0.243245120052422,0.00458507293148876,1.05008007504376,3.30143125415057,-2.64745575165964,1.03363968504283,-0.849189301721117,-0.177765268843614,-0.113444198192855,1.16215807829043,-2.49719487189002,2.56674587871416,-0.799742317121501,-0.319151320391632,-0.433961174173762,2.37832812557487,-0.0289040542213801,1.34847944196505,-0.887939277226282,-0.134241000267925,0.159316613781591,0.727365779732267,0.0833011035989495,-0.306473585253984
67.935,-0.272707160704513,-0.0494524629223855,1.09113785316017,3.31859820796941,-2.72810972152059,1.02145340387829,-0.855627580570027,-0.219969482507007,-0.11562254232334,1.17636374442475,-2.59871930041622,2.5999865608482,-0.788324798221241,-0.273176886821943,-0.414585266573652,2.39904914522531,-0.0223929350611014,1.29369132958626,-0.887893348684446,-0.131351828404947,0.159090188871548,0.733715810727626,0.086898366208031,-0.278850482726568
67.94,-0.311775086416842,-0.110368258356226,1.13720433630781,3.32671545511797,-2.81154190076865,0.989479383528201,-0.877870526042479,-0.283791387095824,-0.137137069868546,1.19152365860838,-2.6966123596218,2.62902254541673,-0.77054112615296,-0.264338860107523,-0.416858983042602,2.41756232013536,-0.0160384752221716,1.23802298285075,-0.892434349902799,-0.136292873064059,0.162770663190976,0.740361632823611,0.0891141600665215,-0.251225861602014
67.945,-0.354731932629668,-0.174966923295163,1.18102055118015,3.32710842239657,-2.8966235938737,0.939353368141216,-0.891028753972739,-0.319258574506164,-0.148874481191949,1.20789598674593,-2.79058721138019,2.65408992934984,-0.75666359159025,-0.230650286330561,-0.420819901134762,2.43429276724128,-0.00991605332025507,1.18142197817589,-0.897692628432331,-0.143519361126573,0.156630188044551,0.747349258600017,0.0894679717533947,-0.223837255593419
67.95,-0.405930973571456,-0.242135602039787,1.22845901493246,3.3210790092878,-2.98227117214812,0.872666641749346,-0.912961966978232,-0.345015169493892,-0.157620958227527,1.22573028238584,-2.88037181037854,2.67546490356088,-0.785900596627149,-0.168358473810221,-0.391955974491585,2.44969712721736,-0.00407066791757346,1.12387986196714,-0.900752521935007,-0.149691710637336,0.146859414216303,0.754703515131841,0.0875888183803165,-0.196943641921219
67.955,-0.437621733791152,-0.287368999256995,1.23534512369076,3.30991380168515,-3.06742833734798,0.790990147782635,-0.920629065399653,-0.363486180371015,-0.172880837659186,1.24528013383116,-2.96571474893872,2.69346328242741,-0.760485463930346,-0.187087275402283,-0.405053176985851,2.4642688615097,0.00147650371632133,1.06544986926338,-0.908095953142029,-0.141633161736241,0.137942002986912,0.762396427521647,0.0832555842490625,-0.170796723795833
67.96,-0.453180071042968,-0.325929122753559,1.22586053224435,3.29494910810115,-3.15100910790999,0.695965191959753,-0.92979025129807,-0.369983354298968,-0.179996430700524,1.26686373175597,-3.04637219118791,2.70844191499507,-0.786129867476392,-0.167839021968884,-0.384514801753313,2.47857755137463,0.00668938731520483,1.00627202920349,-0.91698280463712,-0.139346735329251,0.126546364298165,0.770338243277957,0.0764018564955831,-0.145563274983533
67.965,-0.466839166047506,-0.357861213208991,1.22230588288698,3.27758324173857,-3.23188978397232,0.589334672119379,-0.943735250633207,-0.35743766230368,-0.183245288941036,1.29089157029488,-3.12209499564288,2.72078579246327,-0.77821393023127,-0.162310809818067,-0.36883526398254,2.49327896303222,0.0114973628520741,0.946581547725125,-0.916645825691888,-0.141026135204167,0.107475344736798,0.778389757628923,0.0671040496944539,-0.121275135746779
67.97,-0.484630126039123,-0.382125454545441,1.21564612568109,3.25918639312051,-3.30896188118099,0.472856854623417,-0.95179093098698,-0.349199518152757,-0.184105874103609,1.31781886661723,-3.19263335987293,2.73087983315231,-0.776995997934199,-0.185440656777587,-0.386413961393127,2.50906475123103,0.0158209656444777,0.886686631644152,-0.918164627498507,-0.133542211292427,0.0967557435988661,0.786376679419124,0.0555820094360857,-0.0978617471697293
67.975,-0.497314081691861,-0.39966028366302,1.22184581654168,3.24099258702477,-3.38118248488901,0.348200324704806,-0.969000384347428,-0.340716250809768,-0.194613870064026,1.34807760891026,-3.25774825311449,2.73907904087034,-0.77171602449053,-0.174771930729633,-0.375305331042595,2.52659564425202,0.0196073817231272,0.826929615271368,-0.92331585662663,-0.131310559687125,0.0865554408394223,0.794097977855151,0.0421920162299843,-0.075221467395668
67.98,-0.520692070501031,-0.414888678399109,1.24247319983266,3.22407059023311,-3.44757558286497,0.216935139981407,-0.988339684612586,-0.333921965603255,-0.198813798902216,1.38205891433902,-3.31720926048973,2.74568789770146,-0.758137303242719,-0.175760685109129,-0.37305358096469,2.54647400748667,0.0228319934821581,0.767656251187335,-0.92165494188246,-0.13058939262496,0.086834753353781,0.801338159609387,0.027379233348138,-0.0532558714565085
67.985,-0.537857289198672,-0.420467369078546,1.27054160893622,3.20934727012435,-3.50720703319832,0.0805811412631465,-1.03071816977105,-0.337689246833255,-0.205392801045201,1.42013335955118,-3.37078355822792,2.75094808463788,-0.782043653715081,-0.152962726165274,-0.361064709823018,2.56924875602904,0.0254762137483457,0.709201564224738,-0.91672640758593,-0.131645617888148,0.0773738865365032,0.807886826096495,0.0116183564630223,-0.031866322300485
67.99,-0.568665069943874,-0.420807855903744,1.29137700428422,3.19760996880566,-3.55917235260239,-0.059373241923407,-1.04471128020716,-0.336781578259893,-0.213863410877758,1.46265649530025,-3.41823273013288,2.75502764496456,-0.768543368235252,-0.167476719433754,-0.361587873714012,2.59541188032451,0.0275146236845694,0.651881074261811,-0.916371558241289,-0.133352840125333,0.0809446950849155,0.81355561713431,-0.00461904459175287,-0.0109579736631559
67.995,-0.580736487322693,-0.416000307018719,1.28992703208381,3.18947193636976,-3.60261332555147,-0.201486575810313,-1.06949353043511,-0.345611039062478,-0.22254261767917,1.50994093120265,-3.45931786122722,2.75800500770122,-0.764873510263504,-0.137834870656179,-0.339872951829673,2.62536818238787,0.0289194346040923,0.59597699739454,-0.916399532176863,-0.139293497293225,0.0788119395042515,0.818191140946193,-0.0208864306273872,0.00954204166935488
68,-0.595486564939045,-0.406763394146615,1.27920925612959,3.18533652694106,-3.63673991451003,-0.344383646212387,-1.09642768334375,-0.352892300817306,-0.224632552579081,1.5622229378359,-3.49380460166076,2.75985427697123,-0.772748908251168,-0.114377105696602,-0.341726448406468,2.65940161821094,0.029666167609978,0.541727815426725,-0.916399640653708,-0.148469074114736,0.0787109749273634,0.821686527408889,-0.036781663846004,0.0296777553344891
68.005,-0.618554157435637,-0.403830302195506,1.27206274401595,3.18537334362308,-3.6608423357181,-0.486768660506344,-1.11722433663953,-0.345836420055577,-0.234430013601,1.61963475833868,-3.5214687333276,2.76043783480889,-0.775227596996131,-0.0743304371498214,-0.318786660534507,2.69764978712411,0.0297359590087656,0.489325085066122,-0.922541179781303,-0.15260294406476,0.088007949413747,0.823987940400095,-0.05195111440524,0.0494631119660324
68.01,-0.66706412100451,-0.39404295398345,1.26049004039955,3.1894655982182,-3.67432082533903,-0.627462427583689,-1.13657998931371,-0.334555587073711,-0.24202825185157,1.68214646477578,-3.54210704436328,2.7594976519228,-0.751789340918211,-0.0191302154097654,-0.302461817029604,2.74005368335077,0.0291324668326899,0.43890459156339,-0.930234424266601,-0.14444272748798,0.0941831316764103,0.825099061341098,-0.0660894141304915,0.0688635053611046
68.015,-0.702458437564083,-0.386847656204341,1.23845939344922,3.19711990331072,-3.67672526977339,-0.765501583957593,-1.1456804503231,-0.330028413033272,-0.255607854586632,1.74948057145612,-3.55555024194634,2.75664879133457,-0.713791880222119,-0.0506039336517135,-0.306344990505287,2.78628597003236,0.0279122607825145,0.390538450540369,-0.932092110651045,-0.143706261643209,0.0958966881950889,0.825089196549098,-0.0789362265406593,0.0877795382398879
68.02,-0.736882866128326,-0.39863254710826,1.20807244041507,3.20741542439283,-3.6677719182064,-0.900234541107331,-1.15493970045506,-0.328234202963316,-0.273994599674526,1.82105990115633,-3.56166797331742,2.75139040173634,-0.737057580010146,-0.0724249340169552,-0.25531455585063,2.83571242902659,0.0262004868361993,0.344241812297493,-0.941571924985602,-0.14631601879427,0.0986389780310078,0.824096057359582,-0.090264276417237,0.10605462400487
68.025,-0.776355542928264,-0.405721937614874,1.19417722835964,3.21906179707333,-3.64733091112188,-1.03129201635606,-1.16759777106325,-0.310611271801073,-0.287120914831938,1.89602206946176,-3.56036395123955,2.74313588544465,-0.725555235202052,-0.0640625910251933,-0.258152923337891,2.887414552203,0.024176285635665,0.299982267492604,-0.942895013267328,-0.161282621641762,0.111047789124388,0.822307257250176,-0.099868992523853,0.123487171768359
68.03,-0.821968977177554,-0.410097579592915,1.17766358135229,3.23051932361064,-3.61538258016517,-1.15846518183831,-1.17521760327959,-0.310955907921078,-0.308551181979672,1.97327363779164,-3.55156953500738,2.73125049342811,-0.749451334153289,-0.0526368892703189,-0.233096326940948,2.94024755004143,0.0220417290146009,0.257683316567129,-0.950599256052865,-0.143498934660553,0.119459381874828,0.819928782030329,-0.107563848241152,0.139838147726562
68.035,-0.880562092478729,-0.419508636156235,1.17685716879908,3.24008665548665,-3.57196141507356,-1.28162314660935,-1.18722073981414,-0.315268541393815,-0.333468670554343,2.05153663721071,-3.53523951872071,2.71508288536165,-0.740901220707509,-0.0574496181768371,-0.196848866304225,2.99289017551145,0.0199969343794579,0.217229890471028,-0.956565367057931,-0.139623387547596,0.126271722028638,0.817166167427287,-0.11318522075435,0.154848676674549
68.04,-0.9322968910392,-0.430623563479271,1.16609565747942,3.24595375452916,-3.51711678258025,-1.40067999273033,-1.19530681462446,-0.317947138552468,-0.359215757883958,2.12938113721763,-3.51134616584892,2.69398954577917,-0.747664548148089,-0.0996722133315922,-0.195915718543,3.04388091851016,0.0182250714260115,0.17847796058271,-0.957222960822297,-0.136073334122112,0.133744112427286,0.81421915829515,-0.116609755379982,0.168264920438488
68.045,-0.974563442103332,-0.440988352078946,1.1385511045746,3.2462820613854,-3.45088226213073,-1.51553873060922,-1.20003816149491,-0.329989562922858,-0.38819321406995,2.20527880372935,-3.47986841713989,2.66736183787615,-0.745323228145481,-0.102736389176982,-0.155560347107284,3.09167420676785,0.0168740141377105,0.141266345724611,-0.963384648782351,-0.119001199621645,0.136501456321413,0.81127364023737,-0.117773049923494,0.179857013872717
68.05,-1.01562574289187,-0.451689365011568,1.11191620060577,3.23931305646768,-3.37323453783791,-1.62600801165533,-1.21319130303939,-0.337985276878993,-0.398888388491764,2.27768280103146,-3.44078000017844,2.63465615060941,-0.736384008402725,-0.116435680233227,-0.0961054750426551,3.13472167408063,0.0160331468523233,0.105432495069407,-0.964104613159096,-0.112869104826084,0.140784991073017,0.808486213362581,-0.11666841011143,0.189431913685541
68.055,-1.05055449926814,-0.449802952882153,1.09407395926126,3.22344840136117,-3.28405976087065,-1.73174149058855,-1.22783969611068,-0.348469687409124,-0.418818566046581,2.34509301137309,-3.39404214071768,2.5954155357643,-0.730294299910444,-0.122793054541969,-0.0690146540827753,3.17153853282295,0.0157199586232187,0.0708287868452241,-0.966006614129713,-0.105580545531271,0.139033940983945,0.805967041158381,-0.113325254079689,0.196842454652775
68.06,-1.09233044527148,-0.468527708878732,1.0804252755599,3.19726102253448,-3.18317300989308,-1.83223659331962,-1.23798500963588,-0.360937738658747,-0.440239103260082,2.40606695995773,-3.33959968318596,2.54927308368821,-0.746190293497465,-0.122817146991488,-0.058594346321585,3.20071585717267,0.0158878213150955,0.0373313218599149,-0.961025201059955,-0.0942802631831791,0.148185710260138,0.803775168092134,-0.107806094180205,0.201992857372324
68.065,-1.11732846745221,-0.506349183009483,1.07185402987324,3.15943914717436,-3.07039430960627,-1.92689787501329,-1.25283537699941,-0.376851700258221,-0.466883349081049,2.45917343482855,-3.27737853116624,2.49594055009131,-0.764779841557873,-0.127032720884743,-0.0421685037196792,3.22087611258512,0.0164532708200646,0.00484028840434339,-0.963022066280931,-0.0962977170093392,0.146081764345319,0.801933090567328,-0.100230983270796,0.204845812698215
68.07,-1.14132422434221,-0.544589976456476,1.05938558276496,3.10876120070474,-2.94560032916612,-2.01507245979745,-1.25725832835961,-0.397358664549885,-0.481784045912961,2.50296691883307,-3.20728414889194,2.43520590259734,-0.77695187354553,-0.106467201964488,-0.027301877016031,3.23064929914286,0.0173172328151203,-0.0267183151000865,-0.973779133540554,-0.0950509613003758,0.147510330036122,0.800435832806996,-0.0907795886437872,0.205433303056777
68.075,-1.15559248215105,-0.581733401818267,1.01734219957825,3.04421436089482,-2.80869081124967,-2.0959449556567,-1.2701332778779,-0.428973464728487,-0.486628149732992,2.53607426601621,-3.12919965032798,2.36695687998499,-0.772873387903288,-0.0908736483622291,-0.0202983668871978,3.22875826218538,0.018352572384125,-0.0573818567568155,-0.97780367692211,-0.0941270921908525,0.14442106816804,0.799231464267098,-0.0796557635965045,0.203864334227582
68.08,-1.15382220744229,-0.6286170395209,0.958518499524969,2.96514167993951,-2.65956596493599,-2.1684092589001,-1.28219880166511,-0.450437071969038,-0.485115633702586,2.5573076870384,-3.04298786355828,2.29120264144902,-0.790582041246041,-0.0663515258353831,-0.00257164127084626,3.21412759883073,0.0193849278899012,-0.0871437523092378,-0.976852578311454,-0.083468080544673,0.153662988319366,0.798201217785998,-0.0670670120834279,0.200317888185001
68.085,-1.16918647819216,-0.677433969107834,0.909289361734076,2.87120795021062,-2.49823944540959,-2.23113434056596,-1.28281003366885,-0.491843317130721,-0.482469698423923,2.56563874478015,-2.94850337693427,2.20806081697265,-0.787200144464239,-0.0391024260104067,0.0281083436803399,3.18585560184883,0.0202158111686185,-0.115966448358234,-0.988230431475636,-0.0819961457935777,0.150593210467485,0.797175851723663,-0.0532397519521403,0.195016819496273
68.09,-1.18273334556012,-0.719671360779154,0.896985261623279,2.76229338673439,-2.3249797763785,-2.28271910130273,-1.28680871365782,-0.505839296804224,-0.498022869601307,2.56011879460171,-2.84560939697617,2.11773763594377,-0.803342816428509,-0.0203561479591111,0.0701385085619751,3.143134618435,0.0206615856931056,-0.143798047577167,-0.985408528766386,-0.0816148223916041,0.167326312061886,0.795967195246321,-0.0384200837232371,0.188203656117617
68.095,-1.20408437279684,-0.7530684257022,0.882749759933683,2.63858832626704,-2.14029164620212,-2.32166066367988,-1.28131875662355,-0.527910352385917,-0.508590237176043,2.53996931846087,-2.73419086096629,2.02054170034953,-0.835747110909405,0.010475210228911,0.142398544372909,3.08533716523585,0.0205436113061246,-0.170565057569528,-0.989894888604078,-0.08228120368114,0.174609952024807,0.794375293385494,-0.0228399261240336,0.180138717055508
68.1,-1.22575253450744,-0.792597211247512,0.864677173049846,2.50081015940916,-1.94482891243921,-2.34621168043945,-1.26587311865459,-0.549350937850716,-0.526423084767823,2.50477832661674,-2.614167866276,1.91690673347273,-0.867986751148604,0.0363622101710351,0.18914116286417,3.01220373288644,0.0196485595102201,-0.196160383031603,-0.991083201785033,-0.0722845949021702,0.180949030243584,0.792176581101288,-0.00670446451289016,0.171097970503338
68.105,-1.24846759770172,-0.831706384328545,0.827768500362784,2.35021415338367,-1.73946633377869,-2.35443613645234,-1.25808633072699,-0.572415526509897,-0.528271172794019,2.45452390393949,-2.48552232988739,1.80737409499398,-0.916405164586728,0.0772998288341246,0.223710314089336,2.92386045034959,0.0177336411873025,-0.220467958956294,-1.00064249283543,-0.0697347172232271,0.185145580394054,0.789124462584443,0.00976634713127841,0.161346138927736
68.11,-1.2579669637764,-0.831966924910755,0.741697330309315,2.18834387669774,-1.52548488366122,-2.34449717712654,-1.24267224401268,-0.58679383741987,-0.534206789755023,2.38938332054397,-2.34833970001899,1.69254267878323,-0.946117515917849,0.0921499152290585,0.250342881877832,2.82062778093503,0.0145826952969979,-0.243410836245637,-1.00545794670131,-0.0760984501063303,0.193439159729766,0.784976516986714,0.0263089723621781,0.151113974759429
68.115,-1.25545721671482,-0.817644790404255,0.620163259189083,2.01681477940124,-1.30463094384991,-2.31491024772314,-1.22172809994534,-0.614073544040521,-0.517599780320813,2.3095890741297,-2.20284894366024,1.57303825340782,-0.935504016350632,0.128864034738499,0.245107433795289,2.70287721000488,0.0100459315198926,-0.264970176010805,-1.00998548835611,-0.0708279389880144,0.206195999226784,0.779530145224915,0.0426694137664829,0.140609563703321
68.12,-1.23874265313026,-0.808268664498864,0.494767267216375,1.83732518516606,-1.0790149295266,-2.26460256637112,-1.18101612394389,-0.610646828562543,-0.503774111269892,2.21548570965026,-2.04944786647072,1.44951959901624,-0.887081892781787,0.169204637010052,0.244150638094217,2.57108616856217,0.00402981546533854,-0.285173257374096,-1.01379607776296,-0.082304143974034,0.211013934169485,0.772635764853917,0.05867870820602,0.130035458273424
68.125,-1.20090711106832,-0.827396641362858,0.352411407835302,1.65175082288211,-0.851013075155722,-2.19290090869125,-1.16146116498845,-0.592631862701156,-0.494246903353684,2.10764724694358,-1.88872042434259,1.32268946489223,-0.805768529207308,0.326769195034286,0.346691169880673,2.42595261258881,-0.00352728477441275,-0.30409184970479,-1.01647721519276,-0.0877958753188461,0.205600574966879,0.764187662619386,0.074264150415078,0.119580158259299
68.13,-1.17929899446576,-0.834834643989592,0.223410626828155,1.46214806848778,-0.623230704125291,-2.09958717708116,-1.13955033622554,-0.563564585416495,-0.479644087195282,1.98691595110831,-1.72145517011676,1.19329049994681,-0.78032740453865,0.363059682444678,0.3326829721176,2.2684328823202,-0.0126618926319288,-0.321858834805497,-1.02608246688742,-0.0899774192861362,0.217935842945233,0.754115599535973,0.0894218147704372,0.109396913701505
68.135,-1.2275622976642,-0.806027818164305,0.151724744021679,1.27067940361582,-0.398476313658332,-1.98500644478109,-1.10791132646197,-0.533553863437091,-0.479517369716399,1.85438434294632,-1.54866262636624,1.06209534060682,-0.795813471169719,0.291702991732443,0.30249442358395,2.0997250607593,-0.023380497640718,-0.338685126017298,-1.02480230848379,-0.0798439063410366,0.213088538744678,0.74238323389687,0.104197725658859,0.0995870432812679
68.14,-1.27623383321287,-0.730274619211856,0.0759492042424367,1.07951502050465,-0.179719494112037,-1.85018025676133,-1.06024427511001,-0.483403295378804,-0.498770265719706,1.71136489824717,-1.37158238093134,0.929898888941302,-0.884441802295135,0.294649519282723,0.317459286412271,1.92124128123825,-0.0356529891373411,-0.354867354971567,-1.03425850417417,-0.093098932890617,0.224925839810225,0.728991318774286,0.118674781526143,0.0901868394965779
68.145,-1.28628558623388,-0.650513015254963,-0.00883239938141756,0.890717662932824,0.02997211616044,-1.69691260209398,-0.994878511259638,-0.441691319993678,-0.514831773835005,1.5593522673079,-1.19167298412765,0.797513020215008,-0.86451810123841,0.398035679698499,0.376460996012332,1.73457326780187,-0.0494051613975078,-0.370782520617822,-1.05625800349988,-0.114048735078743,0.231768667485052,0.713987727737615,0.13295932285506,0.0811558125536433
68.15,-1.31921842458269,-0.566497260994888,-0.0597378912106446,0.706162216861167,0.227530051902951,-1.52782303946505,-0.973867060821118,-0.404921372178061,-0.527024709005844,1.40000548558354,-1.01058717430939,0.665767063671169,-0.792273349021996,0.440867107538327,0.377983536634558,1.54147801603968,-0.0645163017157084,-0.386870448401762,-1.08365109820932,-0.134383605366585,0.229894528305515,0.697474799622734,0.147171717864923,0.0723724896098396
68.155,-1.42668106351191,-0.412788510149535,-0.00904636805857325,0.527545104726008,0.410019151867583,-1.34624367920703,-0.963926354818371,-0.363398486317352,-0.536760573879089,1.23517551829944,-0.830138909503209,0.535515999307978,-0.802878394668992,0.420994318300532,0.363915323156491,1.34390839414107,-0.0808278027230072,-0.403608412138043,-1.10090135159668,-0.107213292033493,0.232146563611184,0.679604469212506,0.161444140252419,0.0636446136470135
68.16,-1.56583461771082,-0.223798288909777,0.10082235236028,0.356401766013612,0.574756876363949,-1.15607373039035,-0.949191662424913,-0.310882501667355,-0.573669604229117,1.06691645772514,-0.652261040006605,0.407646864261944,-0.818575289277031,0.42602711334837,0.417975016368081,1.14402734931096,-0.0981504252622549,-0.421482380090386,-1.11243661406378,-0.0815170137015795,0.240155984786543,0.660574715098308,0.175917716110767,0.0547257461699063
68.165,-1.65620218675664,-0.120692845304034,0.148341142678121,0.194053060005862,0.719382852734985,-0.961684660067639,-0.910686263712776,-0.263115498146324,-0.626412473664637,0.897428913975784,-0.478947803544831,0.283075947704745,-0.787019640905403,0.345567028765422,0.438169796778236,0.944154273088424,-0.116260261226194,-0.440955393273803,-1.08536725708259,-0.0920934514981265,0.264134948113783,0.64063925849018,0.190729525028338,0.0453275119950262
68.17,-1.63836892397774,-0.0832327652896788,0.0616969271457431,0.0415417261407509,0.841915661594642,-0.767806230291634,-0.883248319876309,-0.280134092749528,-0.630795723007097,0.728976359689838,-0.312182984803669,0.162740542512625,-0.798699496112316,0.361713602796649,0.558307495821686,0.746683177555932,-0.134892530702678,-0.46243337499267,-1.05846366664291,-0.065447453226096,0.278828866994643,0.620112989140652,0.205989609651939,0.0351306592814009
68.175,-1.54738818330656,0.00768927432712057,-0.100444244159447,-0.100364032839172,0.940828861820764,-0.579320218929647,-0.859680754457453,-0.32079120751598,-0.608899701183115,0.563826832696762,-0.153859873189643,0.0475899475211902,-0.745626349271433,0.282908537257453,0.566957176190501,0.554024229577434,-0.15374343210421,-0.486228864193159,-1.07515981641907,-0.0631087744933475,0.288454554298553,0.599358060951426,0.221754468337624,0.0238029250256581
68.18,-1.44017436924485,0.148991689486267,-0.222008097720326,-0.231067342557568,1.01515566779454,-0.400966939852655,-0.86699621430898,-0.34547460395082,-0.588946012462322,0.404256568067019,-0.00570001860297624,-0.0614217817693541,-0.67973844710071,0.229804688524268,0.529940634941927,0.368604708408083,-0.172486226907105,-0.512521123677825,-1.09155481942865,-0.0318074453851127,0.291954381266378,0.578757998002264,0.238011944992157,0.0110194145219257
68.185,-1.35031328398232,0.454018351387572,-0.202783032667498,-0.350003806305595,1.06459293951746,-0.237034233016485,-0.882049372196333,-0.352018502969652,-0.565004988039714,0.252574713163635,0.130820145625081,-0.163349214771652,-0.666655833769662,0.219091020791278,0.518422782302031,0.192888308286256,-0.190796373447939,-0.54132267647628,-1.10017427257994,0.00511788529029732,0.298570748013916,0.558687331195747,0.254676918277322,-0.00351616632137805
68.19,-1.59494911072441,1.25544162963615,0.256741933781481,-0.456629979123945,1.08952176753985,-0.0911552613926992,-0.858540377378723,-0.35262516528578,-0.64611341181332,0.111039170465865,0.254526060621448,-0.257289969058259,-0.625744700726689,0.163258325774382,0.404003889198495,0.0292841367538317,-0.208363798715967,-0.572470854391048,-1.10469704603793,0.011220821792913,0.319910396798913,0.539486350701636,0.271583720458073,-0.02003852995998
68.195,-1.85968187617113,1.58436466334921,0.736801056082719,-0.550597883153141,1.09092409594472,0.0337353680950439,-0.821655764195955,-0.297007316468939,-0.734539289766159,-0.0183788190830642,0.364582469706691,-0.342436223631165,-0.619904272558018,0.134721131016014,0.33373562716828,-0.12009424675783,-0.2248776115371,-0.60565449270781,-1.09006281653161,0.0245762489855785,0.339787860023849,0.521452116932839,0.288489085155089,-0.0387113347246984
68.2,-1.97329052958056,0.0656510811248814,1.17769634326607,-0.631948880939114,1.07028890637329,0.135396571405884,-0.796962896965219,-0.188906684306649,-0.810459307689279,-0.134231806705766,0.46052153063864,-0.418123759179271,-0.636295463428889,0.0888511621545549,0.268688584843714,-0.253671088885095,-0.24000401583666,-0.64045002664845,-1.07739702794766,0.036051237268603,0.358225576675081,0.504844597591708,0.305095607810161,-0.0596683326983673
68.205,-1.7000661904602,-2.06837715944447,0.977172511114335,-0.701094526404445,1.02959216685883,0.212368348026544,-0.785017790927471,-0.0869815257072358,-0.769302142585455,-0.235631808550726,0.542269265377191,-0.483867284214824,-0.621327955322425,0.0709129684235434,0.19030085260788,-0.370454160226376,-0.253400544390509,-0.676320332293135,-1.07618355113423,0.0421476220669028,0.364819266510882,0.489896422145561,0.321068933591156,-0.0830260537971292
68.21,-1.34087994012403,-1.6219650154133,1.27704549683496,-0.758616901647056,0.971306269817204,0.26412162067734,-0.865822834689722,-0.137901357444521,-0.567581212999361,-0.322114346470708,0.610152932374751,-0.539386691266334,-0.631009207959923,0.0677011455434055,0.0420295938474966,-0.469913680820373,-0.264767036801005,-0.712593726685336,-1.08215460150179,0.0345961298284799,0.360995479722848,0.47681431875447,0.336033239461582,-0.108828179864562
68.215,-0.985422670752529,-0.628909297647206,1.58482891156155,-0.805130058157556,0.898337241311349,0.291121184399087,-0.975493985396431,-0.209022295311523,-0.304226500749844,-0.393542530324299,0.664872480939976,-0.584632965917134,-0.64831485812083,0.0886916113894694,-0.129903780183991,-0.551899538787619,-0.273889137044742,-0.748477616116761,-1.0795903255223,0.0429590316101745,0.353899156251046,0.465776471025768,0.349561352717406,-0.136993221218679
68.22,-0.639895937302828,-0.0630039969995201,1.49008524749966,-0.841250187212353,0.813885672285823,0.294772463856759,-1.0510948075551,-0.194491475675177,-0.106504255991297,-0.450091525860878,0.707448757959371,-0.6198071144757,-0.663693720321366,0.157575016638672,-0.341202089030589,-0.616633512849643,-0.280656796735857,-0.783102048674552,-1.07357191941499,0.0541193915379923,0.345634792140745,0.456931634399093,0.361183452560756,-0.167302291304612
68.225,-0.380329709976435,0.311276029056775,1.25848674706728,-0.867560755334612,0.721306698013878,0.277316902309567,-1.17838676952839,-0.0365046029537327,0.0502140590228736,-0.492206674091952,0.73916443524518,-0.645356032616852,-0.702993096642387,0.217024192175096,-0.510477373497972,-0.664669597031933,-0.285070795639492,-0.815563694772131,-1.07687803681122,0.0556620291603977,0.333111820132214,0.450389677279884,0.370426677112949,-0.19941162973462
68.23,-0.277926549138807,0.46498898337672,1.0753549126177,-0.884540952172174,0.624007835586417,0.241713725160631,-1.24026941667967,0.071518887011874,0.158418055679925,-0.520504996796354,0.761494478235469,-0.661946302949145,-0.766048720206941,0.244185971899383,-0.651894829366511,-0.696793404437826,-0.28724904154362,-0.844965770426565,-1.07347209905324,0.0413502907777019,0.327292996750689,0.446210752721798,0.376859438177403,-0.232870307647784
68.235,-0.429704449246156,0.38016022378309,1.09716243007549,-0.892511370217921,0.525349637150387,0.191520430986479,-1.22410072424752,0.139983227486256,0.131620346659545,-0.535686522721257,0.776021865437234,-0.670433740316873,-0.858107595365315,0.246167799628006,-0.72361190075673,-0.713929070372332,-0.287433072278493,-0.870462475637788,-1.08248279746463,0.0325207941741822,0.318502658274995,0.444411252033569,0.380101053115512,-0.267129298976465
68.24,-0.680551051834968,0.136089341305376,1.12504119371522,-0.891670762466714,0.428499780250705,0.130727483748668,-1.10980107523405,0.353482286430782,0.012589793567556,-0.538532428291563,0.784346004430705,-0.671832772035137,-0.999956856055399,0.214864279771431,-0.720214346315881,-0.71712844640332,-0.285976042800126,-0.891319730773355,-1.09599241020381,0.0226253471238301,0.310317631686062,0.444972417927569,0.379814336176106,-0.301566726363811
68.245,-0.798025655457201,-0.415307030851875,1.37513328314497,-0.882195637462038,0.336274537178047,0.0635209691204461,-1.03827022161723,0.529675440532727,-0.171216689848455,-0.529948930029512,0.78799566866411,-0.667271388039036,-1.22045130051508,0.179929353722348,-0.637418310480589,-0.707599174953047,-0.283307375572338,-0.90697866168544,-1.10568370101072,0.0102822657871406,0.294277251494577,0.447839312253485,0.375720766995396,-0.33553948563907
68.25,-0.801229298656062,-0.0978807186160199,1.42532537327663,-0.864292506654376,0.251052676818338,-0.00595201807142209,-1.09714329692977,0.87160005537939,-0.27833338634826,-0.510950914829969,0.788351861950583,-0.657927675764699,-1.46219599484947,0.193691867495432,-0.365436008685402,-0.686669196253513,-0.27989777808175,-0.917090980036706,-1.11917989827014,0.0113484304914196,0.260121516886014,0.452926970130548,0.367640585402341,-0.36842153056857
68.255,-0.572952955091376,0.571247609328986,1.10023229325341,-0.8381924647366,0.174773813418674,-0.0737657004987713,-1.15435464246464,1.11481069140757,-0.185345332927297,-0.482589013411823,0.786580754155329,-0.64495969747711,-1.82212325388914,0.253828568279318,0.0165074882294212,-0.655694963604629,-0.276233529146249,-0.921526937461753,-1.13743105256684,-0.0039251166056155,0.230056234965789,0.460136483148752,0.355545403836977,-0.399619855315372
68.26,-0.540717113575438,0.820891069769293,1.07017682502948,-0.804166914976999,0.108929127755803,-0.136384233211654,-1.52024687967095,1.13135017752942,-0.00715847460983365,-0.445910729768663,0.783588027362641,-0.629445530834395,-2.03110871585129,0.335761260692574,0.160740240313474,-0.616005379083128,-0.272786814162829,-0.920377605997435,-1.14859574119221,-0.000502340305337854,0.19858631885731,0.469362744030924,0.33959279421057,-0.428596325236839
68.265,-0.35566979759007,0.542809944688598,0.988897813098177,-0.76260694610295,0.0544761753459561,-0.190846511254937,-1.92835367032924,1.02953627829517,0.0828568824825612,-0.402005088722405,0.78000664782612,-0.612345017381444,-2.2633132076518,0.430213150647568,0.129921068309938,-0.568932491657517,-0.269975346483894,-0.913956512129675,-1.18619899536686,-0.000540736535485262,0.130848419798331,0.480490287688028,0.320119664243165,-0.454898945591182
68.27,-0.30868145196671,0.232853515656266,0.942256234675939,-0.714079470635937,0.0117793848180732,-0.234898803031338,-2.06198324993584,0.570669083599524,0.133112326623167,-0.352037922163015,0.776208631014516,-0.594474055004728,-2.33211859476769,0.503483643652973,0.050145987986986,-0.515837383439429,-0.268129833977552,-0.902783401272014,-1.21697991744035,-0.00263962902890946,0.0809167488912102,0.493391944219852,0.297615379196475,-0.478181330818622
68.275,-0.475387479099766,-0.0511308522567102,1.04581714797075,-0.659266802394764,-0.0193178426083905,-0.267005564267341,-1.83355383418944,-0.0915484402640146,0.0696732150983664,-0.297177333571501,0.77232773664736,-0.576480480049302,-2.29580597619467,0.567328469917745,0.13646289323567,-0.458031750921428,-0.26748923741823,-0.887541531530657,-1.24427505728903,0.00369156305576634,0.0231983325198615,0.507936736147366,0.272688458998766,-0.498202587786887
68.28,-0.57709754833341,-0.0952968124121413,1.00914877913513,-0.598884629602617,-0.0393720095777538,-0.286307992608446,-1.42955944718811,-0.696567361866913,-0.0232416352390209,-0.238499198326066,0.768291259964757,-0.558831282081583,-2.10207954315784,0.530702574986137,0.285520203604333,-0.396683970436606,-0.268208249760244,-0.86902961169713,-1.29297078706557,-0.0174468231868469,-0.0250021540819761,0.523997840149863,0.246021954242286,-0.514824855355755
68.285,-0.623967150792985,0.0651852359433154,0.88405238425799,-0.533679444169587,-0.0492611326641129,-0.292605536453344,-1.04429350458176,-1.13129663876944,-0.0503374705153255,-0.176971038631414,0.763860319787164,-0.541819427074407,-1.78262640345339,0.359084942912345,0.279829908401385,-0.33280604973657,-0.270357925712685,-0.848122902419928,-1.32357690392899,-0.0260424005493412,-0.0871122449270767,0.541456827565331,0.218325331309587,-0.528015976885829
68.29,-0.600655689617868,0.162946654640158,0.855535578022541,-0.464450884787171,-0.0501205017200251,-0.286319622617735,-0.776869629520218,-1.23572230547006,-0.0814427205469296,-0.113468414955604,0.758676931233805,-0.525584396474812,-1.40950826527639,0.0601240358500338,0.177927634243626,-0.267275685180144,-0.273927348134083,-0.825729887182883,-1.34889862444438,-0.0589156836916354,-0.124452353332664,0.560214982370742,0.190296991526503,-0.537838159025683
68.295,-0.47391793515002,0.108019889132463,0.841303604466295,-0.392046618376647,-0.0432601925066157,-0.268399826690059,-0.597905372408762,-1.10570058933021,0.00288230540888898,-0.0487791881940096,0.752314356946264,-0.510140108207014,-1.06893644015355,-0.187127529633755,0.00631569756305862,-0.200848777970526,-0.27883391049902,-0.802739617134575,-1.3438654239766,-0.0738150751290769,-0.159409565694462,0.580215301657821,0.162599557972694,-0.544416904285061
68.3,-0.489763295852896,0.0434252975344465,0.850560947461679,-0.317347620711865,-0.0300851043706797,-0.240208637224422,-1.03052092939516,-0.492042811180679,-0.0707198177843145,0.0163936594491753,0.744324988439239,-0.495406156010232,-1.00492843187795,-0.520406042793466,-0.126717087462564,-0.134171418013521,-0.284937275472734,-0.779976501717015,-1.32061289343499,-0.0940598334171658,-0.187077599022755,0.601455251247949,0.135837423244025,-0.547913574666389
68.305,-0.551986070124918,0.105832749648956,0.9222537866921,-0.241249459293338,-0.0120346619884325,-0.203419832328436,-1.04448464353351,-0.20305703989292,-0.0180264619752311,0.0814339257341316,0.734282665428205,-0.48123801802714,-0.843392481430198,-0.775879429344488,-0.128157054897918,-0.0677869090828292,-0.292055006696488,-0.75816836470423,-1.22941967927837,-0.0629265374458222,-0.192343639984403,0.623974955976912,0.110536734242829,-0.548509166429933
68.31,-0.543651269257393,0.22414357999991,0.853037649444675,-0.164642463084908,0.00946909286789571,-0.159917558616888,-1.03409552508498,0.0686312972356205,-0.181239469036525,0.145813465429407,0.721815619450648,-0.467456200868007,-0.743608073247945,-0.873470819859873,-0.13871913996584,-0.00214299031734573,-0.299979619923878,-0.737925310032024,-1.12325042498984,-0.0508425871119218,-0.214919116524682,0.647840035008504,0.0871287187150211,-0.546388570104409
68.315,-0.502802257932981,0.251387016133546,0.824217941626435,-0.0884202208846173,0.0330731119809661,-0.11168315402925,-0.974107843962195,0.384641355993808,-0.162367539110354,0.209057594038219,0.706625145007873,-0.453876080905587,-0.700825853302419,-0.836263975278794,-0.132465945224365,0.0623664618491538,-0.308490359052303,-0.719736333187746,-1.02682439078535,-0.0129725454530062,-0.211562765582421,0.673141913789128,0.0659305181052162,-0.541732849490547
68.32,-0.548129123135752,0.237531500438278,0.859279447585423,-0.013506476913378,0.0575437261690555,-0.0606693012327194,-0.931477673098477,0.500171899545489,-0.107010038740369,0.270681461468969,0.688489295109235,-0.440334489633407,-0.681943746203281,-0.842412024958938,-0.0622328252985656,0.125332947372695,-0.317358085669121,-0.703982104331445,-0.959285311979293,-0.00421286652993124,-0.196813624102284,0.700005033680313,0.0471435292193953,-0.534724682859893
68.325,-0.487751740309928,0.224952336949846,0.842275306494567,0.0591409348204603,0.0818042188295182,-0.00868774189435765,-1.02985212024981,0.570495779072044,-0.129166510039271,0.33014827311448,0.667261813503096,-0.42670847098783,-0.383803403114459,-0.720290170238312,-0.163045571220348,0.186288004138579,-0.326350562777066,-0.69094718990513,-0.905232805049926,0.011418714206633,-0.183055073806956,0.728581654434656,0.0308748308446899,-0.52555114944547
68.33,-0.523515976371482,0.224330269640162,0.827186623381619,0.128557372064762,0.104938548927588,0.0426271908587589,-1.03742389379664,0.614258288576216,-0.227084280480762,0.386882214488254,0.642889187307972,-0.412927074862878,-0.539729068237986,-0.554233634544954,-0.0304047784888414,0.244711918059865,-0.335242591774274,-0.680812888156106,-0.836170209692859,0.0340563655324346,-0.154992511955782,0.759035748670173,0.0171362814719953,-0.514395737803446
68.335,-0.54925618834046,0.21605171367799,0.84031636021748,0.193815532659607,0.12617502286008,0.0917945340703393,-1.03503431040815,0.654707509269055,-0.218150900200702,0.440320010188966,0.615442771352892,-0.398977463061851,-0.53248229528726,-0.445917804548873,-0.0440098694035878,0.300080584696427,-0.343828705799649,-0.673636769444936,-0.796699361968722,0.0550814694012574,-0.135051262710312,0.791527772281415,0.00581287610826968,-0.501428330663078
68.34,-0.549670856232054,0.253267896017277,0.82405166968898,0.254059706502093,0.144880026957654,0.137488907997154,-0.997825600578429,0.538546837586026,-0.21892379122057,0.489942108128531,0.585128879900613,-0.384905096078253,-0.560458232404095,-0.299918162123234,-0.0374661762240043,0.351894488950238,-0.351930937383146,-0.669349909081608,-0.763574432174627,0.0745198496965699,-0.125122391861271,0.826200454379436,-0.0033371487892312,-0.486801398317428
68.345,-0.5007713434498,0.241809528846424,0.833031361090459,0.308504978714655,0.160557347437724,0.178571844816375,-0.948176401443011,0.351134545072072,-0.142326980528725,0.535253748861091,0.552265767848687,-0.37080921735757,-0.668506573566687,-0.174462779232249,-0.0792651687619419,0.399661318020871,-0.359397060934785,-0.667779346969929,-0.738731771168984,0.0887744803368928,-0.106180904095738,0.86315829661846,-0.0106219651024231,-0.470653523322385
68.35,-0.456881185538492,0.233825957105542,0.833306939487944,0.356445973464704,0.172863655958665,0.214133264782408,-0.972106924252306,0.290629188209682,-0.192541739951846,0.57577611973235,0.517249259787113,-0.35683257259505,-0.758026108262436,-0.117655112810054,-0.170299156656567,0.442890061173558,-0.366099486630567,-0.668677559102356,-0.732415314194858,0.0913944404089525,-0.0871036024551312,0.902452099153759,-0.0163547897135417,-0.453119342167048
68.355,-0.39918737736291,0.278722022948769,0.839611810732006,0.397362690533408,0.181661790661452,0.243578425382767,-0.982371779861729,0.205223148848025,-0.218457272096874,0.611133021048463,0.480526196001737,-0.343141727847295,-0.828576369716938,-0.0636307698155603,-0.265036512971762,0.481179277358886,-0.371950245091757,-0.671743064085866,-0.741270173881796,0.079743519730469,-0.0736797152969484,0.944080413031571,-0.020851118591214,-0.434338224450969
68.36,-0.458095469834225,0.335040527120919,0.831321704415649,0.431071367370307,0.187061300726096,0.266707941036787,-1.09676088149603,0.0858509256151241,-0.31396821764629,0.641188914212218,0.44258121740909,-0.329903611413542,-0.894806739415316,0.0436769305172678,-0.359162384821371,0.514355617618307,-0.376923284492409,-0.676625804589738,-0.770970057467037,0.0736442843108416,-0.0574372996435696,0.987992167295818,-0.024451690751389,-0.414447853399712
68.365,-0.443374108858581,0.274266060626688,0.749978211882672,0.457775399802913,0.189386962780802,0.283695630599862,-0.88291983783375,-0.323828845701486,-0.0730635904589292,0.666109854260911,0.403928066303066,-0.317269808427372,-1.10107806749903,0.103947568761559,-0.405995768446736,0.542536396383001,-0.381060733055901,-0.682926273425813,-0.831554351705074,0.0466671860442478,-0.0368980845402738,1.03407585369528,-0.0275062246614509,-0.39356456687616
68.37,-0.429653202650303,0.263997017444931,0.792138282445643,0.477989737880744,0.189089461656503,0.29497880970941,-0.87268623301893,-0.265480155206392,-0.0937659837510786,0.686313373597345,0.365095452909705,-0.305371599406582,-1.12251556566026,0.0909212362275799,-0.42552347766773,0.566083020587651,-0.3844586479386,-0.690203782091591,-0.885472028357505,0.0254113954399334,-0.0305270138099155,1.08214412372971,-0.030322320212112,-0.371770301113346
68.375,-0.453052465132513,0.287769509077687,0.807631878305321,0.492362595016864,0.186642792853965,0.301103380660464,-0.931991907763506,-0.165189355699368,-0.184152786908492,0.702322261558695,0.326598507325151,-0.294323233134975,-1.16755681444571,0.0968421679582738,-0.452173214816116,0.585460364822687,-0.38723652594832,-0.698007846599289,-0.915171244933917,0.018995846010722,-0.0220927495054106,1.13192857705198,-0.0331115922462041,-0.349122632182688
68.38,-0.469884331236782,0.282722875130472,0.797743032758897,0.501467571531711,0.182474031436766,0.30257407262859,-1.01327258097376,-0.0167057337682355,-0.249751109963006,0.714587336853845,0.28889739088417,-0.284226234017367,-1.21162917190319,0.0987080361223862,-0.462825546713908,0.601066448923126,-0.389502144810367,-0.705927873624481,-0.944912979219168,0.00156154973331047,-0.000227954414075384,1.18308585742998,-0.0359513771906548,-0.325685638705155
68.385,-0.477181729594093,0.296894345615923,0.830664585095181,0.505722939685567,0.176941173271898,0.299792563956407,-0.986182909514254,0.0579112154979818,-0.244706622769799,0.723416759080665,0.25236833888325,-0.27516588527097,-1.26926751573225,0.121200840377839,-0.431078549136966,0.613166375915416,-0.391335620729475,-0.713628207032555,-0.980496142208741,-0.0308528426365175,0.0290266100901139,1.23520643832442,-0.0387843017230685,-0.301559766022533
68.39,-0.477181195828952,0.301019654142276,0.823830658044769,0.505436422546783,0.170321647380827,0.293070557331159,-0.980142074958586,0.125613263283982,-0.2394679045936,0.729012062690474,0.21730164159028,-0.267205249792474,-1.24962085113524,0.133462898529277,-0.414656981957518,0.6219289124761,-0.392793950540296,-0.720854295880064,-1.01580073913847,-0.0643066083919625,0.0280139884176943,1.28783060775306,-0.041462924982205,-0.27689571904068
68.395,-0.469357894689327,0.287976018318425,0.822421303218988,0.500888627021113,0.162805894738693,0.282677733374342,-1.00124890041987,0.190248274730705,-0.202444617728822,0.731537257882879,0.183918912943071,-0.260383408474579,-1.22422793058837,0.144084039406279,-0.403889902827117,0.627493336194186,-0.393923458472238,-0.727419337065408,-1.05495980058549,-0.0931388203674913,0.0326537621775687,1.34048381775954,-0.0438254257438323,-0.251891476086764
68.4,-0.45275203377934,0.280868798815932,0.822417182654975,0.49252820107881,0.154567767572278,0.268991888185519,-1.00241093461637,0.229600918823783,-0.19701156235708,0.731291002562983,0.152397367279907,-0.254704628877603,-1.14583610804782,0.117387538819266,-0.378399439612004,0.630137752136473,-0.394788729219775,-0.733169381731161,-1.09908919930462,-0.123569691404732,0.0396112771295109,1.3927111042155,-0.0457474038638626,-0.226767759006943
68.405,-0.472693951703754,0.281499927562312,0.830501324314722,0.481195542638368,0.145887920949438,0.252678954760789,-1.01192851635677,0.265232810443009,-0.165598473502088,0.728916843551479,0.122878856746645,-0.250119916882175,-1.07532135806052,0.121318609400799,-0.34341289559866,0.630486503371409,-0.395506014019588,-0.737954386899681,-1.13372712407098,-0.140494870517928,0.0506767686732935,1.4440773909497,-0.0471268103250166,-0.201744029336575
68.41,-0.468779518553768,0.277342054260384,0.829922154348822,0.468044252406518,0.137156839107967,0.234645257669625,-1.03483869429025,0.267592256860227,-0.172076664093518,0.725349224483066,0.0954561030264092,-0.246533116098262,-1.00082797261436,0.149916137259892,-0.301454625784885,0.629457491962124,-0.396232973653747,-0.741653856025054,-1.1666307345245,-0.158267744375699,0.0767437328802738,1.49415649058067,-0.0478667179501362,-0.177055950876794
68.415,-0.467168759880859,0.268639891276472,0.827478943386596,0.454215311167096,0.12874708565247,0.21580347561782,-1.02854812648365,0.259510679201171,-0.166840318923491,0.721522749508632,0.0701584036424998,-0.243829458409186,-0.974981613223056,0.203117597805314,-0.265156572613342,0.627975710920812,-0.397118249487397,-0.74422773397505,-1.19420745546672,-0.15010708231999,0.0893162180670657,1.54254482046585,-0.0478870715187494,-0.152995944565006
68.42,-0.477107830025958,0.266228433849308,0.829951224631464,0.440668732705143,0.120940472026016,0.196956751654227,-1.00478057143867,0.276813299841583,-0.161573532322957,0.718209275179318,0.0469502797464273,-0.241889975958167,-0.944663608760583,0.241979880057386,-0.247427659625354,0.626812952733869,-0.398271349098514,-0.745723824392106,-1.20529660372551,-0.142668465094958,0.0952108539074223,1.58888239722703,-0.0471025901053178,-0.12992505448612
68.425,-0.475020953568609,0.276650193916255,0.829912307147648,0.428234389524754,0.113953699781792,0.17883983513504,-0.98947210469474,0.290286953851127,-0.166706828819569,0.71606013533188,0.0257400788310677,-0.240591208532811,-0.940400492833922,0.287443231615966,-0.234504027211968,0.626628415437144,-0.399771387470404,-0.746245719280967,-1.19517911384655,-0.120127574385513,0.104274433139135,1.63287013395903,-0.0454027684567503,-0.108249121693611
68.43,-0.476371441732791,0.277554054566309,0.831345358026515,0.417664122125073,0.10796915924234,0.16215035412429,-0.97001275501094,0.325673066034771,-0.171775365645152,0.715662485010582,0.00639695593849615,-0.239810961035085,-0.969387209424596,0.312910761805811,-0.233726100407337,0.628021127495814,-0.401683066900829,-0.745926032127829,-1.17953090677734,-0.0905421730234633,0.10276885780467,1.67429835628667,-0.0427119403945746,-0.0883842949944717
68.435,-0.472489955868624,0.273726165702233,0.826766586135906,0.409609372190691,0.103144924171913,0.147526401683773,-0.956043498879531,0.3472968497324,-0.170530780737591,0.717526519162775,-0.0112277583727116,-0.239438053762587,-0.974792542751451,0.316140379531238,-0.238048999615272,0.631514655570398,-0.40405782422032,-0.744915054817819,-1.16021818157447,-0.0712546980064183,0.100625020422276,1.71307397864836,-0.0390751598249152,-0.0707351153935363
68.44,-0.470511638470902,0.270089473946608,0.831372383430344,0.404590618015588,0.0996234302756377,0.135526612287405,-0.95217827988826,0.334533915399794,-0.176379677049651,0.722053931755029,-0.0272828929795714,-0.239375079663674,-0.961279604827053,0.276883401282561,-0.248118647880119,0.637525500801806,-0.406925305051722,-0.743365524012993,-1.13369765707188,-0.0516503113680187,0.0990403261239561,1.7492255513671,-0.0346734643850746,-0.0556858537265683
68.445,-0.469090885867775,0.27596738141319,0.832749784858311,0.40301297472116,0.0975368911833121,0.126636055226778,-0.96568350746143,0.286928133499431,-0.171776400618794,0.729546579881302,-0.0419080617984368,-0.239534169605367,-0.955750143825971,0.199045147176865,-0.243418990111065,0.646372075854993,-0.410290798589287,-0.741403310228716,-1.10022282511731,-0.0441381604475224,0.106337811166981,1.78288980385271,-0.029763434011406,-0.0435822903285352
68.45,-0.466751345646897,0.278874972259059,0.830548962176042,0.405201441817122,0.0970111143388878,0.12126596869727,-0.971177354874043,0.242758253046609,-0.169987001287104,0.740245821055879,-0.0552301070238481,-0.239832824072739,-0.967247540943677,0.122306759019096,-0.243754273107398,0.658313298368594,-0.414141535766501,-0.739101123584497,-1.08005420839901,-0.020884387040606,0.109935905663509,1.81428888971734,-0.0246164124768506,-0.0347025992039931
68.455,-0.467769470933815,0.278159511014881,0.828237910512954,0.411402778168086,0.0981719102060729,0.119725586476064,-0.978902610470039,0.196157894914235,-0.170116692904244,0.754349134038638,-0.0673611609560802,-0.240194220224395,-0.967897296036246,0.0411500687844953,-0.254465996955471,0.673564138008574,-0.418451729757377,-0.736475702734064,-1.0556978066814,-0.00733982560688468,0.105238398770231,1.84370440478913,-0.0195110680761109,-0.0292412722569153
68.46,-0.465269965119725,0.280556574552188,0.825189992052769,0.421759890075457,0.101138841592254,0.122198855859206,-0.996839260153808,0.164684358472978,-0.168711941284795,0.771989066250357,-0.0783946571604978,-0.240552194441815,-0.950270127906307,-0.0204949085713429,-0.278724417351143,0.692273550474796,-0.423182603221219,-0.733497517971317,-1.02712293274013,0.0149033310783834,0.108700518949889,1.87145847727535,-0.0147453992148066,-0.0273084158856409
68.465,-0.4677938965578,0.285162485686479,0.826985006207269,0.436292302211625,0.106006865659724,0.128737999009415,-0.996793341382665,0.162638844333332,-0.174280482437768,0.793207630067883,-0.0884020342102289,-0.24085551496871,-0.93425443556034,-0.0885159673246324,-0.269473535559125,0.714498174137548,-0.428281337572354,-0.730096659717749,-1.0174385033319,0.0311762018369058,0.118663397890281,1.89790054619585,-0.0106176661718178,-0.0289335527499669
68.47,-0.468704639980602,0.280308812145738,0.824857218054085,0.454880677073071,0.112832204485554,0.139235709843894,-0.982567858295708,0.142740431987568,-0.168310968078917,0.817942906602738,-0.0974410943921387,-0.241064526294438,-0.981328210111356,-0.112729078671227,-0.244335653392116,0.740189924697378,-0.43367893084263,-0.726176943478205,-0.985247416868664,0.0300430538968976,0.110123283268011,1.92338533850276,-0.00738406069267503,-0.0340779545549035
68.475,-0.461342588883417,0.276199947096549,0.822379633790151,0.477247706025682,0.121610214243926,0.153393635299833,-0.973301760162814,0.12176278521435,-0.161656858873341,0.846010530678062,-0.105570858619471,-0.241146501186214,-1.00534814700078,-0.134032585078795,-0.21451088473923,0.769179096727728,-0.439287509643975,-0.721640412897265,-0.962729582083776,0.0102982705818274,0.120990279458773,1.94824457086468,-0.00522923372435438,-0.0426489981147254
68.48,-0.460503688160862,0.272003123081173,0.82503359220138,0.502958693660932,0.132239424335067,0.170749759137474,-0.97028249429247,0.0947453107588826,-0.147396804127255,0.877084498373683,-0.112852422780543,-0.241080645337937,-0.986911344933703,-0.132327523610391,-0.204216363722169,0.801154246544422,-0.445003489416506,-0.71640010537915,-0.941789660008837,0.00421851932808047,0.12204128564243,1.97276870674461,-0.00427117983882469,-0.0544966377479485
68.485,-0.458728894254612,0.265763330636214,0.829050132233524,0.531441046713194,0.144509018204626,0.190742605588726,-0.973514610620876,0.0840650949137085,-0.141875773218318,0.910690980564359,-0.1193364338863,-0.240866298640494,-0.974755520932707,-0.12161871427162,-0.177047279031235,0.835653689975694,-0.450713684621167,-0.710378622070173,-0.920392120160407,0.0182614364671278,0.134681350018084,1.99719823153365,-0.00457763578055131,-0.0694071109672839
68.49,-0.489277255087197,0.291672993228567,0.826982618555529,0.561982292469352,0.15811638787987,0.212731510763425,-0.93917338538729,0.177576343268295,-0.116708979773915,0.946195956647388,-0.125061120570367,-0.240521537322706,-0.966235165593982,-0.0912791237212466,-0.170775541658987,0.872053484742185,-0.456293713271566,-0.70351468401898,-0.910946709005273,0.0273827134022211,0.138989582848615,2.02171076227347,-0.00615194273370959,-0.0871243842850724
68.495,-0.51948346356848,0.327959271849496,0.817021866983932,0.593729646167068,0.172661923336499,0.235983657542026,-0.864137104940419,0.180447029448654,0.00485312038337534,0.982803889860633,-0.130069198566975,-0.240074597132599,-0.962385453964849,-0.0731055447479843,-0.161407857118164,0.909568330628117,-0.461606375676527,-0.695788182338051,-0.9051027617962,0.0375383065302053,0.13369356259558,2.04640406711952,-0.00891982004334106,-0.107372577451043
68.5,-0.434624925814058,0.299489208809474,0.829930710402811,0.625748945514902,0.187626729615189,0.259705573742991,-0.979639729112965,0.0687490913783145,-0.0819611526049092,1.01961251600563,-0.134422198192517,-0.239557233274356,-0.830253769202189,-0.0414827592684693,-0.169986821421785,0.947306828902558,-0.466512218782635,-0.687245386404205,-0.897369616296493,0.0237488985122953,0.139038756556392,2.07128559667047,-0.0127621334197466,-0.129844978853897
68.505,-0.555526084971068,0.337651781671156,0.830230214018752,0.657105071321352,0.202414562914424,0.283104893263826,-0.964892924370895,0.386306944858514,-0.113014948961313,1.05569412639683,-0.138199272238635,-0.238999842516571,-1.01584042778552,0.0583685952687844,-0.124108400075577,0.98435203770014,-0.470881918506994,-0.678001677091836,-0.890547636421487,0.0197834687469748,0.132862794409904,2.09626736226238,-0.0175416479151506,-0.154194220903984
68.51,-0.428175488473221,0.278945299892912,0.824422983795229,0.686914568420995,0.21645590520487,0.305421697928672,-0.959650434786589,0.279969513886833,-0.0755447566900574,1.0901640204694,-0.141495037102203,-0.23842510925814,-0.913241278292165,0.0624180576195525,-0.10295871141193,1.01982999675833,-0.474602668852365,-0.668227114899132,-0.890585796523997,0.0146996564882923,0.125344767512391,2.12116402622561,-0.0230875464039639,-0.180048834297542
68.515,-0.436278573024808,0.292948475280535,0.798092418535879,0.714354038420444,0.229247294177487,0.325925147874914,-0.960945041862511,0.256288932267816,-0.138936419224858,1.12219953074219,-0.144422143801989,-0.237846928905309,-0.974408946010772,0.146839959084394,-0.114740591519473,1.05292906548049,-0.477579798215306,-0.658134068211288,-0.876113819094602,0.0203818097877325,0.12620558124733,2.14570910516215,-0.0291767812811912,-0.207031328005734
68.52,-0.462383631290077,0.291620601797037,0.824395498364167,0.738660413141931,0.240298464679855,0.34393462990523,-0.92916762959388,0.276224558172467,-0.0595441791372996,1.15102711833703,-0.147104775943976,-0.237276597972712,-1.05468734968438,0.119636993742249,-0.123660897463599,1.08288627928928,-0.479736604469033,-0.647962459846225,-0.873015816655933,0.0252723994744746,0.123951627678012,2.16959214019594,-0.0355390312265849,-0.23476697406004
68.525,-0.454893006696697,0.286847591333546,0.837001873325079,0.759321316188736,0.249181491589206,0.358984168706037,-0.984956278551039,0.253477592732679,-0.0895434994571564,1.17610550195693,-0.149660148005328,-0.236718724437797,-1.00885039521677,0.0936696959754538,-0.0952290304863214,1.10916726146119,-0.481038396056237,-0.637936625399223,-0.874489416245209,0.0320071650738445,0.11986163889496,2.19249213863189,-0.0418930659440417,-0.26287940159624
68.53,-0.467814941316621,0.298159550857941,0.82448722195831,0.776345479080467,0.255690652924369,0.371017897524406,-0.967388066593444,0.259111288833928,-0.125299079886367,1.19742000190503,-0.152182348330292,-0.236162063113047,-1.03369219937656,0.0585426127018562,-0.10206326159844,1.13175631443174,-0.481530322349794,-0.628210001345956,-0.888071454852698,0.0351483013907807,0.117138892091997,2.21410199727334,-0.0479837622164176,-0.290976494150627
68.535,-0.466239689382841,0.313365648859342,0.812287516987554,0.790098367632936,0.25979996757055,0.380270696388766,-0.947794602426312,0.274104870382855,-0.107916100720855,1.21533758263461,-0.154742176807017,-0.235596881881279,-1.03520419442734,0.0134356106882871,-0.0804490393472482,1.15101171097188,-0.481320599137215,-0.618869293717596,-0.900615304828883,0.0315233193284552,0.114890505988117,2.23416100997213,-0.0535825682702538,-0.318657862463887
68.54,-0.459353914893801,0.298397001635584,0.816519093603331,0.800852132776072,0.261454409983866,0.386955775767771,-0.961137499011187,0.262410425528867,-0.0882378994422539,1.23014591517141,-0.157396413511057,-0.2350416763232,-1.02403825313664,0.0149589047428684,-0.0844513123215366,1.16720956595063,-0.480520940742287,-0.609990888351816,-0.922952377617078,0.0283998383256915,0.120218790984465,2.25248606364095,-0.0584842582338108,-0.345546570354222
68.545,-0.461709465353141,0.27972597081123,0.823985665465661,0.808767748394391,0.260594020829737,0.391250029438711,-0.963640723312568,0.259031752829785,-0.0898180357917607,1.24202722886465,-0.16018418474803,-0.234535124333413,-1.0049816652623,0.0368453946295537,-0.0932167643862048,1.18051970501099,-0.479234430341791,-0.601643710021786,-0.932207285299113,0.0345807226131866,0.11910279313652,2.26898120169929,-0.0625196486747155,-0.371310465879585
68.55,-0.458408466798495,0.281199986135243,0.825008584510054,0.81420265243448,0.257349029198577,0.393496929129834,-0.961197427644672,0.234906095569763,-0.102138268352924,1.25137677172409,-0.163111961218193,-0.234111655531138,-0.982471087063042,0.0556842408323829,-0.0925380663879067,1.191322054836,-0.4775854862521,-0.593841396441108,-0.945055782485084,0.0393012416783174,0.129223219387488,2.28362970373078,-0.0655590989608816,-0.39566686290084
68.555,-0.459586939637275,0.279174096539922,0.826525156579872,0.817700448925466,0.252034544618499,0.394188860164728,-0.960513373257151,0.206079628535957,-0.104117526662175,1.25879266523592,-0.166152843656782,-0.233800420805654,-0.990563031380627,0.046531725250265,-0.104279508863599,1.20019677164347,-0.475715066458277,-0.5865501408201,-0.958471598174573,0.0398150804689925,0.13717773699127,2.29647985846124,-0.0675101331891649,-0.418393175349954
68.56,-0.460106204449226,0.284082244868906,0.82445851374277,0.819797319037322,0.245032631939432,0.393825634504496,-0.964834684696418,0.188068122281533,-0.0945353314882016,1.26486834032997,-0.16925957158852,-0.233632212150022,-0.98921383625431,0.0293422541369057,-0.110372339849041,1.20771959858567,-0.473753459002585,-0.579734740609052,-0.967584459142713,0.0416668101928966,0.147635680400085,2.30762574491567,-0.0683186286433922,-0.439340690626961
68.565,-0.462544559008629,0.285488159508194,0.822239475935231,0.821021757896718,0.236783987756564,0.392907731217176,-0.963856101311008,0.162022029957823,-0.0989175591400105,1.27018773604531,-0.172373580399851,-0.233635565980664,-0.986050189371002,0.00612369326330838,-0.11218304112915,1.21445806923718,-0.471818139356591,-0.573370969427859,-0.975000176043847,0.0486615662008456,0.155184046027228,2.31718508820295,-0.067966846953275,-0.458435572457766
68.57,-0.468918228621176,0.283422462871721,0.826125497087522,0.821814812245589,0.227736963061033,0.391877311142308,-0.969479696354232,0.144249133511592,-0.108821462806068,1.27523907408655,-0.175436228244696,-0.233840138663621,-0.981607035169406,-0.00847801512846646,-0.117257674962086,1.22088633336868,-0.470006351114449,-0.567468301959538,-0.976500009663496,0.0418273045655894,0.165484651812153,2.32528096150866,-0.066475997468948,-0.475677225815631
68.575,-0.470380065347842,0.287640366009185,0.823681353151257,0.822246715664147,0.218185934958248,0.390917256089628,-0.97836375403309,0.15474622483511,-0.117311606913723,1.28010877197061,-0.17840675167014,-0.234286844480405,-0.963866440434579,-0.016468936148469,-0.129042341243281,1.22708277127037,-0.468361991140493,-0.562127378887186,-0.975202402389981,0.0427859084921964,0.176224592239302,2.33202947238245,-0.063917584109585,-0.491141436780947
68.58,-0.468533121124876,0.292935411710702,0.824184953392133,0.821946453180025,0.208220602300704,0.389889242227639,-0.985401015879835,0.171630792034209,-0.121093288543986,1.28439601479638,-0.181268286979717,-0.235021428639278,-0.977882594133875,-0.0111606051712219,-0.129578225667339,1.23264691588295,-0.466862236605735,-0.557551618961273,-0.968216224032649,0.0470270761749239,0.187618152462317,2.33753188680662,-0.0604115551123032,-0.504973222602853
68.585,-0.470743427844924,0.305824478523526,0.812625433648052,0.820438748032283,0.197883193290964,0.388548627368685,-0.991568432890472,0.17433884311733,-0.119969364145726,1.28756574106768,-0.1840119949018,-0.236071664580436,-0.972559950236492,-0.00672872435143911,-0.133282832831146,1.23704975201042,-0.465451348352468,-0.553968689472109,-0.97135882725392,0.033598075598744,0.191306576729498,2.34187194638538,-0.0560960420346442,-0.517361640629362
68.59,-0.460658042086913,0.316013779991647,0.816249826335129,0.817506474925882,0.187334468551428,0.386787130564337,-0.982314034125264,0.168026012036638,-0.11366236664698,1.2893426450324,-0.186620712893387,-0.237436157953417,-0.953095814401123,-0.0103110132964617,-0.152773365655935,1.24002262676986,-0.464086750064812,-0.551540448259251,-0.973820508099008,0.0437385076891551,0.20248821425443,2.34511522815845,-0.0510944246115979,-0.528509100013531
68.595,-0.457222505613963,0.305520896628617,0.81555593471047,0.813089672369826,0.176779196352238,0.38457420890305,-0.978937231124233,0.161944602250842,-0.108206876580349,1.28961772513789,-0.189078685768915,-0.239102969537725,-0.947886569707906,-0.00497592999608338,-0.161078522545022,1.24146236201792,-0.462742820351395,-0.550371229449673,-0.968493943986198,0.0399344229955701,0.210054074847032,2.34730352968199,-0.045516035304588,-0.538612133545582
68.6,-0.457875515821806,0.302637663875615,0.818430971936064,0.806910314256117,0.166260169310119,0.381712311293468,-0.976586337666524,0.153625573104026,-0.112856150575876,1.28805297532757,-0.191394418734591,-0.241073328377514,-0.95142795623208,-0.00854127539275907,-0.170094017695192,1.24103874798608,-0.46138028388995,-0.550579459112763,-0.968734374753497,0.0274781980081873,0.214279575957182,2.34844738033091,-0.0394760316241601,-0.547857928648883
68.605,-0.45923589220527,0.296942269810157,0.819502910875275,0.798437912447278,0.155648332074444,0.377814020945978,-0.977562225775056,0.156666223820128,-0.113459803315336,1.28404151341014,-0.19360420769815,-0.243359666539983,-0.954236554107297,-0.00574927994428361,-0.171669520203263,1.2381557206757,-0.459942169899025,-0.552301984817543,-0.971903406183321,0.0172973938044223,0.210031993605065,2.34852654302417,-0.0330945729372671,-0.556426137893376
68.61,-0.46902575756438,0.308078482845983,0.81754574719988,0.787142191298686,0.144782474178911,0.372470297419264,-0.972285497003923,0.168484750293118,-0.126833313925962,1.27698244390274,-0.195760234930056,-0.245975575433637,-0.960851900409217,0.000751555541147758,-0.177934049613709,1.23222351282887,-0.458382987004123,-0.555638454854539,-0.976295969548185,0.00910760781497689,0.217060053856536,2.34749767391365,-0.0264848823410566,-0.564474763529668
68.615,-0.467896440176012,0.302632628478276,0.81698985929377,0.772485600362838,0.133454017197305,0.365245239493513,-0.970697942675133,0.187370465009813,-0.134161781488753,1.26628756618811,-0.19792772113622,-0.248947265269087,-0.958056270287482,0.0220547009145245,-0.185030066457858,1.22266338253469,-0.4566807541096,-0.560649681276101,-0.979739572409051,0.0111563413879237,0.201771916667395,2.34530112692343,-0.0197616062583085,-0.572103658319758
68.62,-0.467817752669786,0.303807000081241,0.820121247615756,0.753644461534519,0.121251367105183,0.355491033727736,-0.96921590949622,0.200543146448879,-0.126427923797891,1.25108917420668,-0.200191492910909,-0.252332188658566,-0.950324722862126,0.0377717208019393,-0.188026785846259,1.20861673642567,-0.454818417656987,-0.567418206935567,-0.985952344812061,0.0056287133653896,0.18788096514437,2.34186459018844,-0.0130575244387689,-0.579328125824023
68.625,-0.475965908470432,0.300894771308809,0.82238222244053,0.729355410353203,0.107494019252394,0.342248441507193,-0.972014490487723,0.203618058371298,-0.119862708312387,1.23006549983408,-0.20265751281508,-0.256218499464882,-0.940664722085899,0.0465805849263659,-0.179852241857928,1.18877297245925,-0.452765518324508,-0.576090295706867,-0.990793419053894,-0.00945271450453611,0.176934392757657,2.33710536015163,-0.00652282269470852,-0.586085956363424
68.63,-0.474154690918413,0.302722071522641,0.820994102536595,0.698041049935823,0.0913242530638008,0.324331516378493,-0.97389064002022,0.199999317048999,-0.125890985316846,1.2015604046911,-0.205442077732994,-0.260706652194538,-0.944582739884403,0.0468890998497663,-0.172556277090895,1.16148988668443,-0.450480251179621,-0.586859962370423,-0.990969423930416,-0.00524446794232801,0.172375642436108,2.33093419186507,-0.000307540817365469,-0.59225568246613
68.635,-0.46787413091944,0.299522077252475,0.815104858136025,0.6581782534508,0.0719184273966343,0.300576206038098,-0.97911467907591,0.194211785502728,-0.126488969734921,1.16396876351992,-0.208647520940048,-0.265885309489887,-0.957533421028781,0.0372794977829408,-0.17423085330696,1.12517682700207,-0.447934359130597,-0.599897477094775,-0.984370502771323,0.00154354145689025,0.172267827522692,2.32326465899498,0.00546528673820793,-0.597665144948274
68.64,-0.465542758032589,0.307695935014748,0.815614781291961,0.608662729146578,0.0486818966888682,0.270097290743182,-0.977178320217875,0.184742138381047,-0.126341312641162,1.11612576628831,-0.212337709493777,-0.271816994198491,-0.964117270412484,0.0403374017256695,-0.182903159686269,1.07868039903346,-0.445142351688015,-0.615275187037725,-0.978626419891788,0.0042277497465216,0.177470364725192,2.31402444165031,0.0107241876281773,-0.602099390540857
68.645,-0.466101654795327,0.312682522682958,0.813246550425459,0.548770815059847,0.0212201304928707,0.232279412947625,-0.97893459328764,0.188020778483043,-0.124917854232753,1.05726509193854,-0.216535064217402,-0.278543283495406,-0.964716807693251,0.0576064146296915,-0.174418606143189,1.02124213915878,-0.442158141767905,-0.632977794422882,-0.986710316271837,0.0162349608782278,0.188314731502477,2.30315824331716,0.0154531219786489,-0.605322152895447
68.65,-0.464033068245288,0.313631043420101,0.816690184252997,0.477820891136516,-0.0108495371680723,0.1865565301553,-0.981639676100591,0.187481851959804,-0.12317281674095,0.986645764754149,-0.221233935740343,-0.286092679988683,-0.967341264675833,0.0666588853408191,-0.170269086546335,0.952128753285368,-0.439040841421684,-0.652979642650659,-0.975000391904759,0.0289753901828961,0.202682854020196,2.29062320553711,0.0196784606345901,-0.607106918773195
68.655,-0.466284860442753,0.322041103804479,0.817483830240518,0.395013073180294,-0.0479895728144603,0.132303534187786,-0.984607574031705,0.190195528240674,-0.120432484472548,0.903363765916737,-0.22640690135937,-0.29447238024561,-0.986953828505172,0.0793843571789999,-0.161389139371141,0.870446718675644,-0.435830182172876,-0.675289957421011,-0.974634590112261,0.0238732349508356,0.21016049985918,2.27638849624053,0.023458238938198,-0.607261264549821
68.66,-0.470662324521289,0.357518482482643,0.835679286495525,0.299544067783137,-0.0906935207868237,0.0689159904087617,-0.994257673379643,0.18895921783202,-0.10640014229286,0.806460994359436,-0.231999371875382,-0.303649624336398,-0.986691437451327,0.0735180416287418,-0.163120735039685,0.775251710978597,-0.432544740779841,-0.699942407321265,-0.980799033856611,0.0269844994258342,0.211893470886237,2.26044248728374,0.0268781934293018,-0.605637447687327
68.665,-0.35509371780886,0.291555226961558,0.836664878116071,0.190807523719778,-0.139399263199697,-0.00404814400605613,-1.01666898602532,0.0548576888198279,-0.100766138290343,0.695130746750314,-0.237920776955923,-0.313534042669513,-1.00097236023508,0.0766812930977581,-0.176515025250401,0.665753135970685,-0.429188402416382,-0.726964097310624,-0.978818209494214,0.0426169459208861,0.205038646157947,2.24280283540673,0.0300502451856301,-0.602135259825198
68.67,-0.545918253045041,0.319963026659295,0.741919954911447,0.0685999316201167,-0.194397076767175,-0.0867237877396558,-0.953600626785097,0.174578270379736,-0.182872986987537,0.568933595508035,-0.244036644877924,-0.323964021386251,-0.938828489827647,0.0176586334630574,-0.138467302934381,0.541528432141654,-0.425757315523019,-0.756338978781136,-0.982540881908516,0.0475009347980385,0.195265630632083,2.22352885250706,0.0331095720370047,-0.596703478922642
68.675,-0.415163775188808,0.326573352816525,0.797472281792478,-0.0666894116278757,-0.255740801630308,-0.178811432842848,-1.00846640381164,0.252417569859159,-0.0968082725696107,0.428003415851669,-0.250162937758366,-0.334699255436053,-0.851316490848723,0.0718792752313656,-0.172868402605165,0.402726956436174,-0.422246414327334,-0.787968685975526,-0.979929342236805,0.057481667584366,0.189642612233398,2.2027343243325,0.0362091577682474,-0.589339888393269
68.68,-0.484920252574451,0.325402291124764,0.819381424169884,-0.21393970836841,-0.323190225333166,-0.279494150182369,-1.01789263706082,0.237076254656037,-0.108687883206405,0.27321039727509,-0.256062121658862,-0.345423145688148,-0.956790776830464,0.067278273730222,-0.179337430196564,0.250230219051171,-0.418654756398246,-0.821636947469668,-0.971399536709714,0.0638586019040037,0.180347641005562,2.18059199429411,0.0395149621196458,-0.580089177614272
68.685,-0.466895144933352,0.344574165436378,0.831054003230403,-0.371162821385192,-0.396157404895595,-0.387357389276118,-1.01445742180047,0.185583055131988,-0.119063667732781,0.106330393213873,-0.261438804083787,-0.35575221548805,-0.998637566209126,0.0391326482008804,-0.170746500505966,0.0858178130526285,-0.414990030307497,-0.85696894291791,-0.962718608227214,0.0769050079647304,0.173389391357335,2.15732619877972,0.0432177548588965,-0.569053793352831
68.69,-0.462344529319271,0.336325187527709,0.809447714094125,-0.535381563119123,-0.473649804883159,-0.500305006959608,-0.954610580637897,0.212064566308319,-0.111286354660672,-0.069796190599289,-0.265939947895709,-0.365253550810145,-0.968846885894063,0.011993312746596,-0.222816618968025,-0.0876773279258381,-0.411271369132741,-0.893385007695336,-0.964054728776533,0.0973556642519041,0.167183791210968,2.13320011094605,0.0475764802582254,-0.55643478820334
68.695,-0.482619978053906,0.325951745414758,0.819254922799811,-0.702775052231432,-0.554332103599095,-0.615651669152792,-0.978126110992983,0.280199036727209,-0.136245565814612,-0.251388132076274,-0.26917352889764,-0.373481118260426,-0.97060741451759,0.062722619199652,-0.2092401949286,-0.266494842339308,-0.407523802181372,-0.930106915373418,-0.960758463766152,0.104061779400055,0.169457008167494,2.10850436961397,0.052940558904784,-0.542568510271884
68.7,-0.475425932351832,0.324210328728721,0.822230502195927,-0.868962298521678,-0.636627401003635,-0.730336356060443,-0.999768198677622,0.253792175334934,-0.109088000755585,-0.433986896612226,-0.27073678989363,-0.380021628367406,-0.980455065891012,0.0962018270691921,-0.196460937131975,-0.446211248831284,-0.403772079504698,-0.966208503002191,-0.959847178861876,0.117979888264498,0.175214033749557,2.08354612782727,0.0597018530219644,-0.527908457013993
68.705,-0.453602191999155,0.324145997755378,0.819504539042123,-1.02899992947853,-0.718626956584413,-0.840972980339692,-0.979694089112371,0.207469391736597,-0.0991123132058857,-0.612389858653566,-0.270233939772154,-0.384543146248328,-1.00074702704655,0.0869945098817598,-0.21383095143852,-0.621675555812533,-0.400058344067885,-1.00062220021912,-0.96465986470203,0.127890472078387,0.184991639180132,2.05863380610019,0.0682207496542948,-0.512962865032231
68.71,-0.476472958983394,0.331488113271448,0.821080200954827,-1.17745967015704,-0.798024165177175,-0.943940905815852,-0.964437108473262,0.2456422006651,-0.129703934194585,-0.780666312999932,-0.267295513522877,-0.386855922879732,-0.979939573569383,0.115647544076635,-0.213381374754807,-0.787026642566449,-0.396463544598862,-1.03216502057269,-0.973908966914512,0.139522071254178,0.197648946757473,2.03406036560655,0.0787573924747639,-0.498230082578955
68.715,-0.48883613252655,0.308901924482882,0.82789364172347,-1.30887027671513,-0.8722640066905,-1.03567800080321,-0.9703209541364,0.235789387512559,-0.118781305766137,-0.932605158946233,-0.261607073129327,-0.386959758574883,-0.977167672487958,0.12568905616583,-0.202901915240944,-0.93613668136004,-0.39309747454683,-1.05963744644462,-0.982910502928082,0.141946173014053,0.208007053643224,2.01008967733807,0.0914295627576413,-0.484170172334145
68.72,-0.476185113689014,0.317554885882278,0.827136942946466,-1.41798184737805,-0.938610985079282,-1.11283607141613,-0.969894124227371,0.189150497383514,-0.0984865450285857,-1.06199238581476,-0.252931623699126,-0.385061773315897,-0.987204909304042,0.121618072355501,-0.181766807934321,-1.06288230849176,-0.390085029432311,-1.08187593035635,-0.985188760169159,0.146807811328775,0.217356418680753,1.98694521049227,0.106231428903376,-0.471221010976956
68.725,-0.472451872298325,0.330108344500698,0.811465820179405,-1.49982410271707,-0.994116233807069,-1.17230574846094,-0.954874598467621,0.157505654502656,-0.0958136110717655,-1.1626585815287,-0.241121375379218,-0.381588208104158,-0.985606235623891,0.110435375253036,-0.175458342898554,-1.16118688296897,-0.387570446275679,-1.09774813561727,-0.983698814495168,0.1513222581762,0.223945139727375,1.96480301172441,0.123070571933768,-0.459816367786804
68.73,-0.470113962180193,0.343503212176175,0.814653517766624,-1.55018749973312,-1.03587290985675,-1.21151588424426,-0.96405657864139,0.155367078192419,-0.102494303672502,-1.22901774081346,-0.226135291728886,-0.37718515590496,-0.979266243294121,0.14754439336813,-0.174611901356499,-1.2255510749956,-0.385711178624493,-1.10622589009691,-0.993782445063335,0.159093168259575,0.230260878461918,1.94379214880122,0.141798625458182,-0.450379600384297
68.735,-0.461895607350275,0.356331836205018,0.80013591365293,-1.56654302446702,-1.06159381213204,-1.22899967370035,-0.973892565295839,0.139211868032725,-0.0970311527148465,-1.25716489750671,-0.20807254814067,-0.372668413743128,-0.988412081665242,0.159204061183177,-0.169269644840642,-1.2521372175181,-0.384647492989581,-1.10656373200255,-1.00064324902513,0.162602131192038,0.235440893281889,1.92399786496082,0.162260579252103,-0.443298443308436
68.74,-0.461188361488791,0.334665103698175,0.80591421558806,-1.54853120262511,-1.07001840106665,-1.22466922465385,-0.977636864761466,0.128954716211277,-0.0907358312413933,-1.24554898070536,-0.187186856762909,-0.368919534208199,-0.994651505416801,0.161360760060671,-0.161521159002328,-1.23943138465666,-0.384475074322635,-1.09842016016233,-1.00083722843923,0.156552338070277,0.23845692433695,1.90545885435994,0.184325779954405,-0.438887443127628
68.745,-0.465262626062974,0.330428448666064,0.819836420309216,-1.49771358640425,-1.06091871018144,-1.1996180574191,-0.977136137216184,0.142026284384514,-0.0854022596279817,-1.19482350568448,-0.163861544924025,-0.3667767908648,-0.982033416863013,0.157846545498911,-0.15700359986141,-1.18809203524041,-0.385242541114424,-1.08184040765744,-1.00073572113128,0.163708965052398,0.236954833164829,1.88816002062848,0.207869616539667,-0.437355915903068
68.75,-0.465509643929827,0.326995888907373,0.817863029887667,-1.41722253652576,-1.03500710482954,-1.15586373456947,-0.981521056407317,0.147426076454969,-0.0901997783957539,-1.10757159027863,-0.138575270385164,-0.366944569376909,-1.00416616761556,0.140340459884262,-0.147057685330734,-1.10067774407865,-0.38695711658294,-1.05721294083961,-1.00001582761568,0.15981774443031,0.237918165807305,1.87203041879941,0.232747662039414,-0.438784018270812
68.755,-0.462199941803487,0.331503152395582,0.815978969227523,-1.31161333859726,-0.993929299393367,-1.09623362073212,-0.981536338795268,0.150584541207987,-0.0910399038100742,-0.988245751100414,-0.111876790190265,-0.369916370065565,-1.02224922276437,0.123611473936442,-0.147273864872036,-0.981590786472173,-0.389586009136381,-1.02527043359407,-0.989855643843146,0.155090674214883,0.243540460362974,1.85694483368766,0.258772469020807,-0.443092568978193
68.76,-0.462420832804909,0.343353359555588,0.820481506782608,-1.18669908822842,-0.940236762281978,-1.02426299401684,-0.971372214657173,0.148356848762,-0.0802120590691198,-0.843066673958564,-0.0843625767113543,-0.37591028244592,-1.02564926379772,0.0966848191576505,-0.143796890959983,-0.836981150935193,-0.393051889470169,-0.987105304598577,-0.981370554117867,0.15880806593897,0.243072945342001,1.84271915954277,0.28566054065034,-0.450019161912101
68.765,-0.459089973336582,0.340995146640409,0.809899073150399,-1.0490247572415,-0.877149647878505,-0.943882468778068,-0.971121487399182,0.151953162411922,-0.0688731337392557,-0.679467187444333,-0.0566332826632703,-0.384837160671174,-1.02304974252194,0.0675078582996135,-0.13042824097983,-0.674199826552986,-0.397224638670772,-0.944092762861578,-0.970327606583836,0.163755025142061,0.237662045814684,1.82910686722735,0.312994485345428,-0.459118580782504
68.77,-0.45901835428623,0.326750280246282,0.807433226704174,-0.905257543785859,-0.8082130791117,-0.859071073177829,-0.96125023786303,0.161289549226679,-0.0778716348406548,-0.505373492358742,-0.0292359066245649,-0.396330545445454,-1.02206277670346,0.0542529880013599,-0.120838433512944,-0.501091696549233,-0.401930245360771,-0.897734825443372,-0.965822040745534,0.163301603966295,0.240849202058219,1.8158126734004,0.340265107586341,-0.469773942619256
68.775,-0.448681421870458,0.333162142418571,0.805642460111632,-0.761904839652545,-0.737060759409361,-0.773721057015779,-0.956761527546845,0.163950039282979,-0.0778176842881525,-0.328817795170529,-0.00261922246238019,-0.409815609142218,-1.02486456251375,0.0347602879143491,-0.116703707853686,-0.325616655499589,-0.406972702166816,-0.849539414799431,-0.952791525197264,0.166511626756947,0.241244813669066,1.80251818863167,0.366961422083972,-0.481212883862794
68.78,-0.446069485785411,0.295802566044842,0.81392935998274,-0.624736676181048,-0.667039195192783,-0.691296876184668,-0.958179600227994,0.172916697889735,-0.0762203106677121,-0.157177556356383,0.0229122449802714,-0.424602444577181,-1.01781136174522,0.00436118356118287,-0.118752543854705,-0.155096760123903,-0.41215043259884,-0.80084343504189,-0.940508694222134,0.168340320163327,0.241726627600439,1.7888988680078,0.392652078579321,-0.492553838233962
68.785,-0.442246269240492,0.303229560022342,0.868979138782774,-0.497847114872746,-0.600654654443217,-0.614246211402888,-0.959085143316167,0.179466650159929,-0.0654048236846148,0.00404315716306527,0.0472283907402486,-0.44000784110975,-0.998424507591511,-0.017208432904486,-0.123773137779144,0.00499527856798751,-0.417275196872197,-0.752585845061174,-0.930736693006258,0.162846814194866,0.2466140833799,1.77462501463118,0.417029212208658,-0.502875964231406
68.79,-0.454188328981502,0.431759784743212,0.752902184493777,-0.383349807298584,-0.53930671566976,-0.543809293975803,-0.964137795742256,0.180453904835208,-0.0645727230501863,0.151695098095974,0.0703505525102183,-0.455455706607668,-1.00367782986321,-0.0256235265528634,-0.118664627397746,0.151518033493636,-0.422194704093456,-0.705244404552593,-0.917846276733113,0.156999837596044,0.25018862431259,1.75936321077118,0.439899354527446,-0.511279901919696
68.795,-0.476695134133248,0.426104456491578,0.771836290367669,-0.281945004849236,-0.483495055603527,-0.480396732326503,-0.971426645079465,0.180223579260119,-0.0635608366862182,0.284395894348652,0.0924100394647464,-0.470512845367353,-1.02089258653389,-0.0279504625917519,-0.118798148663421,0.283079818002279,-0.426803893394852,-0.658950947680199,-0.914091841543267,0.148878765396065,0.260245384055908,1.74279601668963,0.46113404314532,-0.516943713740715
68.8,-0.459881547627104,0.395207250424379,0.766029314831249,-0.193682382926632,-0.433226795707567,-0.424102995711336,-0.970552613267832,0.177199186420661,-0.0529100546463173,0.401653972702219,0.113627803357929,-0.484876740369807,-1.03424875105775,-0.0268752813354995,-0.117730424295186,0.39916833428409,-0.431040504746389,-0.613630723575026,-0.915151562787201,0.144832819062854,0.268148343135854,1.72465260900749,0.480617755745042,-0.519173083595504
68.805,-0.450981596072714,0.366242447035306,0.814195264416931,-0.11828288928847,-0.388238516563019,-0.37492776873212,-0.968049550951654,0.172901247841314,-0.0570796915130385,0.503489751051312,0.134303923598901,-0.498358100441153,-1.0377502151746,-0.0213312450895121,-0.0983594336226631,0.499774789584136,-0.434875130029797,-0.569063911071379,-0.928077174744516,0.129211190934155,0.27874761591998,1.70473055346577,0.498232959496138,-0.517415014672181
68.81,-0.436334516968749,0.378907902091252,0.804695267944221,-0.0550316450743151,-0.347958712618966,-0.33269730003361,-0.967968427467653,0.167533168536074,-0.0473925469923178,0.590565537244024,0.154798206097133,-0.51087522557312,-1.0417605646634,-0.0256005950487531,-0.0780350789690364,0.585525261320526,-0.438303733256333,-0.524883692084466,-0.94282492343762,0.117436160686626,0.281601285449742,1.68290119550267,0.513877870326088,-0.511252218631138
68.815,-0.449812724628628,0.382944686527434,0.799803866899465,-0.00268969418344201,-0.311464893247773,-0.296968013365197,-0.965157370634984,0.145899528865355,-0.0397517457066902,0.664278515211846,0.175503281793576,-0.522442511169145,-1.03283767920369,-0.0279624359847621,-0.0582703206065559,0.657775403007333,-0.441340241427397,-0.48058566105443,-0.957457240615085,0.106846557256624,0.285926043189153,1.65910396850726,0.527476499663087,-0.500422154255679
68.82,-0.460058026592572,0.416466051797829,0.761450070715893,0.0404204047913485,-0.277566715294631,-0.267041518016508,-0.968030119223822,0.136743796344776,-0.0448303860173301,0.726634020248685,0.196823186594199,-0.533147301096916,-1.0274242192022,-0.0330221562771456,-0.0435316924686099,0.718485450953372,-0.444008264234677,-0.435561241863309,-0.964662556671024,0.10195550698953,0.285039218105113,1.6333418116614,0.538970993726598,-0.484844631122212
68.825,-0.447493676733349,0.330285722991151,0.788436071053415,0.0762953466902524,-0.244927878197202,-0.242043362692291,-0.966536492752219,0.131706877215648,-0.0290406445196923,0.780094975022926,0.219161990961848,-0.543127823279002,-1.01683437782591,-0.0380013967032694,-0.0293491913273231,0.770070589996252,-0.446335754907284,-0.389123644132076,-0.97467644974004,0.0846784240324041,0.274767446002902,1.60568391774264,0.548314044929827,-0.464619537590091
68.83,-0.417623517716344,0.269179479178227,0.886651316264287,0.107167097971909,-0.212155375589183,-0.221005059321199,-0.961636034808988,0.130884305797491,-0.0321188191909594,0.827487114577638,0.242915263879679,-0.552554811960616,-1.01125794736091,-0.0354906216944407,-0.0238965647022335,0.815306689352547,-0.448352638395989,-0.340525603511054,-0.982109999731372,0.0722198288753473,0.269351224299508,1.57627039684,0.555463048289239,-0.440002602195382
68.835,-0.437852015144432,0.44029388746919,0.820798035350315,0.135404593518917,-0.177875312619817,-0.202926544055134,-0.967179078766389,0.125359107389289,-0.0254195614144745,0.871866050391047,0.26845641373204,-0.561607101580039,-1.0108121834666,-0.0505728071100536,-0.0257151829902368,0.857198400973678,-0.450086991647578,-0.288989869675098,-0.993445564867454,0.059828133187706,0.259572835025015,1.54531549780152,0.560372949636184,-0.411394599898256
68.84,-0.437567977636308,0.370790256194473,0.748929569582527,0.163361973243793,-0.140820697800161,-0.18684565753269,-0.971445254014788,0.12309504267183,-0.0200862928947664,0.916296527533414,0.296117422579911,-0.570440425691691,-1.01625037939484,-0.0550730776439486,-0.0190735678522487,0.898760375144996,-0.451560552392368,-0.233753705181333,-1.00802725062362,0.0551386635421957,0.249280501853234,1.51310746621736,0.563010235116273,-0.379343964399894
68.845,-0.437113602621637,0.463190536667919,0.761509338365109,0.193223026172523,-0.0999143855703374,-0.171926583064619,-0.970421771369582,0.131949244782876,-0.0197525391087354,0.963633198160653,0.32617130783065,-0.57916148441275,-0.990551253518382,-0.0630302797838819,-0.0137145089403977,0.942800293675022,-0.452788886437374,-0.174112265539119,-1.02303888330155,0.0406013904268637,0.221431410531213,1.48000202763787,0.563386593113179,-0.344531306680921
68.85,-0.439053948076934,0.517970526075376,0.719712879424612,0.226912174440834,-0.054317851375507,-0.157525481843571,-0.959283899978121,0.137797719374731,-0.0256587896512387,1.01639462806639,0.358822790783536,-0.587812733001125,-0.998599093778226,-0.0562410609406874,0.00214434869440913,0.991794625476698,-0.453785433226406,-0.109453458739369,-1.02345735552347,0.0440713715649838,0.207441669685303,1.44641389828992,0.561574077240833,-0.307727204875365
68.855,-0.427301364410798,0.484138894635262,0.730559481888707,0.266076951659418,-0.00344541996137548,-0.143214186174881,-0.958813530898362,0.147519147840967,-0.0120548773286371,1.07672785888041,0.394210446915959,-0.596364878637629,-1.02342242097584,-0.0395819441423517,0.0135615690806044,1.04785404313939,-0.454565708709469,-0.0392785793013736,-1.02667003301618,0.0400401439013669,0.198169575255391,1.41281481924257,0.55769673846623,-0.269736564909854
68.86,-0.400774007909706,0.387183386716585,0.781747800262657,0.312053335808945,0.0530079306032133,-0.12881042049927,-0.958564513761611,0.167569576550759,-0.0138526353710387,1.14634217617079,0.432414187061068,-0.604706188517885,-1.03613421681965,-0.0212891514613471,0.0190288433635907,1.11265793226894,-0.455146667855599,0.0367777978079009,-1.03252861575882,0.0406125143254148,0.180923418820761,1.3797372601305,0.551917722322406,-0.231362687598879
68.865,-0.379233852779114,0.318415435967188,0.856851878803406,0.36573240948077,0.115002795428271,-0.114453128270921,-0.957317450350113,0.202991972345032,0.00608304527199552,1.22630145770803,0.473448985346743,-0.612621602393332,-1.03899320376546,-0.00336174529144019,0.0258614239237887,1.18724951883029,-0.455539915879195,0.11889907624638,-1.04470161013489,0.0358018451971353,0.159126644859017,1.34776404428183,0.544439411615074,-0.193406821443974
68.87,-0.38855098295833,0.404930182488724,0.834609192494563,0.427397481484085,0.182104614101144,-0.100690063696816,-0.971676794085679,0.238716836857429,0.0279933299177591,1.31678260121565,0.517241870397431,-0.61977769394555,-1.05122800307459,0.0536552036412381,0.040218919085972,1.27179947307615,-0.455746527389512,0.20701247278125,-1.06814823040799,0.0370061049762647,0.140890438379071,1.31749451910383,0.535498452059199,-0.156658990046408
68.875,-0.352355929013667,0.51241622261788,0.736790468229314,0.496659853806973,0.253467534036652,-0.0885083624635969,-0.989590289207799,0.270676801135675,0.0331093315569176,1.41698015978489,0.563617228037882,-0.625729900835749,-1.07028644101266,0.100962480680381,0.0569148585858583,1.3655154387939,-0.455755171238732,0.300731391730374,-1.10020192305438,0.0279555124423997,0.121327005622623,1.289515744368,0.525314345197427,-0.121855289192967
68.88,-0.335082652029687,0.486064288913232,0.746087792626402,0.572404308033312,0.327792367051697,-0.0793430696287361,-0.993066778153128,0.309927877432727,0.0542800206671362,1.52503805147552,0.612298708039303,-0.629948754719927,-1.09558282874632,0.145300343735584,0.0785791420854258,1.46657755166534,-0.455540275035945,0.399331926883113,-1.13758582155631,0.0228087241692761,0.109507695104522,1.26439780913275,0.514053570880401,-0.0896368415984178
68.885,-0.361738639676881,0.558570888780572,0.71694522062549,0.652660219503218,0.403275173245499,-0.0751285850420115,-1.00897643019295,0.320392909273231,0.0752523694162651,1.6379155317978,0.662914118981046,-0.63186585399302,-1.13381784258175,0.186665707572259,0.108730093490176,1.57200798336103,-0.455063015561655,0.501761559693734,-1.17535602094511,0.00559328125023558,0.095289463369864,1.24268841205803,0.501889450428954,-0.0605414282596225
68.89,-0.362845410361398,0.486223687116549,0.756823642309762,0.734762933278608,0.477740713147566,-0.0781882190344844,-1.00003136601297,0.349071237807875,0.0762727092096654,1.7516718829872,0.715005844330659,-0.630949441615842,-1.16612200609885,0.199582829341967,0.148145534230547,1.67795611488884,-0.454281067016577,0.606719870430859,-1.23443923060879,-0.0134802411149549,0.0843062412386296,1.22488190488906,0.489067897139974,-0.0350013443277321
68.895,-0.390509117382444,0.441570542462105,0.785803329429697,0.815989248910346,0.549017626744934,-0.0908031795469683,-0.994261894899007,0.317217848486985,0.0636744534428403,1.86236783549746,0.768044883060532,-0.626786802821149,-1.19626517524507,0.180741302777084,0.201323030035838,1.78059554226782,-0.453169182796405,0.712801744972521,-1.29522439189844,-0.0464778838179582,0.0680890379381416,1.21137849740899,0.475871677840664,-0.0133081862578535
68.9,-0.380122508454954,0.423155435385971,0.80313890361239,0.894261502125009,0.615345127241125,-0.114705970166735,-0.959370328866,0.224226437990742,0.0655693569659194,1.96701521490813,0.821445031702984,-0.619127193277172,-1.24904741870998,0.138449915340852,0.238407984349757,1.87706645478697,-0.451739891278103,0.818648277845351,-1.32130872455786,-0.0748246209730642,0.0421561988451847,1.2024618071722,0.462569051797461,0.00440684197912754
68.905,-0.366324488586499,0.429998426639394,0.801764880848788,0.968539058787285,0.675584936487657,-0.150805965806583,-0.980136298724883,0.157408544432316,0.0688970226219501,2.06408634712732,0.874588077484847,-0.607868209202285,-1.25539357545082,0.0665176100432442,0.257787115724974,1.96597701636003,-0.450051363103154,0.923071593214584,-1.30681934113696,-0.0971115826048145,0.00815371573288643,1.1982910454746,0.449432829903046,0.0181313258939973
68.91,-0.376524165390184,0.445786340986422,0.794090358953626,1.03868164032754,0.729107252741862,-0.199296598826039,-0.98412079720505,0.112800717865026,0.0815537021795951,2.15333212954475,0.926843079929599,-0.593009029962623,-1.28435414095963,0.0101570981212023,0.260734636651956,2.0472162657541,-0.448202459138593,1.02506512783244,-1.24231515787986,-0.11057851442128,-0.0139830099203974,1.19889321209743,0.436749285603333,0.0279386686205523
68.915,-0.379216272812681,0.442396909358595,0.801745430416461,1.10488551156182,0.775452842060237,-0.260042239336616,-1.00191993124016,0.0776447851312287,0.0830392894180843,2.23505820519327,0.977564570237079,-0.574609605758362,-1.30055479616657,-0.037219675114463,0.258876908952148,2.12122916781515,-0.446316730980838,1.12369299474566,-1.15028553454281,-0.129065549874466,-0.0347117348516427,1.20415656790649,0.424774696755294,0.0339912937201881
68.92,-0.374507425815561,0.468710665291648,0.810847572021087,1.16713036602905,0.814029452317606,-0.332955671325064,-1.00714642340294,0.0596042041388959,0.0566857129981964,2.30942564447976,1.02609091372912,-0.552772875135667,-1.29546061091106,-0.0923879228084894,0.257123141120138,2.18831683838502,-0.444512562500203,1.21799061654,-1.04066833544329,-0.1478474288922,-0.0527044074702913,1.21382565893531,0.413699440301603,0.0365055305779359
68.925,-0.39623829218068,0.449692666318655,0.802535502406178,1.22493144218202,0.844005442813248,-0.418167787220348,-1.05726472366948,0.055260686839441,0.0629526879454371,2.37615334743275,1.07175377386166,-0.527651269202303,-1.28110619731535,-0.127994341955207,0.277702711128402,2.24833630200442,-0.442877386508228,1.30694968522175,-0.984267789631686,-0.159511110831606,-0.0669534309432933,1.22750250100618,0.403641945355902,0.0356907426717803
68.93,-0.396810087552715,0.423381871498047,0.843510801484285,1.27754846188361,0.864471319964614,-0.515879459890597,-1.07185265115513,0.0439257238795543,0.027916298763543,2.43480258478743,1.11389960911693,-0.499465225184536,-1.26509339964225,-0.152429947796735,0.315556751301891,2.30097780988314,-0.441479138805756,1.3895955532023,-0.961379306863298,-0.16973991127322,-0.0666649247390076,1.24466553259215,0.394650582531675,0.0317531856426476
68.935,-0.36989967106739,0.436526772813803,0.849012204282691,1.32444943582207,0.874706955542955,-0.626042272489231,-1.10537480514006,0.0401104835474744,0.0170985841987799,2.48534849685904,1.15192362344864,-0.468493965609119,-1.24195233801892,-0.164380171107007,0.39662360842333,2.34632695956688,-0.440398874461778,1.46510397413934,-0.946284082828276,-0.177218387158475,-0.0668203634339139,1.26469995655239,0.386697689368903,0.0249456685957847
68.94,-0.358667004208421,0.474770561281769,0.87254361019249,1.36556621885322,0.874308994540958,-0.748187521548132,-1.1324006499927,0.0545324326833351,0.0113241044731487,2.52843991195729,1.18530209498995,-0.43503137215474,-1.23765020426838,-0.159743378938404,0.582780635648394,2.38511917811055,-0.439743489018304,1.53287157096764,-0.947325090209933,-0.177431238157214,-0.0553004047304443,1.28692214659668,0.379691275779269,0.0155831599522428
68.945,-0.353756002065884,0.487651042158922,0.859302435741471,1.40133566788342,0.863209361855906,-0.881405276662731,-1.16306169769741,0.0785772778087235,-0.036004986135762,2.56536476033178,1.21361777815706,-0.399334647684498,-1.24089325367566,-0.189655321656818,0.805126969725012,2.41870457841075,-0.439642844262218,1.59254302680348,-0.939952514615178,-0.182953346791297,-0.0393944158173809,1.31059816376424,0.3735147132523,0.00403002859133237
68.95,-0.337479270962336,0.452761192897965,0.874269294014224,1.43250262371436,0.841554187834901,-1.02447252061495,-1.19335254020392,0.0498129102578612,-0.0758557600520216,2.59772366323448,1.23656940375187,-0.36158779205829,-1.02728503896235,-0.41241188871033,0.482702758985595,2.44872670704972,-0.440222088980359,1.64396315352399,-0.926423867876718,-0.18460863135638,-0.00966191789007317,1.33497214019394,0.368007659078614,-0.00930915567584678
68.955,-0.364504952230948,0.424911502998413,0.89956421627163,1.45960100193883,0.809432003259898,-1.17619516197899,-1.19589756367175,0.0401576113972961,-0.12350347552564,2.62675379239685,1.25395511240877,-0.321912222443375,-0.767053759301045,-0.522788645608447,0.0693721855606161,2.47645618633532,-0.441538881609798,1.68705098656193,-0.912320709460984,-0.178139021682928,0.0133986971822745,1.35929372698781,0.362916388868758,-0.0240152612349125
68.96,-0.372989322397751,0.51231122967978,0.878927444970628,1.48266364481136,0.766788730278508,-1.33563402993668,-1.1558678723612,0.0780978490124962,-0.198243302219027,2.65298889299959,1.26565769737481,-0.280410973653411,-0.579963496613671,-0.573778740967574,-0.188248996482437,2.50245620800131,-0.443548333821298,1.72176083634763,-0.914719203261445,-0.156967867672236,0.041152148309912,1.38281797596855,0.357972019104422,-0.0397002597426874
68.965,-0.460784427688278,0.421504785220344,0.851452668473647,1.50141426665074,0.713602906861712,-1.50200969582814,-1.12434279266307,0.144759719649807,-0.191941515178034,2.67650995438511,1.27164858847645,-0.237196699408856,-0.557183300334403,-0.600395224181942,-0.282629713718568,2.52683184822453,-0.446127710514735,1.74814777125425,-0.901075359494823,-0.155585582751478,0.0702483624683842,1.40480438543176,0.353005135799562,-0.0560239227679596
68.97,-0.531942790265845,0.432745520654198,0.827353823158662,1.51550357201572,0.650035277229172,-1.67452334575103,-1.1203801894512,0.141998824882247,-0.228584686980739,2.69722233653312,1.27199059427206,-0.192401696403584,-0.657213637700775,-0.583196083775612,-0.222976357478533,2.54950477693344,-0.449111347570485,1.76639260776123,-0.915775407664158,-0.154084816207857,0.101401281938956,1.42454866094943,0.347922874067295,-0.072669811301334
68.975,-0.541406020723146,0.4256167083616,0.775478570616142,1.52457475402576,0.576461446222716,-1.85227746079729,-1.16236069664516,0.0503755937739551,-0.255103055923394,2.71491622856939,1.26683015103802,-0.146185158576052,-0.766670957091252,-0.548538775184285,-0.178321676290295,2.5702735106426,-0.452301995517313,1.7767734017713,-0.922030632529028,-0.141743155691208,0.122654194155355,1.4414196214755,0.342637440934138,-0.0893301761816661
68.98,-0.564619639595005,0.243777528301289,0.732278496467319,1.52825999877172,0.493465854643793,-2.03427063975438,-1.19436452429009,0.0171411001713331,-0.258523479288353,2.72925112754896,1.25638442610149,-0.0987398926541287,-0.91317664298808,-0.570232844157758,-0.193382849784133,2.58879884644943,-0.455469966301961,1.77964023746273,-0.923619323832422,-0.141874645736106,0.125490792699599,1.45487579798118,0.337054402749413,-0.105717678853168
68.985,-0.506681636174607,0.445508526484733,0.825404459094047,1.52620855944854,0.401847500424396,-2.21938028483966,-1.19012569076366,-0.0191222896736307,-0.314747939397827,2.73978370971678,1.24092749860362,-0.0502952969957748,-0.982990796398208,-0.601279044485035,-0.232378221773092,2.60463191718089,-0.458358861178657,1.77540396891259,-0.950364648579101,-0.133509521568168,0.123012326666517,1.46447243234893,0.331089257228248,-0.121579288144778
68.99,-0.561775887306055,0.403092842195636,0.798800653049018,1.51816446093266,0.302642120092582,-2.40630691385414,-1.18234925066996,0.0423801837837105,-0.317169333896873,2.74605156147196,1.22077717289498,-0.00111144516486239,-1.09882482138455,-0.58820147091576,-0.3041859057992,2.61729734185751,-0.46070114025946,1.76453127114797,-0.953767356385213,-0.129752045377589,0.119854757246973,1.46986843268513,0.324679988388852,-0.136701738625786
68.995,-0.563975902889913,0.299034994829846,0.843153598246838,1.50405416495894,0.197140209450758,-2.59351384912292,-1.1512240876997,0.091771477768142,-0.287669718889072,2.74766479164287,1.19628212529587,0.0485346179252808,-1.19572691216136,-0.597546877257518,-0.395634310058868,2.62638438933337,-0.462236978278961,1.74753918455182,-0.962882865997589,-0.128393282156354,0.103803098145857,1.47083382609966,0.317793991494339,-0.150912110899489
69,-0.529666548723537,0.37207024233262,0.899669880211897,1.48405037629572,0.0868780053477081,-2.77919116925373,-1.11948689147127,0.0584194610617126,-0.307444824992165,2.74437241286634,1.16780952591914,0.0983658564951189,-1.26874463508512,-0.578952009697761,-0.490762423074256,2.63161348535661,-0.462731021967651,1.72498504907626,-0.98311723975398,-0.136156007636865,0.0954133846670199,1.46725456881533,0.310430846136434,-0.164076500053877
69.005,-0.454420460627068,0.193759043017802,0.817182616484172,1.45859863473102,-0.0264066158586901,-2.96125693075795,-1.10055426213334,0.023321237026256,-0.252827984687927,2.73609492973166,1.13573289624572,0.148121438440989,-1.27255330554355,-0.559415911958582,-0.540441582787609,2.63286949493051,-0.46198483234909,1.69745145771864,-1.00671842320167,-0.138685469564011,0.0928436893078908,1.45913017145741,0.302625604514918,-0.176099346187955
69.01,-0.526316497156964,0.0305728600202987,0.994785095759546,1.42838966830493,-0.140852967726932,-3.1374083231014,-1.10687097097425,-0.0636500746437638,-0.241342998939228,2.7229080516035,1.10041965215163,0.197565955538866,-1.26410567502324,-0.52135695484858,-0.561868155380344,2.63018643838918,-0.45984154093586,1.66552281843401,-1.03089306103382,-0.142805201984371,0.0870435793579586,1.44656815403236,0.294439090171669,-0.186921946415359
69.015,-0.543449363328878,0.02026936323516,0.890035535714471,1.39424897784192,-0.254598888973149,-3.30524114018563,-1.08988963840557,-0.0994747054193437,-0.279059530875329,2.70495084215408,1.062218299923,0.246483183824771,-1.22193860665699,-0.501913786837481,-0.537707736054332,2.62365671240443,-0.456175607519939,1.62974799233138,-1.04622397282207,-0.140783081125409,0.0960102204942564,1.42978138781969,0.285919413346095,-0.19651863628201
69.02,-0.56683413937028,0.0656504804413058,0.852736145795539,1.35702138644019,-0.365900156163104,-3.46237543607411,-1.06274128402915,-0.118099788764426,-0.297262956104124,2.68234048766499,1.02144684034511,0.294663988234915,-1.18788276889289,-0.491694929710514,-0.486632817670188,2.61334608239869,-0.450880713941654,1.59061169681873,-1.06500785763338,-0.129359479125616,0.0987286304887084,1.40907749767234,0.277090553525962,-0.204899193575289
69.025,-0.601130016675839,-0.0340178923925515,0.873175073824327,1.31759528101486,-0.473170192133755,-3.60646896205162,-1.047826619756,-0.133950202290412,-0.296409511631533,2.65523191596918,0.978387820072848,0.341913599177671,-1.14087881093702,-0.476314802514034,-0.482923567272411,2.59935151851271,-0.443884783119644,1.54854618615341,-1.07844121133902,-0.129708244024232,0.111819015657691,1.38483250736086,0.268015349337494,-0.212119714735292
69.03,-0.626267399174329,0.117975732007342,0.888423761287789,1.27702619674711,-0.574956688371874,-3.73515036630735,-1.03220852611661,-0.136759796362407,-0.325721543661808,2.6239667832128,0.933293902821255,0.388075737846332,-1.08273987456684,-0.451649080366989,-0.518757254428831,2.58194682465344,-0.435186411426843,1.5039639338295,-1.07921710391307,-0.124361654860443,0.11969812690969,1.35746756468106,0.258849794292701,-0.218280013588445
69.035,-0.589388393271733,0.287769955913587,0.804115810962503,1.23659485206795,-0.669925815064284,-3.84601842712231,-1.01703641679769,-0.116186237096816,-0.300472767423047,2.5891425261103,0.886397266691001,0.433048351427943,-0.964720892079906,-0.416890810803529,-0.519982600834789,2.56164922745072,-0.424877113117421,1.45727230815434,-1.07196200818094,-0.117409269408975,0.126374512502157,1.32743821104361,0.249824957543376,-0.223499383388513
69.04,-0.594325362531004,0.418555685706836,0.716438421641015,1.19772881972007,-0.756889706682403,-3.9367690397446,-1.03982548366075,-0.11820618801754,-0.306894497689298,2.5515387527694,0.837911642308811,0.476779818697754,-1.00911120049064,-0.382543356903999,-0.472941815455655,2.53914711145124,-0.413127989175685,1.40886282627404,-1.0601073075376,-0.114192312558371,0.127277832742693,1.29521774007913,0.241213970311081,-0.227903599848465
69.045,-0.590752065278482,0.321326582587126,0.721618645016227,1.16182943954199,-0.834890217356785,-4.00538897501556,-1.02701700632301,-0.0837551957304727,-0.308916165451558,2.511956688029,0.788027964101152,0.519248100403523,-0.958553781349284,-0.347462277102622,-0.498601675536061,2.51514376700857,-0.400149335805497,1.35908652234399,-1.05562557148808,-0.113999517411238,0.125879338871877,1.26127146448692,0.233310423821148,-0.231640877258025
69.05,-0.591011406924682,0.382284690193288,0.772781323363288,1.13011542622666,-0.903295177392661,-4.05029989047247,-1.00492819415075,-0.0577714296573487,-0.32932601188465,2.47108701310425,0.736916336125253,0.560433868879244,-0.907882151065345,-0.353752585803289,-0.463865833128671,2.490227787279,-0.38615389325164,1.30823309827737,-1.04368286607564,-0.101907560892186,0.125027998054466,1.22604387363675,0.226380580161557,-0.234891762245848
69.055,-0.606808730803558,0.4720713338145,0.734396211757645,1.10357219355522,-0.961814377300487,-4.07039448401457,-0.970469417447713,-0.0279158449936081,-0.32455006307176,2.42948040635428,0.68473855280162,0.600303288406814,-0.908870903524659,-0.36805523690302,-0.404484152972462,2.46484247503573,-0.37134542926849,1.25653049836711,-1.02736964143358,-0.0974635872818932,0.123490548240713,1.189962921904,0.220604489599721,-0.237846631902094
69.06,-0.597307563285335,0.571979482496271,0.719190752879475,1.08297093302701,-1.01042239722309,-4.06502823581419,-0.942210845481956,-0.0140258222264628,-0.32394643644539,2.38757588586268,0.631659316677996,0.6388043760671,-0.905921573950023,-0.356708187739518,-0.374750084123818,2.43931303778715,-0.355920825798232,1.20415949692341,-1.0205863179367,-0.0910772959545435,0.120727558233046,1.15344022536738,0.216056504998314,-0.24067827746281
69.065,-0.561481513416849,0.480992488106882,0.709801479739193,1.06885997550207,-1.04928556761445,-4.03404726489683,-0.901473671221274,0.0109775179562332,-0.319202722894874,2.34570126923328,0.577849081864298,0.675865059442335,-0.947319681860008,-0.330731925338556,-0.390994541881938,2.41384878310287,-0.340062927954873,1.15126241276968,-1.01626773970868,-0.0854180854017767,0.113100684456481,1.11685926446859,0.212714383259815,-0.243533216693831
69.07,-0.603924399594228,0.552472157404776,0.76043529613743,1.06153636530628,-1.07875075422317,-3.97780870327159,-0.893058795910635,0.0212756277848818,-0.3308364502422,2.30406100828973,0.523489825880289,0.711388648859772,-0.903505520722088,-0.348846873876306,-0.426841747676026,2.38853297723258,-0.32393015504701,1.09794896364429,-1.00182323578931,-0.0733335295328907,0.111697394672853,1.08056669922575,0.210459938737769,-0.246523502028568
69.075,-0.608261916842305,0.515766529349074,0.824353937346615,1.06103942849778,-1.09935060827553,-3.89716239031272,-0.868435273365059,0.031449707177701,-0.348449273591552,2.26274406892286,0.468783429925159,0.745253485428438,-0.89839282490236,-0.362174655251306,-0.444551329801632,2.36333248354409,-0.307651966897424,1.04430422959347,-0.990954721750957,-0.0675824614168866,0.122696841535784,1.04487008411203,0.209073105110114,-0.249714405511083
69.08,-0.628222178631897,0.575528598615771,0.888489280717774,1.0671218931093,-1.1117857514045,-3.79347049637201,-0.831321478471166,0.046788045711866,-0.359632674159746,2.22170598415014,0.413945361031611,0.777313235854738,-0.894013607326915,-0.366393535887869,-0.457078268237686,2.33808418920917,-0.291316644123814,0.990381535704909,-0.976016717903534,-0.0650067047627757,0.125799232094203,1.01002910046083,0.208233746318,-0.253127656689771
69.085,-0.645629215129115,0.655733426841158,0.921517174027302,1.07922000339884,-1.11689194230534,-3.66862674482998,-0.81747776343665,0.0411259716870767,-0.35975727623793,2.18074823551073,0.359191659955321,0.807396587380743,-0.902823625840857,-0.366089062755584,-0.466612927128876,2.31247862717273,-0.274959907836958,0.936194463878971,-0.972055028095163,-0.0677102400949559,0.13431987228919,0.976245069901319,0.207542657030676,-0.256751953449747
