Header,foot_Accel_X,foot_Accel_Y,foot_Accel_Z,foot_Gyro_X,foot_Gyro_Y,foot_Gyro_Z,shank_Accel_X,shank_Accel_Y,shank_Accel_Z,shank_Gyro_X,shank_Gyro_Y,shank_Gyro_Z,thigh_Accel_X,thigh_Accel_Y,thigh_Accel_Z,thigh_Gyro_X,thigh_Gyro_Y,thigh_Gyro_Z,trunk_Accel_X,trunk_Accel_Y,trunk_Accel_Z,trunk_Gyro_X,trunk_Gyro_Y,trunk_Gyro_Z
33.07,-1.88912351305555,-0.736898515700014,0.634224982867609,2.54926060256753,-3.3956454884714,-0.422128242953119,-1.26701924605265,-0.325666165592331,-0.835892020776256,2.46326493346731,-3.89740218149814,1.78760168168134,-0.880541264986007,0.601557544145168,0.0225986203287343,-1.82625718035628,-0.116766381061334,0.526906605511963,-0.907242562387681,-0.119145773385587,0.20254451466891,0.528542559588634,0.192538485764602,-0.0685312645991803
33.075,-1.89206219418968,-0.697411983086364,0.569898481207725,2.51573038222121,-3.38727242676384,-0.619456472284398,-1.24059179493754,-0.32292797950778,-0.848378215805985,2.52700455437127,-3.72854349267106,1.71296452581435,-0.92281553165504,0.63799674496975,0.0216931364156651,-1.94114688478773,-0.0822571147366107,0.445286784072661,-0.914055492286515,-0.103441116168498,0.218473031160027,0.552795510200035,0.183045313846744,-0.0772536200054913
33.08,-1.86822209900562,-0.655226704518136,0.481599606539259,2.46698679364667,-3.35294436942327,-0.808070730678504,-1.22554307063222,-0.332471533946829,-0.834860674493611,2.57129456034747,-3.55023793911845,1.6360230724779,-0.965236817573875,0.670105614711208,0.0256089669224089,-2.08544595131448,-0.0558193043502074,0.354221613953239,-0.918590143646767,-0.0873178614587024,0.223702118085677,0.572832438810007,0.18533325763142,-0.0757823730709171
33.085,-1.84850813780007,-0.624023967315213,0.432806128093279,2.45949846242626,-3.33606991884433,-0.90235568990001,-1.19090484723039,-0.344782966244036,-0.807435243350512,2.6059375212721,-3.40041271262125,1.56771734353372,-0.995078964983792,0.686579690332182,0.0246863129790801,-2.24205784102812,-0.0381263620487122,0.252588294534789,-0.927626842808446,-0.0738333317900756,0.230266923418231,0.582121128653961,0.18912307294876,-0.0542816610651957
33.09,-1.83441346432584,-0.575299493335635,0.375560350420318,2.44079766785822,-3.27791047207196,-1.03650810483729,-1.14528181371576,-0.351042019239904,-0.793979184711386,2.64000204429795,-3.22514882480502,1.49794142648188,-1.00883599688671,0.694620674790387,0.0261991034523567,-2.39296313067336,-0.0219933532475247,0.139934820717605,-0.928553590175546,-0.0656603858648114,0.238961053842845,0.595118079090065,0.204104440538973,-0.0237683891537634
33.095,-1.81664649995911,-0.552340482556058,0.32185827907294,2.42973595123193,-3.22211839579278,-1.10812873577143,-1.10462311890536,-0.347942482533208,-0.782184539031918,2.67100321037086,-3.2063282424094,1.42911561291451,-1.0213443486169,0.70549815749562,0.0246528128778882,-2.53176494745057,0.000394894034509116,0.020295843807047,-0.935142787135017,-0.0544145280141885,0.249382686536669,0.610685816478601,0.201937280593178,0.00343918068328613
33.1,-1.75620376049937,-0.522062399888496,0.240603022527368,2.41554478007646,-3.14822496269519,-1.15905315593108,-1.08602186574983,-0.332287670654492,-0.757792403815574,2.69394953045274,-2.8952785765189,1.37454931595309,-1.02177929248034,0.714423074646805,0.0300557839769456,-2.58099656256586,0.0145090367500229,-0.0694977804911163,-0.948983720132645,-0.0353669387371865,0.259026838473638,0.637488476086049,0.189303746262119,0.0383534802052031
33.105,-1.6775516780864,-0.484537039524251,0.16073546917428,2.38308840722463,-3.01779460500255,-1.19339922800832,-1.08264363222732,-0.309918591539352,-0.728107026544183,2.70119598372421,-2.6784731476309,1.31759219533922,-1.00771289081177,0.71430305138383,0.0438297500603864,-2.51307184070491,0.0337563081870971,-0.152362123998569,-0.962547901892859,-0.0228850980067016,0.263348483079369,0.647771291446221,0.185086062488945,0.0722656669355237
33.11,-1.62621076970386,-0.453748260117178,0.111456248437903,2.33815298551498,-2.87771948089929,-1.21447528666047,-1.07077025874477,-0.27754883005594,-0.689863175853118,2.68711290624536,-2.46658891064311,1.23554140032353,-0.98201141282048,0.703140212969182,0.0624898568027951,-2.37198729908831,0.0467737093567848,-0.212557933473555,-0.984842066122996,-0.0215597275161924,0.259528938993125,0.646264900118534,0.201365060669304,0.10450793620309
33.115,-1.57770281641475,-0.411307268263507,0.0684777506136358,2.25399945368684,-2.70196238423986,-1.23068153955215,-1.05287296474383,-0.253436684918739,-0.662755748860992,2.650545387293,-2.28523164161668,1.15876383844544,-0.96209452163433,0.691142851544246,0.0910486704009433,-2.19466725017137,0.049532809312806,-0.262977442685292,-1.00212320202993,-0.0200130839010984,0.266554986260333,0.64788444041697,0.223098620071963,0.132600356857554
33.12,-1.5341610236835,-0.386369599781215,0.0398777371921677,2.15238416445553,-2.52894593141131,-1.23266636737961,-1.03250222243944,-0.236668560176069,-0.641608313673437,2.58737296273111,-2.10226130736116,1.07990253748076,-0.942108518061975,0.68321946783823,0.12148090346711,-1.97631699183307,0.0587030468176216,-0.344029367072909,-1.0257895931636,-0.0204872211725458,0.272862647646407,0.641800767550262,0.251934564351222,0.158737404146844
33.125,-1.49912347429914,-0.365483627100603,0.0243085812351224,2.03944750802119,-2.35525048475217,-1.23820410347863,-1.00221226118431,-0.217398877702644,-0.611643380150036,2.47999532313396,-1.86360477047962,0.970856405144485,-0.944472223834945,0.685042266217099,0.146694775686455,-1.8248463499426,0.0544253838778015,-0.401709423694154,-0.689908041548435,-0.0255673049859465,-0.0741773519060103,0.866874932050341,0.422987315226852,0.23374671519039
33.13,-1.45695101469105,-0.343945136733317,0.00727033876913929,1.88953966063226,-2.14860982326086,-1.23710658764374,-0.993570003146099,-0.196210001587163,-0.593186536640173,2.36624816330843,-1.67502838159846,0.87608800062161,-0.957024006723068,0.689247049267541,0.165514322355581,-1.65855423076366,0.0646220384070839,-0.465237177889963,-1.30154771248142,-0.0553506475520507,0.467770557332838,0.979945392313531,0.361436474565632,0.639576811344636
33.135,-1.42276617929903,-0.328180713259773,0.0044209274660947,1.75403917191683,-1.97754310875388,-1.23989783065444,-0.981747883668812,-0.179490288790439,-0.563730813812432,2.21871327678872,-1.46111960677199,0.763518716071525,-0.955950850921827,0.693288429528974,0.177864747699071,-1.45230031150769,0.0690181652699177,-0.515170030698103,-1.14974284502522,-0.0464393677887356,0.246578042377838,0.501059052042567,0.281058537626132,0.32147354426375
33.14,-1.37541103889389,-0.303796701788433,-0.00419489401490793,1.55393744968871,-1.77162374134773,-1.25253390844828,-0.974702745346676,-0.15993200421379,-0.533484736426017,2.06043327788388,-1.25688635484914,0.655845680513511,-1.01627452927301,0.699844654961403,0.157057493070163,-1.30150714289754,0.084754069925235,-0.585610611232796,-1.08155337435935,-0.12643903755603,0.319297755222128,0.708686446092819,0.520863755765006,0.197262146971779
33.145,-1.34372958548718,-0.278657267270041,-0.0023694843680162,1.35138355781557,-1.58532143666653,-1.27151359801472,-0.968367747781508,-0.145381388626444,-0.504122949676186,1.91259671899652,-1.08154508096983,0.563600392854358,-1.04466034238769,0.669783344052836,0.172497059056089,-0.946298297283783,0.0718697399403866,-0.618907148064023,-1.16823692749229,-0.108261299091892,0.450112813706544,1.05555094344587,0.46700617388065,0.0260920458074687
33.15,-1.29963499778311,-0.267506015151375,-0.0080877180978123,1.09918088168697,-1.39429726599515,-1.31013800740524,-0.965154868586907,-0.134624039707219,-0.489268082920231,1.72690356647406,-0.847452272740637,0.440082058257815,-1.06413046619403,0.66971687977454,0.168190642733228,-0.775250447336039,0.0995129501097382,-0.539865830071749,-1.19443813311026,-0.108940535619144,0.330816220636966,0.770513759745059,0.0711916456311316,-0.0926036903520831
33.155,-1.25420944525324,-0.266905033467246,-0.00609245182083727,0.796943793160316,-1.18861830070575,-1.37162659149826,-0.961996654325197,-0.113325240030752,-0.454129855292707,1.57893760920208,-0.670537986673308,0.34462260461945,-1.10816089201557,0.676268943423839,0.130923527532101,-0.521423816136225,0.0918484579624472,-0.547350895931144,-1.25905209499631,-0.00121218197489159,0.33784499090185,0.534350637003056,-0.362889437795476,0.0635179941160945
33.16,-1.23709920089379,-0.261132390080547,0.0251194274032496,0.53025723020064,-0.997497410322068,-1.43948974788468,-0.952276445740869,-0.0957207780485759,-0.429979226068085,1.42115398076351,-0.496598914033062,0.246399717072207,-1.12545901523619,0.680593207473128,0.115149175396057,-0.209121652850449,0.0613216495668936,-0.530163359268155,-1.17038800089476,-0.00954389587774069,0.341325719013428,0.435583579169356,-0.355597005187622,0.120997759125161
33.165,-1.25595693072744,-0.265506671379926,0.102482818001496,0.23204646664793,-0.784831781319622,-1.49937680675778,-0.94973307339257,-0.0960403044825002,-0.429840446802496,1.2190565271302,-0.286181143986223,0.111294749790439,-1.13660353604798,0.690341195396364,0.101557477078269,0.0229753429200153,0.0694512807576384,-0.442594078888468,-1.10714030332896,0.0167374929443585,0.310777824612788,0.36651873109043,0.000490811477564256,0.108756600511115
33.17,-1.28233184398645,-0.294132388722026,0.162356312847093,0.0266331768617451,-0.624510265198175,-1.52196096863964,-0.939930795294826,-0.106967526703449,-0.443426171833482,1.03374947982398,-0.11023113409503,-0.00286968502360108,-1.13716888287071,0.68948017057944,0.042594073905707,0.327162000986949,0.0457534665172603,-0.361774484820173,-1.10508342167718,0.015137199219557,0.309395144162566,0.641504968477196,0.279376194276662,0.236093612202082
33.175,-1.29368840937148,-0.311508348060573,0.229630549547755,-0.136923511892062,-0.510688176452041,-1.52571875105387,-0.942432616599071,-0.138109222232484,-0.45854495509621,0.814618507719209,0.0765261917867367,-0.137068655332734,-1.12983696207375,0.673435402978534,0.0124303083818802,0.598853328121075,0.0148362758305399,-0.320748958569302,-1.18654652420536,-0.000876406320732182,0.346580229328035,1.01333679156913,0.348099964485527,0.338375533131263
33.18,-1.26774791238472,-0.316564511055164,0.260151884459173,-0.271838967027891,-0.425864963513567,-1.50664483860776,-0.945780134961626,-0.168288258712364,-0.450799621392844,0.598897005289999,0.252516571360205,-0.260179860437885,-1.10830127505327,0.648611823581545,-0.0234034485636342,0.851390793164771,-0.00177180752111013,-0.246922955168551,-1.26428408952074,-0.0306220018773647,0.396272719624497,0.850963162961621,0.156225585268199,0.379727374996352
33.185,-1.22342568364065,-0.311559837123253,0.26686889171571,-0.389911091395522,-0.348771991684634,-1.48118940739012,-0.937892089003599,-0.199580766955821,-0.425630365597712,0.42973682901057,0.404181529441139,-0.368626426847726,-1.07439835570704,0.616951785154988,-0.0626668202095139,1.02817071405531,-0.0257400055749062,-0.210105323439257,-1.29005302892882,-0.0576058329012636,0.391756417914613,0.726752966987122,-0.233010113661591,0.416536392961914
33.19,-1.15702716082009,-0.291139550477031,0.261439966296735,-0.546582410058069,-0.268187856215934,-1.45977265653592,-0.929789210860987,-0.23161641779138,-0.397255635701727,0.285340507970295,0.575916353760962,-0.487865915533227,-1.05590456316932,0.59306475696857,-0.0802999322286248,1.15295723311037,-0.0406857193843445,-0.196694470189719,-1.26622775388921,-0.0633176957986653,0.363278350413971,0.789105736623317,-0.409397226704737,0.42579671485512
33.195,-1.10156335167235,-0.255562895971865,0.259361422431614,-0.724647247322335,-0.151633608985181,-1.43659149317628,-0.920914630382315,-0.258462751434832,-0.381502037922769,0.177432697804633,0.734352232433717,-0.60778087854614,-1.03673340409433,0.581235344115343,-0.0977928027020751,1.24881647032009,-0.0427692587745053,-0.199056249779438,-1.19474333411673,-0.0634236750574819,0.318751160645366,0.804828709352982,-0.427630418417971,0.424275403318199
33.2,-1.04916451676057,-0.302382450230831,0.259766435529111,-0.889913198658889,-0.0335031901884223,-1.42287630633431,-0.917055790333913,-0.285687006667256,-0.369659694840145,0.107909815477291,0.859321743834794,-0.70024059011714,-1.01133858054546,0.563723495843301,-0.111392880410376,1.26758876269924,-0.0224243336549059,-0.197608090766488,-1.14073667772624,-0.0429395715804411,0.28595767767987,0.754276922236573,-0.314948021748143,0.458490825759317
33.205,-0.981852095147821,-0.355826043802728,0.269365999648825,-1.08174608961945,0.140239730589581,-1.40178169111772,-0.929370053545432,-0.304864708140015,-0.34814917141811,0.0549687853222412,0.973928933913909,-0.790011117745292,-0.970251366211108,0.5479298211107,-0.129302196161185,1.21471207236629,0.0123133110041701,-0.208561348119643,-1.09351560458715,-0.0136998393622627,0.279485058324643,0.687235891992936,-0.120201708761691,0.532891138012222
33.21,-0.952741691523328,-0.373721641749644,0.31463387755411,-1.17869141813299,0.288596100826929,-1.37322483244051,-0.944687885483982,-0.311117308072325,-0.339895072816952,0.00598365128728304,1.09245181874988,-0.908146558239376,-0.931648898533537,0.533259441066301,-0.136777686704566,1.1648269553938,0.0571237173829932,-0.21920357154706,-1.08213752418203,-0.00576088819622114,0.293313079908957,0.629057979125117,-0.0111709731092411,0.566496596429771
33.215,-0.949272247114458,-0.392529152886023,0.373436716196844,-1.29177508781831,0.448712579208743,-1.34725724015266,-0.960117063542501,-0.32848647579111,-0.331412602512733,-0.0255973784020797,1.1905247852726,-1.01839050657957,-0.872475393901203,0.516158476071717,-0.142540486507096,1.11464011106873,0.121894471486173,-0.204227102053645,-1.08454944216377,-0.00154612438997386,0.335401409082416,0.61918504328849,0.033179076291702,0.587631787684005
33.22,-0.952794823298098,-0.397992969298861,0.437097865799563,-1.37205276016889,0.577689915332058,-1.32635831539809,-0.965094289937261,-0.337576840548271,-0.346845779864685,-0.0387298503772193,1.28166159402904,-1.11233803027307,-0.799287011823674,0.488568830210364,-0.140883797228316,1.10601015648349,0.19913894149932,-0.179427521424238,-1.10238425192469,0.00641846665926673,0.384858006845557,0.604518883998614,0.0105839928541792,0.596873809160061
33.225,-0.972535895662639,-0.374772936860997,0.520243991278855,-1.43260795710062,0.663368808609869,-1.29590896242475,-0.962820236611408,-0.338928031075629,-0.351434455680757,-0.0557392456578,1.36727341071021,-1.18964898512195,-0.679116768055947,0.44055293255242,-0.187223021821436,1.05324039421705,0.274643979479274,-0.222770914875283,-1.11825503720158,0.0024127972633414,0.41559695472888,0.549063980859783,-0.0574864177177933,0.605970856665528
33.23,-1.00640207307214,-0.335315337274473,0.592627423893467,-1.57518053371591,0.688744513888425,-1.28332975176597,-0.969214119252434,-0.320104426758804,-0.349879881481192,-0.0785284826192374,1.44020331467534,-1.26818024236782,-0.618349686189007,0.414895325748194,-0.159643284056298,0.986991335855738,0.409233346103405,-0.306159371533582,-1.11621347253244,-0.00536161421929258,0.436692451286412,0.500519417057627,-0.159098138510012,0.61874571838727
33.235,-1.05167682684758,-0.595395408501106,0.63606162644765,-1.61112298374402,0.734274679845529,-1.38296856658661,-1.02252753049556,-0.226414910401977,-0.295009929884998,-0.0925027592521949,1.47297487269926,-1.31758441305235,-0.521974874155475,0.394664423819122,-0.126919939066242,0.82171729455122,0.483992605145561,-0.412379122728707,-1.10446297513512,-0.0135788084741773,0.439772741011846,0.508117714560201,-0.24193459164504,0.626416913140579
33.24,-0.640774413350786,-0.479698807158356,0.853592034496863,-1.15843506139953,0.859920508737652,-1.71125430929437,-1.02879856441692,0.0359920020795979,-0.0681398501269004,-0.0508302610975257,1.52114624728341,-1.35756716935321,-0.450823880488833,0.358363194037487,-0.112114835067785,0.639091086658954,0.506130814552307,-0.558019368764853,-1.0787668300864,-0.027533109212279,0.440772812018656,0.536098363729496,-0.302209788128921,0.639269870419473
33.245,0.479344975381913,-0.0961802561694441,1.00295203757415,-0.518945318896551,1.08069086371655,-1.85692489529094,-1.34415603988826,0.687729923023481,0.631908938628594,0.248803128675901,1.35114941856462,-1.24530386801251,-0.439161318153977,0.302353789719914,-0.111013605593925,0.392896956429483,0.47378596042215,-0.751348611381372,-1.04886251716158,-0.0364398221078168,0.433023184975418,0.565309154774657,-0.335810222676407,0.646328667183655
33.25,1.29372532258268,0.131495573168895,1.19571909951382,0.651047130525858,1.61368743845571,-2.91896522988917,-1.72814961056219,1.56235685989473,1.70264270326653,1.00363385499806,0.6409666484251,-0.791072478269234,-0.523912196669032,0.223647055025978,-0.12837441534983,0.190026980077004,0.426037443832213,-0.968725284610576,-1.01732736742717,-0.026601290286944,0.427598856549377,0.629612971724386,-0.347156581596912,0.659034742631305
33.255,1.89445490145845,1.34644688508037,1.75097576408861,1.5881227417066,2.08027049226085,-4.69274044898517,-1.74426360501298,1.62355922164002,2.21193618460333,1.59990865149709,0.0799751296082291,-0.400718348190433,-0.734668708908956,0.12185437952398,-0.149807131635855,0.0294242929349753,0.371636229898166,-1.3018434849101,-1.02642415097665,-0.00266780511642998,0.433011465038747,0.664039115851905,-0.364484495729154,0.667993235422889
33.26,1.24989840840856,1.90958853308682,2.34742161973831,0.583971292300174,2.30609184926901,-5.49929220125193,-1.48995604683582,0.374308141274208,1.61952667273568,1.57716742598257,-0.235718835965153,-0.187619456152335,-1.0533333004868,0.0151117818093694,-0.204431412207836,0.00211603437624622,0.339258335328865,-1.68642512927841,-1.08257308229747,0.0244504665661382,0.448526182856706,0.685985245447515,-0.350460087832335,0.662741231247407
33.265,-0.0275740538275927,1.06822166387191,2.15956043786943,-0.371366251802428,1.96022143313413,-4.75859484103953,-1.11949325242107,-0.484141717879828,0.720083179203356,1.18426382061206,-0.124643096161017,-0.337025874486669,-1.39238398028,-0.0327811688379007,-0.277518413640675,0.0345691059025455,0.325281898589595,-1.92957899699975,-1.14563080197331,0.0197234459730625,0.435630350174495,0.676076584957755,-0.304744465624967,0.660644658640755
33.27,-0.89774988371949,0.63385308072761,0.997601573538759,-0.503203758691782,1.50675493747543,-3.57831281851548,-1.07024966968673,-0.624731579984686,0.268997662452505,1.12804013089264,0.211976089488146,-0.686767754094855,-1.71160227976531,0.0123464071670884,-0.329929053927164,0.104400596452827,0.324450236356647,-1.83306494070755,-1.183385264928,-0.0260002513768901,0.382124985249357,0.572448619982832,-0.317196779511367,0.66269313351452
33.275,-1.31644332146309,0.9638992145838,-0.222105987497411,-0.447025545182858,1.82658977449036,-2.63853780937347,-1.15377216551968,-0.470199631955836,-0.219619707621679,1.44706351652314,0.48019158538861,-1.02857216328684,-1.94151982436221,0.122824738177549,-0.370551252566957,0.171473376951036,0.333441804472713,-1.34973493036664,-1.19119876085287,-0.075040248395382,0.29454913771893,0.412457757904739,-0.451075247124435,0.687311162796138
33.28,-1.9895017587956,2.39548639497206,-0.33884755871514,-0.846765776600787,2.52717292303474,-2.02881144238073,-1.39274511982727,0.0177146306931084,-0.901046122941394,1.35362717760559,0.671716180851632,-1.13790294606813,-1.99120522568001,0.199001913191351,-0.396076628418367,0.0108406625288114,0.380683451360984,-0.868593807460409,-1.18058742124415,-0.106360522336774,0.203478065436499,0.28313509123373,-0.675407745534694,0.700082211539521
33.285,-2.69227313010636,2.62873271183406,0.526657267476086,-3.35684648134065,2.67941718031527,-1.52390215835238,-1.49449838936744,0.637436139631718,-1.34205885082688,1.2449013244734,0.987945242974369,-1.06715729140058,-1.99077655333466,0.27205126449303,-0.40340808818474,-0.501491436920481,0.474920853256825,-0.590013706389945,-1.16103916511296,-0.117964717333013,0.133088738515279,0.240103634868939,-0.839410572817149,0.694716097134954
33.29,-2.777447592312,1.32999161941442,0.760506877357797,-4.66123453642612,2.23598402806759,-1.2198711756889,-1.36963549374336,1.32150769945695,-1.28322869934685,1.26208679159224,1.47062148520528,-0.714530298699068,-1.97271400271723,0.52385304283751,-0.351609048534627,-1.20034246641662,0.472756314925241,-0.447667502932018,-1.14028224534483,-0.112826511475338,0.0788268899634421,0.272273738454511,-0.841510146751891,0.678739829050147
33.295,-2.30438726913337,0.374831309832666,1.27927645153554,-4.67812109526499,1.57183656349053,-0.876277047299084,-1.30852989849643,1.581600565873,-0.952060287919328,1.03782065402126,1.75184900048077,-0.493100961903353,-1.86324691917717,0.813074909963393,-0.2427452783446,-1.28524541193865,0.354984104515203,-0.315426578722965,-1.11465853351074,-0.101991313385838,0.031927691153766,0.330123237103301,-0.716232822270959,0.65933554782467
33.3,-1.50089494187202,-0.418824566406202,1.49141018674414,-4.35249217148151,0.939752202066661,-0.802164107788794,-1.33168027270518,1.42076332825773,-0.411258887236371,0.375602593836734,1.83615449625414,-0.565259886232268,-1.65316829475086,1.18031396869097,-0.0524098061272014,-0.701703419237556,0.0525811970794511,-0.0970790477970833,-1.09245084895961,-0.0993929981617228,-0.00597306656030833,0.382381911137581,-0.545030841087405,0.64481310901747
33.305,-0.941688283835101,-0.733918778486789,1.49367448350382,-3.78380306490053,0.464464879181437,-0.860273697355358,-1.35242447771465,0.922449103173818,0.0365697150769836,-1.02333329219372,1.67821313477732,-0.93164999733127,-1.44712240910595,1.37275900651448,0.106487014052778,0.0724329223079931,-0.248066455088484,0.0608104236124724,-1.08285805825337,-0.113513475533143,-0.0482498530180444,0.421785461465014,-0.308607515805893,0.611845944712435
33.31,-0.553493105957607,-0.504927622171784,1.31148277105006,-2.79468420438494,0.144026713674074,-0.877653764790436,-1.24822617507819,0.385346485382553,0.121188916046333,-1.92589956714558,1.53464903339511,-1.21113421333741,-1.25732505715648,1.27139792867485,0.231161196642433,0.682960339606516,-0.492838856708561,0.0368639481506488,-1.07251879765567,-0.116563923739087,-0.0674426144703593,0.440594605449545,-0.170658667041003,0.583088643765655
33.315,-0.557096209331233,-0.101612604056827,1.10645307107151,-2.20862258638434,-0.0344693885435451,-0.770253093289877,-1.03101471204922,-0.205532189719586,0.121421348852043,-2.18433668634883,1.49629610107326,-1.36016400169452,-1.0176119141403,0.895598675445108,0.329527651460484,1.24975266228996,-0.68720157619199,-0.238332014921924,-1.06837990353757,-0.111148713329337,-0.0979143856994938,0.451991631523634,-0.0786374681221401,0.542106757343407
33.32,-0.502450416824187,0.191305385976356,0.863450871541866,-1.81801056364519,-0.125218802113789,-0.591765325308715,-0.829910571928862,-0.498643477864223,0.0958647911265109,-1.99166726026253,1.47568184154845,-1.33426222409147,-0.855108694306359,0.545444935382806,0.307788193665477,1.59363364030374,-0.76698893977434,-0.535622454106066,-1.06158399408708,-0.103854157376814,-0.11906770920687,0.469689172906688,-0.0419869344189861,0.511496772432104
33.325,-0.570030117656739,0.255201045580609,0.824087886864386,-1.62630654781241,-0.0830222824923869,-0.394290329520218,-0.741239696695377,-0.387044566551313,-0.0426771554169353,-1.53297112215243,1.43931976458849,-1.17003284319768,-0.694806685837184,0.132544136422531,0.160609921212647,1.88781039863562,-0.776970138285671,-0.775922058844931,-1.04918551337569,-0.0713200723462534,-0.131653376163022,0.516730621936128,-0.000197856091247365,0.47154909091773
33.33,-0.732300596710269,0.145345942529745,0.841874451104024,-1.39354532294246,-0.100082862092375,-0.294234921693343,-0.712697687037855,-0.0826958084969454,-0.212614875578208,-1.21005737777988,1.37642219559925,-1.06557092048298,-0.527159410231847,-0.131152781132701,0.0360591752725555,1.81921344113931,-0.692030059868539,-0.787481983499595,-1.05147245516811,-0.040297862356163,-0.125624319684029,0.57991623277613,0.0445899150068058,0.405204733057617
33.335,-0.815906370419963,0.0897381520170229,0.780215357071004,-1.11243485313468,-0.191404339694869,-0.303691369717393,-0.749740559706255,0.133920792189715,-0.266782302364526,-0.813743342563786,1.29686679766697,-0.921601969247627,-0.37115094797553,-0.363736387310223,-0.0746614283481705,1.31535214326774,-0.563382215777838,-0.74098455125563,-1.05209902006232,0.00195170815344128,-0.109416240665287,0.645836694601048,0.109997746992177,0.353013888712196
33.34,-0.809387724855119,0.113028788578429,0.764775134656942,-1.00702803950855,-0.231680553807712,-0.375620369223624,-0.819284826392917,0.15535106655559,-0.215744149926346,-0.590314435555202,1.23998242042754,-0.780014274814716,-0.184567597105307,-0.519599781234328,-0.138739195715433,0.568447944728014,-0.438180666600565,-0.848201537753609,-1.05601321801525,0.0331354915934793,-0.0889438841324201,0.720235266300328,0.195877534589805,0.314521297404688
33.345,-0.660269291258187,0.178142839118286,0.779281636985227,-0.91367313373043,-0.243301105238267,-0.414202090318475,-0.950276889004075,0.0635615988414217,-0.0891413986409106,-0.465577677871687,1.20830814881508,-0.696310876039418,-0.0579784460688152,-0.58754488225026,-0.111431032975264,-0.145640890310762,-0.346342138508006,-1.12792342635095,-1.05269012544025,0.0560757460943082,-0.0826685631929609,0.788284754774603,0.254532717483505,0.296659362707779
33.35,-0.552454227144351,0.152381923096856,0.850239765920673,-0.852152766837233,-0.221305339535307,-0.367096734266994,-1.04748942613661,0.00618116635527449,0.0285598273798143,-0.38172119260401,1.2169421636242,-0.642569534272551,-0.102376247801952,-0.545560906664883,-0.0877034070522077,-0.873517510199518,-0.242576069472873,-1.43284354368549,-1.03402705730337,0.0876306655121729,-0.058375332410307,0.902990019449174,0.274070375941628,0.28822528052635
33.355,-0.52652054259435,0.0411779422423572,0.886766028179663,-0.756563431022943,-0.18934881210543,-0.338173997538877,-1.10287222285266,0.0457642792835044,0.0737762939203125,-0.360267567916457,1.24029874801636,-0.620952537625264,-0.357005828584929,-0.435746815403981,-0.121257094835599,-1.32458995468779,-0.146512790893968,-1.61676006208627,-1.01143686494447,0.103032216392232,-0.052556513047348,0.980149000959267,0.222778446897173,0.292080274038308
33.36,-0.629677601707803,-0.0197325459357818,0.889717890589636,-0.57615612585917,-0.173267267033592,-0.29789298777524,-1.06147310722209,-0.0458300214723954,0.0482449859211463,-0.280007226599697,1.23312881146522,-0.662551500567214,-0.685563983039836,-0.303555448976001,-0.190253981670249,-1.41531162312518,-0.0863049612498772,-1.5693690104137,-0.974721734245937,0.121260302759149,-0.0449999609614177,1.01769629932343,0.163422888900716,0.275863611981594
33.365,-0.628704873690324,-0.0217763972533816,0.806746014174624,-0.443916615678101,-0.168093734717423,-0.270393024671563,-1.01276671877509,-0.0651720110838584,-0.149713164620053,-0.181399708437161,1.24967731943299,-0.67960288599183,-1.07638639964305,-0.106169100279846,-0.264972019841514,-1.21887376402331,-0.0468726166815929,-1.27725524372004,-0.949058775692494,0.131297893042691,-0.0412923755698172,1.00634872172461,0.104719899848323,0.258081018841349
33.37,-0.694672635245155,0.0281406951534695,0.768643701613502,-0.311447300970653,-0.136303913178977,-0.214903021819638,-1.01195557640562,-0.0242718348988562,-0.274875890305939,0.0451675099910672,1.24468178623604,-0.6337276311235,-1.31078680815561,0.0226412285172371,-0.243978746224101,-0.887164859810929,-0.0459750377792447,-0.893216484426596,-0.927324761619483,0.134967907596618,-0.0365959136195609,0.928788734919454,0.0817076110002179,0.229703943694135
33.375,-0.674085185304492,0.108562339019801,0.75309004305121,-0.238057369533097,-0.125430775374546,-0.18610246688699,-1.04555727063749,0.0933592387500945,-0.313720433305144,0.11112033306393,1.16887101774267,-0.601396609930297,-1.47412759875896,0.12065953146331,-0.186023160643196,-0.498830069942847,-0.0799571945190356,-0.53677417299416,-0.916890976994831,0.133089299802489,-0.0324302345544734,0.838297346607219,0.0557237979435297,0.195001976377857
33.38,-0.63702663119751,0.167589885621348,0.77520455015671,-0.184709161786041,-0.113576270028017,-0.169099098653609,-1.0527389709374,0.218077349185493,-0.277339984368208,0.0613906464606394,1.07560408127503,-0.571643260733494,-1.49950231488982,0.163551998732921,-0.125755271221811,-0.304911549010948,-0.12860749741821,-0.413693464399747,-0.913923309098178,0.119972857966333,-0.0413653612989821,0.744585798201373,0.0318167067147772,0.148471570279017
33.385,-0.600054166619723,0.222430657386484,0.80082822925231,-0.158096648795513,-0.0914454734174378,-0.158530657488685,-1.03354221757348,0.252746693534349,-0.167583255016043,-0.0646402483016181,0.992318767551759,-0.524878256247752,-1.4232305262874,0.17064466403332,-0.102154711559347,-0.268286520665387,-0.150006876122676,-0.468835942761986,-0.928541664346229,0.102857777894499,-0.0599950513707978,0.671468781611835,0.0131793645617729,0.0950927352891641
33.39,-0.580523729720086,0.206096330334111,0.805259135344246,-0.144557087477012,-0.0696291958908642,-0.155551038763651,-1.00927844122452,0.182316782858038,-0.0941780307958951,-0.0831995529698151,0.955622086731834,-0.481736482903857,-1.28977452469436,0.122152745063809,-0.066167932685015,-0.241510041552262,-0.141249328016883,-0.714049660216292,-0.932224257646204,0.0769163192468552,-0.0807813820784402,0.639793247684412,-0.0173682382785707,0.00847216390933923
33.395,-0.564850914521034,0.16403491712885,0.811734030441669,-0.116076783777726,-0.0474938928417335,-0.154520690722475,-0.992637976395795,0.104503559172305,-0.0821663733019627,0.0112209407514992,0.934765354050316,-0.443814500587696,-1.15490067097221,0.0234013980372412,-0.0122126730807698,-0.304384422703972,-0.0946091346133617,-0.843910313214528,-0.940082446255305,0.0567812504624042,-0.100564466136643,0.660460361108466,-0.00598720905684196,-0.0918640763559833
33.4,-0.559731732347456,0.13442533591771,0.820131393508745,-0.0864086260888328,-0.029953318060952,-0.138883198580256,-0.993240675251128,0.0743655648956588,-0.114261743205159,0.148277254750075,0.91438870364644,-0.432289718004929,-1.05225584940879,-0.0643462985149958,0.0385149866420951,-0.405328908777527,-0.055004964703114,-0.950773661653493,-0.964398607814766,0.0540111702361048,-0.101898254578254,0.687074727304776,0.00714599468040138,-0.175141711573738
33.405,-0.576686310311637,0.162200681220268,0.808516204127589,-0.0516950735327499,-0.00550573664941942,-0.10779119987826,-0.997106148969894,0.123471534888754,-0.150054414692908,0.193600106908928,0.892866684399737,-0.428760850653076,-0.934259710815145,-0.156580560701167,0.154471325348374,-0.560140310472238,-0.0227607085303655,-0.993711896223708,-0.987205200709679,0.0838086590892691,-0.0895075574904755,0.720801392938361,0.0259066751705164,-0.252485902842473
33.41,-0.585650878624067,0.196481665534491,0.781001742404732,-0.0492467432176408,0.00820712825708089,-0.100722751033584,-1.01700796851736,0.212998023450633,-0.161941061927845,0.133088728422239,0.857156579364326,-0.41868678515414,-0.887184616638885,-0.163036414292383,0.253726364560029,-0.734482892602989,0.00414102720935438,-0.987628996959996,-1.00923181947284,0.116646861742553,-0.0941562364881149,0.701545071422113,0.0382114830113047,-0.269881241972104
33.415,-0.593926766647502,0.235080823975763,0.773846866231496,-0.0651083923987116,0.0167921241372824,-0.0965942446124045,-1.02653074993184,0.283993719653514,-0.160271251827931,0.0459422758550268,0.815424048194759,-0.415345653482856,-0.867680846584415,-0.108146246436134,0.326288883583916,-0.848910513781621,0.0382240509483088,-0.921947532692131,-1.03039198412524,0.094488018738457,-0.0903478751784025,0.705981852605542,0.0581962010687041,-0.269581167694453
33.42,-0.59159743528165,0.257014432400895,0.769772681723959,-0.0801983780942709,0.0178402160267327,-0.110996936511321,-1.00447816707559,0.306320978221075,-0.163756540392479,-0.0345678057292086,0.781809303314809,-0.402104660359041,-0.881486161840504,-0.0244046922473804,0.356479023048081,-0.844917430089765,0.0654732379078773,-0.834643963901029,-1.04542042351165,0.10064256298516,-0.0665638025356282,0.792479223789028,0.066052355905276,-0.261857689454341
33.425,-0.579370961068099,0.25989696772755,0.767263548368085,-0.0909450838030369,0.0133957144513554,-0.123575700280049,-0.973691236737429,0.292668003877235,-0.160651185521984,-0.0700280087087362,0.750909497456007,-0.405424862263912,-0.915646173134275,0.0569503945744707,0.339685301334912,-0.760757024338723,0.0959804842026292,-0.756986385277129,-1.06011961197812,0.103312261573768,-0.0454050663491838,0.900731019420926,0.0734519602382661,-0.217977241251904
33.43,-0.584269581305364,0.259576064862038,0.764874484163777,-0.101463411653352,0.0146529473233051,-0.135884367161305,-0.939019896700815,0.281039243265273,-0.156214397264364,-0.0656924038950044,0.716503747158826,-0.409133583376768,-0.966477071641477,0.109236357010542,0.310062637988114,-0.613288714278761,0.132945803699617,-0.70663377588614,-1.07035352464374,0.108697239581916,-0.0198085190713795,0.995501298187556,0.109345759499701,-0.185521375177276
33.435,-0.57364595100137,0.245848747888026,0.774975871628225,-0.104740629877624,0.00381742214231896,-0.148623353997429,-0.920807684072209,0.258902784138968,-0.129693071573248,-0.0490587664247433,0.684690683415789,-0.412907278290307,-1.00729681096146,0.129356450088738,0.226874694472579,-0.525229606324006,0.162614316705996,-0.677587245416922,-1.0813833146901,0.107927879850249,-0.00778880103515496,1.07639353677839,0.109054852901655,-0.203757778935416
33.44,-0.566922360968898,0.235509757208483,0.787408298697292,-0.0962842979423775,0.00604488924808178,-0.153718505112805,-0.924974990076898,0.232074744698446,-0.0948835112671375,-0.0277474168845852,0.656871823424585,-0.421642672321561,-1.01780958432617,0.105041858775549,0.123127579162787,-0.502444764533178,0.181062301837387,-0.691999090796917,-1.09646522900784,0.098382585074449,-0.0134558780689302,1.14906574904102,0.0179163106879274,-0.231749224829091
33.445,-0.550961335126667,0.239060575068122,0.796343387723437,-0.0966492872136463,0.00567973971882877,-0.160033754883586,-0.934726554030502,0.208828870831331,-0.0778776412619644,0.0330257450479354,0.638492478446623,-0.417251558234892,-1.02825788203686,0.0590726230818422,0.0409610748687344,-0.542528907825429,0.179324640337389,-0.717236838460512,-1.09743876208058,0.0967684111396353,-0.0281576832954391,1.21518566520126,-0.0861564348345166,-0.244753017133458
33.45,-0.554368703123236,0.232211909043802,0.797456695442558,-0.08979138479988,0.00282714208175182,-0.166661128401756,-0.972980383282072,0.189162687744292,-0.0925711783138241,0.117165045519899,0.619110414777722,-0.412509432595729,-1.0230645818453,0.0164547819241044,-0.0214956488418828,-0.601019159165229,0.149924455946367,-0.75038434508382,-1.08848099283711,0.0781139101859369,-0.0552153670160742,1.24857897229908,-0.13675367331389,-0.262591837069179
33.455,-0.566134618420117,0.22469225985415,0.793792876612258,-0.0898779120543571,0.000429821560831278,-0.172592501243364,-0.998620397083813,0.167600609084459,-0.134438006273707,0.222974822741355,0.588863329045271,-0.401203133876447,-1.01157745360226,-0.00503570036136223,-0.0630710276994311,-0.671812966478326,0.0984701641595279,-0.782378510135486,-1.06238112971106,0.0647021720678071,-0.0620874915034454,1.2796523555464,-0.128863809034529,-0.30243230338268
33.46,-0.57469242381304,0.20741102596407,0.788688114575188,-0.0973193663407636,0.000910094007849693,-0.181685923902271,-1.00732058642028,0.162536434368835,-0.172810579371827,0.304028519894095,0.563320523022828,-0.391531200211969,-1.00195648590045,0.00924025246351459,-0.0927697574328771,-0.75156918951718,0.0418708787630436,-0.801569886721903,-1.03652352704716,0.051767342333785,-0.0592103238093544,1.30535671111732,-0.104350360713011,-0.352650145726192
33.465,-0.580361182219517,0.187967183130645,0.785820410670798,-0.0823515004896079,0.00201744250861701,-0.178306332027803,-1.01830697537918,0.158724159873576,-0.190531210217012,0.350980325727735,0.535581621350521,-0.381108433691741,-0.997718357136159,0.0402229395810442,-0.121419051797129,-0.817212887547675,-0.0199070014786712,-0.833809533638322,-1.00027042958119,0.0326876708612532,-0.0534104532330923,1.32973447506736,-0.0577617518366408,-0.417306099342099
33.47,-0.575512454334473,0.184617189555812,0.788347186437553,-0.0743995785665602,-0.00173180833970442,-0.171448643395122,-1.00800546005883,0.164086104446004,-0.166807827732136,0.342153545644352,0.498509110281612,-0.36477550095808,-0.995765090447064,0.0715712214906927,-0.131201245428975,-0.877672393710803,-0.0507873459707225,-0.840021973765457,-0.973045132001506,0.0203170945189975,-0.0478247400668917,1.34223279200756,-0.017544500245365,-0.458182797443859
33.475,-0.57089407278938,0.186294363989559,0.797392091166577,-0.0599606943894203,-0.00120961161342668,-0.16538275552906,-0.997525715358076,0.170012193559454,-0.147465122975465,0.323767480618459,0.472248856050359,-0.347914752217446,-0.99676589669002,0.0953327165345608,-0.147257573201317,-0.97532086080521,-0.0875851791334393,-0.84612499206089,-0.952327219220881,0.0111265809814839,-0.0468117134534214,1.32724942238673,0.0330409658111935,-0.492086125852708
33.48,-0.564020716277727,0.179531428679656,0.802973474650796,-0.048414091553886,-0.00416403944589307,-0.166143959078167,-0.995558671791893,0.168423729588263,-0.133919984105137,0.315185515143208,0.449327402547984,-0.333676749639904,-1.00463933873225,0.0952719241393084,-0.158565451907165,-1.0386307831943,-0.103078582302596,-0.846405586941198,-0.935754052846963,0.00964739553206631,-0.0405808394007574,1.30791054945919,0.0823946620209497,-0.511929303287112
33.485,-0.558683458702743,0.176514751570426,0.801316525503155,-0.0334496348419975,0.00200072823484494,-0.15282928656186,-0.987874080682727,0.166695808677443,-0.133712942034979,0.315824265278776,0.400967096115394,-0.315990830202068,-1.00962068786625,0.0727857920139032,-0.174505714170094,-1.13972439335098,-0.110749170579301,-0.842239989140149,-0.925574973753206,0.00775465118685423,-0.0348933306759787,1.29511457450821,0.117002928914582,-0.522180842930628
33.49,-0.559630566804521,0.165330532701897,0.794846144434035,-0.0124956838347295,0.00153503081390052,-0.138172143611647,-0.983263972628539,0.160799261882827,-0.144793254072822,0.317773431930119,0.382202944788664,-0.300401161968549,-1.01365084794391,0.0515003618812173,-0.178614592333414,-1.22647697820303,-0.112362955728423,-0.840568882463152,-0.918826937515861,0.0067957647994689,-0.0277865981791108,1.28382628613874,0.157552292198975,-0.507565212905254
33.495,-0.570156670995108,0.174019191726714,0.791796600205471,0.0121472602587695,0.0114332094274109,-0.126846637804181,-0.978915330804304,0.170920433352922,-0.138812594099971,0.315138410013964,0.344469811098378,-0.29454073281303,-1.01382659975229,0.0306015596674056,-0.162939703583528,-1.35467580209274,-0.112575309222442,-0.828956162414611,-0.919909470830416,0.00817914870687725,-0.0241626175620706,1.30263448616161,0.173724289248726,-0.491591083440205
33.5,-0.564147468978338,0.185413142450867,0.787606793632149,0.0329403745961974,0.0161106120101421,-0.116031461312656,-0.973515755537464,0.186857780229347,-0.134412497426287,0.304963674138719,0.324749426427236,-0.291988795186398,-0.988507689313242,0.00962730720588215,-0.137345565068896,-1.51848800782557,-0.110067946687862,-0.848077503451101,-0.923729179774508,0.00620453897405411,-0.0197367264868943,1.3206231393565,0.180728765268913,-0.466752838198943
33.505,-0.560277852252276,0.18390486267457,0.789901870402492,0.0510584631273994,0.0104572560870687,-0.10878869001747,-0.970700709964392,0.186612855773853,-0.129480531542868,0.297061379543245,0.313040379308014,-0.281132926365844,-1.00653147383542,0.00499314603273017,-0.0970510471266185,-1.53976941860465,-0.101760196735242,-0.792840899039522,-0.925364323523313,0.00959991177408763,-0.00976240922883226,1.34194347230721,0.15048900012001,-0.460852885036754
33.51,-0.555325089186384,0.18135429898498,0.795703732558341,0.0734251658807357,0.00868054254180773,-0.103474140945542,-0.968269776101413,0.174819246233696,-0.119332878487259,0.294291457307658,0.293415517155981,-0.268732999648817,-0.991727060396677,0.0203072889322805,-0.05203004520778,-1.69578297918593,-0.0742686125730762,-0.761751831244636,-0.92357797952039,0.0183294617905099,0.00829245536280577,1.38383643313064,0.111399803308347,-0.471591058380416
33.515,-0.560195411417809,0.196597657340875,0.792166408047065,0.0856343965177329,0.0072277370674688,-0.101911313831806,-0.973517781563842,0.17386584414547,-0.110552093339436,0.314334648192392,0.284715668785578,-0.259400209319499,-0.989450195522752,0.0276487439774996,-0.00933126742201077,-1.77818113102379,-0.0516957815463018,-0.720659010367059,-0.91990742169726,0.0247860597936069,0.0190126591699202,1.41207998456885,0.0772343337342572,-0.482602733568561
33.52,-0.557314723181037,0.213980826818314,0.790764579519612,0.0841759006696128,0.00474204616392139,-0.100856487661941,-0.973334184261539,0.179826038271829,-0.102928137996829,0.354266018610976,0.278557808362659,-0.251207762107769,-0.99122317288781,0.0358345166661933,0.0401601883508617,-1.84785951350971,-0.0167925649156742,-0.675806188702041,-0.920283922146414,0.0419143282271606,0.0281767106784672,1.45666501148068,0.0513910546534905,-0.498805763265496
33.525,-0.55640729227677,0.221610164176917,0.78988607697029,0.0879879205802164,0.00713877643748711,-0.102993189821058,-0.968123917397804,0.200395108630987,-0.106173682419798,0.428191851087996,0.273459316232989,-0.242828183712191,-0.98830436256075,0.0356596419001724,0.0775785005003104,-1.89500954712544,0.0134411429278926,-0.639740043981336,-0.91799072235299,0.0527601863907751,0.0260300928683688,1.48781887947866,0.0433827306486054,-0.517192145055782
33.53,-0.561754882817625,0.229945022668982,0.785083646098748,0.0853451044916484,0.00560119148146752,-0.114665939784299,-0.96369207172671,0.210940418788132,-0.123711647091006,0.485558333806675,0.265746641458894,-0.241870803819267,-0.990218942731321,0.0327899109692529,0.110246996360931,-1.93849286617942,0.041615671235627,-0.608221857186377,-0.924063064207973,0.0589361314768464,0.0261247671441769,1.53080818017743,0.0538114349836971,-0.52623441368284
33.535,-0.56475537868949,0.226792764796554,0.782730027735342,0.0830751254172786,-0.00429836288574448,-0.123745856081778,-0.961766248115363,0.21983518681012,-0.140811102082999,0.520947472427857,0.258115116955236,-0.236403063927048,-0.995063298687931,0.0386017081672984,0.143241006817459,-1.97100500029069,0.0564182828318332,-0.572936312303802,-0.924867250052233,0.0651704783636808,0.0197026214097403,1.57890260894275,0.0609977493047617,-0.523467575022656
33.54,-0.573038029214183,0.22731425578674,0.784737183008471,0.0768701141948455,-0.00554186367707062,-0.127566888928413,-0.958314275107048,0.229749971967701,-0.147755043264294,0.534169198726086,0.245341194601769,-0.236429377409468,-1.00182902563791,0.0457357123612805,0.167613350110344,-1.95978355211975,0.061218781422394,-0.55873721845025,-0.926175365950172,0.0603289811682127,0.0111929807333137,1.62300401484754,0.0771850776771475,-0.512685576427378
33.545,-0.575522388848154,0.22538938765485,0.780802132458718,0.0725692978962628,-0.0176383073344199,-0.132565157371428,-0.960594238460078,0.233484027221756,-0.157193564982137,0.533380567192705,0.228834284443627,-0.245953275930474,-1.01089641812506,0.0490917438860144,0.201278149085293,-1.93758256658775,0.0536593107710881,-0.546618585571701,-0.931526274265512,0.0609801451341439,0.0141444469486331,1.65477073247278,0.0959339891340588,-0.50836831331092
33.55,-0.572266310679335,0.238456449726762,0.781074292978031,0.0708462203449522,-0.0185442177026478,-0.133237199537341,-0.962562512715681,0.248764863498909,-0.159097426839395,0.514468363829933,0.212414021018779,-0.25990895362906,-1.02057333643537,0.0592201832222169,0.224499802737792,-1.89000643019445,0.0390657840616563,-0.556542945287647,-0.93793602962578,0.0534905889893063,0.00523343660008468,1.6938567056203,0.117762437899835,-0.503044010933392
33.555,-0.568298992125092,0.246945125601715,0.780957484869243,0.0585621031060979,-0.0229209269733372,-0.136191056343767,-0.970954766765427,0.263049111888714,-0.156977836206947,0.496984461196507,0.202666861978514,-0.270789415347263,-1.02609396509282,0.0681322475863334,0.263801074168685,-1.84320882109755,0.0299371973023844,-0.584467967068718,-0.948119880839854,0.0493742396171962,0.00383747040156883,1.73280293943301,0.127827025823903,-0.500757041376674
33.56,-0.573407671177133,0.245305372604935,0.780552539467364,0.0394492096280406,-0.0335062301011601,-0.142773708266843,-0.974736037775702,0.274357300630299,-0.154673824257931,0.465815728242486,0.181722032795433,-0.28562819458249,-1.03361110396684,0.0746361907921106,0.279263111437486,-1.80376954985108,0.00746513514908359,-0.593974873360482,-0.950489369293957,0.0458076148546223,0.00433318995212331,1.75180037778275,0.125234254524324,-0.503349820582353
33.565,-0.569642654537202,0.243312348581151,0.778055281553469,0.0280444204304222,-0.0381390103354042,-0.154658095711788,-0.973037869880199,0.27748615995133,-0.154728074151329,0.413784721984994,0.166748717110226,-0.307572816994129,-1.04544938279107,0.0752914440773868,0.290878437241453,-1.74638657022926,-0.0094916861891034,-0.608716011316419,-0.962716682708788,0.0580566367027689,0.0185507238113866,1.79405647319909,0.102740511220205,-0.51214574392479
33.57,-0.573352566856633,0.238819295907082,0.773880753656493,0.0225092224716828,-0.0499628771675621,-0.163022359524207,-0.970049767886284,0.259582369059808,-0.161295971041991,0.373068193014341,0.150897188125676,-0.327465155155149,-1.04707462612375,0.0812702288962814,0.293218971664953,-1.67576115287062,-0.00969471979574582,-0.605050548650584,-0.964108648630424,0.0546904851919223,0.011645928934694,1.82494736213152,0.0750777808768274,-0.516922398286619
33.575,-0.57490426955986,0.219890080760734,0.778133095517968,0.0133870554209792,-0.0528970193573393,-0.169530128632956,-0.963169203297237,0.233829062055381,-0.171213584863396,0.330692333755938,0.141563680076116,-0.340038329463268,-1.04402619334585,0.0777405578050854,0.287818283751508,-1.610035525921,-0.00321272517366626,-0.605642066099297,-0.969285581388284,0.0624351901280522,0.00612424831047555,1.85434252938695,0.0611970596744187,-0.520012698185068
33.58,-0.5713491893769,0.20149649996146,0.781708835681483,0.0121378698688801,-0.0573858345615208,-0.17085709175812,-0.96507670290375,0.204583553652298,-0.171007924303908,0.299211399720874,0.126216375693545,-0.345550584642531,-1.03275880189174,0.0663916091417012,0.271969085879055,-1.49393273117875,0.0189318892529089,-0.589946822290488,-0.975798820319291,0.0705087774936929,-0.00210673672480666,1.87901359829517,0.0808071375201497,-0.515523409723155
33.585,-0.568919684027899,0.197235936602988,0.77937599730332,0.0251301238240984,-0.0672898494450643,-0.174998027905662,-0.965864194852076,0.187591690350916,-0.162754998106164,0.295295818576091,0.118946029695502,-0.352929186750617,-1.02716695290295,0.0401334828164061,0.25867957953688,-1.42078223129233,0.0425855870168675,-0.577310435275831,-0.977421233068504,0.0767066006030106,0.00284093218374631,1.88892983317557,0.130328402772903,-0.507126440841303
33.59,-0.56969647724978,0.199956319739856,0.789560610778992,0.0282594016904049,-0.0624062135661887,-0.170999460221159,-0.970937657563913,0.170672547607244,-0.145624011908416,0.307520375406736,0.118291955507276,-0.357607629518444,-1.01333521393659,0.0332048499409464,0.22535484849752,-1.36961312529409,0.0798671251526081,-0.535308657559411,-0.97872559805712,0.084372702047833,0.0160731791335562,1.87787448854475,0.180777400833111,-0.495896141527663
33.595,-0.569772644238253,0.195786156637566,0.795489363554503,0.0326789372400871,-0.0562296816062361,-0.167132039891303,-0.973760842833343,0.161190350291395,-0.134352163784978,0.34254428892668,0.112674683332443,-0.360015034675598,-1.00310387941219,0.038912960132026,0.190697893691292,-1.31594905218494,0.12281896339348,-0.496408020258314,-0.981087891448394,0.0980295055262409,0.0268621183545539,1.8737200508097,0.207946046035079,-0.484329846226428
33.6,-0.569954101978946,0.189089468459987,0.796128492944233,0.0369171686470509,-0.0531872771567821,-0.171912561312899,-0.978015397476205,0.146132654671539,-0.129364084907962,0.376486821061257,0.110620182736813,-0.355906033484337,-0.99624163128673,0.0575348064510689,0.150157029600352,-1.2702876297702,0.162216408404533,-0.449427186148855,-0.979733945020861,0.106370764876849,0.0331686366459766,1.86833313854114,0.20566526055336,-0.476485124018323
33.605,-0.567716249449115,0.179080973089198,0.800779305578383,0.0622307009151277,-0.0575032052166254,-0.177314314459767,-0.978533404341804,0.135033279870485,-0.131575030049935,0.4128883142056,0.109278911785058,-0.352595113417944,-0.991049867498047,0.0742890969147882,0.119034867506348,-1.21777091331268,0.197088782991238,-0.409001253330834,-0.983456802347835,0.106566266487411,0.0267872809183874,1.85720002133138,0.201983212129492,-0.465559442464708
33.61,-0.561129693820846,0.189544597730475,0.796109629629374,0.0597591182966078,-0.0544364036243116,-0.172288394197018,-0.976148672384178,0.142082900475143,-0.117248494357865,0.477766457562039,0.115896122526691,-0.351463168859482,-0.998043990702061,0.100095861441895,0.0875089771927354,-1.17770849145,0.242998542799159,-0.38034325042258,-0.985032452472641,0.114149847387035,0.0231093526620893,1.85105020562434,0.20310751863798,-0.456793541778481
33.615,-0.566203638679781,0.192969035842669,0.794457437061122,0.0671996625794951,-0.0543066144663288,-0.169835586891402,-0.975668059041633,0.153986779394297,-0.110483885037177,0.529799109272139,0.124569334504901,-0.356412386214303,-0.999762667979028,0.117778975171947,0.0611954931169541,-1.17703944974061,0.270780121707712,-0.354949306502909,-0.983066319919629,0.114670369395382,0.0277925402710963,1.84248251922463,0.208703854689418,-0.452145763906721
33.62,-0.578410424041252,0.187362141358936,0.796756966462886,0.0711246207356453,-0.0563360842980305,-0.16927797808585,-0.965929499338375,0.167164642264954,-0.118968831642429,0.58114359713929,0.124062796646678,-0.357964518470122,-1.00109025166305,0.142977233221181,0.0376543322765364,-1.19149074177632,0.292359929160972,-0.335902122450979,-0.980901148674192,0.108709616257825,0.0322345301270906,1.82622216664851,0.208108633756638,-0.446657985146028
33.625,-0.582551389266578,0.174110106154634,0.791483717795552,0.0774668799680449,-0.0585149629309649,-0.187755939901259,-0.961570211895951,0.173609646937477,-0.12820943543111,0.615466551679691,0.124719100857132,-0.360446362374094,-0.998423932228694,0.170026975860794,0.0206737334034448,-1.21331445668071,0.307109311006965,-0.31416445821487,-0.974305950029636,0.104568646289465,0.0376356841335669,1.80953846168284,0.209363659765725,-0.448524414577144
33.63,-0.581656055233058,0.173194382022797,0.790249422414366,0.0945256689908345,-0.06803793474848,-0.183265138785415,-0.964963121383,0.174987283954122,-0.131325766922869,0.641312598687907,0.125776423640229,-0.371531813842555,-0.996149429770845,0.183507281509796,0.00553819332678169,-1.22503790477884,0.31225182594353,-0.302686464065734,-0.982280709156855,0.0929207376597393,0.0447651023403781,1.79464594564561,0.214561957534272,-0.443313376728315
33.635,-0.56844533831451,0.182774726768386,0.793531046060056,0.103687286901039,-0.0681940860035939,-0.187375258647649,-0.953074786936428,0.178538622204047,-0.112224279730996,0.646737769137701,0.142318875533795,-0.379841879733016,-0.988074988356766,0.195542522187152,-0.00399213972302697,-1.2312266359375,0.31310310959816,-0.287486344139452,-0.976976591276895,0.0860991729601453,0.0455735803001235,1.78634404793255,0.227667233871242,-0.456941231479468
33.64,-0.549315164959618,0.160822854930117,0.795265664561782,0.112805182532778,-0.0683669136299188,-0.192279861979669,-0.948422561884701,0.193783141065563,-0.0889161468768932,0.638152083867466,0.163556123608687,-0.380373406937564,-0.976242331968861,0.214069134107597,-0.00342383934594028,-1.25268568164935,0.307294927205493,-0.266869698829194,-0.977300465434621,0.0814935753999313,0.0547208430351897,1.78518784046173,0.250988859201247,-0.473947087115695
33.645,-0.53634611100808,0.228412356963105,0.795827791918624,0.131432746015385,-0.0718355276913917,-0.187095759475427,-0.955316343969011,0.198196851693353,-0.0696875358240834,0.6287460814819,0.181501415288463,-0.379046319431082,-0.985373450634303,0.230417346894906,0.011503488355098,-1.2847400106653,0.295771558211247,-0.243146579152272,-0.980673430867481,0.0810201301943508,0.0520026428629043,1.79253735188019,0.266962638911814,-0.484177539348902
33.65,-0.535298330949486,0.240887998341853,0.796838077315718,0.121515043418854,-0.0793570245246002,-0.196410275560857,-0.958629523080976,0.197000756484706,-0.0652966612832746,0.633448473470872,0.206321371108813,-0.371826832168769,-0.980751814394004,0.249785826194993,0.0301670083761266,-1.32069845180626,0.285074391964734,-0.225811832654404,-0.973500864656477,0.0703836436585466,0.0572802266751359,1.7982023991855,0.282934891663953,-0.499804792116125
33.655,-0.531070154463763,0.242865699050042,0.796058079049424,0.11974804103887,-0.0780113965204934,-0.200135529048124,-0.966771239994793,0.212636269530405,-0.0756993158856766,0.635513772868969,0.219938378281426,-0.375261137634073,-0.987558031118796,0.267611645075419,0.048508724498242,-1.35000961433299,0.269861280279596,-0.212828875469601,-0.971904517165354,0.0716372168060843,0.0590268445354514,1.81153896492096,0.282293322631842,-0.51849324474321
33.66,-0.528215568435314,0.249337187420823,0.795041672773047,0.111750522609199,-0.0771081669070495,-0.197884232625098,-0.965848443963227,0.228525308278109,-0.0868964553566342,0.613962802151418,0.237385164461831,-0.37936668594351,-0.99731504659519,0.273291576642469,0.0650797768657259,-1.40366590882838,0.252210182480515,-0.195547061178834,-0.968898683060325,0.0763494189852636,0.0627298586727676,1.82369811557208,0.262051109395348,-0.534730758012419
33.665,-0.524684863820424,0.260352968222738,0.797507832237812,0.099777252386011,-0.0655067681206615,-0.192097059705372,-0.961686931048129,0.24398908517304,-0.0861636954113002,0.549595052386997,0.253850387794151,-0.383908078245821,-1.00176723278291,0.255261005529468,0.0835095446319493,-1.45270755193283,0.24435747222669,-0.187256045148398,-0.968802005274586,0.0740683940497887,0.063453888540355,1.8368106233162,0.243078513278054,-0.542841688736658
33.67,-0.530132419152375,0.261024673437547,0.794651307600378,0.0860481205664627,-0.0695065015939239,-0.198556764433673,-0.96808994873078,0.241471644442021,-0.0962156365491435,0.485949495427988,0.266700190995693,-0.396757863904593,-1.00767671908227,0.229059926625477,0.0978920501507691,-1.52166572901909,0.230674391017799,-0.182191928058475,-0.963287739434388,0.0785376798739447,0.0595874419028206,1.86360075769896,0.206413137638409,-0.559898269852895
33.675,-0.539699217790216,0.25010898940308,0.788875855858916,0.0690964388722446,-0.0687264949083328,-0.197533532730542,-0.969700469692864,0.230832838899211,-0.124248523232982,0.419102120966011,0.278270920438886,-0.406884419558742,-1.00811531999096,0.199177369322893,0.107408019657654,-1.59393954703545,0.215249150152657,-0.186150804240192,-0.960570024303181,0.0813584296704571,0.0599968879689867,1.88727731969157,0.180149654977735,-0.570598535610593
33.68,-0.552796429396244,0.237745549898939,0.788632334664969,0.0578359872231147,-0.071877187402316,-0.196667638538588,-0.965521146168834,0.225910392523909,-0.148947122111621,0.372386193408764,0.280241442378485,-0.419153597843809,-1.01396637833914,0.176434770006562,0.117803521950568,-1.6470015432854,0.200070415544959,-0.200220041095092,-0.964075670398644,0.0881248166406366,0.0611739659196049,1.92270771775875,0.12827420064459,-0.57538437050291
33.685,-0.549187437486945,0.235629631525243,0.791162150847012,0.0526543433534269,-0.0669663795052626,-0.202514799177905,-0.967609249355579,0.212844098787716,-0.158447213613822,0.323621021504806,0.283179483883499,-0.430982681749917,-1.00748076090921,0.160600127978059,0.121991495433131,-1.65768731166595,0.173229116666329,-0.208669152411856,-0.955096185953555,0.0953445348817656,0.0554399457996453,1.9425203035482,0.102153902927371,-0.576830143045633
33.69,-0.553072345869377,0.231276024161483,0.791159172142784,0.0371660577436109,-0.0722965725154803,-0.196076794978456,-0.969162471100607,0.197615397495219,-0.16423213818739,0.275350267783089,0.275550147552884,-0.451303400588461,-1.00624256157833,0.147090110907266,0.126319315295113,-1.63380116772302,0.157027399656787,-0.221780170093539,-0.94339178476708,0.0952734187828798,0.0462517567351364,1.96587708357133,0.0931289347605652,-0.573547663750329
33.695,-0.563339189388055,0.232776321799886,0.784688091493688,0.0287833128286895,-0.0721825733609862,-0.197680383501495,-0.971414821332677,0.173457991171317,-0.167879205894198,0.25579830841253,0.274659195136843,-0.459913077626268,-1.00051382683519,0.13008885028287,0.13079955486152,-1.61769182639456,0.137771409716718,-0.236189663503333,-0.939291507675598,0.10277985438579,0.0446186846379219,1.99726746797562,0.0970004692018263,-0.568614156023599
33.7,-0.563151910584609,0.22673878491123,0.786343804627265,0.0154448825681664,-0.0767563798858688,-0.199298893003594,-0.966749649442413,0.145387723527726,-0.169678766123003,0.264590933145625,0.25978664633025,-0.470639735004966,-0.9917346926862,0.111009248340998,0.133127707485427,-1.60049745095136,0.132292315363884,-0.25159689340307,-0.937113292478724,0.10793184248072,0.0392951815629216,2.01184628479798,0.110287957390653,-0.5559479407772
33.705,-0.558007281907082,0.21891239321611,0.786633706831379,0.000608956471182384,-0.0747207568900946,-0.194988515612053,-0.963400013927135,0.132352708880835,-0.175651288673317,0.279818029842937,0.261721432209015,-0.480097328327741,-0.995190294191325,0.086589067342585,0.146667425850739,-1.60358722061089,0.126183837652206,-0.276101070197531,-0.929177242933945,0.108378769124156,0.0385674494004291,2.01848806028665,0.136702942755816,-0.548514119985606
33.71,-0.559513654574486,0.205774758600445,0.789827687576934,0.00261275222441339,-0.0714155003564051,-0.195884822020689,-0.965545937839266,0.120722259752042,-0.166804527844266,0.310284533437364,0.262556571180692,-0.48462787270546,-0.98585041408535,0.0720567257033036,0.161288765193984,-1.58906270581419,0.129809846771294,-0.301803904802056,-0.924158517971281,0.109520138253336,0.0366645177973856,2.01539736833683,0.18253744856098,-0.531169330144307
33.715,-0.559497188259489,0.201865321172253,0.793841824806536,0.00901297986898985,-0.0704203492538505,-0.195725063294051,-0.97017292366781,0.1239735532685,-0.165626016651045,0.349222051243643,0.264164805412292,-0.483923240446034,-0.980678050162124,0.0704636601079823,0.163882410792602,-1.57575678403579,0.146711816995791,-0.310175047739396,-0.917651828990211,0.115932138563487,0.0369308303347142,2.01241018584463,0.229136859796707,-0.520037036512277
33.72,-0.568362366663944,0.192581903212002,0.790893979899991,0.0107246548266878,-0.0744925815821043,-0.197203487157822,-0.967689039967319,0.128742834564193,-0.17102976509761,0.386853460758381,0.264164805412292,-0.473128251243042,-0.980343450149203,0.06459662026779,0.156171128169214,-1.55536095969069,0.161975243252525,-0.317488304589705,-0.917706328757002,0.121811437444842,0.0413089383690174,2.00555057672036,0.282507108075471,-0.515665491241532
33.725,-0.57420093258977,0.182846043760326,0.790698427594518,0.0116173795129753,-0.0757837580206923,-0.195471693149367,-0.955678784578902,0.127536008512914,-0.168379043908595,0.405861952565626,0.268765607151428,-0.473727958509313,-0.976393137490408,0.0661440180001841,0.144244112848654,-1.51356055469041,0.186971813761558,-0.316768557805475,-0.927140172852985,0.128110597292543,0.0435004775531263,1.99011488104399,0.330807662514244,-0.514466482759854
33.73,-0.575450771915299,0.16889557724801,0.795632278075376,0.0206624779920671,-0.0841673088704519,-0.199884179839346,-0.951266696927456,0.108621959718666,-0.167833313358656,0.41892918935059,0.269990679301625,-0.473598636332388,-0.978499351609664,0.065447625267111,0.122616243457018,-1.47927529770595,0.21719587050661,-0.307207242468653,-0.942269058226962,0.14005613059963,0.049497898580072,1.97240831185305,0.361776219977463,-0.513235566480996
33.735,-0.570226965485375,0.156837950841596,0.805493595804536,0.0493598960026222,-0.0847119162184633,-0.199957041353773,-0.949252872230061,0.0985007381627213,-0.15785000596945,0.433496089265401,0.280102992136439,-0.469911388169058,-0.97383663154237,0.0769617067643588,0.0980299471238727,-1.45031889224758,0.255827130917207,-0.270297853108748,-0.95527168390355,0.145968012159873,0.0447488660576631,1.95556779923907,0.378655979647956,-0.516009496896916
33.74,-0.558203173493989,0.14117317004857,0.808644539823365,0.0669764238269287,-0.0760288090977301,-0.196450973135425,-0.957948966119061,0.0877445486981804,-0.153963972614529,0.455963041183523,0.286037922691528,-0.467791985001619,-0.963553507293371,0.0970825916335426,0.0812387496919792,-1.41818965761131,0.298990642000383,-0.218118981282218,-0.974998489826465,0.152051121483129,0.0434669412272308,1.93941327757464,0.376702487468719,-0.512982295513784
33.745,-0.555663752860448,0.153713813497641,0.813354151783434,0.0898708561186945,-0.0640587210973456,-0.19920887046648,-0.973527977245228,0.0817632757959847,-0.146001303212995,0.494807006336396,0.300012330917678,-0.474854320287704,-0.95708085698316,0.125015191869684,0.0651417020718711,-1.38375865585677,0.332310942723486,-0.160092948026402,-0.999443595179147,0.158350976666704,0.043092134047674,1.92064420016114,0.376533912772634,-0.509659111499786
33.75,-0.550322046738503,0.159544624348261,0.814322169425732,0.110069022496279,-0.0610102079502378,-0.189487197519968,-0.981317942089369,0.0863337678951412,-0.141710640858701,0.525255297927056,0.308616553229398,-0.475270632561662,-0.96048076433742,0.153086789404332,0.0678759637000255,-1.32445679438094,0.36818964324904,-0.0923311808681485,-1.02291403887565,0.159947576113577,0.0435311268004239,1.90635510386317,0.359661767607796,-0.507936339086738
33.755,-0.539767591221092,0.166698618915118,0.813089643833351,0.126874559418163,-0.0501160216053608,-0.180853134680753,-0.990588984450599,0.0851193167021184,-0.140811945939456,0.552520830683067,0.31717523849546,-0.476076036691666,-0.965868952447306,0.172147530987125,0.0869147622482426,-1.28009329740879,0.397548360120818,-0.033975279101665,-1.04491465737152,0.15776430259087,0.0477930123846483,1.88520016548372,0.32848060488669,-0.501595346776062
33.76,-0.534548752290262,0.191286044527364,0.815609073101181,0.143910611734752,-0.0439395929048637,-0.177129625254486,-0.994255934959281,0.104672685944191,-0.13464358000438,0.588417270189001,0.332462273215303,-0.482224267741023,-0.977012083717514,0.184711602661666,0.107664493119703,-1.2441581838216,0.410117072768946,0.00525656244171044,-1.06145888147703,0.156973337660177,0.0515450543974468,1.86282952073239,0.290792363829577,-0.503732910688518
33.765,-0.531079758903581,0.216821914828761,0.809871868459205,0.151760447654651,-0.0461824989923666,-0.178213874293426,-0.992084164959004,0.127503652844161,-0.144249791911966,0.615721053748342,0.338637608137086,-0.491321930212952,-0.98594666677141,0.195515773206438,0.139862975630725,-1.19815902732544,0.418131094306604,0.0324632238846992,-1.05831514010171,0.148003898429109,0.0651653937793365,1.85730397838412,0.266623547848365,-0.501251767036823
33.77,-0.531337423768676,0.227795504724105,0.797200976783501,0.137338253889137,-0.0423885270068174,-0.175069910110856,-0.978301676745468,0.162293177577479,-0.15337894144256,0.61952641547143,0.355818487471115,-0.501784775966374,-0.998411681608394,0.199484117907183,0.166606221827389,-1.18548174314378,0.421485163494851,0.0293389933906391,-1.05905930293309,0.146970989296842,0.0726014423687138,1.8606921489799,0.258198112249374,-0.512188804932722
33.775,-0.532886597757117,0.235069200458066,0.790895253371069,0.131199013386768,-0.0403062623845362,-0.173137399779521,-0.966623137953276,0.165221686112275,-0.157454240828531,0.606422796484012,0.36039856884023,-0.509502751277487,-1.00449010566648,0.197010536698577,0.20292261338381,-1.15584749438431,0.440722944205481,0.016432906788018,-1.05088795883415,0.145026916068617,0.0727467510628404,1.86835417413888,0.238286561161755,-0.517634313843178
33.78,-0.522003067642041,0.243107920909588,0.79217110782283,0.124517299764299,-0.0453602799797995,-0.176280653931881,-0.956600240457787,0.156481972417737,-0.161805330579913,0.584437361886352,0.360873638975423,-0.515612087248617,-1.00366574072721,0.189420409441821,0.22857348241288,-1.14196311790919,0.461589807391728,-0.00297397842451577,-1.03990164757176,0.147744437443739,0.0706988989801492,1.89682901564803,0.180625336269757,-0.527325743948941
33.785,-0.525289840767115,0.238857111996025,0.797604124311108,0.113773331062577,-0.044403202815273,-0.161774337291718,-0.962528211054766,0.149896434730393,-0.159611765743087,0.537952445213038,0.352418023769354,-0.530845634460961,-0.987240291581343,0.165733378777821,0.26765972482253,-1.13569434450444,0.47960146091997,-0.0321491597646087,-1.02359755392173,0.152210444816656,0.063876018869629,1.91142922046005,0.161666558192666,-0.530374872272381
33.79,-0.52298072316338,0.223122527808445,0.808980543458206,0.110024645403459,-0.0402391264586563,-0.156938761509667,-0.963388678637804,0.148100188826111,-0.180296119074462,0.51112337181027,0.341576138740702,-0.549489754339617,-0.981087615005591,0.124006732981855,0.296993536256425,-1.12159362578791,0.495271656200508,-0.0730494654358855,-1.00470043651337,0.146032533793249,0.0513876003710526,1.94077399586276,0.167073023091732,-0.524779699653915
33.795,-0.538216623178121,0.223619031926686,0.802323206071421,0.100119046394485,-0.0271303779306717,-0.148335695266724,-0.97612809589889,0.145550694943923,-0.19443791217174,0.496631115674973,0.336153101055726,-0.566354207712066,-0.979881062646252,0.0987959037255731,0.305032330168643,-1.09025431426851,0.509461381732387,-0.0954016822842825,-0.994465154339065,0.152481186919181,0.0417290182119969,1.95290010641,0.195123376454215,-0.507927367430879
33.8,-0.552150869183512,0.226174970700485,0.798437893635563,0.0967802032828331,-0.0236958239080252,-0.148335695266724,-0.986209096550675,0.143302368157221,-0.229091647162054,0.491497834821884,0.308576499514692,-0.583688081497854,-0.976560084496004,0.0752990730095222,0.308740815284939,-1.02459304355227,0.524942836413739,-0.119926156063141,-0.983414336760429,0.166677361543727,0.0309301514203496,1.96371025595564,0.250285080056004,-0.47261137819735
33.805,-0.558359050525848,0.22692344155537,0.790343450828762,0.0894685862766452,-0.0219824053608979,-0.147226757806774,-0.989650169619029,0.135371208541583,-0.23934179262111,0.466169463702601,0.298452932898021,-0.592407391826975,-0.978466253967661,0.0674196354639929,0.306913161548547,-0.963656293622509,0.529643383823619,-0.14175720281136,-0.983854247507859,0.177162647782362,0.0366255276975065,1.96592990045475,0.323889088069987,-0.444473182888015
33.81,-0.557437346217339,0.228773921299298,0.790405518042723,0.0906087689697722,-0.0253248572647562,-0.142381277009788,-0.987051395584815,0.126803894892227,-0.252294134310976,0.446602213285311,0.2772769767734,-0.616510333838081,-0.977777524139669,0.0521748233904618,0.290682475545321,-0.867380640474126,0.543541532599991,-0.172435828586055,-0.977804168054936,0.196030927814497,0.0471174239451992,1.95977910393461,0.384213213207246,-0.413075796028154
33.815,-0.561700633855978,0.221039931389285,0.79419606572963,0.0713551084057329,-0.0142458400239096,-0.12832760904612,-0.98763432434286,0.115068363296604,-0.251932959500303,0.439564656376785,0.257872506493303,-0.630539308313547,-0.97327087946336,0.0420863664297439,0.273431893779689,-0.783269898480524,0.558174176548326,-0.197544306301686,-0.975805901476158,0.197604606279228,0.0622636724087191,1.938642281123,0.431612365915888,-0.377956734407918
33.82,-0.563782691501185,0.215129834621139,0.798391624991834,0.0754978073216466,-0.00954824829903075,-0.127395693431508,-0.99053965380179,0.105976769388954,-0.252600176416235,0.43857936567197,0.227540467431226,-0.638800430412283,-0.96976946992946,0.0377861701759218,0.238413744775417,-0.70467059268704,0.570604696738466,-0.21981451956119,-0.971963751094708,0.200835192923588,0.068386763191666,1.90757597291582,0.453962988438709,-0.357459679070749
33.825,-0.557616897868172,0.204067380346194,0.802580107496794,0.0614297174054362,0.000763277985012245,-0.129042887904406,-0.98854961298607,0.0935495944508976,-0.257034916356873,0.433808261106749,0.198396282403302,-0.642774999053176,-0.966680934692186,0.0331493695663864,0.20862825469899,-0.635593210369776,0.589290307213778,-0.248682758106764,-0.980762989012014,0.201783146497736,0.0901761620151586,1.87189076072649,0.453642497023659,-0.342284298912466
33.83,-0.556793761009355,0.192306470235597,0.797454156167164,0.0503487074823747,0.00843914287892147,-0.122914512469968,-0.981433752363452,0.0776128000959647,-0.25025435657484,0.446146000446893,0.17861838965077,-0.652826089682199,-0.965532161692383,0.0321754447730489,0.171823613444565,-0.583589689279774,0.596502177270543,-0.268085101794777,-0.982154870117964,0.19899100658826,0.100886162622094,1.84315874370544,0.432378981707427,-0.33879695739364
33.835,-0.552880712892178,0.17817821170166,0.794823191918216,0.0762775747584285,0.00957115152181025,-0.123314858172231,-0.979786736149226,0.0642459279508671,-0.23827262849397,0.462459817351368,0.164548011677299,-0.661211446565836,-0.963348213484562,0.0375426102351783,0.132094606810606,-0.543436218702263,0.599970909301092,-0.297917548499948,-0.99218208053084,0.188925967950332,0.108838036489694,1.7965890325718,0.389750771577009,-0.332513421773911
33.84,-0.509109935710005,0.172298810301194,0.810999696803381,0.0939464629336289,0.0237500054865427,-0.113792104903482,-0.984657325646429,0.0478320441814769,-0.236336540380423,0.486299403902705,0.151326543132494,-0.671368120289913,-0.957515572379989,0.0572519746105711,0.101328852227776,-0.527387273952752,0.597757935523987,-0.325045868392154,-1.00310903294183,0.179549495086356,0.112928127644925,1.75365568820378,0.335423767933318,-0.33630223370624
33.845,-0.505051142259387,0.188918643799838,0.811248709448295,0.0953256894401189,0.0236578711379444,-0.110055127006164,-0.969943940035619,0.0154791754360721,-0.258378503311515,0.514902456115753,0.134665191173553,-0.682810865745585,-0.957591146220311,0.0881462458371857,0.0643169318475198,-0.509234866624775,0.603826961046162,-0.335782887035191,-1.01362855086231,0.167918706774613,0.116798992280766,1.73120594459144,0.267351677180828,-0.338787244315878
33.85,-0.560535944351491,0.184216291226632,0.798168921450698,0.0979630186153983,0.0367183731349501,-0.0981068883841824,-0.977344450811757,0.0240640107123634,-0.241931534162408,0.593599865895179,0.132574880317902,-0.683699098211603,-0.961257766305211,0.117922212913852,0.0419880558620475,-0.516589366622113,0.604129346253526,-0.355001382954646,-1.01913839799355,0.154197015435292,0.122703991313874,1.7200700176138,0.221981870548926,-0.350816679609747
33.855,-0.550660670026897,0.178784083355528,0.801008087935282,0.108046425213303,0.0302973552000086,-0.103608367179887,-0.971516424732276,0.0206127088544667,-0.221907218179272,0.640381028476881,0.120594795701041,-0.676705858736646,-0.961000626493541,0.137014333359286,0.00619763426946583,-0.57409345170143,0.612951754190074,-0.371276640366576,-1.01700493936681,0.142738841238749,0.125542004884193,1.73180809091442,0.178237065419777,-0.360188943499888
33.86,-0.546260499586606,0.180565533084932,0.800547245766458,0.113209885922698,0.0316209684803798,-0.0957607139952841,-0.97199676054673,0.0305861225593412,-0.224232868265057,0.66170396627622,0.108937552814066,-0.668001618242524,-0.967980168936194,0.15297484056052,-0.0173526396777547,-0.659673581328917,0.626161553111297,-0.40720113961171,-1.01361367414583,0.137605541290057,0.1314160634794,1.7471871337783,0.14213638593193,-0.364984853819766
33.865,-0.555429806801318,0.172284607045406,0.803927446949768,0.1282383750648,0.0366057494809413,-0.0859917239012809,-0.969858104374541,0.0233024040174202,-0.224549514399884,0.679469628219994,0.0969717686560802,-0.665886444494464,-0.971795956125281,0.160380431148354,-0.039867307897463,-0.725344237138997,0.627123346536159,-0.450813791303735,-1.00400002790784,0.128549634730229,0.135629295857077,1.7803527441115,0.11401120660593,-0.366718639340881
33.87,-0.547273874419368,0.179020063300601,0.805653629072439,0.140448992518164,0.0476466889598052,-0.073812335729599,-0.973802924829762,0.0179332943634927,-0.21790655580977,0.691217481478344,0.0965084014559967,-0.674274807176036,-0.988835472426277,0.172214947924222,-0.0684030910978922,-0.790860260983089,0.629183158367557,-0.498888643012937,-0.993218845878848,0.123559439868751,0.135219051762524,1.82122089114343,0.0946872688816704,-0.366749990947255
33.875,-0.555711064855253,0.173374101295612,0.810296333548403,0.154754348111777,0.0419428026235695,-0.0666444500714847,-0.969085451829334,0.0116871400241191,-0.214144484209041,0.705453781894752,0.0886389038317075,-0.688961882454,-0.988777510440164,0.16978273414623,-0.0806369127203733,-0.828272766993548,0.629593144121461,-0.523183908139999,-0.980758275365166,0.122321544483897,0.129939214507038,1.87697225337894,0.0741213766067458,-0.368653214249884
33.88,-0.554664999167682,0.166874896210144,0.807044636568925,0.17918920853812,0.0508392193847967,-0.0615953877568245,-0.977889068996202,0.00587266083649404,-0.201523577198583,0.737688903643984,0.0849672624474311,-0.70316249116136,-0.992809858104017,0.162438176265104,-0.10471216905271,-0.882617674477461,0.632756248621784,-0.539719049631951,-0.969363260840516,0.12283784802742,0.119875424860015,1.92957234578972,0.0645103898807237,-0.362957521709575
33.885,-0.577885684645219,0.180744586065891,0.793589332323576,0.209747217054335,0.0620643808338762,-0.0350706705110786,-0.976428336957269,-0.00014916361398106,-0.196609219871066,0.764128797858338,0.0748920289809278,-0.715887609787364,-0.9779534615995,0.16101688591481,-0.0861209043142117,-0.930004959062224,0.614779253939555,-0.544307148062359,-0.958562284478499,0.126233488436066,0.109730524967406,1.98229272115182,0.04566445876779,-0.360447618181633
33.89,-0.542360965434995,0.173328778941824,0.807997180039969,0.23576273021784,0.0912214730193237,0.00227441514990545,-0.969041257488838,-0.00722002725553086,-0.200507152313867,0.784190042924883,0.0756125049859284,-0.728230482411388,-0.973221130162347,0.160352106536475,-0.0794853006270961,-0.986311676851366,0.612794750914622,-0.547950519192712,-0.95772220382259,0.125656081876717,0.0971941389720483,2.00881928519426,0.0487822353838852,-0.349049887008212
33.895,-0.536155773588818,0.173879689686337,0.816579664916512,0.291223650883204,0.11097902079679,0.0228179490343471,-0.993275013485619,-0.00889077397914722,-0.201605515390241,0.831995324474572,0.0662012197309501,-0.757245284277953,-0.954504838438311,0.15667449219586,-0.0452658839769643,-1.01989409835424,0.616938580090787,-0.526386223757753,-0.969424378920173,0.115877912953171,0.0882500955235467,2.01039091378878,0.0594614221331719,-0.339615304729748
33.9,-0.531296611695853,0.197617138112719,0.825783965840444,0.35250511885968,0.151730497979688,0.0698577538861552,-1.02528711437416,0.00478058996884428,-0.195895569883982,0.898228371070701,0.0478416069560702,-0.780164547737068,-0.95125453731192,0.143745954003535,-0.00513126238926929,-1.04414248382893,0.620726720798002,-0.499619249704105,-1.02476845530718,0.0824644180115069,0.092416291433713,1.99769181303693,0.100188561304395,-0.327292169715698
33.905,-0.507946141536223,0.257374703790629,0.825687625964668,0.396715783141093,0.189811490975042,0.107078038684655,-1.05330793896777,0.0314047699229,-0.200708381744696,0.982055161546105,0.0184080281324941,-0.813016788439287,-0.968113195878463,0.142104387995624,0.0280126744360361,-1.05009314956911,0.625887610000942,-0.484752884239365,-1.1008923325354,0.0483844096276096,0.100374075068456,1.97300096336831,0.150805288317521,-0.32034935849861
33.91,-0.523766660572408,0.282592126096471,0.8506658858988,0.433102684718286,0.244238006117172,0.14709727090102,-1.08777945399944,0.0477174437781257,-0.210855818488896,1.05775498546549,-0.0102907765597075,-0.835237154481698,-1.00414322432771,0.129136913159106,0.0603482278558087,-1.09168696290134,0.624631736639057,-0.451068837786142,-1.19660721652238,-0.00585691749569519,0.110787762694384,1.92090356890128,0.145606008035897,-0.333681312482723
33.915,-0.527975128164295,0.362785657120466,0.866052866502027,0.434642830436123,0.301654306221435,0.140891064672878,-1.13593456180746,0.108225606162071,-0.211841905503034,1.14351129174194,-0.0507233870027539,-0.87047680146789,-1.03079227948704,0.110850522014139,0.0650818593191995,-1.13851603630123,0.609472948782302,-0.432783466410881,-1.32352705629562,-0.0900193143646878,0.132585789345752,1.85352135420365,0.0318372364353727,-0.372695381968447
33.92,-0.470475979034333,0.5108071429639,0.834714764272073,0.395241738576246,0.360602889886134,0.114766935837022,-1.17260250593283,0.176174831955124,-0.172998773006452,1.23883295192217,-0.0572773108159325,-0.900176715385178,-1.08628948601791,0.075517500865456,0.0290010576526614,-1.25039221803734,0.580834781889176,-0.416758010677888,-1.43378314027537,-0.160686372303403,0.17200089899208,1.813265656873,-0.165421598481295,-0.430572948754013
33.925,-0.454275169069833,0.594746473849107,0.797187385185647,0.305955192552335,0.405463612281035,0.0467746099132464,-1.21833417535865,0.242667991472671,-0.178400440582941,1.2692106059651,-0.0716162226140014,-0.891735724033401,-1.16935382509679,0.0213441270598904,-0.0385545238901754,-1.38632121063087,0.539605184143497,-0.412740355977098,-1.49402106116955,-0.204795071371309,0.157193355628424,1.85216031882522,-0.521508582256415,-0.546089275810693
33.93,-0.497232684825932,0.52688991574699,0.754666792135169,0.162075821759977,0.444385230541229,-0.0403094958856238,-1.19461609815669,0.250169903101372,-0.257233451661859,1.20719591866464,-0.108583110911596,-0.84556782464854,-1.2481001379451,-0.0378592515412281,-0.117276488703515,-1.51014290916534,0.471913611502459,-0.436472437110228,-1.46296083592366,-0.200835731630176,0.0853827881196787,1.93665957845107,-0.826063315799587,-0.629125255282443
33.935,-0.609863988043737,0.395852732522615,0.740236454116968,0.0831238526828536,0.431741267192995,-0.112326778915565,-1.11779820345667,0.229150364977928,-0.345982871055199,1.15475641156039,-0.180916758806314,-0.786001667619018,-1.27060612440065,-0.128658552436914,-0.212510836269746,-1.65773974046177,0.402714125521514,-0.478556140746272,-1.3769654911968,-0.160495428288402,-0.0656985559076221,2.12485981566218,-1.36528462031426,-0.801761852794745
33.94,-0.66972768645008,0.283817225228766,0.735980920319286,0.0405264289090239,0.384772880234764,-0.194049609083973,-0.994680077868739,0.209459188128428,-0.315450851753922,1.21083327228611,-0.250458003463817,-0.718514482965223,-1.21655912777987,-0.200617415843239,-0.288249394643416,-1.81222255836807,0.345721503435419,-0.525902922332351,-1.28669571160976,-0.119167612860229,-0.184804481417878,2.30775638091021,-1.71732235579731,-0.945936685700818
33.945,-0.664007321568456,0.263411335071136,0.723787139687343,0.044303936733583,0.353667390281618,-0.24271907325772,-0.923622959444141,0.129897687391863,-0.300041347120918,1.28002664253321,-0.316162710649982,-0.673101751041371,-1.1182161235183,-0.237685475944168,-0.287382105773968,-1.97413393063858,0.286546623893526,-0.537180433762417,-1.1692148800997,-0.0723307380395872,-0.288939906093145,2.49713171991487,-1.73092591834157,-1.07220036116237
33.95,-0.599986942520925,0.250621634876429,0.779126491884569,0.0376900936141589,0.362969977232862,-0.304729677288161,-0.925320926822964,0.0749449445324147,-0.273618257295918,1.31423104721433,-0.339910594541506,-0.657621745642661,-1.02060498968052,-0.235094379185081,-0.278169936088948,-2.01389232925818,0.255310918031311,-0.545481664437742,-1.06155070239179,-0.0282367361523672,-0.345687525511628,2.55343744038089,-1.2985228063254,-1.10037001126287
33.955,-0.535627857699011,0.252978889734053,0.813573199089358,0.100167645438951,0.371187046710503,-0.375241481849531,-0.972008048620654,0.070100530760487,-0.207837640107344,1.39151281200597,-0.36531583612405,-0.630113701037913,-0.947058483344435,-0.227477101632281,-0.24321949874472,-1.99987910500306,0.227461926791939,-0.529700859518885,-0.957224245471501,-0.0101978773927433,-0.394595504972416,2.45410657571295,-0.551512876630445,-1.03037837924064
33.96,-0.555231162763697,0.319630544072395,0.812528596499524,0.184340353443534,0.400168735616961,-0.449657820770739,-1.03752326354988,0.0596919572904819,-0.212335151894776,1.45392510750683,-0.380568323908805,-0.598052733917758,-0.931135428380957,-0.189543243529558,-0.181598708571835,-1.91438739902315,0.186644350687168,-0.491901997901059,-0.881971662548196,-0.0172620367174641,-0.409708973844024,2.19830708709954,0.230931082718485,-0.896240311506628
33.965,-0.558440559598648,0.314111131153598,0.81911082334724,0.252354900108733,0.418233170068532,-0.562718690237492,-1.08329040122153,0.0784766695578437,-0.217588929671928,1.5122533996555,-0.381959339378351,-0.545023314402739,-0.938350174393969,-0.159822717420559,-0.1547659977825,-1.8584288177786,0.176008911840215,-0.430559034710613,-0.829371171624769,-0.0808312429427019,-0.382505461700799,1.91615966177334,0.753900927832245,-0.753346770290318
33.97,-0.599237985631008,0.275041032220003,0.821179962696425,0.359922065102715,0.44673909362502,-0.674087815811923,-1.10264765563801,0.102090680968648,-0.236634079380487,1.59198434631912,-0.34370281909939,-0.49079624471805,-1.03726801905474,-0.127769506944743,-0.110630537662786,-1.78189379716911,0.173281688924375,-0.417358217932701,-0.81591243746811,-0.175749833014953,-0.322719525280966,1.59149243170583,1.18117587428398,-0.576785197560492
33.975,-0.691776624451334,0.324304434919617,0.804872161962518,0.484402227937424,0.467665733551159,-0.801067043837458,-1.11001959990785,0.128749521707116,-0.235807154336637,1.66038822179613,-0.315858535898651,-0.432213126073766,-1.14391231516828,-0.096615873518353,-0.111277385100078,-1.73868422236508,0.213917351874745,-0.344908240600921,-0.847524054936324,-0.245741079523626,-0.224890154170521,1.36425734110313,1.42720959843852,-0.474012394434248
33.98,-0.698087375218838,0.275797669706002,0.798760038154811,0.559615476704334,0.480549315239422,-0.92791545619994,-1.10098056097233,0.137421716938437,-0.249429665049025,1.73032490133398,-0.279247352762506,-0.378425157111209,-1.22362802065126,-0.0769591549704816,-0.12142042957474,-1.71255505304053,0.276449632216805,-0.245833418883044,-0.885526433650838,-0.319531206599895,-0.117299990101178,1.12889980185591,1.64128415965548,-0.396962758573833
33.985,-0.692073063752513,0.203392907579179,0.743512955291666,0.705442304243979,0.463519382574972,-1.06668001787463,-1.09868212247412,0.111999849408822,-0.253113075498104,1.77628280539896,-0.238225326329138,-0.324273171309983,-1.33676200516911,-0.0547379605342092,-0.121301256866806,-1.69935631552804,0.387257278320393,-0.143508260212056,-0.923204161732329,-0.358336498628906,-0.0288723132468392,1.00566124917793,1.73642021096408,-0.389871525117942
33.99,-0.744669044616281,0.402832267630238,0.77915548151588,0.893356294405407,0.497121030556292,-1.21870016195346,-1.09091644508209,0.115114565975732,-0.268565471258445,1.88642478594958,-0.196009753441381,-0.244785686791389,-1.37320461258725,-0.044889727916879,-0.135485487727981,-1.69105412767196,0.46647151954808,-0.0273514533438579,-0.97999697305604,-0.38112000264216,0.0963015283392539,0.927474710694622,1.64710724434236,-0.431364588293308
33.995,-0.68044948597305,0.511504808277651,0.799489951426607,0.939631475075973,0.497344950826073,-1.36473803367906,-1.10110932805394,0.157590637276138,-0.288525805000595,2.03090683158545,-0.147654780838838,-0.141679462393464,-1.40903934888161,-0.0266084017112214,-0.130985078997377,-1.68034628414296,0.566445868450807,0.08486887352541,-1.01807948517312,-0.381359771293894,0.159947679200163,0.922478329530277,1.44771556632565,-0.465046050956365
34,-0.55760494684345,0.612990003124393,0.805270615448933,0.939952181629469,0.475461101212167,-1.50696650563772,-1.1133103010283,0.237942632560399,-0.280937827363525,2.15449183749878,-0.109349805958333,-0.0239469466478663,-1.4039321396325,0.00208201041925927,-0.152542421802717,-1.66063014716206,0.639422195682557,0.161228867384309,-1.05912834076455,-0.360328345747012,0.210409232126065,1.00708590999459,1.04892178766567,-0.51013633395509
34.005,-0.661647975743998,0.585769030798623,0.679139073390474,0.989766267891301,0.433627335880674,-1.66417272072742,-1.08416064304702,0.346119559050547,-0.260224983451267,2.32445719707258,-0.0778235884676295,0.129794363995123,-1.37870061449042,0.0291156029568154,-0.185736554798877,-1.62952759201402,0.695744469586928,0.201679556894164,-1.09021805646924,-0.314015770318069,0.238760961401567,1.11386058187628,0.685666590871312,-0.530806572786605
34.01,-0.747603786351335,0.432533918845536,0.633159864172659,1.39302611010317,0.326675305755742,-2.05349396882577,-1.06058818549464,0.385749970487777,-0.291825197453214,2.45236138470141,-0.0376423651406906,0.231131106827816,-1.33602527707482,0.0802296022004512,-0.235495882113769,-1.58815209164903,0.742665942849616,0.221240741269216,-1.10492077761756,-0.283951087678413,0.252850258537994,1.23414948029439,0.349987748294784,-0.552526219175401
34.015,-0.807615356940836,0.2524306432698,0.719241596505539,1.82016578646778,0.282863759921251,-2.35885936363033,-1.05094016036598,0.30481151644821,-0.337409739778078,2.55873114514892,0.00806075203612064,0.310816890693954,-1.30087133219297,0.114425291905018,-0.278096197795432,-1.56503452553216,0.759784262065917,0.231674939393997,-1.11065429979851,-0.244761569882054,0.236383766494288,1.33823276970971,0.0483076501227376,-0.551109500650828
34.02,-0.790984702054391,0.0443873800740322,0.713034570324579,2.34140793802726,0.158101704066875,-2.6101974183857,-1.04517830823603,0.193026267260819,-0.364279767302806,2.69672134272837,0.0884045224069482,0.365977378400908,-1.2555065185291,0.143832019946424,-0.317384894486984,-1.55551817299632,0.752836231211211,0.240540338953654,-1.10786333317108,-0.221532335224053,0.200233363766049,1.41393688126725,-0.167638859476624,-0.547276881167922
34.025,-0.857446612535814,0.114436734414963,0.772937130555777,2.89746116948579,0.0561510259182952,-2.73103165341157,-1.04518142622632,0.163483753974997,-0.34707985448192,2.87317981220757,0.127230561606549,0.386604652445318,-1.19846185988947,0.162860477153709,-0.338346300307274,-1.57497967586207,0.735804939252356,0.260463627160059,-1.09923109679865,-0.21696066976482,0.153639857904717,1.45343004232023,-0.289101900834626,-0.542606065539851
34.03,-0.923712082659706,0.382427412772152,0.815390979800907,3.35456074007884,-0.110853303934397,-2.71728359228887,-1.02223080185275,0.14719073271946,-0.350688321114831,3.08248676640652,0.169484143735749,0.419811521921264,-1.12978931170735,0.17586477593845,-0.353978530864734,-1.63915866418442,0.680411872311937,0.291288880536506,-1.08897729037893,-0.232440155150986,0.0761450287955379,1.49244966989544,-0.366143513266936,-0.540201485157013
34.035,-0.996642553424765,0.540651464904718,0.710065748152018,3.44741067982434,-0.298821787727928,-2.57094492711632,-1.00393355033539,0.125256418845625,-0.352094539181368,3.24243755330584,0.201677669434935,0.46554925854011,-1.07272397850952,0.168707798161416,-0.353537343045971,-1.6939919567187,0.622218450638098,0.320384214782306,-1.08400435316336,-0.245068211096198,0.0134143439656986,1.51570600596872,-0.363195863106183,-0.53891572354595
34.04,-0.923485354577091,0.795587623279334,0.744135077823367,3.38386155106745,-0.414723781792212,-2.35783203189185,-0.963100515765826,0.134354256231534,-0.339471891453322,3.35711347935739,0.230754015293926,0.499632837603437,-1.00921145126186,0.151370843235838,-0.348510366669462,-1.76067421246287,0.554358162717396,0.349512166532698,-1.07124600585932,-0.249546584250335,-0.0465864502591354,1.53746962627651,-0.329125421321953,-0.533911110967513
34.045,-0.782176334444227,0.635009744825828,0.728128141009073,2.99419542463034,-0.614779878661835,-2.4699822440385,-0.943794418274351,0.185122650690768,-0.327715515025753,3.47620513931607,0.243401175040863,0.557410657381972,-0.95569406774082,0.127450216377721,-0.341513516207613,-1.85445927339167,0.469430363442651,0.357505147144775,-1.06568992328584,-0.250416671128349,-0.0837057363882191,1.54205530145111,-0.283502978842241,-0.526839474182307
34.05,-0.841302076213383,0.296890244031207,0.785888504800528,2.69059190525944,-0.74968120864925,-2.71689195814795,-0.914979617748167,0.202157578475586,-0.343940884709736,3.61080392101864,0.262708558154692,0.634363701664964,-0.898919455922979,0.08884230149406,-0.323635037881903,-1.9523041500434,0.425295353508079,0.353917111411104,-1.05640565646823,-0.234966885758799,-0.0961036201213981,1.51953759962118,-0.248093645889417,-0.51012266239356
34.055,-0.958779755723252,0.0899182294390044,0.806547622303921,2.51956648456286,-0.916386580679527,-2.94382662572328,-0.882905857264255,0.15811560206649,-0.339349279208661,3.67780137651488,0.279123664063846,0.669954768860789,-0.855247709889779,0.0447201896605849,-0.297798522331358,-2.10100114291304,0.379288010930218,0.343314617635816,-1.04607126709777,-0.227255206970812,-0.0948277559162547,1.47314562423876,-0.239913554778212,-0.499749713853245
34.06,-0.931013288394013,0.140500583299886,0.808717261110971,2.52099090598487,-1.10016715617819,-3.04749676582049,-0.865142629483621,0.0929446013134183,-0.323222057872892,3.70574728501,0.290265296575134,0.679064372991862,-0.825355853256876,0.00394778019298614,-0.271053430701815,-2.23497889488683,0.360701140495296,0.325936896712546,-1.02429124351826,-0.212178099204033,-0.0875699348691557,1.40498077718302,-0.236071346203917,-0.495515616734392
34.065,-0.770640263110418,0.149295972221372,0.71851510039376,2.47518579790764,-1.3176109212204,-3.19823959430414,-0.860823191115468,0.0482153762975674,-0.273310675681849,3.75342890298828,0.295373409055861,0.681238992666819,-0.806360599408368,-0.0451375000970026,-0.228920868922808,-2.44463779552191,0.348836182987257,0.290886642052882,-0.997988406586666,-0.211502729346435,-0.0931930696297874,1.33983610439871,-0.232962627797146,-0.4974158276526
34.07,-0.701108573371047,0.118476756690219,0.59905399435443,2.48132936669489,-1.38893471834013,-3.31608053079095,-0.854264550549886,0.0185248265631597,-0.239730701140237,3.81808514944726,0.28984664363583,0.686171456901506,-0.792369274657812,-0.083146663903249,-0.191883894586788,-2.57309183975951,0.359017525726036,0.26393212083871,-0.972648071114856,-0.20780920751762,-0.0876402245397366,1.26408039828222,-0.213326802344406,-0.496315052028989
34.075,-0.670199231259298,0.193773426911391,0.538488899885012,2.47304314826462,-1.41516987486547,-3.41569117330064,-0.839918272023638,0.0013343543349722,-0.223506349519785,3.8710901692062,0.297333281656861,0.689149795833959,-0.793201168068349,-0.113227581149799,-0.158384119377565,-2.66209587277883,0.365231951492752,0.220778943766106,-0.947911979028372,-0.201946924005575,-0.0780750538746713,1.17031234998815,-0.188871315838065,-0.50183838692128
34.08,-0.668722738579027,0.307429800159318,0.514513419397548,2.40472617011089,-1.40415905252297,-3.48002305949645,-0.827068784169646,-0.00043431579455622,-0.216057323377062,3.89041396134084,0.303897347625156,0.690642237663269,-0.805291378773906,-0.131776353878597,-0.127460354167013,-2.72388043386592,0.375699608073021,0.173863555676335,-0.926049077592878,-0.201655652281277,-0.0613410411759352,1.07257366420412,-0.16086962853042,-0.497772040746223
34.085,-0.653737791111304,0.359004088669534,0.506333192842775,2.30146846425244,-1.38253946950005,-3.49678340582582,-0.821137744551854,-0.0115085025687728,-0.211999689793093,3.88980070421266,0.297823816728083,0.694091104619222,-0.817582877174686,-0.139960170083516,-0.110003315924307,-2.73347659627778,0.380422125954969,0.141442589941619,-0.917421904209149,-0.201518672729277,-0.0488249672983709,0.978658525542983,-0.116046274397397,-0.481281592250463
34.09,-0.624883143704704,0.359390471481319,0.483661941632948,2.20952790374868,-1.32480749029306,-3.45520572662577,-0.828685230931421,-0.0340717615341795,-0.204766784057537,3.85245044005427,0.290216996250684,0.708586995984362,-0.838038281360181,-0.143819066096403,-0.0897115628311472,-2.71063092318614,0.38674174830908,0.107083220516558,-0.908186468411289,-0.201117969409316,-0.0166127918543581,0.875859714619608,-0.0518047265612908,-0.460551769508769
34.095,-0.59533535562964,0.354605505530573,0.478629021993232,2.2053589978561,-1.26102909184025,-3.37855652788364,-0.83292257806839,-0.0593178114819191,-0.199763436163397,3.80012259495802,0.287134355668993,0.717025779611199,-0.855328000083549,-0.140573517444622,-0.0800099514739859,-2.6636758813152,0.395826720536339,0.0836889553528989,-0.907945113711625,-0.207643287852613,0.00977332357183304,0.805462057048361,0.00910406172357468,-0.443892477209474
34.1,-0.558696761693584,0.357215085456956,0.466600136194584,2.25879852226322,-1.16613337508909,-3.22649022027002,-0.846152304499281,-0.0787702362681209,-0.194195687277382,3.75714011950657,0.278917485159447,0.718928951904169,-0.873962029057702,-0.13397193478749,-0.0681469476855749,-2.59426569879576,0.400431865857395,0.0540751605039232,-0.9114483859776,-0.214605708270604,0.0428160152742001,0.754580256982793,0.0623311866782301,-0.42857506194558
34.105,-0.532215478467139,0.374627926578328,0.459790584475155,2.29835718995797,-1.06443852934331,-3.07573222400373,-0.864628968847491,-0.090012235817077,-0.189649489946367,3.72086431384861,0.272263615732603,0.722496935729082,-0.891862423844072,-0.123596251782057,-0.0664624944430545,-2.52441478998892,0.40363944194448,0.0567980056678761,-0.916701401412313,-0.220435962145854,0.0691247970410565,0.717221989482451,0.0934514351297602,-0.415543125693164
34.11,-0.51620738996078,0.392386237372519,0.471743587982452,2.37267548539699,-0.969419089489616,-2.92335147023638,-0.883051284768294,-0.0838515238887701,-0.17568482151542,3.72555203437805,0.26337402127006,0.725649330399252,-0.906578641557877,-0.119584008058615,-0.0619524513381589,-2.45910441458041,0.40961600270705,0.0545282636923965,-0.928120306602901,-0.234044837033826,0.0859041194259936,0.704442954495583,0.103042908012867,-0.412813831155995
34.115,-0.515081202860015,0.413243376102883,0.498593880340731,2.4070729032099,-0.853090964330239,-2.76333299000046,-0.890611089226288,-0.061329731583488,-0.158948457784425,3.72115074646251,0.253971305642985,0.736178970969416,-0.918126945065445,-0.116247817254683,-0.0565900884618847,-2.39964300608129,0.418983270986527,0.0671533684206242,-0.934072705997568,-0.241840942198905,0.0964563522403289,0.692811306934737,0.098010809690455,-0.410036548053787
34.12,-0.511337742730846,0.421065171192717,0.529166960566114,2.40768015622151,-0.791813367367037,-2.66913300567753,-0.888854100459544,-0.0319009781775561,-0.145338811201605,3.69603230322432,0.24782735810521,0.753093230955923,-0.923193916450398,-0.109547301583472,-0.0571583837573261,-2.35603568399387,0.426761580895403,0.0689125173366653,-0.948249148458438,-0.249709003813979,0.109135544594985,0.690738812882754,0.064361890253668,-0.406331322690322
34.125,-0.517809643014573,0.401074713684613,0.564860948715931,2.38313466106014,-0.72518392198952,-2.55542950580186,-0.886511681340094,-0.0264839150355506,-0.143491274151712,3.63326112614559,0.245156573097193,0.769279775583034,-0.922578602741175,-0.10392354137974,-0.0610010721864284,-2.30332174484647,0.432870614736288,0.0865004907762854,-0.956615269390608,-0.247701157334329,0.116574584743118,0.694472169618145,0.0322259882036592,-0.398291799619544
34.13,-0.483240873701253,0.348819408242007,0.584667738624237,2.34534660881247,-0.666649716073629,-2.4392024928482,-0.889832847182399,-0.0207655995169981,-0.134464012482777,3.5231280708409,0.246537124152901,0.772025687024058,-0.918971435234817,-0.0997075800923722,-0.0628962022296547,-2.27598299651395,0.434050858020782,0.0912900132464837,-0.970055063778359,-0.247041432144298,0.112632881547124,0.711979214311661,-0.0417198569813335,-0.384730380898263
34.135,-0.457036224257784,0.32564981918708,0.606989184162714,2.32753207378126,-0.618384482736042,-2.35280899512238,-0.897514852988129,-0.0192164622756479,-0.11442166628888,3.38582909865844,0.223782279250366,0.763497054109874,-0.910666623147619,-0.0983269188069179,-0.0648434620125769,-2.22611515121864,0.428638407929444,0.0826476652009058,-0.97516592317542,-0.248140213315616,0.108591119587576,0.729579628575071,-0.0936031469238895,-0.372537792794216
34.14,-0.440476858149145,0.314366224852496,0.64252012248508,2.29699382156426,-0.568550581864667,-2.25987451695803,-0.896396538842668,-0.0222735183824109,-0.0992272666684877,3.27013357252762,0.196984498847803,0.747257456079959,-0.903055631685587,-0.098337421960219,-0.0610269528910046,-2.18192634110483,0.429240522793916,0.0866752296531112,-0.979388550650595,-0.246202050278992,0.101316651459069,0.755881378947729,-0.158051156571453,-0.361426776027178
34.145,-0.461386464460965,0.33115296314114,0.675941247412566,2.2412161253121,-0.538835774706159,-2.19217740267244,-0.896429684171575,-0.0231215227820914,-0.089519580776495,3.13517455959957,0.163557803392225,0.722325555053526,-0.900937627538009,-0.0929200419775951,-0.0428404696919328,-2.12285040171017,0.413142163434061,0.0737265742779589,-0.984689330417478,-0.238142182670111,0.0893873487139671,0.776394496954498,-0.222593445706544,-0.353203934186854
34.15,-0.504250800776294,0.362553234970967,0.743613640545488,2.15388319168283,-0.531554285304378,-2.12748276647924,-0.889399153161614,-0.0152967336508215,-0.0940424097867427,3.02201381583637,0.136920469311684,0.703610957050654,-0.889989970626933,-0.0811217900851311,-0.0420065107354846,-2.05123255344223,0.405127203901557,0.0563036494086058,-0.99042218799159,-0.233956722720355,0.0685105070102054,0.809979328546643,-0.293115523092028,-0.345645814997372
34.155,-0.553571544416439,0.361814343885818,0.818831968212186,2.06131140207679,-0.564991325070889,-2.04932730322391,-0.880722639506218,-0.0173023752529382,-0.103733094692452,2.91155535068149,0.120053160189601,0.696774865627483,-0.878053437176192,-0.0545164504158924,-0.0387202372456518,-1.91970430802143,0.391307461677325,0.0299571661210047,-0.994122903139552,-0.228359970087131,0.0594060364925328,0.82656309683077,-0.333342590797525,-0.338216462936071
34.16,-0.569765001280817,0.328285808581909,0.857304429355239,1.99992894069611,-0.625618729747372,-1.96876043975402,-0.881136995392617,-0.029718074122829,-0.114562583947012,2.76678332199153,0.0944900962625517,0.686056139716796,-0.870107181614582,-0.0298430842875166,-0.0384717551276196,-1.78029743344877,0.380741926954267,-0.00796169406084666,-0.988614242345325,-0.218203547076754,0.0487468871511789,0.845632089392489,-0.366322582461978,-0.323921046697374
34.165,-0.544694988982789,0.285660459382048,0.847791240435424,1.96786634996875,-0.716616557338238,-1.87541968991518,-0.881846526429318,-0.0399463078261613,-0.10477223523647,2.63491259088937,0.070948387083768,0.676439444543966,-0.86399992806902,-0.0135780614118223,-0.0373907231085258,-1.68146646137878,0.371554454207823,-0.0296859999746745,-0.985517196492035,-0.207489061488631,0.0470970825034221,0.848183474834244,-0.358686999256936,-0.315250833997927
34.17,-0.496833313007501,0.243593302576064,0.828237290314091,1.96362182918131,-0.783557736819156,-1.8045363697592,-0.890573698588346,-0.0660956326320293,-0.0859512118844084,2.4976620718777,0.0257453424968052,0.662057255541375,-0.868954641904793,0.00158239686480393,-0.0314947224285031,-1.56861763378388,0.361689545721008,-0.0758521794059358,-0.977582566865253,-0.206355375181562,0.0413100725580314,0.848188663833934,-0.345975650500028,-0.302354841495164
34.175,-0.448394582881943,0.208952931106293,0.792399808053775,1.96894402803355,-0.824193239939569,-1.74273468883354,-0.89955553529039,-0.0868808082098322,-0.0660322829756881,2.41788584714783,-0.0101654570812377,0.650392989013115,-0.891246515736771,0.0131430681550295,-0.0277974825509593,-1.51114024414861,0.349994943822392,-0.116672621328545,-0.964729544928955,-0.204125486657059,0.043238254840521,0.843869956691012,-0.322111363492518,-0.291593544605537
34.18,-0.418028007406368,0.189279250664543,0.763285679010309,1.95300275500466,-0.834728956222534,-1.69894063484407,-0.906032546165349,-0.110651154909336,-0.0541672053924417,2.37826834148464,-0.043279885759422,0.641720590891967,-0.912062122109011,0.0191248304328854,-0.0195219942908875,-1.45967177640197,0.340452865133921,-0.181131404055114,-0.954752474299446,-0.2041361451687,0.0394565935661449,0.838045283480194,-0.299292912889785,-0.274599767213623
34.185,-0.41208492241712,0.182065671627171,0.764448330020728,1.9382034050696,-0.827398777008057,-1.67034236283213,-0.91927379071611,-0.132066269901031,-0.0385963968669905,2.36940374006521,-0.084159646722846,0.632881780235861,-0.94010917924827,0.0231208052536266,-0.00496370956548319,-1.39815541686828,0.334643987040123,-0.222471737571235,-0.946341309823315,-0.203207936301701,0.0454548285615047,0.825111697417928,-0.26635791082781,-0.248587483608365
34.19,-0.419365230954932,0.163125035669207,0.795968444624904,1.90791404447795,-0.828274106482652,-1.65153000851997,-0.921905959701296,-0.143489616012519,-0.0409385030090117,2.36992502777314,-0.110218757988006,0.627092377436357,-0.966213903005559,0.0227826092645633,0.000938987866384539,-1.34693113864528,0.322843088233412,-0.274352994532112,-0.932188088458256,-0.200941999737793,0.0477715944331688,0.793750793893209,-0.212066111287577,-0.226965569823288
34.195,-0.421845375405534,0.140586881610238,0.821793942937266,1.88180053753993,-0.835037744307839,-1.63107195784505,-0.92928500171935,-0.1451983694871,-0.0451921768531654,2.37243493288415,-0.144250126026162,0.614604539415539,-0.99426933198456,0.0264288776971228,0.00197195549018312,-1.27600721131494,0.312303832580185,-0.322711993784545,-0.927792008914569,-0.199838162114715,0.0513496824604744,0.767487049260835,-0.175339353162293,-0.206784355878785
34.2,-0.424627016599942,0.113975877650327,0.855664826505749,1.86608012017007,-0.865801779173269,-1.6197585513075,-0.936988204067129,-0.151801682987307,-0.0454997289191999,2.36987321167521,-0.182029245037026,0.60036011375104,-1.01124818580875,0.0344417731115591,0.00214054325973799,-1.21939426001244,0.301821355213042,-0.358999945120237,-0.923057617995813,-0.205285055728747,0.0552125005053091,0.737321551697811,-0.132305518217328,-0.190447219066067
34.205,-0.419511221780172,0.100637100231212,0.869520906959401,1.85322728845748,-0.895166132764315,-1.61071694967043,-0.946362310746802,-0.147475701936426,-0.0361757481962262,2.37620453730104,-0.220599464977394,0.582167330895313,-1.01592221483589,0.0469675163167017,0.00529069853404872,-1.14064488836124,0.283279366335629,-0.413541477330855,-0.920157394348527,-0.215073862973399,0.0593527670324225,0.723097080477329,-0.108984157247587,-0.189443699702681
34.21,-0.407378993850634,0.109053892988118,0.874318420518622,1.82745839756423,-0.918462147367225,-1.62889226989504,-0.953489132389454,-0.147010468866009,-0.018509232786662,2.37270380280515,-0.261853730855142,0.565257735637621,-1.00560521590149,0.0541834696749744,-6.17365788842978e-05,-1.08692785820147,0.262344842151212,-0.461510327632883,-0.924697211732345,-0.217102445142137,0.0623690552396354,0.696309557621964,-0.0768181050055101,-0.18131437483482
34.215,-0.396340325250135,0.130966955015785,0.865045788050035,1.77269142172328,-0.928799390792847,-1.66478419303518,-0.961659102551148,-0.138953826119423,-0.00605269342308984,2.38311267673058,-0.30281275236876,0.547814906176946,-0.991019348103199,0.0536426779347957,-0.00708490970887544,-1.0268001795662,0.228710637888263,-0.509426101676024,-0.93034641054244,-0.222232825862107,0.0649793092144043,0.676580681582898,-0.0607320278868909,-0.176153506710774
34.22,-0.408994591262877,0.152253613924341,0.872561030147188,1.70327045794192,-0.937216331827138,-1.70681292227584,-0.968035346881221,-0.13314096993718,-0.00410599992022695,2.39238340455052,-0.335311328187531,0.537478422583822,-0.974304659295281,0.0437323409072455,-0.0248900476464214,-0.958234030093416,0.200547016813648,-0.56642889831406,-0.942068952539131,-0.225223853540787,0.0701796765667191,0.64246120814512,-0.0406089071734122,-0.169954342773011
34.225,-0.419603797829294,0.157929601152259,0.873125809646513,1.63775667630249,-0.959617369716065,-1.75191043029197,-0.966929335232005,-0.127960580528026,-0.00584631461540265,2.38595954693399,-0.352156350209379,0.524718660778384,-0.962707156801181,0.0295701196404085,-0.0387505301392926,-0.92198039397659,0.167409787844288,-0.597512291279469,-0.940097173936109,-0.229545165462087,0.0795760603699982,0.623228436169754,-0.0276716726913304,-0.160214097950714
34.23,-0.420145879310776,0.159854482601278,0.871490905544895,1.55276657961553,-0.977101915289342,-1.80104348289007,-0.969159175455728,-0.114908258128864,-0.00283044378059011,2.37132330847433,-0.379399643293496,0.50723677025648,-0.955936539848736,0.00739428628133989,-0.0686360702137336,-0.914783523064095,0.153891141821023,-0.63568147300742,-0.948863630086588,-0.236607016023304,0.0802295554463958,0.594390131158517,-0.0274721378164095,-0.14818568305597
34.235,-0.417079185922151,0.169390337498886,0.87666887569033,1.49746712230253,-0.985377403536267,-1.82621062792559,-0.972596123856343,-0.10035000504924,0.00461481004293966,2.34826189203284,-0.399816004074633,0.496250281861395,-0.965886115052992,-0.00454371459162531,-0.088030100103362,-0.938272246356632,0.154337576675595,-0.642639165480017,-0.953420125071989,-0.240769749966527,0.0816785092963699,0.567138354242957,-0.0288980941261616,-0.129702103776617
34.24,-0.424252537946686,0.195091191612695,0.89430817698403,1.45057273828403,-0.998582792313961,-1.8446119484676,-0.971999740882967,-0.095753367324746,0.0179406250045544,2.31741739607861,-0.428772159694731,0.494181947989333,-0.97645931876331,-0.0186406588863853,-0.109450628513606,-0.963675093480176,0.164929322589881,-0.637298601960246,-0.951327200897496,-0.241001182310385,0.0867441440100116,0.527265703925164,-0.0249108260811851,-0.108843255089508
34.245,-0.449205707543851,0.210982710382554,0.926361304968082,1.42685027269231,-1.00980391501247,-1.8604582372228,-0.962866015156234,-0.102121108869651,0.0105391015072114,2.28006316948939,-0.446414572423647,0.483831473703605,-0.990873479109338,-0.0322066216323006,-0.128381734928426,-1.02413398847496,0.182795280406408,-0.6016523334776,-0.954227206873566,-0.24564478652671,0.0945553193098515,0.504334016324921,-0.0238982112492726,-0.0988628239505295
34.25,-0.456496498455613,0.217380930197413,0.947399162075762,1.40426577795204,-1.05032250736915,-1.83895756387859,-0.965338669672389,-0.105332121759178,0.00833284212275784,2.25198059107366,-0.458306865340652,0.475945270637577,-0.995330544520292,-0.0307552080394961,-0.139028248372381,-1.04071152210236,0.199557527721598,-0.560212836709133,-0.956007737807945,-0.244241040160909,0.0884075155231983,0.46559152670728,-0.0177289467056303,-0.0757880842753452
34.255,-0.445235829128405,0.246404713198663,0.9364919519,1.36137231863602,-1.10484670142468,-1.80906093413915,-0.963252354698222,-0.107295043512561,0.0235261781424471,2.20856655545702,-0.47586542377838,0.462343677828866,-0.98701227364659,-0.0313594052919484,-0.151913484357926,-1.00987487501394,0.210778403156655,-0.524913915055188,-0.960722844088267,-0.241956156406692,0.085746015829159,0.439419231071538,-0.017734097267863,-0.0616092802850844
34.26,-0.405277713385771,0.27938085303853,0.906489251061376,1.29860477952665,-1.14125403166146,-1.78117784291923,-0.965359945617053,-0.0989033484620911,0.0463959673238326,2.15600543681431,-0.506497662248891,0.45216308650421,-0.975514647758574,-0.0208774711108785,-0.162401568150439,-0.941340219673867,0.204045165649761,-0.492135681851128,-0.963062098134417,-0.244503485729948,0.0830325248278466,0.417761464511542,-0.0048276620121911,-0.0566654510918756
34.265,-0.373706709327571,0.303320069072197,0.882849424055041,1.2300390009882,-1.15267316278596,-1.74367257518347,-0.969810315736376,-0.0876770191546924,0.0655906246471903,2.09381507183247,-0.536936618445622,0.443770780843522,-0.961629998765078,-0.0106267170822987,-0.174108390429806,-0.87521315866669,0.187382579174025,-0.475863420868177,-0.956865271108719,-0.24296485949894,0.0822559343744979,0.397137147515097,0.00546167625203061,-0.0563333005938974
34.27,-0.344778708245976,0.3108492861292,0.861548000304393,1.13443297943523,-1.13674473476676,-1.69787842831066,-0.972814136550937,-0.0773121953404052,0.0778924688911269,2.01876732712593,-0.554123149460749,0.43970768372947,-0.947921643508636,-0.00197188799370152,-0.185280277211366,-0.778573216620701,0.151166156290111,-0.48094972984706,-0.959376162040107,-0.244947281057554,0.0842760597666497,0.386868423526904,0.0133384547049766,-0.0502920908016175
34.275,-0.334696116674426,0.314408540102904,0.856542770845972,1.082124936707,-1.11305824148284,-1.64930780022791,-0.969564361842226,-0.0736129144008174,0.0867023012665415,1.93634483291907,-0.571885758343179,0.433361947499525,-0.941820096102681,0.00286194009237377,-0.194436503152335,-0.714094270100682,0.120258759158022,-0.479747002792462,-0.961385262365124,-0.246490348983001,0.0796084997326193,0.382514350322495,0.0196512301919619,-0.0441935174167156
34.28,-0.327425275529449,0.33031265217993,0.850026666284026,1.03578464321491,-1.08376684672724,-1.573655194344,-0.971615004289146,-0.0740226945789543,0.0960470625999232,1.81106838591597,-0.592704769627941,0.427757292802808,-0.930153479976538,0.00705336294420569,-0.200023626274811,-0.610497610165989,0.0814913612572094,-0.485942051658521,-0.95771895675696,-0.24593464086453,0.0791093495118518,0.377371772267055,0.0322350694046911,-0.0413260835254262
34.285,-0.301123673043856,0.366464771761203,0.834015398654984,0.997492734343762,-1.05385978576133,-1.46841310992458,-0.970039196119369,-0.0722171747319664,0.106997446038209,1.6965367977491,-0.613802282365651,0.426957442211173,-0.91519798535889,0.0141306285709487,-0.202822305779143,-0.550396113945931,0.0451791514378493,-0.473969642388646,-0.949993122835043,-0.251033887604373,0.082057538402302,0.378951362408067,0.0460531758294728,-0.0416839892475108
34.29,-0.269727884222362,0.378702775124477,0.805629771001225,0.954893020273936,-1.00923075415421,-1.38142663346722,-0.979224058721843,-0.0730868492555859,0.113214968233234,1.55688944539092,-0.645459470187678,0.427940236548897,-0.911951182996371,0.0103500494786118,-0.215358764957234,-0.473236159090199,-0.00139853553613098,-0.456348094978663,-0.951489484547438,-0.247247527912542,0.0793813252178957,0.37482725455184,0.0660471540649634,-0.0382586204544444
34.295,-0.238730742336796,0.389761612916938,0.777160226258989,0.904662918458578,-0.932571110668081,-1.27261543706399,-0.986322956264149,-0.0710594232844149,0.120739284242353,1.42374019209092,-0.672507787874113,0.427705258549703,-0.914816671075492,7.13122475882201e-05,-0.235185862756499,-0.416275631476864,-0.0492108658990493,-0.438219416068715,-0.948952512276813,-0.24839619777135,0.079553339611568,0.370465636253357,0.0825972447200207,-0.0330366994240091
34.3,-0.223731981756845,0.402724524813057,0.756246351186904,0.849186791002034,-0.840651972947311,-1.15730618392081,-0.989262722577012,-0.076791149139669,0.123051812253213,1.28091498392635,-0.704772320951863,0.426104948491019,-0.915205024430173,-0.00746352057489069,-0.248245377042563,-0.383794278278806,-0.0929727367432797,-0.434621466392425,-0.952474521864666,-0.25424500043976,0.0808779351250735,0.363698343687642,0.0910279047334801,-0.0181870588452477
34.305,-0.22179187153718,0.411829662029525,0.754170085284788,0.800360069979747,-0.754976456723072,-1.05593223452264,-0.991941245809183,-0.0778531355439271,0.123205342916462,1.15602306079424,-0.73298328723639,0.421079226601921,-0.912975428928801,-0.0113174181531594,-0.255609330881319,-0.361449301242828,-0.14686067089031,-0.442700445652008,-0.95051106852172,-0.260080484703573,0.0795289493507602,0.359231711260759,0.0822442659279062,-0.0049501177910829
34.31,-0.238452284996352,0.423976113743676,0.75109131813987,0.735891424697028,-0.642260370284414,-0.917595150140577,-0.983945319598463,-0.0775342264273578,0.115698207136784,0.987317162954089,-0.759538465892129,0.425547322605243,-0.913263666603175,-0.0139248206447688,-0.262189747340947,-0.368861261125478,-0.176919088301612,-0.445395702296863,-0.959200075135564,-0.262184523363707,0.0780953537493206,0.334816176576767,0.0788731308135221,0.0112671749028689
34.315,-0.254325984921465,0.419322351939419,0.754042700151376,0.681099734798712,-0.558286770828486,-0.809732664104637,-0.97877240888296,-0.084595855508395,0.0991821445073627,0.855865369365079,-0.781333995026347,0.423796985298036,-0.917036682928598,-0.0108044428518705,-0.265774336978391,-0.401853677304273,-0.222718515319256,-0.455548335117923,-0.961605770333999,-0.265723307677418,0.0830306452797824,0.313250594915276,0.0714152525619214,0.0259686641366405
34.32,-0.273269676835944,0.400234226909808,0.745178144598461,0.594134546900955,-0.465559681420099,-0.678945389716353,-0.972422583844705,-0.0867729812200542,0.0925593427919504,0.730808468095024,-0.795744654930654,0.424312829971313,-0.911172279390667,-0.00148417840641231,-0.260678252735303,-0.417168820150651,-0.252857605909184,-0.465459857065405,-0.969569107923043,-0.261873163558465,0.0900262115560287,0.29028923902993,0.0557862879085824,0.0310364755564871
34.325,-0.254741942114678,0.388345002470336,0.707026581741666,0.526296630755782,-0.387947509626143,-0.577773283670349,-0.972286224817341,-0.0819642706498459,0.0971315971912942,0.568296506412034,-0.813138700361979,0.426035789319316,-0.907357071050592,0.0161463908165862,-0.246145231002534,-0.431396377091727,-0.283704811344785,-0.507004798418147,-0.973635140552958,-0.255557923662897,0.0914349470533073,0.282368323114568,0.0330003858167143,0.0413100614111463
34.33,-0.241869355506247,0.358830181139125,0.671521501692272,0.419981448417257,-0.27699498809097,-0.499191007011538,-0.98316657207152,-0.0866968012651539,0.097175581199076,0.528366835375983,-0.828081954784978,0.415735041465467,-0.913358736179138,0.0360358809535029,-0.232832130449243,-0.451211372692473,-0.305958336789022,-0.533989873647628,-0.962130213243391,-0.250154035259535,0.0815639204005466,0.270136985224869,-0.00746504387839426,0.0414748124357207
34.335,-0.223588319181229,0.331038358241514,0.633391195625516,0.282182345727423,-0.139081760246023,-0.432146770566453,-0.986874950175349,-0.0792232544697082,0.0956399381348282,0.41869166212345,-0.842300542115984,0.409708483544003,-0.916600993896208,0.053041351826852,-0.222291623515574,-0.484541927848559,-0.321070855755093,-0.55790066064055,-0.949768764260571,-0.245852132109592,0.0779365937146619,0.262085197314476,-0.0367512480734194,0.0475824191430289
34.34,-0.223864292854063,0.294755324277325,0.612185151618398,0.14534089861302,-0.00682681533651809,-0.40991095380024,-0.998590369682485,-0.0813884310603055,0.083482002487339,0.148405346369303,-0.857032286955085,0.402063255747619,-0.912009893252527,0.0698852702164329,-0.212378857698376,-0.503973724003222,-0.338867958097432,-0.586715850996715,-0.940955167878388,-0.238158088655231,0.0876367796735499,0.257104093834521,-0.0380226310046455,0.0518082424222608
34.345,-0.24708279115984,0.234904648174357,0.603568962302191,-0.028103991120859,0.166343807881749,-0.41839328981188,-1.00115687780933,-0.0878449583481582,0.0723265900767188,0.0195988158616803,-0.868435772846992,0.395046577548707,-0.907799832316844,0.0771655243557973,-0.201400616373948,-0.50530282743618,-0.358026711256901,-0.615417023936138,-0.941356628148996,-0.22623441843334,0.103896206356518,0.261473538645444,-0.00872585893337337,0.0512728551502012
34.35,-0.263094984848389,0.190839555738043,0.585618027304257,-0.157026080527744,0.305400650998738,-0.43891236410554,-0.998584924157551,-0.0880130783777564,0.0592293017820316,-0.106305290320786,-0.869985145223143,0.375322961110236,-0.897334165904341,0.0739997065453368,-0.194863155562214,-0.535991859840272,-0.372187659690519,-0.636851306776183,-0.946675911511086,-0.223462848103502,0.10523910423202,0.240771576960625,0.0283631783526564,0.0633156001567841
34.355,-0.282950952490758,0.152872963202744,0.572047234307926,-0.291821030163674,0.471425057524292,-0.475400782099264,-0.996446645950815,-0.0870793854804837,0.0590648495063859,-0.194621719296249,-0.872237368001794,0.359879754354143,-0.889588175922715,0.0702977094526592,-0.1879063527092,-0.555505437175024,-0.378844358611822,-0.664543331402062,-0.94246910494594,-0.224943822773431,0.0927545573739016,0.23244999813776,-0.0134867653266612,0.064501437149907
34.36,-0.30790741196526,0.112668671709871,0.559582332039108,-0.399374350335602,0.626761403323569,-0.523930888982563,-0.994716351941682,-0.0921933109427339,0.05065589002196,-0.273006787151986,-0.866026440074031,0.341485306202207,-0.895127491092528,0.0778502743055517,-0.182051544398959,-0.596147382886602,-0.384004639479321,-0.679491367508713,-0.935612375753667,-0.223215636966328,0.0862758452387834,0.221654944748787,-0.0847216077757325,0.0714814872495655
34.365,-0.322626106851922,0.073782624931841,0.537752352793601,-0.479674556982501,0.768583918463884,-0.575264241722448,-0.971708732699429,-0.10539914349037,0.0368018646499333,-0.350688116339807,-0.861701290532379,0.324729927622718,-0.904083481350463,0.0910745589128757,-0.179883044715073,-0.625708492188848,-0.38181139535449,-0.688002651107424,-0.938115999350054,-0.221803778379767,0.0780336857409203,0.178517053044625,-0.158483574937801,0.074302462214831
34.37,-0.361375657354463,0.0295313239534566,0.510305962498673,-0.562174297744191,0.971281812453431,-0.645788428952144,-0.955535901869916,-0.130161579763455,0.0143390622196316,-0.397436918746434,-0.852139365427912,0.311663079423204,-0.906481079758703,0.109758349381041,-0.181790736676756,-0.636914368692684,-0.372984674075805,-0.674397142342986,-0.932546951673031,-0.221319669311556,0.0830322807390531,0.154932986835076,-0.173245805804833,0.0737464398902913
34.375,-0.397037757428702,-0.00687892844411357,0.494732938289521,-0.599440903142689,1.13624518385344,-0.683720974644596,-0.934945279970402,-0.144375580589946,-0.00106738741059856,-0.407365708424866,-0.83788027608928,0.289621326378493,-0.900297964846071,0.114132054940318,-0.182486747204492,-0.61922549068258,-0.365379912164391,-0.655495222621324,-0.934616701995454,-0.221160324244964,0.0914785532144512,0.155950062783057,-0.184615660563196,0.0743252698440331
34.38,-0.428850755524097,-0.052061045182632,0.462387537047694,-0.640910790734614,1.36422173110358,-0.701903818028662,-0.922354266650218,-0.153873988810277,-0.018352340837438,-0.384071733384509,-0.818225829189326,0.263760780455784,-0.895617671732146,0.104865256460505,-0.181437354136585,-0.601209792096099,-0.347683395235273,-0.636570314018936,-0.934677452773243,-0.23150803887859,0.0963349968969598,0.173917145543584,-0.195705786784114,0.0692241776512719
34.385,-0.439836570566247,-0.0920011348098606,0.436481103560485,-0.596068993387713,1.52743983301841,-0.734425749445155,-0.907148024285103,-0.166204936872325,-0.0243620383341717,-0.332674151146865,-0.787417699547126,0.24687062550235,-0.897337828274919,0.0989198915765253,-0.175713453839806,-0.600378791019476,-0.31651830089909,-0.60674266041546,-0.933774406305982,-0.23400081435004,0.0924670662786976,0.17746764330823,-0.218371839961365,0.076754242181778
34.39,-0.62100883564402,-0.105751870356851,0.617626787310196,-0.574807449448242,1.71858701761729,-0.827503487485075,-0.878793327620726,-0.177789580895681,-0.0769487190832796,-0.260063655253879,-0.752468982889375,0.222651537263962,-0.898293762760192,0.102234004319147,-0.176291246161708,-0.639574204534653,-0.275815373345263,-0.584336148714343,-0.936221840762142,-0.239805426406568,0.0911704833535449,0.188433140516281,-0.262649592475484,0.0760757510509495
34.395,-1.3788436677846,0.55200689392669,1.7175519006788,-1.06848201696079,1.65794056296691,-0.722382473131915,-0.836325054197833,-0.170149802030149,-0.274475579945138,-0.172406699168113,-0.677678557851477,0.207645902108759,-0.889253720263756,0.120437822681656,-0.187671450439352,-0.678520814872631,-0.23137704115205,-0.547774921306572,-0.93725105731839,-0.248978957463846,0.0844184276580692,0.183932802563235,-0.298312295942808,0.0775253709355082
