Header,foot_Accel_X,foot_Accel_Y,foot_Accel_Z,foot_Gyro_X,foot_Gyro_Y,foot_Gyro_Z,shank_Accel_X,shank_Accel_Y,shank_Accel_Z,shank_Gyro_X,shank_Gyro_Y,shank_Gyro_Z,thigh_Accel_X,thigh_Accel_Y,thigh_Accel_Z,thigh_Gyro_X,thigh_Gyro_Y,thigh_Gyro_Z,trunk_Accel_X,trunk_Accel_Y,trunk_Accel_Z,trunk_Gyro_X,trunk_Gyro_Y,trunk_Gyro_Z
94.64,-0.292342531922117,0.94578490050893,0.583467144777614,-0.845654011098759,-2.70320629616919,0.468626674697558,-0.559112484652785,0.18738708552283,-0.145084190200171,0.420498931684459,-1.23588432847804,-0.462594704627286,-1.15123380787912,-0.171975272072562,0.0426230208419837,0.755298777708938,0.455582941772991,2.64306744974535,-0.953618166702899,0.0383907894232089,0.113413591646592,-0.798569127984779,-0.319544923318049,0.468994322474992
94.645,-0.299339414279883,0.861089786069977,0.572866990093289,-0.948765664441489,-2.7452926182411,0.773753005940778,-0.581697087021631,0.195053859976162,-0.166371112219545,0.0278846418455396,-1.43594256637479,-0.400910096187727,-1.14252238460938,-0.178144283320034,0.060986480377093,0.812015157355999,0.391359990246257,2.58384891338236,-0.946837898872432,0.0485661305378324,0.115896302558939,-0.760306317683473,-0.28383295182598,0.491952037694671
94.65,-0.331463972493018,0.753141200679541,0.577106206837455,-0.953513061281604,-2.82952358116614,1.29727918069018,-0.605152847353317,0.194316071590214,-0.194610009449062,-0.422736046290028,-1.66370203829177,-0.346198606634124,-1.13529987803088,-0.195038036470222,0.101772627081179,0.896558238115245,0.272840617219171,2.49100261456109,-0.941124097437112,0.0599621420001352,0.115153482856781,-0.727781505963432,-0.242673879394892,0.516071309251835
94.655,-0.372669906494739,0.695796742095086,0.60394177465379,-0.859951454623123,-2.9137735275402,1.6832669713354,-0.613080257201166,0.199420381903736,-0.233509831613594,-0.804844959287038,-1.8547161513507,-0.325930303440811,-1.1322014466605,-0.201855053019472,0.122686827236307,1.00718985393137,0.191386194093191,2.43058849019015,-0.932536200294498,0.0574497227477611,0.105057387328126,-0.700044059454415,-0.212948153672504,0.525360517184034
94.66,-0.441945552091501,0.687711645460408,0.643886108412077,-0.74370835919696,-3.01630223648933,2.02722691248327,-0.622207490992249,0.195091577970725,-0.260596376033255,-0.995634010061345,-1.97556144289649,-0.306691491864997,-1.12289720009911,-0.204964235936763,0.164070688839462,1.13590062925042,0.106462886132734,2.38390036406269,-0.938149869604688,0.0524293455745021,0.10725330346611,-0.675417596891952,-0.170957548358616,0.527253378075463
94.665,-0.500512192149138,0.67194103721431,0.671340886115185,-0.669012571185199,-3.11683613216312,2.2724700299232,-0.625128571061252,0.200975549692661,-0.28620002256671,-1.19662029709278,-2.1279723345876,-0.276128207968121,-1.12913099250271,-0.205773506309858,0.200031541925542,1.27556105984079,0.0301867929726701,2.34756638706939,-0.939159850555744,0.0411389807407509,0.107421753875069,-0.652999071094892,-0.134451729108039,0.518902540337599
94.67,-0.544231072864852,0.636749503999846,0.677440870607018,-0.61206907731384,-3.27330764204627,2.53021102899813,-0.623713850774403,0.216437092307248,-0.321786868978529,-1.44967050173232,-2.31628594240628,-0.237778606939635,-1.12580702479704,-0.202609030327547,0.229082093566992,1.3962050186856,-0.0199794304448497,2.3251507200125,-0.939881530643535,0.0342167750987932,0.115130635842163,-0.633339409846422,-0.0997722972419689,0.512988944413942
94.675,-0.540433061412152,0.585145269546164,0.653077317706096,-0.605567471383086,-3.40131594710022,2.70177391696199,-0.621666639050546,0.224192379255613,-0.326919384549582,-1.67070569190967,-2.47514992866508,-0.204920433282872,-1.12296626806232,-0.194757361780224,0.258476364480278,1.53740351787264,-0.0762809647981794,2.2952847554515,-0.943697463654427,0.00815055132711296,0.115806142956839,-0.623278700920448,-0.0693976298141789,0.502020526346514
94.68,-0.545374447189628,0.501988254413904,0.611061476852215,-0.609002905014984,-3.49541760165545,2.8350747776957,-0.617511050544014,0.224666889675216,-0.327608262046835,-1.88677236447589,-2.63393359103874,-0.170299968650779,-1.11263057350712,-0.184554073379505,0.287655021138231,1.70586141485326,-0.109493197066966,2.26236985459578,-0.945268139683645,-0.000994490635245937,0.125396890079648,-0.610555112361908,-0.0491528366170799,0.481314155078048
94.685,-0.548371657618508,0.40825009296855,0.555669478659936,-0.606912869607539,-3.56620097618356,2.93987107734933,-0.625375609511811,0.21367166601244,-0.31936164607741,-2.08190592269675,-2.80199042140444,-0.13337756860312,-1.09850861288446,-0.181962715472219,0.305583248755098,1.83049233038235,-0.124733609926537,2.24828483317538,-0.945917258661011,-0.0139360777066774,0.127760090171767,-0.612561951397576,-0.0347477898638348,0.472002160119102
94.69,-0.540101807885731,0.34739020939368,0.525624202447382,-0.586235963537886,-3.60119358223592,2.97999822534619,-0.649715098097621,0.20733504140408,-0.329284342191164,-2.21589095331948,-2.93528248031457,-0.101513347657159,-1.07735524915615,-0.185885175013311,0.309505383654058,1.96378445408281,-0.133829839391967,2.23644460399758,-0.944480445634189,-0.03185874733749,0.126016650353248,-0.633505529025413,-0.00620707061993043,0.452975029064126
94.695,-0.570871489828145,0.286578814912779,0.507785535205973,-0.565768720120351,-3.6144321299528,3.01004275565604,-0.675080139554958,0.178355023703757,-0.372419508544571,-2.34307998885053,-3.0774257549928,-0.086222873857273,-1.05309285626572,-0.189560483146983,0.294545837029359,2.15088913730282,-0.129954991419128,2.24136233329773,-0.944371488364485,-0.0500298748874116,0.132111086154681,-0.677358305088011,0.0301310941445244,0.423507547470101
94.7,-0.616526340193029,0.269714484115982,0.504576640688068,-0.558135337159653,-3.63573992177623,2.99832748643772,-0.699708784221198,0.156335361131435,-0.397520051796666,-2.51195121297306,-3.21770428056479,-0.0843088453048158,-1.02496202576181,-0.207860625294712,0.278233461666134,2.32986773645762,-0.113345976604868,2.23872387836398,-0.94688965294415,-0.0587017852920881,0.144466850607529,-0.72703379129164,0.0498499318265621,0.407878770023955
94.705,-0.679194945614503,0.268148603422992,0.525139680069706,-0.56814122401698,-3.65461498594257,2.97447056608669,-0.704420181554269,0.134937287699138,-0.422188784258963,-2.64650682381559,-3.34709939203579,-0.0901701067513178,-0.990829065058596,-0.231330189905017,0.244526147864533,2.48927911932436,-0.0837329188558122,2.22441219496435,-0.948629215717717,-0.0699697088996551,0.148823559733176,-0.785315837148708,0.0670954639890672,0.376852681127434
94.71,-0.746341192920043,0.271065327178611,0.554975622437285,-0.596008358475573,-3.70402103813082,2.95045950619415,-0.706731704030106,0.107332076424147,-0.457929798064097,-2.75705641427513,-3.47062401203568,-0.0926880859595543,-0.966626279278188,-0.253016316043303,0.208757449089018,2.60734696161051,-0.0502041898298064,2.21227927226171,-0.949636271617344,-0.0721450851446722,0.152974464189211,-0.832711964265717,0.0821832951191839,0.348505338419667
94.715,-0.802968585761587,0.293026654144243,0.584774709246258,-0.642589485032827,-3.74232957111066,2.94352861068269,-0.717831582444628,0.08004839639999,-0.489601654310702,-2.82928298828707,-3.55121155801201,-0.103743861617365,-0.937324533841636,-0.265342252694195,0.169872160934989,2.68384483591794,-0.0144706497115399,2.19989589479208,-0.942552907007085,-0.0776866124566695,0.149756063078513,-0.906191016834466,0.0822046940023946,0.308362681830141
94.72,-0.865759016601221,0.307456495771184,0.604698453571687,-0.70289934047612,-3.82422906862659,2.91036322407764,-0.744507831066325,0.044751009765228,-0.499029332458956,-2.8593635559082,-3.645904244765,-0.122140242175366,-0.916268719352389,-0.267980191899147,0.136814236742563,2.72463259221685,0.0052088249950684,2.18098360190762,-0.946409283565747,-0.0784177293829744,0.146450087669303,-0.959127408759273,0.0810524076223373,0.274513003690607
94.725,-0.893378303075458,0.333074530828076,0.62461728468174,-0.779802487506916,-3.87979755836839,2.90692757099569,-0.774587013225522,-0.000799152577433251,-0.521664584121139,-2.844739443544,-3.74942918679025,-0.131708088156225,-0.900072987481744,-0.264924461535172,0.0979494227212027,2.71241140807948,0.0247349186795561,2.15718127054744,-0.937989278341398,-0.0869055532842109,0.146256605572428,-1.02164844670852,0.108712367968316,0.254801169783127
94.73,-0.926669081979903,0.3449670244366,0.636384588023605,-0.86734687571464,-3.93673019673746,2.92145729560217,-0.798595427250033,-0.0314732995556866,-0.543711612363818,-2.79328096026277,-3.83187560076966,-0.148788866073262,-0.890946359681665,-0.249053852929154,0.0666060535120746,2.66789301771508,0.0292005737598068,2.12549405494204,-0.927592243848438,-0.0934364985133939,0.153309751247565,-1.08865788887066,0.176433019325901,0.244919291123382
94.735,-0.956955328285308,0.351565078680514,0.627440732515225,-0.97120793202521,-3.99109022859612,2.94283262891494,-0.835800893403785,-0.0445669549590091,-0.54796645812809,-2.69188015716904,-3.92463712234277,-0.161365839256913,-0.899893940722609,-0.221784334725224,0.0435979108359426,2.55673259880292,0.0287962093247432,2.09126552970355,-0.926900382213117,-0.097075707728267,0.153929352128691,-1.16533596884423,0.243876088587478,0.241412347083563
94.74,-0.987083915004804,0.353249041889859,0.637623534160669,-1.01537400684718,-4.01422975108498,2.97463601067533,-0.874266919507287,-0.0645010104792388,-0.568846730337361,-2.54290152588457,-4.01381905859302,-0.184775423284787,-0.907249080531637,-0.191492612080465,0.0203153678681015,2.41003616903855,0.00686806301148844,2.04589581545386,-0.926639536274216,-0.0947807231437726,0.15939132454075,-1.20094134521352,0.248572694867706,0.236080515587794
94.745,-1.03746043991658,0.357463410169199,0.646856515179979,-1.05848036272158,-4.0388946220925,3.03002118725217,-0.899024491062688,-0.068900236751263,-0.591889093195464,-2.42060168909625,-4.07070712137668,-0.209250761575993,-0.915871307158748,-0.158751481348939,0.0144172456582573,2.24850542563647,-0.0314415273455438,1.98878111784925,-0.929164957146412,-0.0962327417749128,0.16036772706102,-1.24069046060379,0.235786953431885,0.230954756510988
94.75,-1.07303475161978,0.374977417719417,0.644523791333055,-1.08737634529567,-4.05955970865693,3.07793945472981,-0.934723272134494,-0.0622364229588603,-0.612230830624826,-2.31272252045002,-4.12917713786657,-0.229995179502214,-0.932241349124541,-0.129762805489017,-0.00463689829043999,2.10279656720475,-0.0701276389384025,1.93722569388829,-0.932518232815289,-0.10406232418105,0.16588023953579,-1.26045965220788,0.217349583291295,0.233865885498813
94.755,-1.11324596082453,0.408698571177489,0.634636991417674,-1.14909495464595,-4.06557025022762,3.15391984213086,-0.969424067544982,-0.0365965954021717,-0.635958530891223,-2.17762700084594,-4.20476678064717,-0.252307478977993,-0.93471605030715,-0.0989270165826191,0.00687510982310668,2.01200378900382,-0.152764434300275,1.84888321711516,-0.934919153045397,-0.108032769700579,0.168192884167005,-1.26401078187897,0.202769092635609,0.239315064406514
94.76,-1.1358226920108,0.450997954679744,0.617864398686066,-1.21722682746217,-4.07306072357075,3.19877486235376,-0.986602190707796,-0.0078687071061608,-0.634375238329845,-2.09526140767804,-4.25343217585062,-0.267330119507285,-0.928576719560844,-0.0818063203205895,0.00976059817206957,1.97083060932534,-0.217834879719961,1.76438362070556,-0.944522909713897,-0.118919907608108,0.170077732293215,-1.25962230777012,0.192747738765763,0.240461304783821
94.765,-1.15767308449291,0.476169407430634,0.616624559377297,-1.2979716469317,-4.06762116346541,3.22761380546079,-1.01084889346226,0.0454921695288512,-0.650100660147606,-2.02647940430489,-4.30645027763628,-0.276045236674963,-0.928822386330538,-0.083049394341228,0.00988114981054592,1.95533072398506,-0.291846916993259,1.65136887065615,-0.949208020096837,-0.119076998281057,0.170490559551239,-1.2450776236103,0.161620198576554,0.243121446118858
94.77,-1.1961867194393,0.486923032509941,0.620460562354842,-1.36631322720896,-4.04885487565413,3.25797741399684,-1.02038377812193,0.0972468483138254,-0.670752965834125,-2.00143217795195,-4.35676138473367,-0.283564366997501,-0.922352698303342,-0.0904205365721639,0.0134302609419478,1.96942241401801,-0.356310236780385,1.54432619730853,-0.94900065370827,-0.117960649844927,0.159884769670254,-1.23340805527695,0.112095830442377,0.243409933130546
94.775,-1.2216449410873,0.501757881968225,0.608644098796467,-1.407637826657,-4.03849066010592,3.29184885189559,-1.02354694917237,0.151061973104229,-0.680134099045739,-2.02103673276835,-4.38730035803009,-0.291901963772774,-0.914982228452168,-0.0977537442317559,0.0119064667210528,2.00015672292679,-0.420141123011136,1.42668063395653,-0.941817935293532,-0.119337248402128,0.1499658250902,-1.22622778686792,0.0956569302010321,0.236612128458233
94.78,-1.2281034139216,0.52307602681,0.580974085657115,-1.42966516278077,-4.01983710272862,3.31213169222589,-1.04018240872983,0.201496004485644,-0.689241228221656,-2.08778484910328,-4.42608714671919,-0.29683405412914,-0.896106670001416,-0.104277127142227,0.000451738816390929,2.04744042585176,-0.484951633235405,1.32813795884619,-0.944001952489478,-0.120351517515827,0.157911128408442,-1.22330239372064,0.120527248482054,0.233131125569344
94.785,-1.22290166388657,0.566687599748903,0.541038243226858,-1.4564717658094,-3.96424566403443,3.33373685260356,-1.06444095329205,0.26664020948242,-0.700867808863896,-2.20358964123924,-4.45494293325665,-0.302277091343663,-0.886202919339298,-0.112905482558446,0.000670077793027177,2.08011649767712,-0.547111404297151,1.2403247475886,-0.936613980783858,-0.122169724536544,0.159586364015897,-1.20960541997162,0.143511398659046,0.235803566052046
94.79,-1.22590710274241,0.616859251449305,0.517959665646887,-1.49975875748721,-3.86443584417637,3.35119607188554,-1.09320256322726,0.319201235679355,-0.71040500811748,-2.36331310162827,-4.48836255443544,-0.309851559147414,-0.880527287953802,-0.119556912953662,-0.0112452764102705,2.13172777836251,-0.620911468588986,1.13218539145543,-0.934401212275349,-0.130506457859304,0.167191037738709,-1.19798733273595,0.176136836163449,0.235117005657085
94.795,-1.22825397045385,0.632686595971592,0.51250727890435,-1.53709446154974,-3.76924941570788,3.37427866145418,-1.11596795806817,0.347911356164319,-0.738398187571526,-2.52293291259752,-4.50629004142167,-0.312848700275364,-0.857267485402547,-0.121479439953315,-0.000465139221706435,2.16251183768882,-0.665898435644128,1.07686843833221,-0.926316388358522,-0.136659291613003,0.176355384047136,-1.19708043243611,0.208444624390568,0.219524502787035
94.8,-1.22346190622218,0.655150579957342,0.485455168298556,-1.54315745800757,-3.66035155322816,3.38330720656204,-1.15587617497955,0.368829397433716,-0.754892243653757,-2.71167868597045,-4.52323228383341,-0.320920825004578,-0.842372749121455,-0.118754051743225,-0.00318163859395903,2.1955947997597,-0.716395808245924,0.99529281752752,-0.931209615957376,-0.134874606351283,0.175691619396621,-1.20543892832131,0.223844079091584,0.211287206893823
94.805,-1.23104959192951,0.693865273836965,0.436566293148588,-1.55956115277594,-3.52940627628858,3.39415035148824,-1.19316346628982,0.368424824084063,-0.755226693123944,-2.94625648275807,-4.52991715731552,-0.325240372028806,-0.841088749065626,-0.106357536600107,0.010704184254931,2.22265732921798,-0.754001640601726,0.946858395050026,-0.93280895961898,-0.134971879063963,0.168953896323079,-1.22087635953993,0.232557774165864,0.203934342122703
94.81,-1.22087490647516,0.754822126507792,0.365427402174517,-1.60960564096771,-3.39492887573192,3.39599630207782,-1.22034433699524,0.367754269115209,-0.758452514955453,-3.15323664048356,-4.53142681650893,-0.329252426345806,-0.852837607132964,-0.0895969115301155,0.028318113826118,2.26411786198757,-0.79684435475194,0.914480844533468,-0.933486905686687,-0.137340176813892,0.168544918471543,-1.23880620390873,0.237429291009903,0.197256821294907
94.815,-1.20313242916148,0.834003375584364,0.28715116472063,-1.7407739985938,-3.14938229963009,3.38518547780528,-1.24491539255234,0.364935725480765,-0.749904751867526,-3.33843790530508,-4.51692429237824,-0.334359467029572,-0.861399756359358,-0.0784795227910114,0.0355735739198984,2.27475476665074,-0.82353878843448,0.87693489081773,-0.935507725206579,-0.135173089264881,0.164234696674445,-1.25233342932906,0.24122397054022,0.19384251769316
94.82,-1.22644666509653,0.891611615488236,0.268472060046908,-1.85776425492575,-2.91994697460058,3.39057635593025,-1.26081845137934,0.374610494796996,-0.751359335602206,-3.54435474739238,-4.4979239870949,-0.335549140543951,-0.86331856417115,-0.0751679494489708,0.0283166441987451,2.24261662856183,-0.852310322389469,0.813359002342234,-0.931172636730341,-0.125019244483428,0.167931071462126,-1.26070049450437,0.247101849442094,0.190371826291084
94.825,-1.31581364419535,0.949597863111304,0.301979632104663,-1.9750164350832,-2.66381436219989,3.42523316666438,-1.26774355945944,0.37226047939524,-0.778425081379344,-3.74510806105407,-4.45786944660637,-0.342630339849138,-0.857147740179672,-0.0667396111660139,0.0268785802145436,2.20177328896272,-0.865832090377808,0.754296466393015,-0.928130707925142,-0.127930276006025,0.171905836722694,-1.26535148569157,0.254564900498284,0.183827834653867
94.83,-1.42753996255699,0.996123011899489,0.350577741608079,-2.07978824642319,-2.43580071171748,3.5117991661183,-1.27088042670217,0.371102530988462,-0.810831941759972,-3.91248271112584,-4.41104081619166,-0.353089541923589,-0.856453778958052,-0.0661561915767614,0.0213844352755348,2.15886994203584,-0.866740698213941,0.703212369732329,-0.931636666850328,-0.120746048725831,0.177508655940174,-1.26411799479735,0.254140337556845,0.173617157977696
94.835,-1.5019008213307,1.03004879398539,0.373969935960498,-2.16451575772822,-2.26054026984834,3.64503685349468,-1.27791981916036,0.343734363768465,-0.852404212344859,-4.14374984092144,-4.34741944021768,-0.375448784098772,-0.844039115740714,-0.0780686688513802,-0.00893507546267629,2.12189099897496,-0.851207860266524,0.617656302863192,-0.930387811467678,-0.110286900515215,0.184148751725657,-1.25783793829544,0.242318061648647,0.157099086333778
94.84,-1.54716883426018,1.04609011629796,0.362930943224711,-2.25998795280061,-2.09165070313708,3.82481672507031,-1.27044615869965,0.325192726489441,-0.868493454049326,-4.29082872290942,-4.29070574110253,-0.388797322235086,-0.823991358869818,-0.0816756384269373,-0.0282084705942266,2.1173689365387,-0.827441666685465,0.555055989711079,-0.920994528855246,-0.102415426056337,0.183349865946058,-1.25295793703537,0.221338796748317,0.148208801955863
94.845,-1.56855226195575,1.06132311294965,0.343194683882692,-2.3466205827619,-1.93413242307798,3.97713529164515,-1.27199692041139,0.314925659128055,-0.870310170033328,-4.39653127704692,-4.23595101369837,-0.402490320688164,-0.812523806769671,-0.0950126020404969,-0.0504485562357699,2.12997288726131,-0.785483994624071,0.486563099169656,-0.917883146359371,-0.0926587763209429,0.180379739840294,-1.24201686150098,0.208356532497388,0.135797750562831
94.85,-1.62139834789238,1.04567269460626,0.364515980570588,-2.41842832029528,-1.74864437667193,4.1500001532641,-1.26123665288717,0.308244525968065,-0.867610395577804,-4.45836750047909,-4.16451471114959,-0.407016197342007,-0.805292127743207,-0.106923694680138,-0.0697343935538165,2.18281451489554,-0.74067742261311,0.430971548767996,-0.914162656061494,-0.0899880725730403,0.17748548951008,-1.22665747306587,0.20360002243242,0.125709213365889
94.855,-1.6732262202808,1.00237539101883,0.394834208514979,-2.43063644987431,-1.63193858935285,4.30014159195561,-1.25056256546711,0.307588367708567,-0.878552699275818,-4.47463440536512,-4.0842830349193,-0.406526868686264,-0.801751115730831,-0.104705531365231,-0.0884531703325935,2.29462610638327,-0.687006899884889,0.384894908691633,-0.918095218005443,-0.0894763627995133,0.172627034247385,-1.21348777218975,0.227083446227216,0.118032097480545
94.86,-1.70161219577839,0.962854246111875,0.415477884196304,-2.44084519389382,-1.55158624643928,4.42575392212575,-1.2433516731506,0.314005656156437,-0.876199976982213,-4.45414522872897,-3.99601433181512,-0.386469757789027,-0.814599263614127,-0.102527303482972,-0.112014785530785,2.47863439223923,-0.613237318056459,0.359099105276524,-0.912627717199738,-0.0905795208494311,0.174421621730327,-1.2013372139312,0.243174302957305,0.114796862546571
94.865,-1.70547355142178,0.893369814323532,0.389867104486601,-2.3925729342244,-1.47352586935245,4.53895476087562,-1.24445823353714,0.32887796305003,-0.878022046391197,-4.42071554839115,-3.90810990136214,-0.35778802952395,-0.82177647097016,-0.0904682681851707,-0.137006877454412,2.63263352045417,-0.539164097608933,0.360638812279941,-0.915874792148013,-0.0915787690669842,0.177519512134614,-1.19563686194666,0.264520138446564,0.123618314455176
94.87,-1.69031970935125,0.834394903153251,0.394647952259565,-2.35082278246214,-1.41045324264933,4.5875312716565,-1.2396592327013,0.347877918111175,-0.875205810324243,-4.37687137334428,-3.82685438947078,-0.317979358341896,-0.828029706354635,-0.062850594765342,-0.16050800638228,2.77602074573109,-0.451133592477144,0.376887170556757,-0.914899899185934,-0.0911809295873123,0.176923813012504,-1.18682548670699,0.285370290575679,0.131915201765694
94.875,-1.67139249364903,0.756240461167846,0.400849217209252,-2.25643493849346,-1.34887600322092,4.60625437016201,-1.23034145300212,0.356762403639596,-0.868373690654792,-4.33530659191034,-3.76836556103108,-0.293657855192355,-0.837671137638442,-0.0356455392597106,-0.186250970110116,2.86163537362125,-0.359259949278922,0.409398361140087,-0.919475829440223,-0.0919643274020394,0.172670696957206,-1.1747789693979,0.300692164506411,0.136948831464391
94.88,-1.65163234380044,0.684958654298542,0.381581239471637,-2.16929136049204,-1.32778939194724,4.57752434442175,-1.2002945210775,0.347558583475392,-0.857490357879259,-4.25114764734264,-3.68205899419613,-0.254993847042061,-0.843110458507385,-0.00697292005583213,-0.203837948917825,2.95586318895067,-0.283298822624355,0.440230320482755,-0.92693548297612,-0.0889538560140797,0.157422674375278,-1.16749220635806,0.295375966323009,0.144809759836067
94.885,-1.59678479549715,0.598432920282152,0.346365440948379,-2.07861926933149,-1.28298108071518,4.51148000022109,-1.16925330508704,0.32692676610471,-0.834352461324312,-4.15687423484812,-3.59772714561445,-0.211966924599188,-0.84966168133496,0.0299715701009546,-0.233435235325558,3.10958407913276,-0.194728936088711,0.479044540538641,-0.920561270524224,-0.0862744105996226,0.156680836624435,-1.15787422657013,0.29561840578113,0.15138335232316
94.89,-1.53388944902098,0.530147801304158,0.315681022873141,-1.97609591786116,-1.23498307054944,4.40061369420938,-1.14764290216364,0.29537473214832,-0.80645588535932,-4.05197016454795,-3.51449185053358,-0.167794980498379,-0.849456488590979,0.0549282329832145,-0.270398644504427,3.2613717563702,-0.102915129436988,0.51448679443301,-0.922582344045395,-0.0908984808395475,0.155315991939577,-1.15883828532931,0.305005050694192,0.153463385499096
94.895,-1.4638523165727,0.468662260025241,0.291229580972619,-1.89204776115866,-1.16765963497671,4.27197120132759,-1.13643338229601,0.27105099968044,-0.775244968028178,-3.92788312670341,-3.45616570615057,-0.13262942268764,-0.843259829481684,0.0789661730468438,-0.299067551322537,3.3390634059906,-0.0275779479739292,0.524724694871103,-0.9224606621993,-0.0997167885077675,0.153920446293114,-1.15031787080888,0.30745363637692,0.161180398215473
94.9,-1.40054144680893,0.401820331381716,0.266841139635797,-1.76357338247611,-1.06337175715963,4.08909875036924,-1.12155501059967,0.237484473626616,-0.745221527710607,-3.77256686434752,-3.3809764173462,-0.103202267747689,-0.840268782068887,0.114826498496155,-0.341696467230954,3.31820021845032,0.0441682818613163,0.522354508484909,-0.919962742934456,-0.12186264830273,0.149470114075992,-1.14055562708003,0.32316282579009,0.165937930345535
94.905,-1.36758173669713,0.375927276192999,0.26920406885721,-1.69300087170544,-0.987066898184295,3.92845475306341,-1.10828508829655,0.208582323198812,-0.71406359039629,-3.58527706667944,-3.31001454527291,-0.081813802786448,-0.833551309353458,0.139935904113108,-0.367728146843298,3.24033071208822,0.0981818465116068,0.510163094403986,-0.920902498726889,-0.133383264531983,0.15206228170206,-1.13097530374702,0.327975272556358,0.167981317408296
94.91,-1.35259486526116,0.376082969532327,0.302322530042649,-1.65737696969798,-0.912866950396233,3.74461402958045,-1.09186232575706,0.195607588458621,-0.691675937810069,-3.39843975064047,-3.25290980309224,-0.0677888112719597,-0.821359004596321,0.164981456595597,-0.385424137447791,3.11571848410568,0.146861168902697,0.462881445482851,-0.919271892016725,-0.14919680631337,0.152057509104525,-1.10493244515324,0.324243271819905,0.16671514055227
94.915,-1.36684187010128,0.379885287958921,0.341545919763006,-1.65795058740478,-0.848366000631419,3.5135534636368,-1.07771044533524,0.183716344766438,-0.677186869170872,-3.19347953319267,-3.19178435934436,-0.0420735941979593,-0.804390088713817,0.194978412336614,-0.403426774233799,2.9656483817184,0.181678928332318,0.389490775632047,-0.923804795166408,-0.155005429930976,0.149036536103333,-1.08600709417658,0.329056411981583,0.15786791279766
94.92,-1.37726926858754,0.373507469909345,0.362916936659546,-1.70277583599091,-0.819694751770976,3.34929388459339,-1.06922573314591,0.180674602237145,-0.674134566500601,-2.96202045859045,-3.10963419395922,-0.00706109688835801,-0.790149477506965,0.202892110083887,-0.413646199039284,2.82933938682763,0.186213477515999,0.305041545126448,-0.926014002818283,-0.165140445491892,0.144975318576165,-1.06509952880268,0.334802034355506,0.143014515617004
94.925,-1.38536102722613,0.355633718617721,0.393386831376345,-1.72196902085418,-0.820604831365609,3.15817832720322,-1.06800825361225,0.17891999017245,-0.678958586579148,-2.79144197044875,-3.03600394526328,0.017855374622079,-0.78256199870024,0.20557511354889,-0.407008296149911,2.67948787377022,0.173056040072724,0.206287902634105,-0.836957449360313,-0.277623015670747,0.118064369623855,-1.05223491211437,0.372824403956264,0.131178216099918
94.93,-1.38391256891559,0.33863019389608,0.400506017371429,-1.75352636182277,-0.833692332684614,2.97991627777851,-1.08057313416872,0.185636465604683,-0.680557782596985,-2.65087313937855,-2.96234191989058,0.031323394914909,-0.774574382357161,0.2068620078187,-0.397791510084223,2.52190713597232,0.144246915857818,0.10778157224428,-1.01517779563845,-0.132018685116413,0.228711123510066,-0.897957526745605,0.685795295621288,0.429684539106311
94.935,-1.39128186288862,0.329851559598847,0.39821988940838,-1.78354955884573,-0.859037638996654,2.8197581312529,-1.08540661756969,0.196472910614296,-0.691226745277969,-2.52775829870404,-2.89413395650977,0.0395098459372037,-0.776813501269279,0.198263650265169,-0.379020856424922,2.44136957691414,0.0914802790844264,0.0223308501121834,-1.05593180973925,-0.106327018021523,0.14773321456972,-0.846562422206457,0.100878355132202,0.373701513144713
94.94,-1.41127464605826,0.341010216681634,0.394772785708964,-1.79398532454025,-0.887091344587374,2.6435931489094,-1.08013556136954,0.216146549536148,-0.697041841578425,-2.4238544345156,-2.82595734213179,0.0571886844294676,-0.781677638393989,0.205862097532904,-0.374231619609396,2.36582221332246,0.0424064451173478,-0.0796115195081655,-0.975651901322455,-0.267316510027176,0.0925397638165,-1.20425529194592,0.450650995144602,0.28548513660708
94.945,-1.42988564685515,0.330743302736146,0.388963462588164,-1.77907199040676,-0.924151928381667,2.51440802078128,-1.0717266313905,0.231401347024754,-0.702323275774914,-2.33559956773729,-2.73686931299684,0.0687997341156006,-0.767598497694316,0.214190136395879,-0.35534897807145,2.27896842515429,-0.026247689504363,-0.163510212323149,-0.962391542262437,-0.282410397233562,0.168861759483795,-1.02525155474885,0.709683040102378,-0.0340103712426222
94.95,-1.46466779235098,0.322872397175853,0.376065256258497,-1.70095516849731,-0.966001263834578,2.39841817986484,-1.04607103412426,0.245880879878818,-0.705523721816325,-2.2812896008769,-2.65691129072388,0.0768478223366341,-0.790789535445278,0.208390862932393,-0.329539429701867,2.13067618299267,-0.0908993423495207,-0.206630016313384,-0.973582003576752,-0.206281199382881,0.167984199280469,-0.819648764433039,0.695716065760929,-0.0710159018029752
94.955,-1.49896796519692,0.340848992761517,0.366703168349088,-1.59713651659956,-1.01895995313058,2.3251205727573,-1.01788280322265,0.236681604729253,-0.714149180492603,-2.26195502281189,-2.56552156399352,0.0876268180323084,-0.831224681255858,0.205868057232603,-0.339221576948444,1.95580136902811,-0.15388796001782,-0.251279171413275,-1.00840345619963,-0.161715885379821,0.171863102860292,-0.911116126761308,0.383289972005677,-0.0274399906504303
94.96,-1.4935977793474,0.381548533233941,0.302390822338579,-1.49348545251722,-1.07557954163472,2.27782717136077,-0.999095776463305,0.2210359220685,-0.727470404167557,-2.26698610261974,-2.43190179564946,0.094394641572424,-0.849482773446186,0.214040088141712,-0.330302666238524,1.87676880273062,-0.227044149541899,-0.315659584538027,-1.00677970209784,-0.144532745278231,0.16512982399228,-0.99108426310218,0.345465175319831,0.0644042273021891
94.965,-1.44964589690092,0.432299972087099,0.218783327101076,-1.39178714293236,-1.11082604495321,2.24424975493443,-0.987310117797932,0.206669529081939,-0.719021895623292,-2.29481480320007,-2.31617375586842,0.106094979848319,-0.889179827936109,0.23018628253468,-0.319636888016751,1.78719657284022,-0.287823277762444,-0.326561494009192,-0.995464595124469,-0.164101453288411,0.148531840187611,-0.919370683147227,0.400432414711972,0.169199396714711
94.97,-1.38333428140582,0.456252109737653,0.136793531333041,-1.32510816882446,-1.09582265218313,2.22922542789017,-0.991077867546533,0.195229981175973,-0.698235149872306,-2.33021812058909,-2.19731452246569,0.13082792763157,-0.925559850544518,0.258651381178009,-0.320162829617934,1.70827417091083,-0.332371996979957,-0.313885287230252,-0.996422206741316,-0.174331106626457,0.145822909927178,-0.885694022493348,0.45527303964049,0.22128748157615
94.975,-1.29639815782053,0.481340668236936,0.0691891495281151,-1.26419149564341,-1.02249058116263,2.22271417105871,-0.993805662947511,0.178745741263801,-0.683290056485477,-2.34307272766724,-2.10348998397396,0.156736388244963,-0.951729314231559,0.263537089454871,-0.327409982321539,1.68527067975804,-0.377901246175935,-0.275351690331429,-0.984760313859612,-0.181206901131247,0.121543185615662,-0.915156485667845,0.490320086479187,0.245051957786007
94.98,-1.25637740729715,0.455618811042701,0.0326502367983628,-1.18316520611467,-0.916166900215419,2.24961121148451,-1.0053521200688,0.166825824374446,-0.665177583079325,-2.31842616249178,-2.02268144911468,0.184765778361865,-0.964853122083203,0.276374211614632,-0.287074406845937,1.51910731125766,-0.410725143174454,-0.261305584354527,-1.0119415386333,-0.167985553669584,0.160878845841293,-1.00324019408463,0.483627609735358,0.254889867735208
94.985,-1.26206503203616,0.428193155985447,0.0118598217378864,-1.04906708815518,-0.785475562425682,2.29194501404713,-0.988129411076501,0.145178486402416,-0.642362676870708,-2.23978230820565,-1.94077065150309,0.194675203509604,-0.970484443467217,0.28234124078553,-0.264220014496383,1.40521427952457,-0.43491670153406,-0.275817756995875,-1.02150496913091,-0.170135537933102,0.183766485852292,-1.16310133848062,0.470428809358975,0.2425605287047
94.99,-1.27876483019917,0.42907539053645,0.00398069598208973,-0.945199389785047,-0.681437320171944,2.33751738760302,-0.952847780972034,0.122134247498739,-0.623441768123217,-2.15891695649145,-1.84320607593641,0.214391909437766,-0.964073789982208,0.281744467090224,-0.24425513005534,1.26941365425007,-0.458671278959363,-0.313469267773811,-1.03006019349493,-0.173236204821725,0.196799596870873,-1.25640875845593,0.442279140431872,0.224078750504341
94.995,-1.27788481325776,0.449805334974182,0.00164503076396981,-0.877957937991289,-0.572962254447127,2.37061225355663,-0.925781730878818,0.104559507868076,-0.622393184042685,-2.08240553998804,-1.73055040282028,0.237403162349233,-0.963384301969305,0.287388857064077,-0.228008131694216,1.21717459911964,-0.467608349906559,-0.364506683595504,-1.02989000987177,-0.170865431053578,0.200360004645022,-1.25427388073167,0.454205653133656,0.202417445943421
95,-1.27928933062491,0.442292356662327,-0.0074225755755726,-0.861450845432669,-0.488206404719586,2.36877760656516,-0.9070290831575,0.108009222827742,-0.612751081440247,-1.99819231235939,-1.59911096420221,0.267318338622482,-0.984612726557233,0.322509311153155,-0.237100440622027,1.2282928481128,-0.466891355950976,-0.40744086602057,-1.04081690485899,-0.174794789122929,0.21528613271899,-1.26166473565339,0.411975914678584,0.18953465695006
95.005,-1.2539645072514,0.414574176421617,-0.0192676104607917,-0.889724385803805,-0.387305053704103,2.35695326065319,-0.898897706126754,0.140413674481167,-0.590439022070719,-1.92020318208263,-1.45670866188732,0.293456539342044,-0.97851370412641,0.344843830399869,-0.245111823001435,1.2160334821707,-0.45077195914351,-0.469316189236718,-1.04220560995926,-0.181930306251273,0.220464484207242,-1.30260318529013,0.36418042616164,0.166188010753359
95.01,-1.24405239087626,0.384237387704425,-0.00996475550852208,-0.923920740210482,-0.275417539434565,2.34572014706459,-0.903036804656173,0.169466847283959,-0.571250469509519,-1.87699758312604,-1.31098635031865,0.311545752874065,-0.973368559652499,0.373223129730292,-0.206897030290634,1.17353500663113,-0.434016746825812,-0.442508031649616,-1.03606008525931,-0.182764408547858,0.223981950943978,-1.3263054978169,0.317474062791964,0.153775199696714
95.015,-1.24355790818606,0.336978425350057,0.0142724362375272,-0.934004348238354,-0.174539907446139,2.3238581870628,-0.899453640245832,0.184350705012833,-0.570118304708871,-1.87233799851888,-1.21855852293469,0.320362692339272,-0.982206879168573,0.392729559319775,-0.195056744115769,1.13076940378576,-0.41598960957309,-0.419667164500928,-1.03663394172826,-0.170831633889131,0.222824659567446,-1.33868503570557,0.257179254580986,0.160508705704452
95.02,-1.24679140916541,0.283412597550426,0.0268682176142631,-0.914123107298904,-0.0756275682988847,2.3127189585116,-0.895088934308597,0.170037891515927,-0.566800739051172,-1.90189749664035,-1.08121790698587,0.318451171293939,-0.985202490261934,0.411418602091336,-0.176858843628955,1.09294844388787,-0.392542479746704,-0.374666041443597,-1.03244159260682,-0.163525304026986,0.208219530451267,-1.33868503570557,0.24023064492562,0.176699800450743
95.025,-1.2529748173551,0.257121110583937,0.0483429065394319,-0.870448184710425,-0.00446107469993425,2.29238771611485,-0.890584813977546,0.176151108044838,-0.556629247001906,-1.9056728985406,-0.951592668524763,0.31016789575203,-0.981708160853571,0.415556572100108,-0.14834546611292,1.10095491968497,-0.381376369588268,-0.304236302043818,-1.02347452848437,-0.176313486488203,0.203846691414887,-1.31972721768025,0.249655974891925,0.193432319154855
95.03,-1.27719582929402,0.247387225686931,0.0832595131673863,-0.799036020091882,0.0742204535541904,2.26875191391378,-0.886007312734576,0.202070885193715,-0.539636311526039,-1.89248088466042,-0.810760066574691,0.297868100881618,-0.977665214614294,0.406015905995695,-0.101192316368178,1.11051665834821,-0.383320349800267,-0.252758909896179,-1.01389370123931,-0.19623594164769,0.2028597155298,-1.26352074300639,0.263655448687697,0.203471457680535
95.035,-1.30911523256259,0.248780736424455,0.111145590012149,-0.721912336935809,0.118301659089561,2.24052446593043,-0.882739376073893,0.21603814322325,-0.54373772844646,-1.88111480966666,-0.672591368589448,0.27973202657305,-0.980586274427389,0.393518274107284,-0.0500751838854494,1.1490526977316,-0.401356670868252,-0.224468899028036,-1.00693391992541,-0.215736207868042,0.207666344669428,-1.20583669530095,0.26524468981635,0.21135333343263
95.04,-1.3114328556413,0.271335038825233,0.103452858682968,-0.706898889586707,0.137173527301976,2.21116600284445,-0.889531485300377,0.225254373603534,-0.542088416269282,-1.89236904271905,-0.506966917602859,0.254735647403049,-0.999353950927843,0.390217581629484,0.00783283580540841,1.25044618997189,-0.457887703665401,-0.2346390070148,-0.997018250035569,-0.237733904426389,0.202632988279104,-1.15601549196114,0.257083972145487,0.215517215089534
95.045,-1.28456076133164,0.317341804678,0.0856606791531399,-0.705995102647219,0.164258648042893,2.15222949581088,-0.896592073482123,0.237745742386515,-0.529643460653151,-1.92610750825463,-0.327960307683134,0.228782481176157,-1.02541932890404,0.405982091029774,0.0668844666837235,1.33251191137567,-0.510664959788725,-0.243389897667878,-0.990247729276985,-0.253987078847726,0.195146953479984,-1.07131745095874,0.246390446082129,0.221317322938891
95.05,-1.24310662741964,0.348665348383246,0.0693884754384484,-0.725573425745141,0.197718585544216,2.08373632698798,-0.910320189773719,0.243524878452215,-0.507667171835189,-1.99356572828279,-0.147202181486042,0.223739777999081,-1.05308784227202,0.416223423536752,0.105435517026997,1.39592748540602,-0.568886372547365,-0.248265916617985,-0.988285291059685,-0.270018332360867,0.191056867142323,-0.994554057436098,0.240888738854913,0.217805488856343
95.055,-1.14171662172134,0.344058322008319,0.0257444905752938,-0.748886613110704,0.245772293871914,2.03715514457733,-0.913168458088601,0.241424651925408,-0.481839044525224,-2.05267606288075,-0.0292677687477089,0.21906815469265,-1.08969943417791,0.423867993430385,0.116356773747278,1.46548409375997,-0.636823087608712,-0.243981041425584,-0.981341285817323,-0.27164110488374,0.191473759453787,-0.954317791287401,0.236398914077937,0.203682928795566
95.06,-1.04547374934116,0.312068389104602,-0.0278443771298183,-0.746927795061783,0.367201575335142,1.97232184201923,-0.920799239206527,0.232223092947329,-0.456767773697691,-2.12237997504303,0.131354424874909,0.218677696861973,-1.10302999379892,0.399325239958829,0.148220441220726,1.49752119029604,-0.709732163266336,-0.248931331774891,-0.991489609565838,-0.280341986324683,0.18577656123152,-0.915263452562771,0.243031335819474,0.197506513250442
95.065,-0.976943004784239,0.317818273382918,-0.039898504334984,-0.705936043893089,0.488744379415347,1.92053921214603,-0.910103364614488,0.22524888929058,-0.423223686587462,-2.14088147618428,0.256110869715169,0.213599390432605,-1.10869172645395,0.375850235087156,0.14726897383098,1.59116024417802,-0.757040994626669,-0.245853527122535,-0.990633190088404,-0.284561337246087,0.173833399433312,-0.888060410766,0.26088505473504,0.181250351622991
95.07,-0.935919061604035,0.324703939061584,-0.0117846253930265,-0.647853428459032,0.620106774229622,1.87162274488922,-0.892487598832218,0.222009030132377,-0.401749720107951,-2.14244515985272,0.367185794177453,0.209510689834311,-1.10375188868541,0.351488825444292,0.117570578010762,1.64752677516328,-0.785102673189768,-0.252678159781759,-0.988685729960071,-0.280624131858535,0.169638487129624,-0.849754541336414,0.279831382183402,0.168941836377783
95.075,-0.920322469870252,0.363326368239292,0.0422071103078537,-0.60853461932427,0.761147572564417,1.78910010983296,-0.873088836044724,0.214965767374612,-0.407210065627824,-2.11850738318212,0.451102313512132,0.213898948810287,-1.08262162910917,0.332281145474678,0.0706805230560098,1.68744223476531,-0.784434315082187,-0.258905448883364,-0.989132979301763,-0.271394089880362,0.170999659347825,-0.829934461993204,0.30115451551726,0.155573066760266
95.08,-0.924081490034606,0.398313868826027,0.108168960074567,-0.58558014013393,0.844395116743729,1.739925136113,-0.845593207739655,0.221309704427717,-0.415866289873977,-2.05057360361683,0.527632138913404,0.230927081744486,-1.03870998172881,0.312263997515308,0.0188264320233907,1.73844320162983,-0.75877151288985,-0.268365591237807,-0.985908256063394,-0.262337295635593,0.175979985161866,-0.819296125246521,0.303232098755969,0.147602330290171
95.085,-0.89107518408355,0.443890814768609,0.201911294231932,-0.567002164447311,0.886977206581906,1.70863997936249,-0.844159255520192,0.233248595648161,-0.398992206451897,-1.97644266586514,0.60130796019521,0.255148572230573,-0.96622223407698,0.282294345688008,-0.0516741955233951,1.81280248901555,-0.704330139739574,-0.276095264925065,-0.987989241123023,-0.250239315671314,0.18822408096953,-0.818468953891098,0.291060837348187,0.159059384683265
95.09,-0.951301517647716,0.363329212828408,0.213643631768657,-0.535978755287401,0.910246498396032,1.66128876596003,-0.835975601529339,0.236183833442679,-0.388111628269217,-1.93384615889029,0.648394049285974,0.285950983409695,-0.901931035168532,0.243157032717558,-0.098468838907949,1.89723430430923,-0.661313053614053,-0.270590370789892,-0.985564247074147,-0.23087176155364,0.190150499726895,-0.813920766274434,0.262589847592924,0.168327241389187
95.095,-1.02356557938727,0.317002082853503,0.184653047414826,-0.484140405721843,0.914299744256949,1.60331426366038,-0.780098515053186,0.231723773213267,-0.40637030512011,-1.89127921911725,0.708090432311051,0.296202362071646,-0.839130992465984,0.17258927567053,-0.144467612918956,2.01490353884685,-0.599344584327268,-0.2279497423274,-0.98985970944276,-0.210742924106307,0.190683637795324,-0.830624773898514,0.20355415893419,0.185946212682225
95.1,-0.965462115569901,0.299908501121627,0.0997457579500626,-0.355587162309794,0.946905196963849,1.51045225447018,-0.731294596665406,0.226180819347376,-0.433304665892224,-1.80277868952536,0.809806053960901,0.328349831281311,-0.803370785415529,0.104837781971287,-0.17195262157884,2.09932951930624,-0.562169539919839,-0.173999847648456,-0.986821113817366,-0.20601244387595,0.196227777601147,-0.841924582619447,0.15110500909742,0.213300761515146
95.105,-0.982961264998485,0.349684389468411,0.0591273376553946,-0.245890023692224,1.03168351323742,1.43953698362805,-0.730417278038359,0.212195412306014,-0.429142689854945,-1.66817412158635,0.875599977244326,0.364132891917024,-0.785938932117229,0.0166170986691661,-0.17177197198747,2.18803198913886,-0.523949292005571,-0.140956438011591,-0.989480801025245,-0.197582653279884,0.198310894475342,-0.861670837702472,0.078779869598061,0.248727220527868
95.11,-1.09994404964453,0.196464378699975,-0.0854125008445244,-0.232145639749536,1.08947977454503,1.35632075064483,-0.690861062838794,0.190408544141564,-0.364597268906966,-1.48395915853031,0.983900794317786,0.374223351478577,-0.790984138314593,-0.0675427963436835,-0.152990856711816,2.23943598976745,-0.485051405571162,-0.105660974491235,-0.991508568172204,-0.186455477136558,0.202176884114187,-0.880585355860662,0.0333347173648769,0.278479914359226
95.115,-0.369086257262593,-0.305071195347263,-0.564839130314004,0.0467055185554689,1.35187268535543,1.1800335869065,-0.873352178905072,0.072785935561472,-0.0962672954789488,-1.32098289575907,1.03026869342644,0.404769836576327,-0.781860235736238,-0.115732912938863,-0.127142642769128,2.2883461584857,-0.476851214980506,-0.0911211041146551,-0.991064890057288,-0.177890725910235,0.202906954125784,-0.916227630580067,-0.0233233565097041,0.328559097167045
95.12,0.121987603351018,-0.468431219183707,-0.99330328131073,0.244098106274528,2.12342264069414,1.10142556328799,-1.05186008359182,-0.1649907926252,0.149777554293812,-1.17697506452858,1.03728766558882,0.370878267866751,-0.861581624154809,-0.1246124913232,-0.093536855157314,2.31205811841361,-0.490840378265924,-0.156353411908709,-1.00877602995567,-0.16808793211304,0.211248440143923,-0.953015082942156,-0.0676848261224418,0.360019048717309
95.125,0.360504089700816,-0.547583844638421,-0.9789126022565,0.155759119249667,3.60555650064954,0.927214890607622,-1.28960373427244,-0.495508012793514,0.419824837120641,-1.19079468728141,1.06089429841886,0.290313311487842,-0.959503847431615,-0.0781391825333852,-0.0921346034533215,2.22018925474293,-0.517918592217744,-0.265617466826543,-1.04484945752363,-0.158807227627194,0.226085003299966,-0.994544191428202,-0.119028372661475,0.377841307675911
95.13,-0.0548532212125864,-0.174552160649767,-0.0111518975624468,0.0966218387707777,5.18446516541599,0.679678975867426,-1.49153650884206,-0.747699818050973,0.546745662680623,-1.41180072368709,1.0943682003776,0.237033331768597,-1.14695186062842,0.0548293363551656,-0.1276527728741,1.96662074816362,-0.57845243243194,-0.405447611609856,-1.1009089740607,-0.137562451040516,0.2447376764492,-1.03971532824627,-0.15436777434024,0.386487623050273
95.135,-1.03680881734058,0.0341241186888121,1.60508979561727,0.142850148696913,5.7118017556111,0.562799634929249,-1.60949512784639,-0.723099242143716,0.1612001887279,-1.66467420815635,1.22646465893206,0.23098258972536,-1.36694560669336,0.229633608200418,-0.191078059855641,1.7331970287637,-0.650817541829486,-0.493010548737955,-1.15732408844425,-0.141174084064144,0.257622127592613,-1.08465996667685,-0.197421020002648,0.384479741276468
95.14,-1.46402400195579,0.03590438379719,2.65395633379295,0.157140751650772,4.83135482018813,0.352549518713053,-1.59758419681593,-0.461072651162353,0.156248252499135,-1.32915234917191,1.38247428873988,0.232751526076666,-1.53554663233132,0.360242713513367,-0.295504169315068,1.70680699457269,-0.716077571192635,-0.432048941125677,-1.19411710483617,-0.134301147398187,0.213284414263999,-1.14212151915848,-0.312252311015707,0.379734486341476
95.145,-1.16797699261901,0.332456620636161,3.03136239237135,0.0905657041277763,3.92299724827682,0.154350334714813,-1.54738426821621,-0.114608492981247,0.445083832092023,-1.00885752625758,1.33372549562485,0.276845895521691,-1.64987193458574,0.436870159303667,-0.419696935925654,1.83486709381922,-0.750822745449255,-0.301280428337428,-1.19597942791272,-0.116143845161328,0.132930857158404,-1.225244306751,-0.49634674563639,0.375658828043554
95.15,-1.07267042916294,0.151722058327682,3.54654031330186,-0.349506765503006,2.7711718460177,0.0688057329032042,-1.44313139098599,0.00530575351387217,0.370466355739495,-0.829464514244395,1.11059089638393,0.364793393848822,-1.71156251405701,0.484923135879537,-0.584680431047706,1.87921840610345,-0.704168369474137,-0.140374474124563,-1.19180739350501,-0.0781296059326741,0.0700399314997737,-1.31657604880315,-0.661928485894489,0.365643008527114
95.155,-2.29225562392903,-0.15912318386866,4.54560148916381,-0.910457001164529,1.47951513119962,0.0460032430197965,-1.28180354574203,-0.0184813700569278,0.134202308677796,-0.719391630621079,0.99798974478738,0.477267822106903,-1.72118983244925,0.516632485476043,-0.742339604181795,1.78868858163113,-0.588340222939577,0.0264780520366285,-1.18035987544354,-0.0473470396356193,0.0496881436913941,-1.36273871368133,-0.719281828783618,0.354958419369613
95.16,-1.82667950362685,-1.67413338292953,2.45460520307268,0.00702937747897664,-0.40733849727758,0.218592643493722,-1.2360846546702,-0.199637291498163,0.0882127348969983,-0.611021512595283,1.04134036125142,0.546864292713939,-1.69315941707348,0.53406021230559,-0.892329573623788,1.65875080293975,-0.506057596353953,0.153031308195777,-1.16206396131528,-0.0117559642142638,0.0395590170385152,-1.33587538000508,-0.623664018143776,0.344305336475372
95.165,-0.548513179505575,-0.827126201532414,0.372063532914043,2.06069063908601,-0.829888054332232,0.0576928876057017,-1.28974868175631,-0.613110139897914,-0.282005155359078,-0.494516146336264,1.17388931857889,0.423847660649684,-1.6541419165125,0.530531121230633,-1.03988946092559,1.5816475657976,-0.394347089011708,0.402599733823122,-1.15042814974302,0.0117550267697051,0.0279142097656847,-1.26497611999502,-0.52715599298466,0.352319649457955
95.17,-1.78174174113657,1.06371473881679,0.144663157318437,2.28435425702582,-0.178452424539073,-0.168614447784064,-1.27061326010472,-0.856983808758663,-0.873724757885316,-0.214166623856216,1.44351162015195,0.226937165100731,-1.61982125013905,0.499595552657895,-1.11081299729388,1.57541153263128,-0.335683711879855,0.592451059770464,-1.14506718316128,0.0407164719220328,0.011190145757317,-1.19869181755034,-0.449276292712479,0.391769350573769
95.175,-2.34275454483981,1.86299440534511,-0.159534575879877,1.21038425587532,-0.128634618652664,0.0270775044664013,-1.2385348355613,-0.91204392974047,-1.01007124289208,0.271293604852371,1.74504263371493,0.205216416251134,-1.50244604907721,0.425838430346494,-1.08439407736697,1.5376917374011,-0.257369298528642,0.79188329746526,-1.13340195839349,0.0711703055806195,-0.0402797090192401,-1.15465790760628,-0.3657744259587,0.474182430491723
95.18,-1.18858156368619,1.25486414435174,0.0750406028677976,0.432384823309707,0.217832355448027,0.527506780436453,-1.20642557502945,-0.675529948585751,-0.804233530305246,0.560504505466533,1.84907819698067,0.390026733015779,-1.35424573940337,0.365606712703523,-0.959345067804432,1.36360746056153,-0.212987581088668,0.850316029198122,-1.12615819496627,0.0982762831145396,-0.101269754069112,-1.16599102646537,-0.303437011280082,0.542343062530645
95.185,-0.762900628806744,-0.0208887492339012,0.908156648581058,0.0664195795573394,0.45246255066916,0.681259931524473,-1.22919321018858,-0.322446498888815,-0.332086703113707,0.630371215638296,1.68629273318756,0.553522779928886,-1.15123723767833,0.270485369047491,-0.72747812717969,1.00652200209974,-0.190235033631325,0.787800607135679,-1.12095216418796,0.132541686974082,-0.144585584258614,-1.1737562417984,-0.231777060328138,0.623859971214041
95.19,-0.5112951360298,-0.670600109982971,1.30423717432299,0.288714719407721,0.295544419335621,0.49107092831668,-1.0916759004954,-0.0315732066627869,0.0587647048361112,0.461147238780697,1.42353108515991,0.692703201697998,-0.959285291279487,0.135987020503918,-0.51520550973175,0.654201487977739,-0.199100877024485,0.617236400458606,-1.1165708938569,0.158523996487253,-0.163891368848122,-1.16699581937377,-0.134974317207149,0.692536960368514
95.195,-0.298935094911699,-0.262514578656184,1.15319571783724,0.87909512890113,0.0755176718577675,0.367326987715395,-0.922284208321017,-0.0816931229808396,0.125835024015004,0.390108439476606,1.33144307688034,0.69139183490708,-0.794027678894839,-0.0406988808031411,-0.359979314561355,0.428248255568933,-0.212176638287035,0.383694192887656,-1.11507520619392,0.178771235280378,-0.158731642167225,-1.12788994655953,-0.0143751053439337,0.746521336446302
95.2,-0.377323905783263,0.530741629147206,0.762685763192073,1.09611565737297,0.0567509248603711,0.45904639612012,-0.819835027957021,-0.084100560506627,0.0157240920680128,0.26535097398167,1.31791821768417,0.598456044763456,-0.59136735260787,-0.261876288319405,-0.226507577354133,0.174164772142143,-0.208049067287107,0.0395000202693172,-1.11886094190259,0.188241704739058,-0.140055041438629,-1.09103394857377,0.100940421617021,0.81657422149696
95.205,-0.555492349834562,0.83822629042651,0.554390548908048,0.847402360523781,0.158357554772371,0.55597422588023,-0.765983674088255,0.0989457365423101,-0.140596623934389,0.231156124283003,1.27684661699955,0.528327452305491,-0.429284688515739,-0.405113231231115,-0.133891998179263,-0.139403828507412,-0.197042733534083,-0.232186973211154,-1.11171010299383,0.197002512933077,-0.109264014647042,-1.05593849143832,0.172393177422865,0.86649148735417
95.21,-0.694953381989168,0.567679368673995,0.619310324732259,0.537088081972685,0.235258971042917,0.568242243606307,-0.789561409536957,0.31292779209493,-0.239740307987149,0.219060299834788,1.20678813102933,0.540926521824483,-0.267949805871616,-0.551491384809477,-0.0337095204316083,-0.775952511542539,-0.212682302159148,-0.517193717703931,-1.10453378085844,0.198508750604074,-0.0655480645889927,-1.03894904170204,0.18397003167917,0.913655529258661
95.215,-0.686051521685599,0.27769147405721,0.76724945432577,0.472490724095959,0.178996477306579,0.499470128525395,-0.876155894721383,0.432952679874106,-0.275137030012447,0.0501417453204792,1.09395567385033,0.566346532336544,-0.185874046012822,-0.655790198456341,0.0823730842851751,-1.52856850410641,-0.293133453997195,-0.680557882371742,-1.10978549710595,0.201713153124035,-0.0309264248705925,-1.04404639422598,0.181029053915072,0.929159843628508
95.22,-0.586474487168656,0.317168892438545,0.768913951514758,0.501252560938487,0.0865767986275651,0.433818086229757,-1.0020978706733,0.41286662675822,-0.271206163271468,-0.300710118631693,0.935492410475823,0.558963987536332,-0.208614971202134,-0.698745371119967,0.225514194431808,-2.32782186638396,-0.470114060997123,-0.712361735910387,-1.11340420314823,0.206657988708967,0.0141557565072064,-1.0652954767249,0.170411547186477,0.916949294002469
95.225,-0.555227922347332,0.494587118066486,0.727366675194795,0.478266509991657,0.063729619333083,0.385450549136376,-1.10688172761794,0.281146147204863,-0.230739307466431,-0.57075076014628,0.770498282190785,0.537984472457205,-0.328206432639138,-0.635293039824168,0.344253051465772,-2.56051698882263,-0.65103875955404,-0.662723289944318,-1.12163665433577,0.198026997259238,0.0393252482776857,-1.08573343164512,0.141622518724599,0.887586202232032
95.23,-0.533184665813356,0.591745140610876,0.690289648359134,0.342762896094131,0.0448725334881109,0.296541233765344,-1.15245341735529,0.155784583172751,-0.165165730876334,-0.683749238547577,0.69846927504026,0.562300382418356,-0.544995619280535,-0.479453787523976,0.443321593778658,-2.35904566134086,-0.842543979039045,-0.598613866340492,-1.12424906613898,0.183917393431706,0.0555868377073251,-1.10768035230741,0.0867988023065331,0.843069897470769
95.235,-0.545019498088701,0.539307939499333,0.747002372760869,0.16762794578461,0.0514613370898507,0.18593630011319,-1.1365196289369,0.0241839949655613,-0.0360517760978308,-0.398264072185808,0.682411683867822,0.574947591568276,-0.959012357683065,-0.164234071292695,0.564162842548936,-1.5434965889428,-1.0834594143675,-0.50699911009175,-1.11956306526795,0.159106246867002,0.0556091903525942,-1.13229989545221,0.000727699293097836,0.799428326302934
95.24,-0.523549557498158,0.441539889218765,0.779090367102819,0.0889875231530401,0.0374221778510496,0.118799139149564,-1.12418755542492,0.0131326767251885,-0.068472497248169,-0.204759671822903,0.698901059720823,0.582309761152151,-1.25373076851429,0.0370631560067019,0.652653909744541,-0.737128751614631,-1.16811659910823,-0.403862928967701,-1.11398202950503,0.137485174592291,0.0540539882261997,-1.13961045369372,-0.069437538073715,0.755769953559128
95.245,-0.537090804298914,0.377809065211745,0.789366949886793,0.0575844538409301,0.0220559077845811,0.0756730011662475,-1.08820555076393,0.0375315180429351,-0.0786174266100457,-0.0244220375393982,0.714029948785963,0.564397376217265,-1.52195985773805,0.145058651040044,0.701322312174379,-0.00634234209741946,-1.17153204001391,-0.345421805549933,-1.09441540296026,0.104932824680586,0.0417507103520353,-1.15042780837364,-0.141703900854,0.698870352732862
95.25,-0.54829462160438,0.373094619792508,0.769984890631369,0.030126658693417,0.0167921241372824,0.0411843541039799,-1.06762136932673,0.0845836369072092,-0.11784882226579,0.069920962344499,0.677289154238906,0.531233321498315,-1.64203279193263,0.158244671809672,0.70829379781671,0.366934381553937,-1.08497392794483,-0.335944696228051,-1.06783254071961,0.0723035019016398,0.0226642193218775,-1.16292302418118,-0.188505639610461,0.63227643573727
95.255,-0.551737238087915,0.376173313967056,0.755295028902322,-0.0110784146953937,0.0193352582354857,0.0172410218706429,-1.05057304302399,0.109954535005475,-0.133403202316535,0.0679252684227698,0.624297086547948,0.508082632079948,-1.63825781431845,0.107092381365324,0.652733542531061,0.623562615113843,-0.935981042651121,-0.337523800777396,-1.0371471359629,0.0567077829019974,0.00682034558576909,-1.16754123063206,-0.217289797046118,0.553348625432243
95.26,-0.54806354559292,0.360428229343194,0.763163864137792,-0.0536805852239762,0.019628496086162,-0.00419712055096077,-1.03638723357081,0.100775131477235,-0.127391500056271,0.0155976752790507,0.564675736664547,0.497715157219812,-1.50202486784279,0.075521658133333,0.556648814187344,0.77027467045474,-0.712663342749129,-0.339641613057388,-1.01133089270596,0.0365001601977219,-0.014422681224245,-1.15871571960573,-0.224539505367526,0.448157570335163
95.265,-0.534256816984069,0.351516952993166,0.768452219571097,-0.0857340545109483,0.011421107086222,-0.0176069893638567,-1.03151892030096,0.0706525328329451,-0.0982935403191612,-0.0421031135988392,0.502233386713857,0.493436026916049,-1.29127287195092,0.086935675451433,0.432008995428135,0.858800343962825,-0.526683413811274,-0.309925988348981,-0.982492828569332,0.0469116359004753,-0.0268075836374308,-1.12293212877945,-0.212570399719853,0.342419880124176
95.27,-0.529606343035277,0.328230704073145,0.779903707916421,-0.12247258445099,0.0152641204548386,-0.0331901074749736,-1.03263975867001,0.0256547639573473,-0.0722979847779872,-0.0680880623729583,0.463137786585429,0.486900523374528,-1.12922310946652,0.105590988833863,0.357227185695832,0.911844025367823,-0.27629425541795,-0.305663614512394,-0.967514343352821,0.0559737653057149,-0.0297019604758888,-1.08087473403052,-0.183516211098534,0.278642353257088
95.275,-0.542300035115123,0.300589824501986,0.779838667383546,-0.144162146893781,0.0187751612604394,-0.042968980965125,-1.02506856545373,-0.0169596459161043,-0.0668510687281049,-0.0681022057628819,0.444334539496415,0.473864721994469,-0.975213200517529,0.127544706462931,0.233473738197226,0.952547714164007,-0.153142858497472,-0.284768976108722,-0.965476513503597,0.117439440857709,-0.0382540244618768,-1.03677756681199,-0.0784592330728107,0.3012095362116
95.28,-0.545328680349963,0.278698306298595,0.790136136867705,-0.172230128159483,0.0232472178684462,-0.0357022806841413,-1.00622375578364,-0.0336742135652495,-0.0526320892174285,-0.0785631450648263,0.420258840950905,0.44695930854456,-0.832408548137589,0.130858525124786,0.151739027633482,0.976268204569881,0.00508847297003873,-0.334196942908292,-0.969577622034953,0.133808984375503,-0.0322160836252795,-0.996533996477871,0.0366745502195935,0.371890289859724
95.285,-0.547050101994968,0.257877711206167,0.796059554627841,-0.154316381555675,0.0199778422580365,-0.0409964235268103,-0.980263071980674,-0.0329992863163387,-0.0351584689182543,-0.112854416475707,0.40911471646606,0.420358388851146,-0.778556270889588,0.0996180276612986,0.105185668852683,0.993208482154485,0.0803310864260339,-0.381615698337555,-0.976344641600174,0.151910109402715,-0.0102616432325299,-0.936451484459179,0.108637714648217,0.474570004282468
95.29,-0.534897166080033,0.24935254937596,0.809023990078669,-0.14381580115359,0.0183951095947928,-0.0361304507669492,-0.957468229123264,-0.0193883645497388,-0.0174753980183697,-0.190882750270163,0.406096042249795,0.387134913910432,-0.747217563805048,0.0609254299397072,0.0649074358597018,1.01280199299156,0.100762174259527,-0.395444663261749,-0.988379990795451,0.151390816573008,-0.00555217401518456,-0.893500582185677,0.180016710384816,0.574335265652605
95.295,-0.525417001639646,0.241457705409386,0.807142701500134,-0.133840307357354,0.0308835588442417,-0.00963142625519311,-0.954295776042192,0.0121405335336012,-0.000384034484907071,-0.280388529689945,0.404861414849709,0.363373918489032,-0.789846943028316,0.0291144458414775,0.0170214296832142,1.02582846363948,0.0689932791995971,-0.431319787096018,-0.983588546707623,0.12919784299906,0.00507976714772604,-0.859319131059113,0.227384176061215,0.564780262536874
95.3,-0.525593556573468,0.254219084769991,0.802155660594419,-0.123349250560419,0.0371106882620476,0.00286546891368259,-0.956075462761169,0.0384318278414272,0.0046399852430035,-0.410676952130154,0.409504581810264,0.336643869090812,-0.849014811580073,0.0544930430772315,-0.0104779306785484,1.02628757951613,0.0159720399847196,-0.393628086199017,-0.986367119190028,0.116804050747051,0.0427594210008169,-0.827014503034353,0.181916507689201,0.514233687717799
95.305,-0.523932304496211,0.267012683914381,0.797001537704835,-0.102323903485444,0.0397856611198612,0.0146511880449932,-0.963694929702589,0.0653361887230028,0.00434098421490436,-0.573195973108948,0.415554733435423,0.310691337020144,-0.910915283065769,0.0700209199140768,-0.0304571596896485,1.07602661054504,-0.0845831077940936,-0.384154874634235,-0.999458911230623,0.130024904969674,0.0546285893823527,-0.790062938822364,0.0596258526438809,0.440153441093323
95.31,-0.532390461107365,0.278602499392147,0.799625391126069,-0.0923020176285331,0.0395356362814764,0.0196933842632875,-0.981436043819038,0.0803489562964543,-0.00433936267348818,-0.710773380868397,0.417089688360162,0.291474733978483,-0.971558646754131,0.0853000408457013,-0.0634598887275732,1.10947208094094,-0.154575560279401,-0.331523938090921,-1.01410343835199,0.143498896996859,0.0533495978206463,-0.785974418336138,0.00500278889874375,0.411113926910706
95.315,-0.529467263906979,0.283878640372623,0.801158828675311,-0.0850550747118498,0.0434132799918353,0.0209675905187726,-0.993400406524378,0.088762107043172,-0.0126517906846788,-0.837836454235508,0.430244678077297,0.272056146337467,-1.0062185935732,0.118224836559736,-0.117281441866193,1.19521973530539,-0.241553708717032,-0.302316961286503,-1.02225914298292,0.154283823688679,0.0503708499652534,-0.768716224216964,-0.0408840844903574,0.379404906523002
95.32,-0.526242082298261,0.290972564739432,0.795924021636765,-0.0891452186982669,0.0408024761232637,0.0144753663752444,-1.00522920469365,0.0873751869462202,-0.0258441934844471,-0.970537056863815,0.440935690853063,0.248437443950834,-0.989626488827997,0.129812778181943,-0.14439273169502,1.20468245635939,-0.305574132536835,-0.291335275481598,-1.03241068486308,0.155189851398822,0.0519106868456217,-0.751774935155181,-0.0700644071375791,0.373625993728638
95.325,-0.535345638490798,0.291885350125224,0.780901405115417,-0.0973731025955378,0.0252151036053559,0.0127029671339897,-1.00609265965562,0.076085504612306,-0.0421342824402167,-1.0461818154425,0.433727215234901,0.235012587033701,-1.00288068994366,0.136777766369519,-0.175964154377846,1.10311222795193,-0.357329813276724,-0.295405763524369,-1.0312162047024,0.158180516609961,0.0493780978392958,-0.732792044928564,-0.115451419625694,0.377854678258226
95.33,-0.537504929197643,0.296595995003227,0.783261125214484,-0.09953721811759,0.0175542644164659,-0.00866443669193991,-0.996609768909098,0.0515525774091216,-0.0604603340429473,-1.07684201285641,0.423717749279324,0.22196501957315,-1.00650523063356,0.129535561538921,-0.217164947990466,0.871828318145954,-0.383856902982497,-0.284808120328809,-1.02240456646136,0.155984498401953,0.0418119493358469,-0.715009159839046,-0.159529267334997,0.383070691532144
95.335,-0.532680711618556,0.301341217974662,0.7862142051637,-0.108464479446411,0.0165330385265124,-0.0176881205823835,-1.00081602158109,0.0187066894030793,-0.0716290905813591,-1.04964991881757,0.400349170083659,0.221834257188014,-0.978389149081372,0.139089366733167,-0.248213860298299,0.63399846008633,-0.42062125278166,-0.314544313987673,-1.01390447304158,0.146605070569129,0.0352715598835695,-0.696211680248706,-0.212450255346925,0.376670217983937
95.34,-0.53522884179069,0.300467168842059,0.784215430862137,-0.108464479446411,0.0101213275728935,-0.0328370449864525,-1.00518660414715,-0.000249340536822961,-0.0710900013942524,-0.964767483248762,0.384497589301127,0.229162209760533,-0.973873750071405,0.151295791687629,-0.256247672396894,0.347145414220686,-0.430822926928618,-0.351951274656789,-1.01059733800446,0.151832171355994,0.041497580749668,-0.699233783034852,-0.249993826865807,0.369162657452518
95.345,-0.542836355855863,0.297147439113275,0.784959629264897,-0.113667908646655,0.00287513695132056,-0.0452866681235024,-1.0038942907768,-0.0148263147784854,-0.07671603426114,-0.794082169343492,0.338173294790469,0.243160349174917,-0.95947651302677,0.156119117868274,-0.238544543460094,0.100415213767723,-0.434728875183621,-0.373769891372612,-1.00645883203269,0.1563287715542,0.0279639249077991,-0.711012456480739,-0.291409845635578,0.386791507370549
95.35,-0.555223844218672,0.28549404673459,0.794016917050831,-0.10361352203142,-0.00386341501625466,-0.059497591984177,-1.01824454664552,-0.0213047024819331,-0.0694614030488234,-0.557702431391769,0.280843593272246,0.258253251655941,-0.952522772623819,0.155881728169671,-0.216602779636705,-0.104270051279088,-0.438685127741479,-0.405953309802321,-0.991394084052417,0.134689145539751,0.00773951719213866,-0.72022989341899,-0.28340250666829,0.392784583451242
95.355,-0.560919417631396,0.268670199553839,0.793580274573076,-0.0979699164107468,-0.01324954777326,-0.0666881723212337,-1.02259697593529,-0.0154097531539644,-0.0331845002416961,-0.198650329576607,0.207582127883919,0.29718234734376,-0.962278475281086,0.148523273214105,-0.152326726165136,-0.30786590806399,-0.444377211716223,-0.452054511250271,-0.972321971157201,0.12142971684505,0.00240047458280081,-0.7340175394099,-0.244894306312678,0.369842012274061
95.36,-0.536217702433697,0.284214859743469,0.794278921003005,-0.0884951597644959,-0.0190255314523923,-0.0697475089915652,-1.01450303048441,-0.0435146808135661,-0.0529756590179085,-0.0185384019510392,0.180825960782222,0.315520467936289,-0.982420874330114,0.138287571675983,-0.0977623186949342,-0.435081397757055,-0.444471435213836,-0.494117819102361,-0.970221577286449,0.111154629463882,0.0117899657948326,-0.751253935756916,-0.183678815885333,0.3469842030909
95.365,-0.530906771996907,0.291947889034355,0.792553919649422,-0.0867136709926095,-0.0120491544296125,-0.0713689476251602,-1.01074033336954,-0.0819226090103858,-0.0785442351938066,0.144263872572905,0.180630976070566,0.308138137620251,-1.00553569530467,0.13030572297034,-0.0357018413511277,-0.516725521208019,-0.440565846948891,-0.540643371713144,-0.962046588403629,0.115724013598265,0.0180490945793761,-0.781930358485828,-0.0867116784296975,0.33202693253073
95.37,-0.537399497097331,0.274857393355683,0.789400767523344,-0.108236668923712,-0.00392285619002615,-0.0641795950184031,-1.0101128286682,-0.0425507052876382,-0.0696732838995157,0.248017603507257,0.181744003361463,0.291889704109551,-1.02496475881312,0.122594400880738,0.029896749038917,-0.560199816465419,-0.435628432847353,-0.579144616365474,-0.969561831673929,0.117424472385811,0.0176840992610681,-0.814747658568682,-0.0226333759707093,0.33152277856788
95.375,-0.535209004786799,0.265603333401274,0.792117707140581,-0.0739951373897223,-0.0144481450095232,-0.0745102423950489,-1.0022170152339,-0.00811937600865823,-0.0757458822995957,0.303805113092797,0.181199073194657,0.282377274038008,-1.0289389070093,0.106513105967064,0.0925321406538108,-0.563185359855794,-0.434863611335932,-0.572822617538612,-0.968222448679462,0.119548347653546,0.00645843846655434,-0.843672109179408,0.00150011404304304,0.329313323333442
95.38,-0.524405845682131,0.272131386138693,0.794494942884588,-0.0730781062851814,-0.0075562282891534,-0.0701472535729408,-1.00000144022508,0.0128246600493117,-0.0716404316429187,0.312705208585195,0.184693484125061,0.278167712342557,-1.03092810851376,0.0877816138928555,0.133333976581435,-0.541892557379573,-0.415529680573528,-0.560318353239435,-0.965490647485849,0.120054827818667,0.00743996881216671,-0.873664267010264,-0.00268927508496913,0.319093772002637
95.385,-0.522304525945706,0.286788829263536,0.78994666869804,-0.0740024540348472,-0.00127871704832929,-0.0657184357699356,-0.997971874892654,0.038801867684149,-0.0601294747225875,0.278311983273721,0.186071442358421,0.262620409558337,-1.02532428831135,0.0809028050433192,0.157714444067327,-0.520525595734637,-0.401149261875327,-0.555096328258514,-0.967822801702258,0.126067170370019,0.00694047266769498,-0.89425259621688,0.00318120295278673,0.308664687916686
95.39,-0.527847360229415,0.289587736195417,0.789032583420168,-0.0761173166334372,0.00482503575915512,-0.0689810472793607,-0.989836775032936,0.0714503792549509,-0.0567002659328394,0.218918757378457,0.182529543613725,0.242456268493354,-1.01340218264205,0.0787636889614699,0.165956444378416,-0.457542668954082,-0.391667637391854,-0.538895053366651,-0.977321678469535,0.138638024455978,0.0136109173231137,-0.90756526296228,0.0251312254160537,0.296520861934723
95.395,-0.527656427606354,0.291034142928628,0.787891942746099,-0.0820569942730669,0.00664272920808262,-0.0687376401992717,-0.9857365806134,0.0940718733125453,-0.0625405636169615,0.134909421028536,0.185976356267929,0.221422540267332,-1.00670896636167,0.0800004580439318,0.159610523095527,-0.371333635762104,-0.373249594643088,-0.527957655477004,-0.97370734532712,0.147198045317908,0.0212747566880782,-0.914755466529806,0.0431876112937981,0.283214431610103
95.4,-0.531036576072233,0.27899259664955,0.787873788201042,-0.0847401931470097,0.00213178992271423,-0.0685932266921467,-0.981557183706723,0.0885313733112547,-0.0754840028506007,-0.00378999367541343,0.187565242042589,0.194754387688199,-0.994672472974187,0.0692123817747733,0.1336422704877,-0.281067621239797,-0.355551576867901,-0.509405808652765,-0.974421963859303,0.153071518551991,0.0268678363629353,-0.916449788129316,0.0499360020136013,0.276067052960071
95.405,-0.532425008299526,0.256791020045548,0.790451377855005,-0.080629090031593,0.00510235653419273,-0.0666495061898993,-0.97355688380216,0.0710730381181336,-0.0780801605318058,-0.134664955964951,0.185103001797611,0.176220510310552,-0.987076366421558,0.0425065842653223,0.106270925345194,-0.164507817609543,-0.336104554661566,-0.511666373880732,-0.963427259657022,0.15738524605245,0.0320451758391832,-0.929090820789083,0.0588978250425957,0.270433435134618
95.41,-0.534396822915297,0.247002224714,0.791422563621934,-0.0723107721477058,0.0111414243429133,-0.0638478017892203,-0.972514690467028,0.0405988141570764,-0.0857768258968035,-0.25978018246425,0.176061044665846,0.158131907479089,-0.981171076292374,0.0302393616053724,0.0863040739397859,-0.0797427770154401,-0.312344324892915,-0.511621538620477,-0.958813404194099,0.164072629499441,0.0390862494409984,-0.94055150821361,0.0791748460426387,0.27193728870314
95.415,-0.536576858490977,0.240260540962301,0.795361562457725,-0.0692859590253544,0.0119896402511061,-0.0476343569830336,-0.979347941177901,0.00926393516906464,-0.0781522468788118,-0.381852017800845,0.168243505362453,0.144435922720265,-0.978005519618302,0.0279815738269086,0.0647352594987553,0.021482085473272,-0.276126662033825,-0.510089510082362,-0.949282764901445,0.17326061648619,0.0467236452868621,-0.94683074821211,0.101218811456822,0.283618734515443
95.42,-0.543593771470377,0.229667693480765,0.807516225616678,-0.0484965913753891,0.0233300923207902,-0.0415519876995257,-0.989962169673683,0.00316462816349439,-0.0514612071413039,-0.381137945134852,0.13766922375516,0.146538627146287,-0.979669625728396,0.0369370188223092,0.0631383664305199,0.0818373368109063,-0.251989511833821,-0.510645527973738,-0.947755882499775,0.183716853357831,0.0499307613362902,-0.956737263339792,0.124360552045631,0.298543103484743
95.425,-0.535092316087625,0.237240069316427,0.810165997970203,-0.0250585769354202,0.0233769399946388,-0.033165739947448,-0.992908629303821,-0.00544024336341644,-0.0483850805871072,-0.323028544432353,0.10672124852274,0.158836764061179,-0.984302143424442,0.043573519533651,0.0630915128855972,0.180323352611032,-0.215262162716887,-0.496140777519084,-0.952500121735301,0.192070086959927,0.0578222238722565,-0.967456275127779,0.146529531181438,0.313235309671586
95.43,-0.523242630777192,0.252099622037376,0.799692126655399,-0.0109288294685481,0.0287889644080253,-0.0190359924805759,-0.994769786798062,-0.0454980957841871,-0.0682289435385344,-0.278491330115647,0.0997701702550235,0.165734098745876,-0.998551928039951,0.0433169920078009,0.0684521025937616,0.271692501174509,-0.182599874425625,-0.487597759597905,-0.96862408871815,0.192812491673463,0.0660363093014047,-0.980267298869278,0.163568205131609,0.319640821542336
95.435,-0.531066527323697,0.252812399957794,0.796683210175555,-0.000775180150223628,0.0396219903937419,-0.0106138110158982,-1.00106121426575,-0.0592915823421403,-0.0873619897358789,-0.248036360091761,0.0937182534095692,0.166430120122018,-1.01588742651558,0.040632945478281,0.0734101733168802,0.357603232875205,-0.148556681521512,-0.488532468661852,-0.97505931309923,0.186257974111396,0.0774786477658863,-0.98786791238912,0.178062287893205,0.320291157752867
95.44,-0.537115730472964,0.241628725738526,0.79733507359455,0.0163589604740524,0.0376135823251589,1.94179587425191e-05,-0.996336123826175,-0.0471317662419619,-0.0900858372622993,-0.215443081734612,0.082214740279786,0.164112509536237,-1.01420475055352,0.0362342018629228,0.0710465405241296,0.43748800197582,-0.114088619844525,-0.472690689159447,-0.978684756530183,0.187955125474786,0.0880204140328171,-0.979632386011023,0.20371304261814,0.332978949174023
95.445,-0.548405919568657,0.24893458139995,0.796030759371549,0.0214687246230734,0.04297311357794,0.00782440418107655,-0.993715817941426,-0.0240033672018866,-0.0882845706408912,-0.165206351495636,0.0673206937442662,0.16308796073339,-1.02690634289625,0.0383077651563351,0.0661210218467164,0.515795564210185,-0.0780786116203833,-0.468993254898177,-0.981821728000318,0.179900193160746,0.102434142000305,-0.968813348878131,0.250315917161902,0.336018404967815
95.45,-0.547082208363991,0.252346850702919,0.792180892527573,0.0305293891923696,0.0464827812615495,0.0188130039997554,-0.986913605205318,-0.00844710005725672,-0.0729533922991067,-0.102442132290439,0.0498781069894747,0.162544256142832,-1.01968471631524,0.0360284929411014,0.0630996825169894,0.582345035150343,-0.0401147232115749,-0.469312975692917,-0.98399662269658,0.170634277457629,0.114406717449444,-0.954034758177961,0.273237021763504,0.337256206506167
95.455,-0.535989111346473,0.257857838045458,0.793693398859117,0.0412229294410373,0.044751028279601,0.0196174641436177,-0.98681891848131,-0.0045641981336146,-0.0691202826628925,-0.0492055100426628,0.0342922842912287,0.15997648598387,-1.01162785275175,0.0377439132595243,0.059433625495287,0.65464191906758,-0.00307213427609365,-0.466720805792932,-0.984261424262207,0.156063251718624,0.117715145268044,-0.941798790713411,0.277745217084885,0.327095910232984
95.46,-0.533354457224376,0.266937008502384,0.793909165938703,0.044506525941366,0.0451502896325529,0.0259596333887241,-0.988969207958707,-0.0027641807562224,-0.0738442888474475,-0.0293043580917177,0.0329879777239601,0.158482852956154,-1.00579503082234,0.0473804254451959,0.0562966592370633,0.7230261855238,0.022177941619871,-0.459226078301953,-0.987372896012397,0.139780574677163,0.123062798299878,-0.9270877719359,0.256723947775242,0.297471520247897
95.465,-0.533673405307465,0.270414463043052,0.789509524392222,0.0464647278218616,0.0446192417669873,0.0307555411276183,-0.990350583695011,0.0113008205045711,-0.0750487098400826,-0.0204501093840532,0.0325658700950013,0.155102885185169,-1.00039244169229,0.0624729793594082,0.0509921554914273,0.78021165519007,0.0369725472155642,-0.445226635664159,-0.991009694980909,0.124693717711252,0.12647169809348,-0.913343594532628,0.225383011177461,0.256222875674789
95.47,-0.532612336930923,0.270316345830128,0.784307536017311,0.0472033496463301,0.0436294893392301,0.030268053622662,-0.992107654144294,0.0327488104306795,-0.0732990100644099,-0.0198459559718932,0.0291625943550437,0.149342667093566,-0.995489082701363,0.0827561250911562,0.04299940937058,0.834678442072717,0.044548725606046,-0.429342721655157,-0.992836840015726,0.111914712102721,0.123092215031261,-0.9081003752217,0.194462242518021,0.205881340957273
95.475,-0.529460562848621,0.275061608877101,0.78484905260862,0.044258090732473,0.0485382492062601,0.0312498040992484,-0.99489410948123,0.0419489722959148,-0.0717160986234572,-0.0404809425725111,0.0271973583920172,0.143446959204486,-0.99523918961789,0.0993235396065177,0.0378306422396411,0.918351170582419,0.0584941823825972,-0.423366112075442,-0.995716965726588,0.106465241977763,0.120359488583344,-0.91193469690682,0.172415021439023,0.15507688261775
95.48,-0.524495427180415,0.274857387655512,0.795571337613906,0.0401966824548737,0.0404548777972252,0.0221394248328639,-0.988409348508161,0.04342493280262,-0.0509953477614653,-0.0667799047312782,0.0301405425099849,0.145312742076206,-0.998793583478483,0.106080790411582,0.0244987714609858,0.959069407563033,0.0647967118678485,-0.407670485240414,-1.0040024926824,0.103607016489409,0.113410120489805,-0.890606610945817,0.129653440511014,0.113248375444193
95.485,-0.52995411946246,0.266539349505134,0.796905754194156,0.0456779631846547,0.0387826263904572,0.0226271705989536,-0.986751375680567,0.0561029734262469,-0.0307336472389873,-0.0742230773954914,0.0254152385798375,0.145766481757164,-1.00692336614307,0.105390100852446,0.0126084458512888,0.969716995279971,0.0648389392810664,-0.394714956711293,-1.01286708829024,0.102456652217236,0.102584733074586,-0.866761989401635,0.0915242598273117,0.0842299718363086
95.49,-0.526135462238218,0.265946934965721,0.79726706912621,0.0520749978322998,0.041135334340669,0.0250995815386063,-0.984753376749708,0.0672298292748111,-0.0257180595163554,-0.0546060925646233,0.0216994097894321,0.144056833603276,-1.01141149536033,0.108431577563078,6.346230453067e-05,0.96375590691573,0.0628037855217641,-0.389482694561245,-1.01400502901338,0.0994912661437493,0.0966705893186523,-0.842629858818462,0.0548150434222073,0.0621583575622793
95.495,-0.51827496308707,0.276682037542776,0.79661354540657,0.056738087740214,0.0425477750159381,0.025992739806807,-0.984588134069437,0.0675162412852155,-0.0337171870986386,-0.0311409123241901,0.0253289647264776,0.139603941892765,-1.01167916948256,0.119648559699701,-0.0176527829262117,0.954544389242944,0.0567998160201511,-0.386195375629775,-1.00914937671866,0.095183892775511,0.095720083206892,-0.817749374511872,0.0172182780001732,0.041121087993238
95.5,-0.519049247025722,0.291539796997392,0.792122926589338,0.0567287374323179,0.0410596869397236,0.0247931325449923,-0.989491486606199,0.0580767160496726,-0.0429353297978945,-0.0341943347240578,0.0361019186343001,0.132761561648355,-1.01317664883031,0.135054445558628,-0.0430743345300153,0.948011809245323,0.0431238948276201,-0.375265951315289,-1.00814860414828,0.0929299461688776,0.0920831977082918,-0.79216066612936,-0.0199803648007432,0.0161322520089795
95.505,-0.524318369124607,0.292634347956018,0.783773683400648,0.0267387084212453,0.0503669365613094,0.0216907139022101,-0.989755160059099,0.0658093174897205,-0.0535527969018193,-0.0662759524230633,0.0402414864837934,0.12448243857206,-1.01512340124703,0.145401198973974,-0.0687489639090365,0.898884756954392,0.0277716863053834,-0.372195504305345,-1.00366175440133,0.0817989777377918,0.0884415926618336,-0.773030330542204,-0.0582409711598572,-0.0178771756857463
95.51,-0.528695706469394,0.292194922645309,0.783976891039623,0.0255442513974421,0.0484674797552862,0.00881938904154829,-0.994030792829697,0.0706525357543914,-0.0655166457794713,-0.0979379052555918,0.0439003625930551,0.112206206350742,-1.01244751140046,0.144188480788297,-0.0884712032411081,0.8245828410484,0.0172243183680556,-0.373438624133865,-1.00079768589823,0.0797830145251728,0.0823447905021344,-0.75489234964651,-0.100798866237553,-0.0543976848302244
95.515,-0.528223711778518,0.289930217302347,0.787252885475174,0.0216296387706361,0.0424290265288628,-0.00236422487538743,-0.995164443032856,0.0659019895643381,-0.0697399639169474,-0.135477340021388,0.0437036452053101,0.105487036033346,-1.00879808344495,0.138676606946352,-0.102572068911233,0.741282351381346,0.00586869768623224,-0.379308714052218,-1.00193243348981,0.0777698394470764,0.0767359527037206,-0.740192546133238,-0.136946882957769,-0.0826054253048651
95.52,-0.525679145307965,0.284268961969111,0.789130547640956,0.0149565875581923,0.0367564424382794,-0.0082430770320658,-0.995027299080666,0.0503488375028365,-0.0676075071946667,-0.172936183619818,0.0445060774632535,0.101539202676542,-1.00403042799613,0.13431827740755,-0.112521049425271,0.654104750741644,-0.00745285860044398,-0.39063956959886,-1.00124032394662,0.0761678885834254,0.074203557249764,-0.730032022230825,-0.161341378225881,-0.105601670470084
95.525,-0.525612952436754,0.27603513646613,0.787172364320939,0.00917130700347815,0.0345384871191264,-0.0100758703997155,-0.996372943263869,0.0301908661655615,-0.066778825943342,-0.199859507257295,0.0497445357820997,0.0945542993512647,-0.997247181712987,0.136108482537864,-0.122027942642611,0.567651428193486,-0.0203102069009767,-0.406229123548205,-0.991318671957232,0.0783813446263531,0.0754332963053869,-0.721680242599267,-0.1757040782051,-0.13262369488721
95.53,-0.529322083497144,0.270286305577611,0.788209576040031,0.00302698703821984,0.0304422752401582,-0.0172442427492233,-0.992733025938207,0.0147551799710912,-0.0778575051010123,-0.200882776887456,0.0446281564287215,0.0853448165151839,-0.98487442752149,0.137466246332829,-0.125839139673539,0.470257341322301,-0.0192850050157989,-0.430833956287969,-0.988717146255821,0.0924796960496456,0.07132454528143,-0.701741885032216,-0.17885224531548,-0.139969409611758
95.535,-0.526644230077928,0.272404698226508,0.791433989486026,-0.00542904823082966,0.0338479935518869,-0.0194230029806374,-0.996212289491907,-0.00167635753550106,-0.0711524225779037,-0.189433556620386,0.0495780545323515,0.0882272712289905,-0.980225526259746,0.135502443160504,-0.130545174852993,0.414723982762167,-0.020915939297927,-0.448390131261,-0.98527216913163,0.0967242711902781,0.0694242393722805,-0.683663554865895,-0.164785417596685,-0.144091649678132
95.54,-0.531189263773102,0.269144384036618,0.79130061641847,-0.00765156666859539,0.0370194321704098,-0.0168879597616691,-0.994776786469475,-0.0132489872406881,-0.0683280258299208,-0.166565876868723,0.0509730067267123,0.0895685404539108,-0.96909695949392,0.133232574154375,-0.131059828619701,0.355574548761512,0.1248012863431,-0.473366825209843,-0.981954028679565,0.104412656739608,0.0705456431122077,-0.665244174525618,-0.151066149032417,-0.14277356372045
95.545,-0.534137968680019,0.261128175557855,0.792769195956853,-0.00667067455566171,0.0399621103013681,-0.0119834977014921,-0.992501712313359,-0.0186980556701953,-0.0673808913662975,-0.130431638764592,0.0481192706539802,0.0903182050084216,-0.960158936936853,0.127918106572799,-0.124322853471316,0.291700895655381,0.206687650020388,-0.502537693110335,-0.979766806928335,0.116690849433613,0.072098702253119,-0.645497982170831,-0.136237003041201,-0.1350892214346
95.55,-0.529062125416012,0.253983301851786,0.798357946984399,-0.00488875524692129,0.0416849996769176,-0.00669676880863961,-0.992522004559638,-0.0167581871257259,-0.0647187112213157,-0.0811286603601703,0.0421727400633697,0.0918388567812822,-0.96515186111813,0.115164109694237,-0.107532806824019,0.222786169604212,-0.0173245043316973,-0.528768658141699,-0.980187822214297,0.131153216416223,0.0714025973895039,-0.625037586152471,-0.114903022387979,-0.120982428848661
95.555,-0.526862121619789,0.262770670882249,0.798625010988651,-2.54634308622957e-05,0.037794368151911,-0.000860818555221095,-0.986002383681339,-0.00856167740549279,-0.0619865739606357,-0.0324643384722552,0.037306304016407,0.0908655707590193,-0.965343442004673,0.0980130800953131,-0.0904801078362546,0.124491707855181,-0.0212173541403541,-0.549206105912003,-0.982624907751892,0.136029832353942,0.0775747518023762,-0.614537260146489,-0.0910386525108841,-0.110482102842679
95.56,-0.523530391449734,0.276976609319062,0.795274797113763,0.0041209339280337,0.0433428340807118,0.00430758973374533,-0.995048477753636,0.0179214065138677,-0.0654426634442814,-0.00127896038585826,0.0388205627994372,0.0879538323947437,-0.973427628339474,0.0860635665316088,-0.074057169086274,0.0214996590997464,-0.0216411892324686,-0.577016657817122,-0.993441097977545,0.141696024807834,0.0868200184636107,-0.60764742484148,-0.0750556447877301,-0.09645754528785
95.565,-0.524285687403445,0.280309545109661,0.792618547813736,0.00366640798683173,0.0441477461977177,0.00262440524759779,-0.99891961334185,0.0427477346626649,-0.0688573131734922,0.0110860994606565,0.0357442784040014,0.087125152349472,-0.980394277201357,0.0784925488192259,-0.0564971589775244,-0.0561861941830753,-0.0285941634849937,-0.603021142317408,-0.995550626633607,0.140840461252918,0.0876747015679462,-0.602262300203406,-0.0609008781622925,-0.0932020156509666
95.57,-0.533694786808214,0.286279719477034,0.791881211141981,0.0021839823376346,0.0457723545135439,0.00491693482700315,-0.996135984006057,0.0641531572430668,-0.0756786157392821,0.00137311132000935,0.0352947298785459,0.0830647759594074,-0.985112536534571,0.0718709523962512,-0.0440305320643417,-0.110039643538371,-0.0362408059677536,-0.621899473448644,-0.993622345799421,0.137300499987068,0.0909023313568048,-0.596322600278702,-0.0505592224246563,-0.0952079222518106
95.575,-0.540124843286461,0.292570601770355,0.791246246808614,0.00118145818121185,0.0476364757063121,0.00987145013723971,-0.991768940177375,0.0783513194255657,-0.0828675142849014,-0.0268674903798427,0.0367086962012011,0.0741778156451746,-0.988972454403725,0.0645116983689795,-0.0376122783702444,-0.1473725347258,-0.0415175383745964,-0.636269647371585,-0.992481044298858,0.13430114278845,0.100884311755842,-0.588565029288267,-0.0467367024464883,-0.0979478500355879
95.58,-0.526944851538144,0.286309100345332,0.787847557019705,-0.000263445781835225,0.0446924302585164,0.00777630870808743,-0.993864804164146,0.0813240638924537,-0.0820793111981157,-0.0620049726544555,0.0311542287743936,0.0632581871827445,-0.994595920913932,0.0571505377205681,-0.0304114375021367,-0.178723885393578,-0.0473995893933741,-0.656599817085508,-0.991399591505926,0.131539774196658,0.107984540703146,-0.578783252682457,-0.0496766777374645,-0.102842635069122
95.585,-0.538558883423249,0.277101715249401,0.788639664844945,-0.00857749814899647,0.0415746618834736,0.00361928103904485,-0.998030709100157,0.0981011751558957,-0.0759922390368374,-0.0963533850807903,0.011377872893851,0.04868613381083,-0.9936447117191,0.048958320106775,-0.0229318449218744,-0.216788683585942,-0.0548010811549537,-0.664001286277858,-0.988495869590037,0.126864091639671,0.119126087695152,-0.570349468787473,-0.0581104616324492,-0.111276418964107
95.59,-0.542476148382222,0.28060399852738,0.788780011792527,-0.00782771187564244,0.0336682062275983,-0.00188412091818955,-0.993594402404814,0.104015918424277,-0.0666379673496032,-0.0851490004581962,-0.00103998079303687,0.0410513622970835,-0.992639238979444,0.0397356126880734,-0.0162982378245248,-0.240562919046833,-0.0582469126747896,-0.672243683112777,-0.98426597590964,0.11828567576707,0.130317947351834,-0.565877577071797,-0.0421729399690303,-0.120458197768927
95.595,-0.538347078001868,0.284060300945909,0.788493607975356,-0.00893391139326849,0.0333475571730466,-0.00355238953113996,-0.992285004586786,0.0893261694551222,-0.0683956654739399,-0.0648723727909709,-0.00764295644033473,0.0346308200973102,-0.993117258271893,0.029936979573668,-0.0119202666877079,-0.255497470156391,-0.0583531915659629,-0.676044106483459,-0.983330553934818,0.112110991945991,0.141237992901192,-0.561309820073515,-0.0269234218603807,-0.131031296331628
95.6,-0.533499553875553,0.282748073090401,0.78687861284679,-0.0111390335820982,0.0330583267822201,-0.0041843944969619,-0.992216215652367,0.0603646445574228,-0.0757747634515395,-0.0566321430434135,-0.0138236547088168,0.0277789244003198,-0.994326367482895,0.0209709021266842,-0.00950928846172859,-0.256097663366561,-0.0552229453624054,-0.67530513919461,-0.98479350230118,0.1058492190124,0.148894703117182,-0.553396983591362,-0.0239060993958461,-0.140398717172574
95.605,-0.534435447227357,0.276881555200721,0.784676829559108,-0.0116546594237793,0.0265656802803278,-0.00661913678050041,-0.989008878768013,0.0333714830099738,-0.0767926381264441,-0.0684192538732007,-0.0234265271930047,0.0209070881650771,-0.994941980769076,0.0145410406895064,-0.00740874703107685,-0.240419069688467,-0.0502442447124357,-0.67352094118182,-0.98500595861873,0.0956083395803505,0.151862623954638,-0.540853178666001,-0.0335812423142361,-0.146610223105805
95.61,-0.537163683519045,0.272844717062416,0.787335252396867,-0.00972349254237421,0.0265656802803278,-0.00661913678050041,-0.983973943074427,0.0220887791043413,-0.063654203232279,-0.0819982191406606,-0.0270475831254444,0.0190965601988573,-0.997471278342966,0.0160052575329263,-0.00519462062434802,-0.197329640521541,-0.0419930750459436,-0.672604173129147,-0.984375454967528,0.0937541628460309,0.157627340628459,-0.523427813545742,-0.0473381106919441,-0.160367091483513
95.615,-0.537719656019231,0.266108043389446,0.792443144400752,-0.00783824249052038,0.0248966972396385,-0.00495015501211034,-0.982282717911786,0.0104630941914317,-0.0508158865962975,-0.0762168022052229,-0.0262422448846567,0.0226551116094318,-1.00320661926679,0.0173866620651183,-0.00818999539154303,-0.143805245278735,-0.0292311732994916,-0.665477655763097,-0.98281595508572,0.0865861790573793,0.162302966445019,-0.507931619818221,-0.0736163950261335,-0.181513750653421
95.62,-0.534855758992037,0.260814534849881,0.794653037927038,-0.00489642022150308,0.0279152677052028,-0.00309204049573086,-0.983574613199014,0.000909179872630825,-0.0457405466885092,-0.0552662210485792,-0.023287686314355,0.0289969557432275,-1.00575104451441,0.0221455556836447,-0.0131568746793315,-0.0969827160398866,-0.0111715626886024,-0.651217398762314,-0.985764226040098,0.0805397673730627,0.166517161172874,-0.491539316947206,-0.0997344045179619,-0.200395434472089
95.625,-0.530918418583942,0.256722640385634,0.795738775998032,0.00264687479796421,0.0321381601417372,-0.00200035484014406,-0.984893539314604,-0.0030224211344279,-0.0446627083734819,-0.0247891548462279,-0.0190241634131135,0.0363024568397133,-1.00618007262661,0.0285181462486057,-0.0186527122563818,-0.0548328923389382,0.0103328983101781,-0.630745085498759,-0.990399428659059,0.0762861412715422,0.169605067477293,-0.471768226708064,-0.123733591934336,-0.218645383733037
95.63,-0.530102723233966,0.253654457900977,0.799581724990346,0.0193811364676872,0.0302925225581159,-0.00276877798574285,-0.981606769989505,0.00602079211234119,-0.0379935699558523,0.0113189983225423,-0.012866397621538,0.0433118420387056,-1.01115841552115,0.030934697210179,-0.0252077601065472,-0.000576638007399696,0.0330218803749773,-0.603123704781088,-0.983635029137442,0.067850112086719,0.168770512483274,-0.445080936480088,-0.156351383734392,-0.252251605522289
95.635,-0.528311658856902,0.267028706171118,0.797582032927885,0.0128845217145413,0.031220609975708,1.54842670336662e-05,-0.985496639576659,0.0207455491081006,-0.0369870808355968,0.0316251234711874,-0.00640535485907869,0.0470038632578207,-1.01237306358721,0.0386099357189946,-0.029396261536144,0.0400243522324568,0.0444565747654073,-0.582353002310994,-0.985272443430766,0.0622362916381529,0.167937460358937,-0.423366357212734,-0.182789806363898,-0.270482706646885
95.64,-0.523259009410796,0.271608963325046,0.798003506116079,0.012010943947273,0.0299537340639425,0.000711029395461082,-0.987315894898832,0.0450339227803692,-0.0402580897725806,0.0517946093331404,0.00337835736919189,0.0465788653544639,-1.01029824990735,0.0452206061670068,-0.0325518053982674,0.0826921702566219,0.0525586438302569,-0.560871657183535,-0.986183592868599,0.0570307656705804,0.172345590478728,-0.399268175011508,-0.202112758865182,-0.291459882727857
95.645,-0.525283112750721,0.274601084283058,0.797383332936793,0.0135052529415447,0.0300310452890558,0.000200041332853192,-0.986611949335532,0.063764436862767,-0.0457990280828931,0.0587606517605458,0.012269070206916,0.0426403222613011,-1.00939478549148,0.0501624410187096,-0.0320462867431318,0.128629017698024,0.0573691747973271,-0.539958032425959,-0.982699353542422,0.0555021205708826,0.176489782899027,-0.371751621496648,-0.22295131033455,-0.316433188246665
95.65,-0.531819097006231,0.278336044434742,0.794291158012625,0.0136287021217865,0.0335291998553919,-0.00102984983475086,-0.985098965470394,0.0726939547969514,-0.0505590153012627,0.0481439369858737,0.0202596323706174,0.0368188111832463,-1.00950022831667,0.0536199342063848,-0.0264837400280355,0.175578161881948,0.0583726713258494,-0.521670111778807,-0.973647130879565,0.0592676552959276,0.175162908081727,-0.343388618260988,-0.249835097565423,-0.341580296077171
95.655,-0.530561405159076,0.280801332603099,0.789027484889328,0.0088181933388114,0.0412147007334269,-0.00297668030138452,-0.986251269793379,0.0791266283353192,-0.0510671149489484,0.0227719870001797,0.0319697649643984,0.0309637478619795,-0.998461872570961,0.057966502866604,-0.0199721424529726,0.213750939426228,0.0554363042816131,-0.507967053633954,-0.969203364432828,0.0602272392172112,0.171069266534879,-0.326777743389717,-0.267423075712694,-0.350374273232878
95.66,-0.524692731632941,0.283690703729745,0.789461449214769,0.0088181933388114,0.0401969125774671,-0.00501225816506598,-0.987166540334335,0.0902457504549293,-0.0486755386539771,-0.0147575537373993,0.0411331399850501,0.0177967847643675,-0.993311439245149,0.0568459844294077,-0.00679447234171614,0.216147533717866,0.0476694582113668,-0.494052066124806,-0.959325505981021,0.0561161029573794,0.169723638608407,-0.296645466413729,-0.27684554365713,-0.363106980196438
95.665,-0.520679247149141,0.293676808311677,0.792366529597993,-0.00229188241842886,0.0392107439053535,-0.010952480909381,-0.984532371595672,0.0959843262002298,-0.0463965717580409,-0.0543743298756966,0.0484648532182494,0.0103936717323023,-0.991505242369184,0.0577108066784986,0.0121637762192803,0.210544134831765,0.0352828617109061,-0.486678974616769,-0.948670154195737,0.0536827595393142,0.171130165694139,-0.26929685576999,-0.280788304341399,-0.366720885038376
95.67,-0.521355283061194,0.298270974713256,0.791542556228593,-0.0128333711086271,0.0410565461222837,-0.0167917053506182,-0.981636400200206,0.0990697946080961,-0.0467043513707256,-0.0990711280103337,0.0581881100534353,0.000567012613300521,-0.988109076331141,0.0588302095500612,0.0301868570409539,0.20042599527077,0.0191292887450729,-0.489415270698655,-0.941121127096575,0.0500560759742833,0.170566345743892,-0.248207470381951,-0.279776807731034,-0.365713856489155
95.675,-0.524577171337168,0.295338811184263,0.789479757881806,-0.0232617786017338,0.0447099406857162,-0.0210983155580464,-0.978923657360234,0.0963011033180198,-0.0477331713170587,-0.146444970737607,0.0705247804243484,-0.0111262787524032,-0.984491171451123,0.0568301851214,0.0433051185870936,0.201827701194386,0.0043685228167516,-0.498842718564905,-0.934653949753529,0.0463374207613691,0.167607021378566,-0.233312345469123,-0.274634606578088,-0.364561164022678
95.68,-0.526466667727237,0.287819575319355,0.791530593108272,-0.0356991116934655,0.0474487167971002,-0.0237228609621525,-0.976178436327183,0.0842934695593235,-0.0469541716858966,-0.19159219948862,0.0827955952706529,-0.0197307889097583,-0.987246447523612,0.0488660672642975,0.051675204569105,0.235817201345779,-0.00227949561464997,-0.506599404071677,-0.923085891039886,0.0468722782209016,0.165810257208577,-0.222333757776766,-0.266390396624806,-0.366146780581975
95.685,-0.528923431161454,0.273278088805059,0.795635338836084,-0.0293690822256928,0.0485037211722279,-0.0237228609621525,-0.980779415708623,0.0756738046108777,-0.0564257019693931,-0.237024743098625,0.0901915896930966,-0.0260702127004243,-1.00514022664851,0.0406030847701816,0.0608630254586179,0.296044243266707,-0.00544933984149054,-0.512939102191104,-0.919972766298047,0.0395947973245844,0.15703944969103,-0.228683131511839,-0.249458733331277,-0.380961998871169
95.69,-0.527850616734628,0.266544323953881,0.799528281763006,-0.0299720117072214,0.0503915325212502,-0.0218875086482404,-0.98939660904485,0.0715165145885698,-0.0669773870663603,-0.250851697775793,0.0861837561540009,-0.0327930357328169,-1.02031044717808,0.0420020563742629,0.0680491353666194,0.376733419333738,-0.00662895822080811,-0.51529832928544,-0.918134758420039,0.0406576559933275,0.152868429010556,-0.243938787838842,-0.239023168488241,-0.392875188452973
95.695,-0.532965458376262,0.270307265031682,0.800717815762355,-0.0245075698547467,0.0502785110207402,-0.024163701768396,-0.997192540865679,0.0702319951509031,-0.0745107276796675,-0.247074181252461,0.0817986822950352,-0.0419868756573918,-1.02603464333948,0.0468461748774514,0.0733881789109268,0.459371393721672,0.00107681029885494,-0.508615924100776,-0.916673359619759,0.0393629131083256,0.153400004645483,-0.252125807307818,-0.220258352985016,-0.407773232166066
95.7,-0.534930047218251,0.279169207617169,0.7988636900584,-0.0245640958047771,0.0497778728604317,-0.0276893569690549,-1.00731755624745,0.0749402177904649,-0.0813577267939424,-0.225819776784759,0.0806547240546996,-0.0535388655288168,-1.02815614925309,0.0482200734564557,0.0795686124871222,0.526363202617648,0.0136980901623972,-0.491915167025788,-0.921626044069447,0.0330326969642419,0.16016709447683,-0.255587968276835,-0.175448921339634,-0.419903826905413
95.705,-0.534090649279379,0.285544936067505,0.796418613717056,-0.0302760303020477,0.0556878622487592,-0.0306022012499475,-1.01862038087823,0.0869229637744954,-0.0885670281429656,-0.192149004294741,0.0797444318800742,-0.0660087466224681,-1.03262998501185,0.0453599776700518,0.0870502652593246,0.575805678481864,0.0239777092931588,-0.473424002185893,-0.937035125341909,0.0244156025029607,0.170007031778644,-0.260458496963627,-0.108271369150354,-0.425887635108611
95.71,-0.54093862830499,0.283831730725811,0.796871144985205,-0.0302235037754935,0.0777324029345306,-0.0336802600282218,-1.02441699524337,0.106428007475445,-0.0941570507075123,-0.15116823176831,0.0699871019711029,-0.0777175413231201,-1.03912525710389,0.046282691090474,0.0922168753588148,0.622509214103879,0.0259236899440761,-0.468559032757066,-0.96776694017679,0.020886118520345,0.174417903155171,-0.270387505063137,-0.0457186641434357,-0.428866339960569
95.715,-0.551530674398321,0.287584986300111,0.793665973540567,-0.026383170829372,0.0671714814775665,-0.0471214311947771,-1.01926189085881,0.137072215192442,-0.0870250675337117,-0.0859760925416532,0.0527383789971304,-0.0959348866833302,-1.03806617456587,0.0451841121686993,0.0930153516843125,0.626328185223596,0.0306797947881517,-0.46274615300478,-0.999705574146993,0.0203944848790379,0.173040984184145,-0.275423385004276,-0.053137274387494,-0.446124971168467
95.72,-0.556959176425377,0.287599463821401,0.790314815736241,-0.0268989623846521,0.0659479172291269,-0.052109849578332,-1.01421670934609,0.147266093744607,-0.0851948291237697,-0.045751626369819,0.0479248762130737,-0.113505207465052,-1.03764462575404,0.0450021009550833,0.0947076226956753,0.611089514946121,0.0234885844145334,-0.466056991910944,-1.04135857722112,0.0153706504030652,0.173347405419902,-0.287820233365143,-0.102053898569917,-0.470642165927346
95.725,-0.55298954813217,0.291018550072734,0.792685445665618,-0.0304114376232486,0.0725549466639522,-0.0556223232442342,-1.01366663338543,0.150804079330425,-0.082897923927755,-0.0241903650442203,0.0474284086583523,-0.138664515452438,-1.03388315783592,0.0424347537572201,0.0939126096300013,0.573059705492859,0.00815488695684818,-0.465393556018743,-1.08438891801115,0.00918753038720863,0.171467676483676,-0.299736074600846,-0.18591848203629,-0.499277562866623
95.73,-0.544494934040401,0.298428427831757,0.797301611061639,-0.0344212721281957,0.0800801610949779,-0.0617928588096144,-1.01608099623034,0.156566937228677,-0.0755457109191134,-0.0131519223918406,0.0469244993611366,-0.171068331272082,-1.02914481806795,0.0377875478097287,0.0892140947189124,0.514234774541195,-0.0106717290716879,-0.458917996791926,-1.12129658708441,0.00540535525361022,0.165552155162095,-0.302080824576992,-0.298393639603817,-0.52828208068744
95.735,-0.541469414225871,0.305838999808857,0.794333098781702,-0.0362774469633748,0.0791520736773883,-0.0720018260631007,-1.01499304250079,0.165738880786706,-0.0595026088775716,-0.00943580073236908,0.047853529067786,-0.203584388002055,-1.03692434708705,0.0362245205058177,0.0797035892025109,0.429671405358999,-0.0315750267492138,-0.460818307379723,-1.1556249724442,0.00381997481987949,0.164993734511583,-0.2908951755193,-0.429825345745006,-0.552517691543854
95.74,-0.536097959469757,0.326235675909707,0.784906986082223,-0.071071446243788,0.097405543382154,-0.0822259067593842,-1.02192805559645,0.16479771336085,-0.0469785380750203,-0.00347841568797137,0.0545422051663777,-0.233496193678475,-1.05064056388249,0.0334309788329963,0.0621834566793116,0.346372039038486,-0.0439160946587415,-0.443653024306684,-1.17409569590044,-0.00115477002926723,0.149033341553286,-0.214091809839991,-0.603057172575208,-0.566820319009707
95.745,-0.542578799082432,0.330701545231769,0.784472233959557,-0.0752207075522661,0.100840798374196,-0.108326655949258,-1.02334418919345,0.163107885141699,-0.0351088321312261,0.026182673576486,0.0557587112388774,-0.248690907754735,-1.05823436551065,0.0309898144589718,0.0398062482745163,0.283594799354589,-0.0541846174265498,-0.424037969272849,-1.17031728559869,-0.0058163617270137,0.132497936383132,-0.129157417425534,-0.720144710338209,-0.564658826489032
95.75,-0.545852984146683,0.326213715009333,0.785408177045753,-0.0781288463246529,0.100393618031211,-0.136005951026791,-1.01791394121995,0.147124915816295,-0.0221689321426374,0.0727352255337786,0.0517009718393401,-0.24712719850727,-1.068558412432,0.0279521376463902,0.00673095620508294,0.240959180393116,-0.0528509383391819,-0.411000198410154,-1.14900221684485,-0.0115855634587817,0.113093529114212,-0.0486111534043872,-0.777559066268268,-0.550974728699608
95.755,-0.5436289597759,0.317805894266889,0.785937481795369,-0.0877281198066861,0.102029650968491,-0.158271492452215,-1.0075101332535,0.111487878367639,-0.0143278276808551,0.127756034041194,0.0493691032967039,-0.236068303992942,-1.08123448726245,0.0244621707288548,-0.0354464180733976,0.21467090463967,-0.0370036055682242,-0.39591788085695,-1.11434710365333,-0.0194507629886615,0.0882887240144847,0.0276100311643801,-0.770481045714966,-0.528336327170682
95.76,-0.544289440240203,0.308074856641286,0.789226142381934,-0.0913246789788081,0.104826280133948,-0.177084053966628,-0.996895962622286,0.0657524096953277,-0.0202313341977674,0.182587766686925,0.058038904797724,-0.230534335882003,-1.08280638292588,0.0222869235356613,-0.0736065608622733,0.195478014346626,-0.0176881940631485,-0.355696722683287,-1.07296521095579,-0.0278690184492776,0.0617556926247166,0.102069647417924,-0.693157607807294,-0.497788803045283
95.765,-0.534746525448966,0.299608352295493,0.793179803331798,-0.0903305465385638,0.106814545014437,-0.194978437891026,-0.996507411093496,0.018241836204761,-0.0175531445078933,0.243227522924017,0.075932606539841,-0.231528435812162,-1.0783992887191,0.023323575980751,-0.122689568151584,0.169008233601261,0.0283888392076445,-0.313541149483662,-1.01776896678831,-0.0461712196799944,0.0285420018148554,0.153421222040838,-0.464028829269539,-0.46538985748306
95.77,-0.533007506355632,0.292318325960798,0.803006026682879,-0.0776386544822928,0.115791546782485,-0.208581755121159,-0.995478040149644,-0.0133001464669362,-0.0100689640855602,0.319336360682211,0.0926701886400187,-0.232500720077554,-1.07696139212812,0.0251283570990196,-0.156342305549222,0.146273631028373,0.0729563257699957,-0.266190835576219,-0.983528454166,-0.0613179311804088,0.00809126693028128,0.151715720158241,-0.269834599052959,-0.447308325298958
95.775,-0.533266517486907,0.280614797935942,0.810110163485608,-0.0739568394753286,0.134095723307165,-0.216550464254813,-1.00430010963666,-0.0340654483562086,0.0011479477865743,0.416790393608673,0.107418300737079,-0.234565093651596,-1.07639443881436,0.0315589948485165,-0.188207433208284,0.1219148738191,0.119583114279483,-0.218719817922596,-0.957135717606445,-0.0814811854988957,-0.0111597817592467,0.11313070185303,-0.0486728043178867,-0.43563265734273
95.78,-0.53441489598125,0.267554962472411,0.812494750577031,-0.0676454771297557,0.151327040125508,-0.220564197827954,-1.01676933026253,-0.047573013274368,0.0191563194673968,0.539349212694826,0.124859131078296,-0.233153047396189,-1.0770857235694,0.0434816550946964,-0.224553785342583,0.0982536974346194,0.163932294493287,-0.167129434866725,-0.934301671178241,-0.108539647891676,-0.0306577261142098,0.0481099328043607,0.206999044252658,-0.429062434245681
95.785,-0.53653498433311,0.259254104366054,0.812003274127295,-0.0392254709420628,0.155866504096627,-0.223910272231196,-1.01782811404451,-0.0583857729804387,0.0443736651471955,0.676590535066541,0.151141443381306,-0.222647204813631,-1.08099722848591,0.058768256406115,-0.264248835162225,0.0807445289919505,0.197038103533569,-0.102227796213274,-0.922445936708501,-0.132703587054899,-0.0352977420609861,-0.0291082805835697,0.404863953189872,-0.435446587029299
95.79,-0.533866036427079,0.252653082915581,0.804812109673757,-0.0141008919883286,0.168428802351942,-0.221816557983418,-1.01521633495341,-0.0712496345557641,0.0365359683619755,0.739248377244864,0.179337467266581,-0.214292829253168,-1.08541577674787,0.0779070022356058,-0.292203012497785,0.00719011730554985,0.232821329693632,-0.0415951037375986,-0.910693306866074,-0.149347590334956,-0.0259249103466213,-0.0957384451486754,0.533151880644221,-0.45135826268822
95.795,-0.531112514430651,0.246382179820469,0.812403072862574,-0.00135528181388284,0.185396933997219,-0.21810559223216,-0.998071904371369,-0.0698619904892847,0.0315139149444408,0.775289560449033,0.235982782665639,-0.218605718318263,-1.0819865818481,0.10010740509506,-0.305271491686223,-0.0717300201608949,0.263505140105344,0.0323523316102717,-0.903871024593745,-0.175040051222841,-0.00584797125376448,-0.170753072570586,0.678122916581194,-0.47879844796695
95.8,-0.524364272808295,0.232307236763712,0.820073791917975,0.0213894080977733,0.203324902935909,-0.211769343965266,-0.991746288880544,-0.0459355712079659,0.0395651673372505,0.785577593370577,0.281674841811709,-0.223769883958131,-1.07571977632181,0.118284044433823,-0.304113013385586,-0.155700759746313,0.283148035328905,0.0981441066692927,-0.900322491708523,-0.195999236207449,0.0227222656476112,-0.219083793316525,0.777115053793475,-0.509013383198588
95.805,-0.525751800398391,0.215334403221981,0.857834266677065,0.0558031483150641,0.222745230478412,-0.200400001613131,-0.990848628313534,-0.00762741909863662,0.0586418286996914,0.780263367541884,0.314713896189493,-0.22927650965981,-1.06794750581541,0.131391353597023,-0.292216186681662,-0.242022067628361,0.292632620443885,0.153742474092062,-0.899467557911368,-0.207562972074232,0.0543072380290965,-0.236034035997629,0.831430362213815,-0.539805649766208
95.81,-0.543058841515893,0.203608666123413,0.925786024216026,0.101262945542091,0.242853704448156,-0.182677822317225,-0.986403545319435,0.0318469315430332,0.0802393338508171,0.766467343393393,0.340512541276694,-0.235687765625842,-1.05852237223825,0.139636677529714,-0.271810999144621,-0.327329561211423,0.293237125576068,0.202143025662411,-0.902535238863323,-0.208434242703664,0.083608272279646,-0.223646620531684,0.860078605193586,-0.571936800160333
95.815,-0.551449434869723,0.214017499387975,0.839055283836538,0.158919810884099,0.253424132398037,-0.163458873063623,-0.980354527186869,0.045102393121815,0.0654480806061537,0.715385731084821,0.371354244620909,-0.238579181192178,-1.05478701166585,0.141818105226944,-0.252640739306567,-0.402585515833836,0.288413010531824,0.235911713291829,-0.916993987687392,-0.21462382407713,0.113993643869458,-0.185082862300298,0.852365858250978,-0.594110977018262
95.82,-0.530340009467397,0.238028231909941,0.878920425357026,0.220949102037943,0.270254167594553,-0.156321645061788,-0.985871885006961,0.0434915836841895,0.0403517317043776,0.632191974948024,0.412188863514979,-0.253152849177829,-1.0607488339844,0.136848584867062,-0.224849237969855,-0.495667423753263,0.268340526618966,0.299195034884888,-0.930727180566524,-0.212572615725585,0.136646630993772,-0.124350255232838,0.793514915065348,-0.601193717077158
95.825,-0.518308538834667,0.255917653428953,0.861634420082949,0.263458284714816,0.284919190321466,-0.149578870969835,-0.992475666236881,0.0454181565409082,0.0297918354713918,0.525286393566064,0.451555545835516,-0.272249297342312,-1.06982478156063,0.129260095934332,-0.19809658184969,-0.578958260899501,0.242601786804141,0.367114227271326,-0.942182946279003,-0.209977662786925,0.15778473709727,-0.0733080045482354,0.73062517420856,-0.593831101496075
95.83,-0.511484898187451,0.270326882976831,0.82302378019685,0.289045706701557,0.303326549354199,-0.145829666930762,-1.00416614064383,0.0503049780701053,0.03259170004288,0.419534537661952,0.482144321919972,-0.291749909843816,-1.08010419974075,0.121220392807976,-0.173960056717001,-0.650129379501114,0.215404724348883,0.432037942488719,-0.9546230955455,-0.209452472288006,0.175652145388725,-0.0327468071764393,0.671263840486694,-0.572364015503759
95.835,-0.505708294061651,0.285938804585386,0.830965277582497,0.307932766159619,0.329485629359322,-0.146893785651749,-1.02382832922417,0.0513637765623232,0.0378166534364638,0.336840447683677,0.498490892392841,-0.307897881281675,-1.09063443495894,0.11382235308015,-0.152221584374435,-0.715640492222565,0.188041732339582,0.495211247763594,-0.973232472257061,-0.210670123454616,0.184730882563289,0.0121576325440076,0.602036150341797,-0.536814667272879
95.84,-0.528083610111692,0.294793969109458,0.842755099882296,0.331654878085878,0.347733399203736,-0.139594677713983,-1.03055681005645,0.0458784735704713,0.0330401758863976,0.256513050825891,0.503967725441163,-0.317025980896913,-1.09032261353168,0.108712970604339,-0.146549843363788,-0.760901938249667,0.160696297408904,0.561217513635423,-0.989225681750691,-0.21754439987336,0.18063244840496,0.0875638983097369,0.511225699315304,-0.481766710372752
95.845,-0.533420696585572,0.292012405055061,0.835740448520395,0.356139129617533,0.365527263926811,-0.143632981933055,-1.03296079694846,0.024669421739273,0.00406425183832213,0.181578715523163,0.523072667998263,-0.326765646669786,-1.08306576123854,0.0882513974238532,-0.150039674231999,-0.788073200818397,0.131272374269336,0.60525117804355,-1.00016691597905,-0.222444044596555,0.171943664538275,0.142597596385577,0.448318424359545,-0.448342393847692
95.85,-0.526551967205653,0.288324948122273,0.818615120570408,0.372927519054253,0.391970650675664,-0.140975955545214,-1.03548338975191,0.000228108183184382,-0.0267968245775853,0.125841356334769,0.546046023700695,-0.331291462308702,-1.07092108301888,0.0626030255173211,-0.156906491477831,-0.771073008648576,0.101360973249527,0.616881223380927,-1.00877245298849,-0.232775293758683,0.151028601113984,0.188786872170771,0.377527513014302,-0.418730710510143
95.855,-0.517280934863067,0.291775816123742,0.808009406622932,0.381341177625021,0.423053967804318,-0.139502322268224,-1.0393906858297,-0.0175370346988996,-0.0480246723090623,0.102294777074053,0.562110062376054,-0.330842588409393,-1.05379507221492,0.0346253142289709,-0.162458934343509,-0.71386309520235,0.0787621098770273,0.60464778547974,-1.01662089678641,-0.243485453067682,0.126141418660549,0.225495623428504,0.303315126621105,-0.396966861585193
95.86,-0.516223367316683,0.298940284404747,0.812698691274457,0.386317428754038,0.452609612043473,-0.146343792420248,-1.04432548158987,-0.0243138417377282,-0.0574911975744289,0.116167865609848,0.565247990278907,-0.327376871094268,-1.03145879221856,0.00362308687903676,-0.161966469824953,-0.632614442372747,0.0718693393017125,0.581664894354556,-1.02434119563158,-0.244379914999354,0.111149127830505,0.245513820902551,0.246740855613684,-0.396380504711424
95.865,-0.535600612031383,0.259752233429352,0.805118544755812,0.406185801473501,0.479797915582079,-0.140069571470088,-1.04696444983735,-0.0364922225841786,-0.0802816840653069,0.157992603907162,0.570476074595108,-0.319011925985514,-1.01409391648465,-0.0319105845372222,-0.14773657257571,-0.564608309253967,0.0656869607073083,0.547661827795166,-1.02756342704337,-0.23524822613988,0.0943824276506343,0.238097021555963,0.18316831932492,-0.403797304058012
95.87,-0.550075172355277,0.296994157144944,0.801618077171821,0.405256702494417,0.485620787983795,-0.135199112192844,-1.04742370057051,-0.0538875149485414,-0.0955177007113109,0.205637313297043,0.569910679169852,-0.305885223221548,-1.00047186089043,-0.0627604162612457,-0.136646624698572,-0.51123415528294,0.0711797819043392,0.510550778890614,-1.02501012835049,-0.226952130465733,0.0810179147973821,0.2261861904617,0.131030649416155,-0.412288217534225
95.875,-0.554619459179478,0.296381168049862,0.807583575253669,0.425301463856981,0.504237701841698,-0.129402073634539,-1.04835408842333,-0.0652113835633347,-0.10557556846468,0.273022243243759,0.56127396656666,-0.290287784191605,-0.995530625026869,-0.0797004467745068,-0.128369460721065,-0.469430307005816,0.0823458056219977,0.478724193263395,-1.02459556944605,-0.215496514862853,0.0745941815206292,0.201031367345716,0.0886587905510074,-0.418137088022316
95.88,-0.54347406585616,0.262285397155346,0.823172478182023,0.458372514129084,0.519926612550402,-0.124861730387618,-1.04428451924904,-0.0770872156122076,-0.120098295418158,0.337368851394638,0.559685364009765,-0.271836295695116,-0.998984778215559,-0.0826333807204321,-0.119418835168864,-0.434308645812789,0.0958813746930754,0.4556347252344,-1.02545521902164,-0.20718953824521,0.0724314242390357,0.170087361092029,0.054532499219582,-0.41667764039084
95.885,-0.53064024263987,0.217869037483085,0.84560209756114,0.507879785047144,0.527025987896751,-0.120671166080175,-1.03499674553382,-0.0884851687617544,-0.131371132791063,0.391663204879679,0.568298028275098,-0.25340386281001,-1.0075615789746,-0.077087042147911,-0.106993988785544,-0.397306769002444,0.110725278293782,0.440054151334307,-1.02444842068774,-0.204708771469102,0.0711374164089754,0.142545980128879,0.0252104574093375,-0.406580487316447
95.89,-0.545624888000562,0.187137071542341,0.872153231797245,0.599159365517562,0.533332904261622,-0.112825575309584,-1.02671138413588,-0.0845466098166978,-0.107966729538539,0.456501003537715,0.572300742526579,-0.241055943409865,-1.02125912308523,-0.0643870478604484,-0.0896852280062719,-0.348433497731178,0.132107323608312,0.43089044867565,-1.01774220397736,-0.197930870304469,0.0726073824734466,0.118104487860041,-0.000249423642392259,-0.390286167418219
95.895,-0.570958760458949,0.24357980490643,0.87068155896915,0.691034273096036,0.499234983744093,-0.110931247675575,-1.02446314339514,-0.062999604608384,-0.0957670131033646,0.518180679463585,0.53054833511921,-0.22112866331729,-1.03630280559316,-0.0692023679314503,-0.0689103544727139,-0.314598275833226,0.146611901589372,0.442266807798451,-1.01984508609228,-0.193056528400593,0.0705872647386294,0.0965313154320363,-0.0154401099008474,-0.372549284388518
95.9,-0.565423026114852,0.266605133129548,0.866456520998404,0.725245544051231,0.444003950838187,-0.133482346719695,-1.0140028673716,-0.0512983633655644,-0.104103831863267,0.574207260417241,0.506014715410822,-0.204618222234246,-1.04495866896403,-0.0814115109609883,-0.0415266298711217,-0.274077998611592,0.166566886540145,0.455620929766389,-1.02058022880739,-0.194082694160593,0.0702592416552113,0.0839115185001494,-0.0273036983734291,-0.357678776696012
95.905,-0.557875075894099,0.275020854241824,0.886227166351351,0.723410995744874,0.37411557047073,-0.18550013238915,-1.00331223623198,-0.0340769930669756,-0.115191921480051,0.610758692869481,0.492278818581094,-0.19020816940011,-1.04612680171314,-0.0937765627053603,-0.0152123137399647,-0.252718478441238,0.181433874605227,0.457159265900636,-1.02018545903413,-0.195494425363635,0.0705388160759791,0.0777865067574095,-0.0368757950399931,-0.343175536574011
95.91,-0.552037047943187,0.285565978409884,0.928819413117318,0.694888687987359,0.294420098640689,-0.233311997830967,-0.996466811437177,-0.0112895326409406,-0.118226262781177,0.621035852999962,0.474337473188036,-0.177878491693245,-1.04076202156517,-0.104540533108345,0.00614444509536662,-0.255435795245912,0.187495011751577,0.442116813211226,-1.01996656120983,-0.19563246485842,0.0712098506534778,0.0763113192334643,-0.0431330761197201,-0.329368614516826
95.915,-0.535015501959697,0.307799391770364,0.977831268227464,0.636518800846943,0.20641623880385,-0.231516001809093,-0.993371141511121,0.00572957338873342,-0.111072364225105,0.60307712976718,0.43572625985603,-0.168899141029084,-1.030659943197,-0.118194829161925,0.0232608969390807,-0.266211016042904,0.188392941341877,0.414280798771752,-1.02152956591456,-0.199902486275463,0.0739909931294329,0.0826081251108728,-0.0413339848076598,-0.32127273378512
95.92,-0.462292646387191,0.273224677301721,1.00336311861015,0.518297301667441,0.0893554960103534,-0.287367163609798,-0.998493219038849,0.0188685293781746,-0.0542505457424185,0.558172659554999,0.381665024507235,-0.161585751207782,-1.01720430193829,-0.133779593601695,0.0305387643406311,-0.289726765254415,0.180445003059341,0.376401229420546,-1.01581264973507,-0.197118704285072,0.0685722539378271,0.0860097661494548,-0.0314284282108709,-0.30884629974754
95.925,-0.40891501660639,0.210288638186633,1.02043118142667,0.46144254577952,0.00626165314438519,-0.346069009813227,-0.999473150840546,0.00131847474336993,-0.00724216586731314,0.479299538816737,0.315536017569552,-0.158233493920614,-0.997112231466281,-0.147007627650608,0.0246403178983967,-0.275544264373672,0.170036045530601,0.329035448046001,-1.01115825383107,-0.192563415384147,0.07074085298647,0.093509554327278,-0.0302692306879157,-0.292755739905536
95.93,-0.370351950151321,0.243449471270831,1.00600152596314,0.434642044736049,-0.0726016257167568,-0.365965948871829,-0.997974818819879,-0.0312057471696517,0.0155080257758361,0.383287345702506,0.249668758697893,-0.157699689856355,-0.976561944522469,-0.158553676316662,0.0087197430140253,-0.23228232896461,0.158531369877126,0.279671936072408,-1.00650133610077,-0.190849862253533,0.0738255668838679,0.0979695669225754,-0.0321385595606884,-0.270905082504124
95.935,-0.341576506193353,0.35619254353879,0.974106286652179,0.38092952065651,-0.148854231286169,-0.349562679424466,-0.997722425051153,-0.0575129317229715,0.0208336881323162,0.296899800268976,0.189573771548385,-0.154513393777299,-0.959450114679166,-0.170304704143713,-0.0127754676865733,-0.183202604575952,0.146692487556556,0.232627117663483,-1.00049575488071,-0.192704005902159,0.0724289133118642,0.0960107074931688,-0.0326225241289814,-0.244322059446065
95.94,-0.31863575210461,0.40567079168188,0.971074518696381,0.244070333165781,-0.200410774440666,-0.340188754172023,-1.00269242139217,-0.0569094997114463,0.0355201719070009,0.250964255537953,0.132388695624544,-0.140451488362018,-0.943697176969673,-0.18428985904111,-0.0363454372906978,-0.153001650050617,0.135367133926331,0.185438109670009,-0.995017214780466,-0.191069600495261,0.0729593236667952,0.0978993099736329,-0.0382883315703739,-0.221658829680495
95.945,-0.282620792928369,0.378819798795426,0.95575111312075,0.112488977932174,-0.233896572494694,-0.327052268295078,-1.00666465627275,-0.0581632514635096,0.0431673653984424,0.197422071304193,0.0429627386396894,-0.121315537967939,-0.930150851463377,-0.195081002467989,-0.0634671518024172,-0.12160812102751,0.132818948114653,0.124346085837045,-0.994192265791868,-0.188770407667924,0.0801425239070924,0.0904668239310845,-0.0254420263271773,-0.192709161795785
95.95,-0.281832756263702,0.36830834633125,0.926230365486274,0.0723135536468441,-0.246344655529355,-0.268370441848011,-1.00066718382435,-0.0624064731045031,0.0390112711303916,0.152920667910972,-0.028617391083593,-0.110911165117388,-0.925779317947022,-0.205895396191169,-0.0870480594800476,-0.107036894717551,0.137276640714469,0.0691212452811067,-0.993465522767169,-0.182782158020642,0.0875985759396334,0.092453034159225,-0.020170318107909,-0.173491494028617
95.955,-0.285758152817146,0.386433977023597,0.893994354900013,0.0488765902711295,-0.247311129970455,-0.192779255502061,-0.997119867265236,-0.0655506837236652,0.0358368647571258,0.118735476095048,-0.0810199964046102,-0.0959533462990629,-0.929238620880669,-0.215920455796375,-0.111428395817952,-0.0999751965050358,0.146783841197288,0.0242615425385037,-0.993453649119487,-0.175784589098821,0.0971933836382878,0.0946210872966129,-0.0205714550855639,-0.157435075001815
95.96,-0.276451127864914,0.396591678605584,0.854194784338901,0.0145565514803316,-0.24465049803257,-0.128628253556408,-0.997923531670674,-0.0642605716841608,0.0353145516474561,0.0925159152995916,-0.131425965835748,-0.0731825134459915,-0.938879932983642,-0.223134301341514,-0.132855136829695,-0.100903876725081,0.160675112341559,-0.00440101799544827,-0.99261794059432,-0.169193363653895,0.110418069537792,0.0919775309012325,-0.0268636789316963,-0.142103833510277
