Header,foot_Accel_X,foot_Accel_Y,foot_Accel_Z,foot_Gyro_X,foot_Gyro_Y,foot_Gyro_Z,shank_Accel_X,shank_Accel_Y,shank_Accel_Z,shank_Gyro_X,shank_Gyro_Y,shank_Gyro_Z,thigh_Accel_X,thigh_Accel_Y,thigh_Accel_Z,thigh_Gyro_X,thigh_Gyro_Y,thigh_Gyro_Z,trunk_Accel_X,trunk_Accel_Y,trunk_Accel_Z,trunk_Gyro_X,trunk_Gyro_Y,trunk_Gyro_Z
32.86,-0.308172109663852,-0.143214916676381,0.964541877191506,-0.0396927781403065,0.192265369422687,0.0362981801507855,-1.04131797695217,0.0813530774937083,-0.247223563513423,0.107516068474005,1.25631491206604,-0.36706967136889,-1.05106588038587,0.0898055105686392,-0.0947865055753087,0.615363499635204,1.35888279213574,-0.284798902745438,-0.912856371531763,0.188760072800702,0.475733242920252,-0.131360868682399,-0.212065387353226,0.075281224403188
32.865,-0.309812235851212,-0.146791903921161,0.975304440976771,-0.044221608088533,0.249225465475905,0.0177019971063363,-1.0573509852507,0.0786351831725708,-0.248364949909856,0.133937941336452,1.31293592376988,-0.385435141369568,-1.0731426518798,0.135095578809635,-0.129891417685441,0.624529641480507,1.33797410542994,-0.325709634776713,-0.920875935253624,0.185742905200704,0.481863892462224,-0.114249642664625,-0.177215825702459,0.106805921243794
32.87,-0.316771760577536,-0.160900554582037,0.972635120294594,-0.0398100953659722,0.341414732672205,-0.00361465256431807,-1.07191612065052,0.0522875119451502,-0.261103467133092,0.154877192737077,1.34212798617144,-0.395366237277887,-1.08615365293344,0.177583676435451,-0.163693602366892,0.5954774970338,1.29478408274556,-0.356106400943029,-0.929115591149009,0.176401891941371,0.489013270102698,-0.0828770052618868,-0.145193975664255,0.140838042080161
32.875,-0.304062268922036,-0.152732532570473,0.981882065153443,-0.0161752290425451,0.417042886217435,-0.015858055549857,-1.07482835115171,0.0398643777120329,-0.271391516214642,0.21593102371692,1.37975129403041,-0.40226400932605,-1.08804778185262,0.193411793730939,-0.203469399307064,0.522482707948743,1.18611387708325,-0.377108208095007,-0.946205987864245,0.184497906201783,0.499340764260274,-0.0283218217787538,-0.123696746909477,0.174048040902763
32.88,-0.300376493487948,-0.1505126578021,0.976730871783724,-0.00702973471179826,0.501663363406062,-0.035034692456368,-1.09040962133372,0.024691959715315,-0.284627503603562,0.278485121214979,1.4137672306477,-0.402502366826106,-1.0868902240408,0.176382029492359,-0.235019237087948,0.447478771277205,1.08042758147899,-0.383961379528046,-0.966281335324104,0.188274851622924,0.52671544886717,0.0498359826687919,-0.08098228827722,0.224422628387572
32.885,-0.310821615498859,-0.161979419383685,0.98081061430788,-0.013825226345839,0.609721920197602,-0.0493410756823569,-1.10582971520772,0.000410112558756213,-0.294215828830209,0.333722320489308,1.44464330251049,-0.403971861788927,-1.08199717232665,0.131013706313399,-0.274819741894838,0.366975806770233,0.966249053371444,-0.381203395428714,-0.976040574766242,0.182748882178101,0.550489222414122,0.0853818516627634,-0.0558762071325945,0.272776292817065
32.89,-0.320312641918993,-0.190451599679191,0.987397248808673,0.00396661966072384,0.698174593564971,-0.0371191592025483,-1.12181040097171,-0.0298608861377814,-0.322004266511873,0.401102281632731,1.48398410564591,-0.410052416335999,-1.07812033906823,0.092860781788894,-0.284166346952809,0.315383210230727,0.890492117012336,-0.376093655018971,-0.990514650271061,0.171969190145176,0.576196078344753,0.0971803125549468,-0.0355312192613085,0.326692975954812
32.895,-0.323524504734084,-0.199078123008869,0.994504565628476,0.0282158262440606,0.83678276685709,-0.00876273599979931,-1.13527726267931,-0.0544552406397321,-0.353818095341741,0.456868462315861,1.52031199035407,-0.42225792757394,-1.07006252920973,0.0337220765904535,-0.294958633740225,0.294175933524698,0.814615191664874,-0.362391006293095,-1.00675753314886,0.142862748399495,0.604488133149633,0.0865586864011696,-0.0237290321513811,0.380682105085826
32.9,-0.320807053720437,-0.212469232143847,0.995207423094323,0.0597931474604541,0.946633016520588,0.0251830327215042,-1.16388861434116,-0.0572811925817968,-0.38263276498909,0.480986154010196,1.56617558648441,-0.434710428314708,-1.07313719016391,0.00388087895555566,-0.304541244771742,0.305791848641207,0.776712155152277,-0.344596906028455,-1.01981064002265,0.11980743687224,0.623956270427689,0.0762372799246534,-0.0183954279260927,0.389608047079821
32.905,-0.317212000234294,-0.236757516174351,1.00546870678224,0.0834652025255064,1.07989370319958,0.0681616654199497,-1.198110048781,-0.079363854882174,-0.402294306379777,0.480785146002393,1.60207733773622,-0.46562518099284,-1.06858209293021,-0.0318167440357616,-0.32339339279262,0.365607392326494,0.741976039816882,-0.320551373724166,-1.04241152977704,0.100219554369837,0.637798457003219,0.0655583872556428,-0.0142397657036781,0.374746947035503
32.91,-0.328714280202843,-0.214500531717365,0.99315195572414,0.147753508536049,1.21996387512479,0.114287639780831,-1.24159771981342,-0.0831139756149766,-0.414307924639402,0.490034072579733,1.60655128410162,-0.494536078518519,-1.06066641529544,-0.0653968268187888,-0.334600327841913,0.437176540134557,0.729494708455126,-0.302188297622192,-1.06557141815118,0.0929548606839792,0.647994553152251,0.0589932895773399,-0.0122235285910643,0.345338910383216
32.915,-0.310761959223814,-0.224568499724367,1.00811508254159,0.158760913442373,1.32792716834855,0.168554033774145,-1.25174687405718,-0.132726176880721,-0.414186997376755,0.515307176468443,1.61100201106544,-0.513594521351394,-1.0441533760194,-0.132391189472847,-0.343483173440932,0.549444084340538,0.736621239820696,-0.299217106992679,-1.08677877864987,0.10350650016607,0.649757894519737,0.0665425577986817,-0.011995560067828,0.31340443322283
32.92,-0.346752685788474,-0.275770456271714,1.00748536521782,0.198515626949063,1.46625711433209,0.226570738927606,-1.23834025094292,-0.160357175463699,-0.40095153565467,0.543829224555662,1.62141183667772,-0.520475891110589,-1.04207482477462,-0.181402651582467,-0.339808379367212,0.676700365792698,0.770121310561519,-0.317435351782252,-1.10906946390714,0.120874538482089,0.65375430161268,0.0734519633578977,0.00511815229679024,0.286778019440112
32.925,-0.342679271426115,-0.251456040102654,1.00463747868206,0.257137238888109,1.62688346298825,0.322653983692194,-1.23754573054649,-0.175646145085865,-0.405294233634627,0.583471697218121,1.63466871902572,-0.55243144388428,-1.06540857730091,-0.184962114171993,-0.330777661600546,0.844737716037761,0.812885199717199,-0.360280997733437,-1.12823159837315,0.139487867258865,0.660595601735472,0.0752762599989613,0.0270823953702375,0.261826059115179
32.93,-0.346627688720536,-0.257280600485827,1.00417278403215,0.294722132415277,1.78128735293203,0.405109042367698,-1.24275028595274,-0.171568037536866,-0.412904754071703,0.612376888070964,1.65834867265774,-0.594310418967787,-1.09805205060178,-0.164676327840203,-0.310145254060716,0.972268085702995,0.865283596659088,-0.411492112554743,-1.14304742843519,0.158161037442519,0.667165891184567,0.070135952687255,0.0480239557525152,0.233816703458682
32.935,-0.340984339142666,-0.231532294744148,0.999461504696875,0.336966526566828,1.95767205687087,0.473722106836073,-1.25636599262857,-0.155582442898803,-0.40241547590512,0.604525606338542,1.66860848613672,-0.628869584382962,-1.11367081997241,-0.130112574476294,-0.305544497707619,1.06815892670016,0.881896611083367,-0.435551578298539,-1.13607072322239,0.164154408050764,0.673830422221968,0.0607939704003092,0.0727134577596042,0.192049689471964
32.94,-0.342852886188219,-0.226376805697357,1.00599610293977,0.368433706934184,2.09521959089541,0.52442121150733,-1.25868517139719,-0.125120724348161,-0.373885740967018,0.594116036796308,1.69588929502162,-0.653766768972768,-1.11883110522937,-0.09145612776421,-0.296975371346087,1.15996256108529,0.85933641730926,-0.441020459463112,-1.12456689928962,0.164567141559023,0.671343981165506,0.0719017811641749,0.0810491770732822,0.150813690579813
32.945,-0.354813912205909,-0.233754065092221,0.996763430563281,0.397120752455329,2.27421269107876,0.58164486254408,-1.25178664840453,-0.122509331016601,-0.372829838730112,0.587546500148509,1.71119372961275,-0.682136952484426,-1.12331871219774,-0.0553927716194351,-0.284127344292784,1.26615074602849,0.820488602364718,-0.438124880455589,-1.10235610481919,0.169858825449123,0.671208673104545,0.0715142476965592,0.0913544535036226,0.108326264950411
32.95,-0.356866641699505,-0.220967980657587,0.993560507954092,0.430579576564262,2.41962364213226,0.624038810154505,-1.24621580083022,-0.124505556202484,-0.379079137234086,0.578761663935794,1.73790989593342,-0.715441267677352,-1.12137698629805,-0.0465157333719808,-0.258074626994279,1.35198140815579,0.786397853130813,-0.436494261026382,-1.07661683115433,0.179523335932649,0.671069901236786,0.0669381798839501,0.0878353658053898,0.048549371579061
32.955,-0.356888849636866,-0.198837677359975,0.984125482807287,0.48624814330647,2.60996291480227,0.669096770855233,-1.24407439300567,-0.116469440582497,-0.36256857181302,0.570489918209378,1.76629981137462,-0.73035162102418,-1.13386737265434,-0.0505036795479684,-0.227533421500992,1.43617766536159,0.737310259525875,-0.43802794268258,-1.05472388313483,0.182397733729261,0.670912720507331,0.0470191151223182,0.0837064121624842,0.0102580212273492
32.96,-0.371328884724733,-0.189692014318241,0.980506404300311,0.506631820386873,2.78077595640542,0.730608231620477,-1.23880458128351,-0.108547223305651,-0.339922629545806,0.598157477760198,1.80505681292998,-0.769578349971655,-1.14392044008686,-0.0447774588526289,-0.208101433994023,1.52941553403749,0.691244083166186,-0.444813978946737,-1.03219301817443,0.190412116533492,0.684055525005928,0.0238273363125689,0.0620705924609753,-0.0211833777066498
32.965,-0.378722708839218,-0.157821887436559,0.968315615948736,0.509816166693006,2.9830899733386,0.766832712133745,-1.23837779731071,-0.0938748890431124,-0.333306654443343,0.633801147171823,1.83375697314228,-0.804552750982862,-1.15299349387682,-0.0115213909436629,-0.181999790888721,1.66026183268801,0.629524746170144,-0.447162538900861,-1.01520954094363,0.19439253115606,0.689414670102439,-0.00992702585087973,0.0355961422499349,-0.0472131867719994
32.97,-0.381687978067671,-0.124481371042645,0.960663735972033,0.489450086528649,3.19159375247122,0.798378658832146,-1.23943966838282,-0.064151673045167,-0.340168308646333,0.670763587553124,1.86545528106168,-0.851507202406254,-1.15655758296054,0.0400782603382416,-0.155624651083373,1.76007987205628,0.567632003432472,-0.446034372785902,-0.998181545382456,0.196556122084887,0.695424268356905,-0.0256348751442632,0.0158953763815589,-0.0663740518951974
32.975,-0.394584836035192,-0.10393528005123,0.961372448772021,0.46560221239134,3.37920217875234,0.814204214632134,-1.25035523822544,-0.0433972445417374,-0.337167043091862,0.709316867934551,1.89215011461648,-0.898737305072197,-1.15259633833489,0.0835233970610273,-0.142105979798012,1.82390795127146,0.499113763819551,-0.445000984447967,-0.977881418033106,0.199768123002963,0.696830099472911,-0.0636196343351746,-0.00014593628045678,-0.0851700627908039
32.98,-0.41319612638194,-0.0741366037195077,0.948164827308635,0.404292175038247,3.61584981372477,0.812855688181761,-1.25299990465384,-0.0231670466685319,-0.327005836350246,0.730891687343363,1.93502140028734,-0.938448834862871,-1.14590387601217,0.113486926614488,-0.124560697553371,1.87429783372613,0.412643151339778,-0.423730557518292,-0.957065327677868,0.200134545644854,0.701708104086287,-0.136504123849234,-0.023907550946839,-0.109280054028953
32.985,-0.427989790855645,-0.0745166094459135,0.944892492837102,0.335069620887646,3.81216359740072,0.797583993279084,-1.25436022772551,-0.0248640193056996,-0.315234566223169,0.763955490321701,1.95951400588757,-0.958496653027292,-1.1379518468545,0.114057592716985,-0.101448999194605,1.93954403287982,0.344512672434138,-0.418329695946988,-0.935078689985578,0.192899132633361,0.699127214324351,-0.151655419272096,-0.0380829545193206,-0.114727541045068
32.99,-0.439694610200177,-0.0468532748246257,0.939475331631076,0.237494615387207,4.04706467317356,0.760874917132531,-1.24926346688076,-0.0299381891454375,-0.31063782315535,0.831866212733999,1.99468958812537,-0.992116285784054,-1.13932628535834,0.101578569792098,-0.0612664334411256,2.02510706774754,0.282723839248653,-0.427333583777815,-0.908938668622703,0.189270871073667,0.696248449528582,-0.102192244182675,-0.0437745632906112,-0.124334056433556
32.995,-0.483065516342103,-0.0302170647900978,0.916743383514925,0.174892286921748,4.18956507118292,0.727445092389795,-1.23452860251922,-0.0310945280205453,-0.28403780936858,0.889290736717352,2.02352703404509,-1.004296850583,-1.14305016474534,0.0909435904846983,0.0260713979520465,2.15394700232767,0.0972861095826274,-0.463097579561284,-0.884651297137827,0.186455469079028,0.691599421905216,-0.0748559715486038,-0.0443261613312333,-0.134407479940281
33,-0.506135386040059,-0.0265355313435859,0.902148542817812,0.124208432799654,4.44152114856875,0.647675930997565,-1.23299218292346,-0.0361310299685672,-0.27912858865074,0.961716747446444,2.05880677436417,-1.02941383256655,-1.15764385589745,0.0662164082869494,0.0911642138728698,2.21891026543014,-0.131881547330044,-0.506340164090298,-0.856324295487185,0.189937504761095,0.690187948647454,-0.0526775091111862,-0.0580431406377537,-0.132547954294204
33.005,-0.512711152434498,-0.0472969506192628,0.869379216305303,0.126180276481901,4.6549213492436,0.582241702910723,-1.2335685359395,-0.0452704739540201,-0.256727442720643,1.05497490799287,2.09382632886722,-1.05054539480239,-1.14418983849481,0.027859132919493,0.127517125567666,2.21485072230954,-0.384645487603414,-0.574569475945669,-0.828079708084462,0.177294007136231,0.683986275641362,-0.0510189794003963,-0.0793492709844407,-0.127699752494004
33.01,-0.517501207217276,-0.0652834313054138,0.857227128846231,0.132963625539231,4.92878891126089,0.52143551678514,-1.23537406404592,-0.0525706213392114,-0.236475253573588,1.14336637752869,2.12461907075444,-1.06676677071353,-1.11637296790895,-0.0261954712328382,0.154793542508851,2.10926394470176,-0.53894829873347,-0.658579090726664,-0.808409370687345,0.162009137045715,0.675237528601216,-0.0278639374970543,-0.104656034161235,-0.126623887305214
33.015,-0.518801690400127,-0.0296259681530376,0.884292489302696,0.167995288968086,5.18141155586007,0.473366516287709,-1.23847219125918,-0.0843089872261409,-0.201441129094414,1.25375383897303,2.16910778982421,-1.08482069504993,-1.08891962714422,-0.0826304742082504,0.210745105268817,1.98190893572065,-0.623937464341926,-0.759410739865059,-0.776349498706397,0.150233653043564,0.691201902114762,-0.0160698048230129,-0.12043264933655,-0.140612852357123
33.02,-0.522271956096066,-0.0848649676455196,0.89224935453326,0.172727413359705,5.53871036121043,0.48110947597596,-1.28063473946964,-0.133865518825706,-0.160423446835241,1.38237253960045,2.20135895533851,-1.10878613836571,-1.03529404209386,-0.139264100233226,0.207803325385152,1.73756437374776,-0.683475337961891,-0.896654541146579,-0.751445668007193,0.150190774344667,0.666698913440685,-0.0445493844210334,-0.123985917965014,-0.135975383455718
33.025,-0.540684177642636,-0.0686864353457153,1.02683356088626,0.22540696232745,5.86066671313424,0.474759814282559,-1.34508653068688,-0.153707285932413,-0.121105014505781,1.51653781883856,2.21781925013359,-1.1663658960765,-1.00737811524586,-0.170981186776382,0.116564889029162,1.57340912426989,-0.553445161564775,-1.0082393113554,-0.74004608993623,0.139994333212818,0.545953753705768,-0.0943788152860895,-0.169848302695919,-0.102458061337224
33.03,-0.501140740347969,-0.104114426143046,0.857605025445987,0.224415108975114,6.21418154380898,0.425756392068425,-1.46497167799389,-0.155630142185481,-0.108675205810045,1.70035195316622,2.25515291557591,-1.280288030566,-1.10471001423839,-0.139291692156878,0.146996455384772,1.70171412794482,-0.24768573774804,-1.10775308435197,-0.767068957669599,0.113872574503857,0.435815857485595,-0.155509713973919,-0.273891429810937,-0.0439741311537482
33.035,-0.593108730969226,0.0363894251454285,0.927095782513046,0.142210118597721,6.85190254184677,0.301835756462526,-1.5516914179228,-0.158171922782393,-0.120261901217603,1.7970055310981,2.2828193167221,-1.3539277918082,-1.41633644926231,-0.0439469597701521,0.342420977551781,1.83261907892368,-0.127872022436272,-1.11711358967758,-0.878955684375544,0.079577106167002,0.405657476267082,-0.215469482759938,-0.437780555125174,0.0297863498587852
33.04,-0.560791365718689,0.0490110358132448,0.955243533827026,0.0499316011921763,7.27683740070062,0.277780878030337,-1.66156102589112,-0.134725063752644,0.0163912043558942,1.95163870820274,2.3466176417734,-1.42868983513865,-1.63459226044672,0.0103913065859194,0.48667510712802,1.79554026806342,-0.288492479049694,-1.04948457187343,-1.09898993326215,0.0756768360264697,0.42863331171236,-0.199519278856662,-0.655903910713273,0.045196361353678
33.045,-0.526278580896306,0.0387098636631498,0.911053659206534,0.117209835553605,7.7428207589113,0.194645451479984,-1.70652163223086,-0.0631069601048102,0.145916349227393,1.980180841129,2.39999755606626,-1.43286398906399,-1.6357451588492,0.0416748855308358,0.472560760812711,1.57519084083526,-0.590428153962294,-0.94029310209048,-1.23893294411645,0.158038825036842,0.447240020595627,-0.0586131713927943,-0.715595570664405,-0.0307425770891168
33.05,-0.567836563611998,0.252590148295233,0.982685807857521,-0.059778221541944,8.35856920477122,0.00289861061436017,-1.70557565637694,0.037590934953604,0.240088532618274,2.0977832464974,2.42396546828115,-1.4370242392703,-1.50994904747782,0.0418430486626322,0.470643665527918,1.45313326183983,-0.787948387536553,-0.887506002741548,-1.28920399226307,0.263689222002306,0.429305757480035,0.0322123020770606,-0.614565466463774,-0.102813305423567
33.055,-0.553387229467591,0.389300021176203,0.962261884387032,-0.274262777491712,8.99239896491813,-0.143502278089287,-1.69943744363442,0.163270490192236,0.3290828340155,2.30848205821651,2.46141246871906,-1.44638593312218,-1.40860614399315,0.0345238122302754,0.527112000284842,1.5322562742899,-0.946390793176334,-0.91897115969383,-1.2284361446889,0.320593791909315,0.329817909915194,-0.0718018130899244,-0.306241370994406,-0.0779287529452085
33.06,-0.52412842900667,0.489194347593567,0.99149908277723,-0.602662501334915,9.70087384888186,-0.213489691303377,-1.7568034920483,0.345983845013191,0.429563584907859,2.46056818494492,2.51126286308565,-1.46505554198092,-1.40305906917046,0.0513268261890506,0.526081040731958,1.74877129879675,-1.18060552981565,-0.994765598785123,-1.13530141068827,0.290464643071891,0.211651740470664,-0.33265406018071,-0.152799876104111,0.0333188080513486
33.065,-0.554625924837633,0.598639710638609,0.955370683038121,-1.24206397364702,10.3460994358954,-0.260650726877681,-1.82973759205494,0.560562142647717,0.524640136271219,2.52598958287485,2.53511823518834,-1.4990470698777,-1.47848073522769,0.119386470892331,0.521426214761863,1.88417399511403,-1.35420745718754,-1.04130139951519,-1.0786290449038,0.243560957930791,0.120704059335411,-0.568916574737986,-0.253903672063397,0.125937763212896
33.07,-0.581708057908116,0.654719463554429,0.923672387234855,-1.90593665752557,10.8531439289881,-0.408132239757033,-1.86941121422646,0.753076013389193,0.586426916017017,2.49741321449365,2.50097705076552,-1.52117760953086,-1.58127595625362,0.256868201280974,0.530721567552917,1.87347275407725,-1.55220006159707,-1.01648238652988,-1.14489773869715,0.220747577063624,0.0754760076440825,-0.584907135278403,-0.4596204645559,0.15371793929545
33.075,-0.633698852397356,0.605296804196289,0.699321030592803,-2.41676717112718,11.1696078770632,-0.627579623606773,-1.84209314824286,0.894444512144545,0.558983746829794,2.36355284290218,2.38936510816709,-1.5265651027409,-1.62454585672519,0.428787417807665,0.494554989559015,1.75070164850538,-1.74818412463609,-0.895322971972768,-1.30632864067824,0.212418277571208,0.0313274400668031,-0.505123906998034,-0.666405571966892,0.18179952941136
33.08,-1.19911455425497,0.359637401450007,0.372555042456582,-3.58687641071632,11.9771654859951,-1.0225739759757,-1.75084889854708,0.968871908878426,0.389072185780191,2.11918258011808,2.21827512742319,-1.538179713849,-1.53333951905226,0.650748696826566,0.35408780204657,1.4744618972223,-1.87037593634277,-0.632729302312046,-1.48465146932568,0.192121637688355,0.0103561339675579,-0.4156732121346,-0.694931165222615,0.206574638829205
33.085,-2.13591825016345,-0.439453793853441,1.29258291562435,-4.25888176717818,12.3317064419408,-1.34942174949361,-1.57329383464911,0.856529372770282,-0.029483323553755,1.6808541783898,2.02185946051034,-1.58267174121364,-1.43485423307696,0.824357773994968,0.233134541244514,1.26576121277025,-1.87133695276916,-0.417157468217395,-1.60830863723408,0.143993783864634,-0.0101704315328577,-0.469228701900575,-0.544666821210095,0.281217222387433
33.09,-3.05723433880589,-1.02750974368954,2.3507648170894,-3.2863300518667,11.4207427613647,-1.27485818864803,-1.4265247628189,0.66306222428376,-0.468490194186695,1.1354959575244,1.99652026692843,-1.71281670029108,-1.33250520246456,0.988937812301043,0.0152037451191176,1.10818998882468,-1.83530881058647,-0.148990481444966,-1.62736155516914,0.0791780694175435,-0.0428482165697741,-0.623065805523065,-0.35235534544483,0.363944918241742
33.095,-3.33931957363966,-0.405392256191414,2.62406485891546,-1.55275263071203,9.39608077510221,-1.17781673461139,-1.35286059018493,0.52140479877989,-1.05023644776206,0.402221751713261,2.11612813953678,-1.88843407067207,-1.27322012777555,1.09768835940381,-0.235699082150206,0.996752155599214,-1.79036469303438,0.0928875347884698,-1.60837714489228,-0.0142659502684472,-0.0810300833071761,-0.794638956977249,-0.21988098842184,0.462683239749561
33.1,-3.00116619502987,1.34820410040653,2.0093680044192,-0.894665460045639,7.0205254407877,-1.18953441388722,-1.4369770784974,0.561313116589021,-1.32829495995845,0.155255723228592,2.33934206028253,-1.94848323416377,-1.27444279584046,1.16773421079328,-0.516841067024774,0.800986583014516,-1.81241817092583,0.373909295141053,-1.58699489724903,-0.0917204323826119,-0.110733173514301,-0.89867696072724,-0.178142083296625,0.546389730628609
33.105,-2.78967563518041,1.29618951412796,1.81259585598777,-2.03316178920653,5.81445235458029,-1.46402388040236,-1.6064185051198,0.591461498209892,-1.40658239431278,0.306525186159104,2.61642528651716,-1.9057501716293,-1.37141740734479,1.15775337780211,-0.654739656554411,0.504040805417114,-1.9120700145985,0.605731583115917,-1.57890463782547,-0.202720222364622,-0.121941905870534,-0.946796315535863,-0.144410609275854,0.639122439109911
33.11,-2.13991005707275,0.705664511079139,1.61735090697508,-3.47304096294427,5.13888826856174,-2.16010372380761,-1.77964994790567,0.626024704153849,-1.30571305316033,0.583864326778174,2.90564518953659,-1.88391220102737,-1.58523787654698,1.06711788956683,-0.768654946933773,-0.157820677749465,-2.13967102954309,0.886821303319332,-1.56347236886427,-0.34948386547829,-0.134758295169787,-0.925986065316733,-0.0435943470792203,0.696278313673274
33.115,-1.72059790354622,0.304279520325282,1.74365723267081,-3.87591006254302,5.01755211671056,-2.61413535397014,-1.82223609817363,0.72662818202354,-1.0472678897981,0.53527291213437,3.10410307179842,-1.90348018734019,-1.78976093113988,0.874119276322886,-0.853834844487683,-1.08126139931708,-2.38540650273974,1.12839227152814,-1.53564453436788,-0.502978235813175,-0.141204301408723,-0.801801111496513,0.117295517532569,0.666711917806317
33.12,-1.36241905067296,-0.0881531858621701,2.43861413910092,-3.6189108218014,4.8496781420112,-2.74316143289575,-1.68725038258978,0.816538280618007,-0.835718488653002,-0.0730739904221658,3.06957778342034,-1.88803513453042,-1.89435271458672,0.56319204959934,-0.898669146777005,-2.06950644086104,-2.63714048391629,1.26124001424144,-1.50054427941745,-0.587562150379006,-0.124195086317061,-0.539660530788786,0.331795224248295,0.499880408359531
33.125,-1.98641751825202,-0.31733481025011,2.40153825075108,-3.15076186696495,4.06510615856742,-2.8540887226198,-1.50428189957628,0.818787404920601,-0.731175804289985,-0.726820002389994,2.88714590396687,-1.77173158452267,-1.928703961816,0.267625024108057,-0.922196547421155,-2.86386794836397,-2.86678491166756,1.29729540787755,-1.4455298910492,-0.604793652505305,-0.101907496050656,-0.26435946409842,0.520212183560734,0.281669729681935
33.13,-1.78251743382736,-0.896414189436921,2.59729011225848,-2.90790771280574,2.78378760499371,-3.39214089761033,-1.30990358204409,0.656548977005279,-0.920649887732875,-1.36088919534227,2.64509908880631,-1.60651853272252,-1.91153025609641,0.048443328399801,-0.949327828851033,-3.35170733460899,-3.05562732153264,1.27510441409875,-1.38831151506439,-0.564050603388934,-0.0812608526841696,0.0162018171645512,0.654721873527387,0.0565499197079884
33.135,-1.55669208299261,-0.33508271157447,3.2223533318659,-1.76489334233559,1.49268433110506,-3.17892256210066,-1.22752257793974,0.303870468671087,-1.01022013126012,-2.19771105432411,2.30734612232259,-1.53163020235789,-1.81557383186732,-0.0626239365096405,-0.968589806603417,-3.72877525575064,-3.2081643349986,1.22625386248609,-1.30655482034382,-0.481485918139827,-0.0553236058993403,0.354209624159212,0.720588822935019,-0.171680195615858
33.14,-1.22375292991975,0.427691274981549,2.68421864914817,0.121867315681799,0.52318815332526,-1.97520892975046,-1.25639997946808,0.166872990900036,-0.773008717159546,-2.55662548276858,2.04246016201177,-1.57860860646545,-1.83103850866896,-0.103872691508442,-0.956455444438694,-4.0218063291209,-3.21312866414682,1.15999394103296,-1.26161389477689,-0.432369343083629,-0.0307463517810793,0.506066887441999,0.709638807449478,-0.25594539192512
33.145,-0.727511063973073,1.06033459422499,2.36388318595876,0.0558174371801824,-0.238549136686921,-1.97805570120251,-1.25028681310388,0.218347708157225,-0.533174398175331,-2.32739645815589,1.77993035121912,-1.47265376009819,-1.86270313508712,-0.0794701080980427,-0.970246524841883,-4.18259774130931,-3.54171147616946,0.964483814636477,-1.16800415185835,-0.379021167972342,0.00517048828054745,0.741301177346836,0.587867840836639,-0.388072453467993
33.15,-0.461932912400595,1.24464790508269,2.0490017648323,-0.825701347896747,-0.98992022486587,-2.15558153370015,-1.1501386283081,0.173031901305426,-0.257175982486268,-1.76973721087191,1.40219462307106,-1.26503964571558,-1.81049727409848,-0.136932531377635,-0.991164266860657,-4.35394518933011,-3.67503508242583,0.882597493792179,-1.11502618936048,-0.343717134496281,0.0374623108321213,0.909734950543152,0.432226964457341,-0.492010206549686
33.155,-0.369143656774426,1.00804199636228,1.6161390335439,-1.99894110898969,-1.67663136465641,-2.17799262857663,-0.960282858814525,0.128578789024406,-0.0694142915830348,-1.19541857847672,0.918452028826273,-1.13772468388652,-1.81130614906731,-0.211003102858515,-0.957163037685306,-4.5153847506775,-3.70424380633265,0.67057433798645,-1.07450073661146,-0.318294825908953,0.0738037411169532,1.09808344761264,0.262449432682648,-0.611956471817802
33.16,-0.336759133793197,0.756262796901712,1.39899223178735,-2.46685996797087,-2.13897982315057,-1.96742918551903,-0.795500680812411,0.127664325796156,-0.0184019212244532,-1.14856355365746,0.591582253941959,-0.950304530181218,-1.78668601466342,-0.251410337432575,-0.948451002426107,-4.57910993285661,-3.82498605008173,0.518528804103445,-1.06149513584137,-0.308579759618597,0.0962616532986078,1.16422335135356,0.197430563726242,-0.699395653616016
33.165,-0.284488711714085,0.570661028805214,1.28873251014536,-2.47750860640254,-2.42419353524732,-1.65596508408846,-0.695522393825748,0.0655382161981387,-0.0786671569442336,-1.3502099401955,0.376922376204441,-0.819364682715654,-1.74502159276805,-0.29228952466647,-0.94961618386813,-4.33924967728005,-3.84682938160173,0.410803490670573,-1.01778049204387,-0.191490528172683,0.112566919823463,1.23880060232798,0.116176896583931,-0.758511438384535
33.17,-0.198423712197421,0.397002487724747,1.19157890089975,-2.28721305970047,-2.77064714994052,-1.27332824225969,-0.567837257691936,0.0290789982499296,-0.173363930211355,-1.58906848424861,0.0920744926553809,-0.69014482650423,-1.67186932049873,-0.326487691766632,-0.945181329165205,-4.12865548318044,-3.71842021954014,0.357552238656362,-1.02885212103743,-0.112099410637098,0.134639031126241,1.29381879119063,0.0546317572128048,-0.773505992056705
33.175,-0.134126583356213,0.244991753842098,1.11875945952779,-1.98443176472453,-3.07977570686866,-0.998269517407806,-0.469057347229242,0.0138782741857745,-0.239798286542012,-1.66513452386009,-0.149231177267262,-0.579637820043535,-1.59049627984196,-0.397427690092019,-0.935042104788938,-3.8941416473821,-3.67107747071827,0.466608177358641,-1.05668792182342,-0.00962813178763764,0.171741886545478,1.32035513083693,-0.0495984769112815,-0.780391919215341
33.18,-0.0346190556419086,0.214231088843903,1.04736313896444,-1.55203280370638,-3.34782640245486,-0.77056916522439,-0.414711601130053,-0.00796718231612063,-0.210119392753239,-1.64202262659901,-0.32420473240835,-0.467254910329677,-1.49905806016939,-0.456719873145468,-0.930602768589021,-3.67704776523458,-3.57696343682969,0.562662313906285,-1.08409554808769,0.0411565585310661,0.199636225880295,1.26849241774185,-0.0894961255293482,-0.738767320705459
33.185,0.01085372537785,0.259495528161825,0.969809943156239,-1.08968209825336,-3.57302693926753,-0.538089839826753,-0.40193800705723,-0.0742674140423413,-0.1351244374908,-1.56006750358075,-0.469307105632798,-0.433424785573699,-1.46317801207665,-0.492576055820857,-0.885330903298003,-3.42062145872181,-3.43994434428082,0.662193776976634,-1.11223551925995,0.118630794461655,0.227904457817486,1.20935834194284,-0.0747931816483115,-0.632580064763419
33.19,-0.00172750662370796,0.311318100414126,0.892161556455483,-0.770293606036341,-3.82134447782557,-0.337829626414849,-0.412201935770405,-0.130557922308504,-0.111016585691658,-1.4242602128002,-0.729256957606271,-0.37477957607004,-1.41105280563886,-0.537744851745961,-0.837961791833309,-3.13920542648355,-3.25864219034387,0.760410653704372,-1.12223626946692,0.20655537066188,0.257891638289558,1.07512985969482,-0.0243136760972849,-0.488629347966901
33.195,-0.0504068462384955,0.33781732665484,0.809416101059853,-0.625236063032682,-4.07217581218957,-0.160765399582897,-0.393940241212176,-0.164671320361292,-0.141693494201511,-1.21143368339851,-1.02176276645211,-0.281903143877158,-1.38762377113622,-0.554824333372317,-0.790710743333482,-2.99405920009656,-3.14434759414127,0.809796260098003,-1.121269482109,0.27190243391384,0.276117641061913,0.906887846696695,0.0532283500191345,-0.325855129608403
33.2,-0.0446605533157661,0.304630715843859,0.733371694732006,-0.610971873936551,-4.31531353746456,-0.012057600739235,-0.371440228455063,-0.179306019225804,-0.170699226326267,-0.984563190313017,-1.24443096791936,-0.1626778177888,-1.35533422223903,-0.565000855507121,-0.754912193780258,-2.7207064007084,-3.0817428402116,0.863200078029175,-1.11868908359669,0.31268432261879,0.299890679817841,0.623304775213262,0.183008336413298,0.0270365664742125
33.205,0.00322763635647008,0.175264718316881,0.645041738546877,-0.632311396693173,-4.56071364757821,0.138187635338053,-0.35570501557622,-0.186556972728756,-0.180310490119955,-0.74244585558306,-1.49820807571502,-0.0394997801446236,-1.32627933751539,-0.557255197271976,-0.751385235561821,-2.37897418465002,-3.09453841489737,0.892361427691043,-1.10946878217929,0.326848057290236,0.308544807214877,0.480795995206102,0.239425383558421,0.265358282631409
33.21,0.00947384516373866,0.0556276773399466,0.579349035955942,-0.509049851325089,-4.67591749134192,0.208242120358971,-0.343329442368273,-0.173963572955334,-0.185287637635234,-0.519291969098222,-1.74859366763258,0.0746282780351342,-1.26209143758843,-0.547891905533054,-0.775339368100483,-1.97262036338907,-3.10409368600578,0.924150954325584,-1.09576215188872,0.33254684456406,0.30400423111317,0.296879488794843,0.272871992153171,0.550670030238748
33.215,0.0240600269165381,-0.0527051267151875,0.498997283403536,-0.284166265097942,-4.77270957959872,0.275953049613479,-0.323509106570085,-0.136845631861083,-0.159482979100576,-0.384436869743074,-1.99691697222698,0.17417842598186,-1.19473349088483,-0.53215505963862,-0.802516371163769,-1.58257897209844,-3.05355814639551,0.949147445139689,-1.08075291437857,0.320214866094007,0.288627564392918,0.123203545425958,0.270523913212679,0.80937978652259
33.22,0.0246589605203604,-0.0874802188556381,0.431688273808954,-0.0689578502557516,-4.80918919068109,0.318805518890878,-0.299637363594258,-0.117634654849973,-0.15007062402357,-0.336920722675425,-2.21355667154323,0.24944682067055,-1.14247370306208,-0.521157201566695,-0.818694509415534,-1.26871149215753,-2.96236106836693,0.977216382820731,-1.06864961627597,0.27938592595117,0.270168768519904,0.0173105896683504,0.233033712520547,1.00342924878773
33.225,0.0134002592195784,-0.12182319059482,0.386941964005948,0.158863137972673,-4.84424092883362,0.338818641366798,-0.280708539279392,-0.0871812002258256,-0.170498454281858,-0.338031441794412,-2.42800908214118,0.329535726420991,-1.07135401604689,-0.49765835546477,-0.834621919299532,-0.965549324029353,-2.89371121115147,1.01685271982754,-1.048580095948,0.243618123034553,0.243574353701298,0.00712495105742991,0.189911447873647,1.14731230020497
33.23,-0.0395193207794765,-0.145532506992992,0.400390703373118,0.285752554422723,-4.9164331011012,0.314691585982591,-0.234520297119473,-0.0919876021951408,-0.179901070168496,-0.365967553688797,-2.65836199257028,0.428882955979169,-0.998904862658523,-0.475696952439149,-0.847465987477453,-0.741946395374844,-2.82646377697452,1.08910008479125,-1.02793750577393,0.196185020421142,0.207376557566175,0.0326457920097365,0.0547790258758562,1.26379444601733
33.235,-0.101543703905956,-0.169277108112241,0.406672758605123,0.321713489263422,-4.97482307498771,0.296537291491511,-0.185084621712687,-0.124167098391408,-0.18788268230545,-0.474663552453098,-2.86443818594845,0.529761367605204,-0.929583999131736,-0.484239262906278,-0.869548685002541,-0.609358823550438,-2.7383760250004,1.16894182941962,-1.01035557535895,0.149768177334378,0.187332688030209,0.106391116932231,0.208413255257557,1.35584954351724
33.24,-0.14241240100151,-0.160769167953063,0.396818650903535,0.330237953177069,-5.08517487260132,0.254552461851883,-0.164539009295158,-0.151912842394836,-0.179988696957597,-0.649610771400701,-3.01195763206093,0.600013456166126,-0.870937120303404,-0.457175713944787,-0.873879530591987,-0.514956561511026,-2.61585425152903,1.24275376912778,-0.970372434574193,0.127813400146603,0.168516813975167,0.156530603300756,0.235745036750786,1.41104691986551
33.245,-0.161225181229956,-0.155493989916235,0.370005880591316,0.255153684613209,-5.15801655499679,0.242636085262336,-0.157609561081956,-0.193403668367037,-0.165488557544339,-0.8913404913253,-3.20678416466359,0.685517862949833,-0.812051008271528,-0.430580756705883,-0.871189958250692,-0.516508313204971,-2.50036521923367,1.31533089390133,-0.937466105811918,0.094862454407563,0.158330594605887,0.175408993600505,0.294260302085599,1.44990623986626
33.25,-0.160517303879437,-0.141419514869432,0.357387713940695,0.130892538247788,-5.20551723761954,0.241482063706153,-0.187601507298021,-0.233623990598282,-0.160659818688588,-1.11423506256788,-3.38944785472256,0.753286447287397,-0.759911177093867,-0.431940926280202,-0.876945138311313,-0.548182105637547,-2.38577985808623,1.3761842442384,-0.897666467690997,0.0412659755147426,0.143279984899536,0.159414022980471,0.386138566225045,1.4357308585201
33.255,-0.173349078119667,-0.152628696132469,0.377499724107521,-0.0275395922295046,-5.21170250617292,0.27014826348444,-0.245722105001377,-0.273704314556737,-0.154997936696099,-1.32398518030967,-3.58636868017931,0.818281540654515,-0.716625994050439,-0.397062930838182,-0.866784210556877,-0.529782905506886,-2.30018186117816,1.3882665538155,-0.870756948107693,-0.0089656063569902,0.139066661278656,0.140238941173395,0.448194000275676,1.40747378353133
33.26,-0.205883760027268,-0.200605906794314,0.43666338961384,-0.13097873619131,-5.25657993123417,0.349521129625514,-0.293975575079599,-0.315379606846539,-0.158793768199284,-1.43178523498197,-3.75023579423166,0.863134929906257,-0.669502308448233,-0.338386131917657,-0.84579484377938,-0.534633260159866,-2.27458087824487,1.3992074280655,-0.811016946222693,-0.0405325445271572,0.145029599909483,0.0735469963290026,0.46394510985564,1.31757438512303
33.265,-0.253102727794652,-0.197100985733476,0.496381660566505,-0.182485025938153,-5.30197959340262,0.444068190594715,-0.336082962265482,-0.3733135325224,-0.1554505022341,-1.57877590394927,-3.93112999888501,0.895122110843658,-0.647080578456944,-0.295107646726228,-0.81970694554275,-0.583291674615756,-2.303045691328,1.43995297266241,-0.782683489915125,-0.0895997215187113,0.153112765468937,0.0015275077002524,0.466033124893838,1.22440708419085
33.27,-0.309546956288008,-0.205059134290689,0.563265813988626,-0.243137566057955,-5.36695616928136,0.558111308488871,-0.383486283242214,-0.379675308704239,-0.188504954663194,-1.73308364333922,-4.13013335635311,0.900094511234715,-0.636930884258858,-0.255522273805341,-0.792468920382497,-0.681603560888786,-2.37732139682797,1.50983813800996,-0.76893697299292,-0.131019984565288,0.159890190419289,-0.013515942115695,0.455373641803313,1.08113124606635
33.275,-0.384021565590025,-0.282354237548027,0.635146037511823,-0.300996029508319,-5.4726102983411,0.694631206962426,-0.444553342822324,-0.387149265892441,-0.245045254177254,-1.84103495808546,-4.32215010175262,0.902521894445462,-0.632074688614673,-0.239960855221679,-0.781984748409202,-0.782607812114538,-2.40255182205718,1.55779072933697,-0.763655174313823,-0.144045652934463,0.171014565968175,-0.0444642431625277,0.406711132437647,0.903331865965844
33.28,-0.463306202357225,-0.454548482318632,0.703090509447106,-0.265544325452525,-5.59417544334085,0.763353810434829,-0.520293901741191,-0.39934522420026,-0.328642617417998,-1.9565856790118,-4.5289019507701,0.903654917775351,-0.633422666965368,-0.236110598800722,-0.788071128226873,-0.933333537028561,-2.32692967596893,1.58789470581244,-0.752638461920023,-0.155604843111262,0.189065305243732,-0.130684994425044,0.324642925212681,0.71259892585465
33.285,-0.551483468976737,-0.566407443885653,0.722824338395146,-0.0859327083991986,-5.74418013453301,0.804041338079107,-0.552129823681954,-0.407443976191421,-0.379568167479601,-1.99950276862092,-4.71242312657816,0.899156820195316,-0.613936910553401,-0.22700904931128,-0.798864490723821,-1.15213257585811,-2.06880443269864,1.59194773772042,-0.772463505457626,-0.158093456154637,0.206813019098186,-0.159124558367206,0.238136976630059,0.561593037216299
33.29,-0.626334394708748,-0.572868490817846,0.702994256055881,0.154453403330031,-5.88878753384966,0.806053348769316,-0.5675279363824,-0.392597703196679,-0.426944848818366,-2.022277926679,-4.87528393861953,0.909096595669562,-0.599749749041206,-0.237828408357201,-0.819319641427209,-1.36352664255185,-1.7634994076048,1.56301648702409,-0.792650132800314,-0.151500155525662,0.235743079569246,-0.16134567753745,0.113370167917676,0.392860556094333
33.295,-0.709546458443779,-0.43112393692301,0.623633087973541,0.361083475959736,-5.98294871812017,0.787827156499483,-0.574423490855814,-0.384862937457245,-0.466206643191936,-1.99287079592291,-5.04714972218666,0.938191002688302,-0.582828118300573,-0.231891273948767,-0.826055314164632,-1.52421732324559,-1.46442252875898,1.52122374019038,-0.806665074126759,-0.137836233363598,0.252999581584294,-0.181712271381155,0.0456961366637596,0.260169115398087
33.3,-0.787383546426187,-0.282412791634489,0.555076712921531,0.338593294491317,-6.01166605098024,0.795520380750628,-0.58044720522693,-0.38173128797326,-0.496338200286794,-1.98468440169161,-5.14634455681277,0.962215937192298,-0.574701053089021,-0.209880607058114,-0.835685455509824,-1.62725395672199,-1.25068154589222,1.45846951285054,-0.829859458206908,-0.123859654417729,0.273851250030058,-0.178759091889541,-0.0136405487082732,0.122655715637701
33.305,-0.892349064336064,-0.211573414747705,0.513701575534508,0.158412209999855,-6.03163756507349,0.821413589420443,-0.585112463191963,-0.386959993503566,-0.569056414484341,-2.00185720901477,-5.24273630252735,0.967399831092615,-0.568404923010784,-0.162018368454873,-0.829702030145546,-1.72565994977082,-1.11075259384159,1.39226111834712,-0.855393895455362,-0.0898511583150162,0.291965231925337,-0.198148171442717,-0.0442471174786791,0.0222263237603836
33.31,-1.00343026871252,-0.305205779333273,0.52608747763984,-0.0660150395880754,-6.0368370568297,0.858729612896878,-0.604357045137933,-0.388804272111188,-0.662224123906675,-2.06372183106827,-5.31923794942862,0.955907274201538,-0.554615822554503,-0.118685353773463,-0.828491924568367,-1.84215324126478,-1.08096873465841,1.33164571150184,-0.876859385953497,-0.06052795875861,0.303406853840017,-0.229784162517448,-0.088554264901086,-0.0575586818833436
33.315,-1.14676836395305,-0.490622787144294,0.559468735257119,-0.147896192882449,-6.07138737568464,0.901839802119615,-0.645444799486944,-0.391097649356058,-0.774065275928847,-2.15352494280617,-5.43408895679527,0.901513302285423,-0.531745259931458,-0.0821251210531287,-0.84646055987076,-2.00941246750253,-1.10927520811679,1.23521608174139,-0.894858708988074,-0.0209753082481011,0.307655257043902,-0.26736082637023,-0.152461130378404,-0.116891289218041
33.32,-1.27091765667269,-0.593942190497586,0.579924273276511,-0.0419766479677262,-6.10701900933564,0.927057815797651,-0.675771218241694,-0.386238223424051,-0.844920886388514,-2.22193229084136,-5.53789209011224,0.82278981228214,-0.502153636103312,-0.0586136596278225,-0.88255648160038,-2.20338775558223,-1.1182465291722,1.09756359299429,-0.916566717044448,0.0160501004461068,0.30807437309524,-0.316761681891459,-0.231470060060186,-0.145989475127744
33.325,-1.40484290960274,-0.524836497735215,0.558245417055096,0.180329664041665,-6.13016521079024,0.934548624305113,-0.700142502324461,-0.380758225013907,-0.90411170692594,-2.24024766494872,-5.57089197238798,0.760496404784692,-0.467789722448476,-0.0288762227196165,-0.93058682072551,-2.41240152383707,-1.07705050876259,0.941199824351697,-0.923504719536491,0.0522173281571181,0.297953901550649,-0.380748369225977,-0.276081764376631,-0.167370841924934
33.33,-1.51062206326908,-0.373916836061928,0.511170052425445,0.243649205725422,-6.11271581446952,0.935823562042209,-0.719328461592781,-0.389517591482545,-0.970200051444498,-2.24471676209892,-5.57966105359442,0.700730292413653,-0.44150216292046,-0.0203333126012093,-0.957626415160688,-2.63606358859306,-0.999096120546143,0.744713611072431,-0.931911724743896,0.0892314223991027,0.286563059935327,-0.454220321841562,-0.279207042939305,-0.182483727527953
33.335,-1.62996711805458,-0.23500146703518,0.455757175536914,0.0879772344486179,-6.06470873333024,0.94936789899367,-0.744356190789119,-0.390515878268035,-1.03845427754167,-2.29286116213135,-5.5590304027792,0.655492656171665,-0.421108839976961,-0.0503509863787083,-0.97116431743623,-2.94739726499655,-0.89995197158578,0.530111698861003,-0.963546998906553,0.105153630445337,0.281854173550957,-0.393034126787577,-0.283478111760293,-0.112265539453049
33.34,-1.70257789986639,-0.173252157393249,0.415557120521208,-0.158053207950099,-5.97641497274218,0.9771449464771,-0.768272837118796,-0.39721184360178,-1.09470771568176,-2.32726538980232,-5.50111016892794,0.626298315584975,-0.405656593745019,-0.0904926158526728,-0.957963711016852,-3.08095538186528,-0.848455128594104,0.338786660469801,-0.963808554427835,0.126855191231687,0.274759594765033,-0.325362123364347,-0.301779099042448,-0.0398980882988874
33.345,-1.80424784487291,-0.145669892344322,0.402546408033287,-0.38854853092953,-5.88029516057429,1.04002893766117,-0.803188662293945,-0.388046338059679,-1.14199832324739,-2.35378673252132,-5.46472246784266,0.590056931938486,-0.392847853314307,-0.144553615191315,-0.935213401999607,-3.16822662229865,-0.809874513198101,0.181067983873358,-0.973172843996888,0.142161045932512,0.26592547746722,-0.32837376997017,-0.282484637138959,0.0312499875773876
33.35,-1.88958554966191,-0.10488997454974,0.400458892690754,-0.569754389341276,-5.784359139853,1.14451228840266,-0.838711393463364,-0.374046281556895,-1.16686108698046,-2.40571572845461,-5.40075663184379,0.536732147114641,-0.373855401249083,-0.176656848605454,-0.906237255509561,-3.16457819496235,-0.791355682738509,0.0522823501708576,-0.967691948711731,0.153423470804146,0.264509374540374,-0.328011767885751,-0.27357084868186,0.0792123413583201
33.355,-1.92490041348789,-0.0307109673332452,0.407280056899647,-0.677049238643449,-5.70493727486842,1.25847857238093,-0.890013541757097,-0.361611711894625,-1.186907423661,-2.46195003419415,-5.3239529001892,0.487734320179212,-0.344918907873175,-0.2059265561285,-0.849333335602969,-3.06351672128278,-0.770232876978829,-0.126424457103578,-0.956976082153469,0.169216792566467,0.265291336081828,-0.336601956852269,-0.284917788481271,0.11858400351516
33.36,-1.96393502150058,0.0799843795491078,0.43633535709355,-0.774078165399424,-5.56549012299171,1.46569069862845,-0.96201906581739,-0.33607519352725,-1.21961059370938,-2.57012076512726,-5.20501275515862,0.433388808978807,-0.327108426368608,-0.2251382189536,-0.783861760706909,-2.91876847721764,-0.731190587572626,-0.250469306958446,-0.94276419903463,0.15424106101169,0.266749179957718,-0.348691325983244,-0.302366641187707,0.146287701055177
33.365,-2.03848261613804,0.166259455046177,0.4539151777778,-0.892736696298498,-5.4279713849147,1.68059309198453,-1.03866984412372,-0.300055647288618,-1.28637065495972,-2.70398343168009,-5.12695527841354,0.381619637453752,-0.320484914218113,-0.252143652089433,-0.687924656560521,-2.71678839056708,-0.672444035625273,-0.386725630243665,-0.944899157657243,0.130725254568117,0.274012347315615,-0.327790046164444,-0.357786914897617,0.217500105284151
33.37,-2.13076601253051,0.113917238970568,0.454317756398068,-1.0029444765541,-5.27933188338674,1.95768654081558,-1.13389457619945,-0.254667656875193,-1.36221741095183,-2.86912092734184,-5.04017648753477,0.30832025724249,-0.323373807199809,-0.280147658132458,-0.579990965543101,-2.48699196108907,-0.609166478575167,-0.505506550329146,-0.938193923039083,0.116891427557637,0.270311411189769,-0.326290696329218,-0.4331895499636,0.27908278657997
33.375,-2.21341185526154,-0.0188066489809054,0.479219670025371,-1.00462325643936,-5.11727074691487,2.23634067533721,-1.20524177244509,-0.209792758100888,-1.41093840963591,-2.94822274748959,-4.98598831059004,0.227495917426157,-0.351841122446909,-0.31366528105485,-0.467204871030891,-2.21695814004543,-0.527269927358278,-0.629484684813797,-0.935443549566862,0.108785188768112,0.259984586725109,-0.420699938454411,-0.508454674525124,0.314921820170857
33.38,-2.25571093200126,-0.069992626801914,0.487950400958908,-0.834647842334912,-5.01143058918277,2.44101206812882,-1.25502985812707,-0.157555162408746,-1.44098080001535,-3.00750597363206,-4.86231947732637,0.155684305298496,-0.394006773190739,-0.338350212617137,-0.358462324833058,-2.02779254366618,-0.456984933774057,-0.719688689469701,-0.938164806603271,0.108678895155286,0.259918069232541,-0.50095541327374,-0.537904890356453,0.328997391350603
33.385,-2.30304279223956,-0.0510545783673151,0.444166900219652,-0.655055845547186,-4.86152694415954,2.57091260682888,-1.28032983804691,-0.0877123796528817,-1.50022432566538,-3.0599435032173,-4.69497625181561,0.115833302139317,-0.462972267442926,-0.354211281077908,-0.248934957696271,-1.94803114668735,-0.399315202583102,-0.773986856970605,-0.930416823930566,0.0969076691724148,0.256495089278952,-0.571708049965503,-0.583900487800997,0.320009989308443
33.39,-2.33890457197602,-0.0693618743323688,0.366091754988539,-0.557651211968925,-4.7042763029449,2.64316449441937,-1.29433790162276,-0.0390015412842014,-1.56759653115583,-3.11152646947965,-4.54600766584789,0.111755630575268,-0.533675568905097,-0.353061008460755,-0.167280403514645,-1.9500057527867,-0.377310924397179,-0.78776548267441,-0.951001936493347,0.108450787146326,0.257461996068085,-0.607127355118768,-0.634222237826039,0.310539092207031
33.395,-2.38288812235969,-0.119984624964026,0.299244547512063,-0.499873078393388,-4.52077801836337,2.66274729526417,-1.2872930770215,0.0156958183942669,-1.6293000426119,-3.12487903050697,-4.40530815657725,0.108225194649619,-0.628746678312413,-0.346884497134998,-0.0896069414436445,-2.02311138020842,-0.369489169913787,-0.765993425454601,-0.946751618828201,0.0997365572213557,0.258482132387067,-0.662594991536955,-0.675717061696272,0.319354663397982
33.4,-2.42061764540745,-0.141009720065235,0.238208259793562,-0.443371379697815,-4.25209566586771,2.58090369974877,-1.24541147051979,0.0665080831581216,-1.6671645705403,-3.11847102019863,-4.17147047929638,0.121371204158504,-0.719463944714146,-0.35682757876352,-0.0584341412748303,-2.11127247476045,-0.366188123695258,-0.717713671266405,-0.959247034898703,0.10958557023758,0.264422626776172,-0.659066002034307,-0.691346795487443,0.349411828040321
33.405,-2.40924996290815,-0.123981579011068,0.186715252111207,-0.44073443902823,-4.01162142436441,2.43571033038634,-1.20714019110229,0.115597736152872,-1.66825599389107,-3.13355381918736,-3.96030290313494,0.136771516358257,-0.826374205199553,-0.359438359028811,-0.0611900370638181,-2.14473118497239,-0.363869598109486,-0.637625438786323,-0.96050858399562,0.125503502727731,0.26710383027518,-0.690907159521635,-0.684892232960937,0.356109097318147
33.41,-2.36988010763091,-0.122503017180572,0.11841123118019,-0.499644754356359,-3.7198542513004,2.23623770230181,-1.1609126998515,0.146878374127485,-1.66358261813342,-3.15721701323433,-3.71249246320514,0.17044215877604,-0.926220453566146,-0.34608123752518,-0.0636233677457266,-2.13654983282579,-0.344727715372684,-0.551517721963852,-0.973075836239965,0.127540920876517,0.276511985646565,-0.768167043980043,-0.638981283237759,0.36448227854679
33.415,-2.30802448304057,-0.057237260576089,0.0602291292771758,-0.592066824952827,-3.42200472009005,2.02160538498957,-1.11968541830123,0.138779734800901,-1.64342628357672,-3.18655543077049,-3.48413274767684,0.19775886332826,-1.01554542055559,-0.328389935500929,-0.0652018163823004,-2.09690857661084,-0.322221774933781,-0.465306812888525,-0.986810326426986,0.124224955612538,0.287783946574365,-0.770356552037403,-0.616782055311907,0.421238038082591
33.42,-2.24583611874289,-0.0420980431163252,0.00153755028244845,-0.665635063080814,-3.06447366962284,1.81235048850749,-1.10842606969663,0.110598437176802,-1.61760080483461,-3.22941911562023,-3.2538679246453,0.199101872946396,-1.09855252628486,-0.310735892495256,-0.0667012867416284,-2.01459930326902,-0.309752446785342,-0.397585588885714,-0.972164032827414,0.126420746542125,0.299937340565706,-0.809084087082339,-0.623144359176529,0.493700135398645
33.425,-2.20891379884366,-0.056293612891598,-0.038936517486559,-0.683031861044781,-2.77035652971165,1.66799271723263,-1.11143749457205,0.0832699844902476,-1.57933402814773,-3.23922765506952,-3.06029517583536,0.196312859654427,-1.17002932390458,-0.276139602034471,-0.0667717725078196,-1.90651576032926,-0.287632349260547,-0.348371886537802,-0.964214074611659,0.122729883442598,0.302631806807416,-0.905623682243208,-0.591523036052924,0.535027382079391
33.43,-2.1335261227391,-0.0645943174213463,-0.0886221882112685,-0.647999683595185,-2.3987307562267,1.53812085055616,-1.10412503854451,0.0277390474597456,-1.52743836562876,-3.19778973397925,-2.83580016277915,0.195586177555943,-1.2168655532661,-0.247420161172204,-0.0523480107205266,-1.80907513826174,-0.230478057206039,-0.33952180685322,-0.958572561213768,0.111389373188888,0.30102090163194,-0.987270321311257,-0.538434528618207,0.565817917674455
33.435,-2.05791598520147,-0.0625616718056225,-0.15414389627759,-0.574115819455947,-2.01435578375559,1.44806699471172,-1.09654786240208,-0.0420652609293519,-1.474310568826,-3.09520049850029,-2.6015469611158,0.192980350413697,-1.23960230979241,-0.226373275629124,-0.0166909691865243,-1.73096523971985,-0.144063157672528,-0.355163998223529,-0.940400182738074,0.10011105502519,0.304926790824548,-1.03514775328183,-0.491580967304556,0.578547267992414
33.44,-1.93113960655281,-0.0318839318954829,-0.244769050379546,-0.498319815394488,-1.5884608011816,1.40028853974994,-1.06936575366968,-0.127001592162939,-1.39672239346357,-2.84747389783421,-2.33778122774418,0.183855840940702,-1.24329739374739,-0.209770097888363,0.0384473013481732,-1.66369216941015,-0.0393418746459845,-0.39462569035272,-0.9323484456687,0.0861646089377424,0.298971802510148,-1.06714580220683,-0.444706972078467,0.585149971164126
33.445,-1.7873104295788,-0.0336980627857976,-0.383066441238226,-0.417245023297732,-1.10405086444901,1.3761172925596,-1.05290725153712,-0.186356784829963,-1.3426721357496,-2.59601882123332,-2.15092719840575,0.179390096145485,-1.22772719028433,-0.206965866756117,0.11928258240601,-1.57645666109549,0.0687219236509277,-0.455589675774448,-0.926183692504808,0.0795648782180245,0.289799788983426,-1.09831132280412,-0.414021619071298,0.591756148859076
33.45,-1.69757989619605,-0.0245881239584929,-0.529424290757269,-0.347185537601274,-0.628113742751436,1.3481005052169,-1.02533626177766,-0.244138513884919,-1.29280826350466,-2.23713279101653,-1.95201856807053,0.175424894250598,-1.20226484108557,-0.227825973392057,0.186684418416709,-1.49347649057237,0.193777008640805,-0.519307123231561,-0.918229982975507,0.071164843148422,0.279640609879252,-1.16042380891033,-0.360308074220312,0.60220776092096
33.455,-1.65974902850834,-0.0345063132339627,-0.67135645346865,-0.296912936659991,0.0904517011618521,1.31511432957579,-1.00317918305354,-0.283213558562115,-1.24235303011985,-1.73238260606225,-1.70950702454801,0.16342004649916,-1.16468671508186,-0.240072080900907,0.247416919853964,-1.34340257166881,0.390393565471593,-0.59584096140792,-0.918714786447501,0.0540399392515167,0.2754468219073,-1.21196122216718,-0.302623082747845,0.613838050759348
33.46,-1.61030772676271,-0.0341657052268319,-0.763980639480104,-0.282340756396022,0.650546221368639,1.31030200241516,-0.975769374691287,-0.299229432634691,-1.20667074395671,-1.32659330796177,-1.52867675383784,0.159043941495844,-1.10731922524844,-0.263300639501566,0.310236881334406,-1.25917909722492,0.547957143557219,-0.635699485182921,-0.910596249972021,0.033980001262139,0.267777688241481,-1.26919085319371,-0.198571882222237,0.620814674599724
33.465,-1.56810832262535,-0.0637570414909947,-0.86809633025162,-0.207951160694464,1.32758889557846,1.32324577183917,-0.959679732345476,-0.299432126256568,-1.16467290620895,-0.759427746823657,-1.26460942859511,0.170904649207836,-1.06214306230386,-0.29715229291465,0.346490960975026,-1.16204197168987,0.732841298130445,-0.641485109160104,-0.908280065440927,0.00866794514190677,0.278108266842861,-1.35228053168302,-0.0872117342973404,0.597343128053385
33.47,-1.52082191992137,-0.0978278463411675,-0.907977062441932,-0.043907680664331,2.01845000991945,1.35358975857619,-0.948285711537238,-0.278445062685254,-1.14463590359473,-0.32857845205519,-1.05955717535317,0.184701335849525,-1.0370330312956,-0.31561018075302,0.348945839138344,-1.12838678088167,0.837122556865326,-0.608543737536648,-0.91786976986546,-0.0168825521578628,0.285511371426325,-1.37407070991183,-0.00899941392480349,0.584222554113859
33.475,-1.53371906808845,-0.1076980762855,-0.874844750330987,0.184160219086266,2.68790905159598,1.39924248429024,-0.946851153089074,-0.221946540683567,-1.11302084150641,0.155341948481745,-0.793087945558211,0.208874537234116,-1.02777358922397,-0.333565302696635,0.33638272889019,-1.12366069823061,0.910256542894447,-0.529615575291613,-0.910180217512754,-0.0368979071530682,0.300498393995201,-1.39185130446535,0.0569955252819745,0.556955666605237
33.48,-1.63647338915611,-0.108585267571419,-0.74119249402174,0.591979376144224,3.35415781773541,1.4488846992222,-0.923288370253024,-0.173765713106422,-1.10832115382041,0.46544589012604,-0.575716467564089,0.229566855746892,-1.02187679884774,-0.352045014897827,0.316863373604116,-1.10839285352809,0.900203188065214,-0.447751787670355,-0.906818980158444,-0.049344978027379,0.307095281038191,-1.41736653215306,0.0841488913161983,0.523969905075108
33.485,-2.08158726692671,0.280663082479668,-0.199196280961145,0.905633128669586,4.21376374465452,1.62716461868019,-0.885733128165167,-0.106379082688617,-1.23069908452229,0.630895294671362,-0.379509145446732,0.262873972214801,-1.02666216323111,-0.367018910836739,0.305298956891654,-0.997883660424239,0.829865807885625,-0.313451535166981,-0.916686237159077,-0.0652698753674348,0.325417221261758,-1.44083923067065,0.103446558779835,0.482283130432905
33.49,-3.47996283606061,0.319758146135871,1.55319788335003,1.1377993022618,4.52600873904549,1.98886902526304,-0.779037651106145,0.06631488042237,-1.61677800740194,0.777216198689826,-0.0845909043920333,0.304136962423929,-1.04488662813811,-0.366177733934975,0.347394847651411,-0.864750119318257,0.723167225898234,-0.206749094642987,-0.926014242362075,-0.0776444884544681,0.33239875218804,-1.47461073874277,0.100966004223979,0.412573437247921
33.495,-4.60865158802079,-1.73790129781037,4.12703416101396,2.68119185117726,2.06345126501191,2.11963813496165,-0.681295750158189,0.185181746248314,-1.8171525001246,0.833906058818681,0.13118533675853,0.343630318195207,-1.07003908517562,-0.376612273693,0.410222049027119,-0.579003541763698,0.529240892452892,-0.0966241030862575,-0.92187383421247,-0.0723960543897658,0.346903691240886,-1.48723751594647,0.0869041221069978,0.353374906388572
33.5,-3.25537194208441,-2.42775523142832,2.21288869632957,1.61955116371721,-2.08919751804664,0.0899739642465187,-0.701709142855099,0.213283926387443,-1.57122087621498,1.28585007503486,0.671341111468616,0.418736707594662,-1.0972575552943,-0.344092998050357,0.437538307910733,-0.288986616837083,0.355210487180831,-0.0350064348969711,-0.922413597727235,-0.062973682824419,0.349472659100258,-1.50727891921997,0.0736448628969195,0.296271527683363
33.505,-0.955060717574344,-0.773645281461042,-0.267695985483446,2.54636559568813,-2.28957696701474,-0.685486932387724,-0.857479629100846,0.135926097489342,-1.25520097159117,1.32618787569108,1.25013651603626,0.45582496931968,-1.10203831289607,-0.279378127203583,0.451095607088863,0.0773885331519023,0.158107082930065,0.0105138225626345,-0.918969465429108,-0.0528905200075054,0.349340737861435,-1.50975079632775,0.0258623722462981,0.259808895798318
33.51,-0.40319924906551,0.77324472990297,0.314853036779961,2.56105161031167,-1.08907831834923,-0.66570634320239,-1.08956043136449,0.1786201772131,-0.716212679124476,1.13996530325084,1.64523609864133,0.357176866227356,-1.1505453568999,-0.182575643540054,0.571374606411615,0.519747547422787,-0.162573664711549,0.0865853931036362,-0.919800664915277,-0.0389782968661254,0.341923675506274,-1.51065676412003,-0.000548076367415356,0.22932481858092
33.515,-0.349950841178788,1.72627075564999,1.3527649584158,1.59494072291949,-0.342127444642657,-0.525095723122317,-1.2566006849398,0.262787343528688,-0.219238059765412,0.93626699844455,1.80847628835946,0.337863241694101,-1.11514130414203,-0.0427912047860472,0.590113911934465,1.07391301538649,-0.680245017460894,0.248620628012772,-0.928008431400484,-0.0247472402703053,0.329368998838365,-1.50455036733748,-0.0445939884176041,0.200654286437525
33.52,-0.168999063881117,1.76146789467823,1.35215624516457,1.19364799579132,-0.505145562021919,-0.016446830794356,-1.38751074825164,0.295766350995737,0.244740757478782,0.94054324430782,1.55905259289035,0.401870311113307,-0.904752324834788,0.011118302995601,0.338599118862957,1.44800880706303,-0.582551225319482,0.459496238336061,-0.930382714339049,-0.00709960205525884,0.317785652011934,-1.49506771640062,-0.078968395657964,0.176947789213363
33.525,-0.0839287184676177,0.817711326992216,0.797543095252104,-0.000395591800897488,-0.623837810250468,0.622478913800691,-1.37702503014836,0.422330185443303,0.527807573855759,0.672953642103606,1.13562756220729,0.498022495846257,-0.705423375605332,-0.0413472334821849,-0.0646504331997258,1.53403773945265,0.530207520594148,0.535161155428831,-0.948259539768598,0.00950105595733713,0.305219796350999,-1.47254563303658,-0.114398764624116,0.171473111893698
33.53,-0.106112337363138,-0.887756345923614,1.24268867157864,-1.03057389106059,-0.679090670867383,0.0948182567829586,-1.27931790019595,0.497107988585618,0.516202855037214,-0.091915857254758,0.804714025334518,0.509258656057595,-0.543547190496879,-0.0936987507712834,-0.412676257320355,1.49181857197392,1.88284635232852,0.491610480759698,-0.954547100711971,0.017355776706897,0.30595359396134,-1.46028553989651,-0.163440556102742,0.167812421400059
33.535,-0.319085901183375,-1.51958973374354,1.23037595215096,-0.621755669110466,-0.727419237801986,-0.645004910306176,-1.08505922001304,0.485623777617838,0.223629557558568,-0.913653735617198,0.41542053817309,0.41682153552158,-0.585396938118559,-0.0936080524380861,-0.585934627625347,1.59783729672756,3.1081449756503,0.470003068447113,-0.96062466909077,0.0162300306077849,0.299789609183016,-1.44234292633913,-0.205594525597325,0.166283139026103
33.54,-0.426616488888772,-0.58823238204513,0.963798279993879,0.317542382616203,-0.512747753524681,-0.770159707806025,-0.941339157529555,0.381417605866911,-0.0265878826574674,-1.24096708994458,0.194785617724128,0.34740233019724,-0.748049966806609,-0.0672098626179832,-0.570635823637574,1.86923783164245,3.29827469306394,0.472110585056903,-0.963033642190883,0.0144968372866678,0.302027921967706,-1.41247289525953,-0.235388280999736,0.157202202325059
33.545,-0.640267554694105,0.322935227709886,0.835193482904377,0.475786726147707,-0.301769439618747,-0.56114704953319,-0.84025721063475,0.0852493922549112,-0.319432530552428,-1.30367978148073,0.222284445220182,0.32187398208283,-1.02756370039393,-0.0319105461432858,-0.50991245281942,2.18818411210555,2.77709875838201,0.475380695119761,-0.96718788566581,0.015625295776544,0.306831764404705,-1.37503632782424,-0.240401728552466,0.145049326474728
33.55,-0.781933838472969,0.367884369933281,0.788915924620739,-0.027233869232859,-0.213289709201837,-0.403844785011073,-0.864840022174459,-0.143593744455961,-0.428484984474076,-1.20550590868262,0.360931428538563,0.309084174357812,-1.23524819362212,-0.0380116605648479,-0.468268652838889,2.288910768654,1.98347841755353,0.451072098340981,-0.965506615260406,0.0250301917555752,0.30794532988671,-1.33684867787445,-0.231334118701665,0.139231546612849
33.555,-0.740865709929311,-0.120198089088858,0.862641558050624,-0.400447826178022,-0.265084276163175,-0.488320829996246,-0.996284494892297,-0.316838289922428,-0.398044012857857,-0.995354849565733,0.575586181409796,0.279392119757096,-1.37955062622428,-0.0336572965364928,-0.429815793316892,2.02957313418008,1.33899826393036,0.365005152624027,-0.967848813126638,0.0452761667495545,0.31482042768419,-1.32872704634685,-0.228000063186916,0.143578613649365
33.56,-0.570291047475581,-0.315226895116544,0.908770388652808,-0.468260127001435,-0.359991141226958,-0.506257349837171,-1.13207746817748,-0.368712925735988,-0.309371400661046,-0.95536881685257,0.662296493083284,0.230141852591905,-1.37383734379677,0.00180645548328982,-0.39267559075834,1.52552112856234,0.915980807126321,0.229571546703954,-0.970391147624976,0.048631867047625,0.320058345507497,-1.34040136489987,-0.239499989752856,0.164015465767811
33.565,-0.465815096715151,-0.274300874120981,0.897762757938719,-0.394213040483287,-0.382656729456536,-0.400486866197555,-1.22871366238938,-0.404249163298606,-0.207981833189152,-0.942299637295577,0.627926674585989,0.239616387243886,-1.25901896769926,0.0539895037123486,-0.334940594884175,0.880788615412046,0.65094615270857,0.0806040716105706,-0.978890890426676,0.0455675364866197,0.321172208753155,-1.34772789993228,-0.248062619542958,0.186180210017688
33.57,-0.46196531772501,-0.220369010435603,0.901246096252902,-0.546533509995034,-0.369055022212658,-0.269840754308219,-1.25020086203014,-0.45446166755501,-0.179976813511756,-0.847915860308059,0.521271003771233,0.282132290681246,-1.09867582993097,0.0787742767924619,-0.287079197625781,0.381834280903411,0.539661074381928,0.0189654042810935,-0.99059326523677,0.0403239663267493,0.313208155935233,-1.345149542386,-0.239590349292732,0.205517008658935
33.575,-0.521979035059142,-0.188481625472026,0.899722244940374,-0.227815423190999,-0.350198819308631,-0.17138447595117,-1.21133330526967,-0.472261060246997,-0.204631600695252,-0.559251385002898,0.410231141062516,0.331287392667139,-0.94904246604899,0.0844231507802559,-0.222881378997835,-0.0325463190093745,0.505455030475853,0.0600158106730771,-0.990419115064503,0.0317071949881454,0.308218566164346,-1.3661839565219,-0.195950671856265,0.237417822228135
33.58,-0.523000009301694,-0.210665148945686,0.901801027556504,-0.143358979448139,-0.314203224615867,-0.0857430158277583,-1.11963672871001,-0.43320418002058,-0.254238208344316,-0.0956312503593048,0.365726600612263,0.378538292658144,-0.875178739879548,0.0422179010731324,-0.139582013122358,-0.33713803178921,0.581217786496228,0.233853710650835,-0.990495779412661,0.0161159613605883,0.310309936803337,-1.38217267975852,-0.162225747656812,0.251141078478937
33.585,-0.50249956882432,-0.227436847180791,0.902811261424299,-0.0279820471061749,-0.262308461609127,0.00407198690991861,-1.06286318988879,-0.332487482442993,-0.270166911485305,0.239306108759944,0.377127458650842,0.415635417419717,-0.905775336116641,-0.0370981179512656,-0.0824373960457868,-0.412649685920015,0.771042945097901,0.458331343228356,-0.983760862123995,-0.0175187958232005,0.304543208467168,-1.37529734698651,-0.126141438738912,0.231997192938394
33.59,-0.475015572923948,-0.205951629296594,0.903655340262652,0.139130596579713,-0.198396299091158,0.106961387453992,-1.0250697870758,-0.176528105749516,-0.240671849984699,0.492958386099701,0.388701937616673,0.442302718360897,-0.955778011184308,-0.129795359905052,-0.0873347930963354,-0.348125851518952,1.00651207454807,0.620476258024921,-0.982742231823925,-0.038066003918472,0.306334270157204,-1.34254484343751,-0.104453328314803,0.180440348120755
33.595,-0.445723399064819,-0.149127609239949,0.909568414860604,0.238397215763729,-0.179851703566135,0.165653753915518,-1.00986279569474,-0.0580750638709798,-0.193238924737604,0.569020507477749,0.383407743927134,0.451060860178048,-0.994112796056493,-0.186816113406095,-0.139958979129798,-0.150116143280085,1.24673161413907,0.673490535774672,-0.973148395324756,-0.0659732248726227,0.298354926537728,-1.26055985712539,-0.0761130812764233,0.139282956859584
33.6,-0.403911245946853,-0.103599768701234,0.923994754804536,0.245913159115363,-0.171146162875426,0.169037247593791,-1.00620337019672,0.0291478659971029,-0.127798591806757,0.549298851177921,0.342176696507287,0.426866404178238,-1.00245348812956,-0.205919461968751,-0.188311166594733,0.16805293972236,1.4499163598088,0.582112249039618,-0.961829537132652,-0.0756964036241924,0.290755818602115,-1.18187233346926,-0.0544341145545486,0.197883525183902
33.605,-0.388566634722614,-0.097751733146199,0.926207020976226,0.24143631743384,-0.161091686328841,0.158368945897067,-1.01141245408847,0.110992023729462,-0.0653988116482617,0.470713398829059,0.321818865551165,0.412137045247178,-1.00874277243299,-0.172381276499867,-0.189625765674653,0.433344708736026,1.50661011657463,0.414012407279325,-0.950740766341764,-0.0741199831064316,0.288240476561344,-1.07874586939208,-0.0367927987519472,-0.0963184676770373
33.61,-0.387353649769752,-0.0773470292657375,0.924953682441529,0.248379053638241,-0.130944917372309,0.141130899276059,-1.02877648288006,0.169684047110807,-0.0484517025946147,0.388776657341342,0.294637294873187,0.394368230814562,-1.00858492887156,-0.110840762239967,-0.171137151656255,0.646904319956704,1.48795125072626,0.210306291436024,-0.94374220197065,-0.0512092845195967,0.288722874772363,-0.980163558030467,-0.0116173995044083,-0.185994142350157
33.615,-0.386301048430823,-0.0624096957064589,0.928538972915114,0.24513033165944,-0.119587897460505,0.130025086952925,-1.0501810620558,0.216516794070976,-0.0695336276243384,0.266331791889109,0.265283676410275,0.375014256334457,-1.01524839921303,-0.0164533017086437,-0.140476738155983,0.78005699728563,1.42218036622982,-0.0409260606208814,-0.929785071487847,-0.0188614213427143,0.28237415147731,-0.89510993253749,0.00511475552849528,-0.235514424295287
33.62,-0.389321854534416,-0.0677126235975368,0.919807698276362,0.187751628750758,-0.0877064685219724,0.0917519306500131,-1.0626396628568,0.225583177956166,-0.113764564975146,0.0574923891808338,0.225509313894489,0.346122540844302,-1.01737403831698,0.062018212345567,-0.137626824288008,0.715582837714099,1.35989462000465,-0.178802283747607,-0.91191936692716,0.0184272854244281,0.284057016226664,-0.836720827072579,0.0478140217941615,-0.257083313658521
33.625,-0.404286243044438,-0.0697907917923762,0.911832595275437,0.145281968152868,-0.0751048568626054,0.0623753050165241,-1.06512124304698,0.216007219390337,-0.152718189959762,-0.134063175724611,0.184847260699105,0.315278943052943,-1.02858212307884,0.155162890625115,-0.151389058309989,0.469183245566168,1.26823112773162,-0.23801072837628,-0.892024177095513,0.0444978243339313,0.280856261846633,-0.795299549241709,0.0892013796095562,-0.239476783410624
33.63,-0.4141532510665,-0.0651320292142935,0.9011031766545,0.0870789548666892,-0.0610938658282949,0.0348090939276247,-1.06469593166877,0.199306217028269,-0.174748259041903,-0.352084712228042,0.127302849914149,0.27453523861164,-1.03355717145785,0.229892607474654,-0.162114920443912,0.145514024637175,1.17221127296067,-0.194844395201654,-0.884031250516709,0.0611800075379258,0.284878245568709,-0.769224025725086,0.121366894357917,-0.212788805811042
33.635,-0.418368507914935,-0.0532603369140876,0.899305339214329,0.026266119304279,-0.0589754922123659,0.0132063296709295,-1.04066360986325,0.173705073186349,-0.175854575727495,-0.524322543985574,0.0885460672744157,0.254941743752066,-1.02495487729269,0.284835799099729,-0.17386656443078,-0.199179087744659,1.09315750506841,-0.063394489749552,-0.864600669782178,0.0684196857723344,0.288151261708544,-0.736741504368817,0.169264960418377,-0.145360507581659
33.64,-0.419957051191656,-0.0512920568212109,0.892525468064402,-0.0346741937559978,-0.0702328486136844,-0.0147873850995607,-1.01552148011542,0.133064525786864,-0.165228668287314,-0.66578549322217,0.0456926984987209,0.243583140811747,-1.01706341708239,0.310632848231979,-0.178292980434123,-0.549611432653915,1.0353778756967,0.130698797550212,-0.860438435944827,0.0592871741117483,0.293931085438559,-0.69640051496734,0.203914846783494,-0.095793856886211
33.645,-0.419555257841982,-0.0782733356754019,0.895359530199821,-0.0944362965970207,-0.0798467012450502,-0.0401723810056401,-0.99092258353213,0.0808392124892189,-0.151715724150078,-0.787110527291262,0.0246362993170722,0.256795339622487,-1.00828463280785,0.308151796598756,-0.181344199557691,-0.259708270100114,1.05434228779842,0.250448841145595,-0.856064297036294,0.0466134962408253,0.308180452701754,-0.62059384695977,0.217731420966035,-0.0536447911809339
33.65,-0.419079976793345,-0.103054132287824,0.89317735491466,-0.127709266709698,-0.0947963277329621,-0.0513878953432471,-0.970572182613294,0.0333216950356854,-0.140707666999555,-0.833630611692452,0.0159556769790669,0.27931629133103,-1.0090368306365,0.278313813637029,-0.178288172283792,-0.701601034430665,1.10539640254126,0.332745055790257,-0.85114514205971,0.0273846048236362,0.322232402795237,-0.533480805838931,0.210558589006496,-0.0342730060139337
33.655,-0.421776803542432,-0.113091830513753,0.892782402245164,-0.137325739952231,-0.119027319108398,-0.0523436883160518,-0.967289411634941,-0.01654024423536,-0.131383858707791,-0.808046558078455,0.0138357039541006,0.293854103511152,-1.00225140413248,0.209191537758077,-0.163246640088421,-0.764817609801312,1.18229604525713,0.288698041004306,-0.855138852286489,0.00267239038422319,0.331645520768307,-0.45004325540485,0.195582704251439,-0.025410954736039
33.66,-0.418949763425447,-0.121533075691784,0.904574051149644,-0.131884259687415,-0.102300686195793,-0.0380092214845465,-0.974516070414431,-0.0420523483196673,-0.122322274201625,-0.758890123016605,0.0142511589576487,0.306730168511733,-1.00158082513578,0.153164375137047,-0.156877311747815,-0.706033519795221,1.20722297819197,0.16442000083719,-0.859520308055876,-0.00592841955616142,0.348763918139797,-0.361679441490183,0.170921961719417,-0.0330143044166169
33.665,-0.419413258400277,-0.125493267512071,0.902012848807022,-0.114101396848879,-0.104786932468414,-0.029934781599396,-0.985946770140666,-0.0649455904940879,-0.124693821794938,-0.662614081740505,0.0231284976533481,0.316042521918366,-1.00776058761601,0.0958315854834784,-0.157449711615633,-0.700798779210195,1.18853605517722,-0.022606065094801,-0.865638842520758,-0.0199243783853977,0.359508082229086,-0.290948219581237,0.144804222716453,-0.0460706374896585
33.67,-0.416474271409238,-0.13089389596881,0.905975904897103,-0.0881267112368182,-0.0937974173155573,-0.0169472533521154,-1.00400111566942,-0.0767748425276606,-0.119876455552847,-0.512601175641372,0.0173960590120258,0.312427790143128,-1.0136743768178,0.0537157202641595,-0.15620229854276,-0.771775736568853,1.14763425021807,-0.183547321039423,-0.864193276014013,-0.0214012268589402,0.365537552424525,-0.253659762172791,0.109691794962094,-0.0598954090063203
33.675,-0.412041165812198,-0.135839406980333,0.907172888553837,-0.0491661143207195,-0.0987823912867036,-0.00542110040153514,-1.0075238144659,-0.0687352694825399,-0.117267797381885,-0.379232145224678,0.00827060844631494,0.303595873256233,-1.01116752961425,0.00937391780589459,-0.134985966735022,-0.923237889245461,1.08315332699052,-0.288522382682898,-0.874206848138189,-0.0119475213796048,0.378453740523328,-0.238395689072373,0.0590674042178261,-0.082523493113282
33.68,-0.405543828754829,-0.130129199129656,0.903927404687188,-0.00587405954387966,-0.0811599934008651,0.0187206664123479,-1.01378520387576,-0.0560972133845973,-0.105322082133348,-0.248220427140883,-0.00130542734075511,0.300543101393267,-1.01963408127223,-0.0230365093172717,-0.115676980459528,-1.15710423978813,1.02088658445251,-0.348369933996737,-0.880624268113603,-0.00322279413494063,0.382179564230856,-0.241603329777718,0.0211996294508339,-0.0902521346561869
33.685,-0.404507304253971,-0.130016991659823,0.908218924921418,0.0312460414199793,-0.065733840727124,0.0396007241815476,-1.02550367498229,-0.0286616604158753,-0.108279871557691,-0.144807347778409,-0.000374712453268237,0.305493588009155,-1.02175515985366,-0.0544765407773622,-0.10173617647475,-1.29271699497276,1.0180996110606,-0.343385401075318,-0.885342679037389,0.00420401665157095,0.388284090062414,-0.251539647350937,-0.0301527141085774,-0.103298406917828
33.69,-0.408440918262929,-0.130631971995929,0.907012893319399,0.059944262711921,-0.0539368780851131,0.0473998787850229,-1.03508218926032,-0.000316407412715369,-0.107447864761484,-0.0755832578291838,-0.01549897550297,0.299635131565625,-1.01776888876914,-0.0863031739500479,-0.0836865166829138,-1.34996102462433,1.07483606847903,-0.293086725177253,-0.899976628879222,0.0126497193417794,0.389736833836731,-0.25748535990715,-0.065547304928242,-0.113981236426614
33.695,-0.405288366750028,-0.123711726295422,0.905685642290995,0.0714852196892901,-0.02754116457091,0.0586528962951395,-1.05181798244554,0.0339906540721824,-0.116691707969791,-0.0479289089924716,-0.0282379268749439,0.295526970012369,-1.00332797739706,-0.124722152214674,-0.0693000762312928,-1.29849258791625,1.14185067284883,-0.215163817045155,-0.907162400563681,0.0141409066789651,0.388045200143371,-0.239778277167326,-0.123378118874272,-0.142034945758143
33.7,-0.407246529423616,-0.122968043068031,0.90956924887328,0.0888978629969947,-0.0380279815243977,0.0695871913386089,-1.04650264111317,0.0513501533488652,-0.112338778729419,-0.0770877167572194,-0.0329631350439225,0.283378450796988,-0.997613583487372,-0.14904328300769,-0.0618485582192623,-1.21185902866806,1.21483530294833,-0.146785980172529,-0.911057912481545,0.0134252286586596,0.381247596308076,-0.230951732241627,-0.167283542040469,-0.177438289608903
33.705,-0.40786624900909,-0.120324583041973,0.908709098893798,0.0968086496519385,-0.0342570170236291,0.0797032437987481,-1.04817144680273,0.0651049493227334,-0.100393849613582,-0.148289617054584,-0.0284677151533937,0.280837728757245,-1.00219318097955,-0.147674378644009,-0.0499643938578122,-1.06745946034965,1.28169178204026,-0.0741650807544268,-0.91949549398805,0.0235233660274102,0.373667472476696,-0.218688930457139,-0.217081730178705,-0.204255845841235
33.71,-0.406144650353602,-0.131104994489848,0.911045780244458,0.0953308480272404,-0.0266512581208969,0.0929684450312228,-1.04593868147876,0.0621275173851823,-0.0910818677809847,-0.204121403347114,-0.0326123734313079,0.273655263102499,-1.00377354732106,-0.137252921177889,-0.0334436760850224,-0.934309530565283,1.28750012829074,-0.0281112978532677,-0.931218362733792,0.0341715376660341,0.367252104406087,-0.207392186589943,-0.272340238181213,-0.227607331616694
33.715,-0.403155591008145,-0.126620376791792,0.90748068616022,0.0946936160326004,-0.0411485740903247,0.0988168466501117,-1.0340970316115,0.0523373595070028,-0.080290810236355,-0.293320478474935,-0.0404264965745482,0.258111636927458,-1.01163099840858,-0.120908164986522,-0.0372475244505168,-0.820900322210809,1.25163382558768,-0.0108131938451086,-0.945902844856137,0.0573491136933925,0.356915902285705,-0.197780414537476,-0.33492533904039,-0.237373213014067
33.72,-0.403954855247671,-0.114534943761977,0.901353615260943,0.0901020570142326,-0.0171781299078565,0.109335735906578,-1.02284093212819,0.0460164857847842,-0.0661518567491975,-0.359430328875295,-0.0400394360464498,0.253365874441157,-1.02157971041148,-0.0958160618849186,-0.050908906642045,-0.667366541830757,1.19222335049094,-0.0216677800073983,-0.940735956996121,0.0680098159178743,0.353070578041814,-0.187079378116329,-0.350975157738696,-0.233222179842172
33.725,-0.405626006000261,-0.110734422984708,0.903559711961867,0.0749350594374833,-0.0175620630837981,0.118889205157757,-1.00613404489076,0.0410698558665516,-0.0566330464720326,-0.395635373576319,-0.0253571717410937,0.247925403420169,-1.02013182633187,-0.0653484349600739,-0.0407906606978714,-0.53996095131236,1.14018781790571,-0.0413353036901409,-0.939469945718098,0.0843864414712259,0.342712580473804,-0.176676762809019,-0.353694093932371,-0.212133088152356
33.73,-0.405214665406918,-0.109045299831159,0.903091757974456,0.0563585389668493,-0.0116039598994585,0.124110171615965,-0.991806602248569,0.0446326037651771,-0.0452629568770126,-0.413254309345293,-0.0203717406839132,0.238456337945185,-1.02739255605157,-0.0283901368383513,-0.00904109847756833,-0.392610328628063,1.0451105427408,-0.0587944955565362,-0.935572272096737,0.0970744925905257,0.328813868675697,-0.170340151440863,-0.334344831784842,-0.181456341727382
33.735,-0.399344444535294,-0.0958497360540239,0.904798092175317,0.0423008641880522,-0.0102625315426793,0.125451609203609,-0.975985604502078,0.0552777051818442,-0.0260446684195822,-0.423072914328786,0.00377700518345606,0.233478944161559,-1.03032705158972,0.00270069724614162,0.0208551486838479,-0.265765532286928,0.932810711472134,-0.0558750689181217,-0.932190658510472,0.109630385710538,0.31695617888091,-0.182174266190081,-0.298241452579086,-0.137968937299519
33.74,-0.393394247486381,-0.0910083196463129,0.904958265211548,0.0250570327043533,-0.00592688475231491,0.119983208503617,-0.961759080137869,0.0667250340261839,-0.0148204835642681,-0.412657672710777,0.0452695451959703,0.227372529406438,-1.02934885887377,0.0394799167810473,0.0416361983030997,-0.204240556850451,0.827340449914782,-0.0105883788033333,-0.924618914154904,0.104205848012645,0.301730375187385,-0.192481732096114,-0.294007807970047,-0.112441761165197
33.745,-0.394860081817505,-0.088508696975826,0.901843085865627,0.023564871972237,-0.000445516899504054,0.114499815859585,-0.952220790727692,0.0856504425200255,-0.0143228225545909,-0.369518899131461,0.067415967744418,0.219310162198092,-1.0366341427371,0.0641713222459561,0.0554707476530373,-0.183673691614675,0.75495741994197,0.0458782457843622,-0.920929388855124,0.103065000911042,0.289766408174848,-0.203491364897208,-0.287156512377826,-0.0946022454488062
33.75,-0.396129272122143,-0.0835465323980524,0.902274282323597,0.0198029383193238,0.000278785824775696,0.108073573424439,-0.939022494279603,0.10267678197824,-0.0115608765856588,-0.317931817756742,0.100384297201454,0.208175828576972,-1.04483125566569,0.0842630892093924,0.0519928208603593,-0.160831071727291,0.681163974014511,0.101865513779375,-0.926361810177232,0.100567765037957,0.284075928533535,-0.212447383138685,-0.271770211353552,-0.0868704674292443
33.755,-0.391456439653495,-0.084242512064083,0.906035163996234,0.0189485605806112,0.016882400553147,0.0982990094785241,-0.929833505465189,0.116439032238027,-0.00517981948436027,-0.278664457848671,0.143191009833512,0.196352671417793,-1.06233663989845,0.10145848931667,0.0484667980813306,-0.131602643844438,0.606124316490638,0.143085052314444,-0.943453757663035,0.104476989084745,0.273238513574067,-0.213620064173445,-0.245725325272959,-0.09172390648295
33.76,-0.387810992338108,-0.0739538165993587,0.905984386326215,0.0234384195513349,0.00166800275321724,0.081283427251394,-0.933432732293105,0.124641064598601,-0.00672121242875949,-0.242540399492815,0.160759337778832,0.174242448531348,-1.06843187083737,0.106912755308085,0.0419999638098892,-0.0942336605799386,0.496403383720193,0.179245865224985,-0.960854348698503,0.113401721775366,0.273056767545728,-0.219569442437744,-0.217747994904935,-0.0856504953645405
33.765,-0.38735397882649,-0.0797517923522163,0.897938319738259,0.0275004226714373,0.00175240326235215,0.061759387622875,-0.938743942056011,0.121425226605196,-0.00493626318218779,-0.200255563990934,0.201197538187082,0.168325185291827,-1.06861508507314,0.103861379346071,0.0253289030717034,-0.0802702465411742,0.418082499342731,0.182315016602986,-0.971806482301407,0.122276490356061,0.281673188426425,-0.252451683146195,-0.166132831249562,-0.0536395792524641
33.77,-0.381818603569424,-0.0819323206224921,0.90187193913074,0.0251413338859596,0.000278785824775696,0.0426949900406954,-0.946162827022851,0.116718984849269,-0.0198233142600128,-0.143437210682308,0.221738400028754,0.161387258616861,-1.05968297362221,0.097083906681787,0.000513452288246441,-0.0693669023246961,0.362322969277881,0.176354423377057,-0.976171420999207,0.129012195465363,0.291069083782955,-0.268209978487021,-0.118602980435005,-0.0274554350703178
33.775,-0.379536809694974,-0.0774391504247541,0.905774422903554,0.0228500645468612,-0.00169176238576973,0.0252123853143739,-0.955647040153551,0.113185995457045,-0.0352756703045264,-0.103370327163951,0.233610943169467,0.148475822829224,-1.0463346202923,0.0923382238861982,-0.0246239746732027,-0.0622485723235974,0.341236143383686,0.163095807465999,-0.976004208833554,0.128204228045806,0.297718484185653,-0.283440712082666,-0.0535352428666077,0.0200552690738687
33.78,-0.379268576657667,-0.0832947766372681,0.903992241578194,0.0161376690605608,-0.00165353130670844,0.00220519311060017,-0.971709282093726,0.105123523171628,-0.0521146881505571,-0.04578825893694,0.238577466186089,0.135602005725924,-1.01861836299763,0.0789298928132057,-0.0690536378429926,-0.0446206920282877,0.323964290166269,0.140322265501439,-0.966196730232459,0.11335850923518,0.309068514987368,-0.307580746690744,0.0377133487763828,0.06547059300067
33.785,-0.388792704049241,-0.087441894465735,0.905796947516066,0.00244208490723809,-0.000232516715645005,-0.0155243839501525,-0.982937393004008,0.0956648508015059,-0.0676618564817342,-0.0306375727149322,0.245064280416529,0.138692759701189,-1.00775187978511,0.0715624048172188,-0.102282540764241,-0.024394055060789,0.318754537859614,0.128040789857897,-0.957468785397755,0.0951216972609854,0.321069701855567,-0.324078651369409,0.0922195496321239,0.0957014581568995
33.79,-0.40142665512841,-0.0975548098481654,0.903391005966519,-0.00696433853202188,-0.000942900776863098,-0.0262536600122315,-0.997686272230134,0.0809728886611061,-0.0940188694473454,-0.0120507403662119,0.243042582018565,0.135228142142296,-0.997252742838938,0.0654181951877609,-0.140305148312765,-0.017033178214655,0.318087607622147,0.120514987271819,-0.947242131904091,0.0768949287262289,0.335193122116303,-0.328901071022279,0.143679190183698,0.102109892279008
33.795,-0.406275093345643,-0.101834940521371,0.903161675413875,-0.0124370414146587,-0.0174623716139697,-0.0277141332626343,-1.0081200429866,0.0655503893310695,-0.126693106921669,0.00527779043119227,0.235106522823992,0.133126205450699,-0.985759778308464,0.0518720178608471,-0.184113214572955,-0.0208142328235541,0.313708281052089,0.113648865768296,-0.946151289966401,0.0529212847560439,0.345776347139096,-0.317674948194206,0.182834957271989,0.0905661192056992
33.8,-0.407781744870734,-0.110455658485904,0.903035109778313,-0.0258670975380245,-0.00982862878295197,-0.0317662534875604,-1.01107951178926,0.0499137259270492,-0.143703202984692,0.0156876025769481,0.220760731509807,0.12648551934799,-0.969414200762106,0.0340637951708522,-0.222748971190974,-0.0184977054595947,0.312840770517768,0.100334366779816,-0.946895452919294,0.0351084123444177,0.359880404145925,-0.288989058822317,0.209089040055356,0.0557136337836168
33.805,-0.414523274310456,-0.110996883566427,0.902282140821449,-0.0336223515855418,-0.0115836658450954,-0.0272014185944865,-1.01743571572473,0.0454746936255316,-0.150630407965479,0.0119776698423533,0.215488856986691,0.125071876017589,-0.95188806488231,0.0182405173600582,-0.246626420048164,-0.011690681787111,0.318993112512791,0.0836198768414277,-0.954304689588725,0.0277262863178852,0.369532884159501,-0.262909661427742,0.214008313308224,0.0104273134148438
33.81,-0.415152602753819,-0.112964064217152,0.902542920300947,-0.0404256365102406,-0.015846472215934,-0.0245386748605566,-1.01836337357406,0.0434963902979111,-0.154994881380785,0.0106513697457805,0.199332223316176,0.118170807709676,-0.937546578055546,0.00462770002012416,-0.264601730232462,-0.00441222633227909,0.329216247579166,0.049781444028574,-0.958086667635835,0.0243581926039881,0.381628535968415,-0.228613672845065,0.199035042787443,-0.0403304143412638
33.815,-0.414864542416064,-0.110963032880309,0.900378819382295,-0.03912613863764,-0.0156916519009628,-0.0180289908031917,-1.01779505712348,0.0420117484834228,-0.159746023449655,0.00977937661198417,0.17635902831263,0.113545437151811,-0.936457821887757,0.000993678414941291,-0.285129164701983,0.00277735644391985,0.346765863118891,0.0153817010511696,-0.957705735221499,0.0243751622401127,0.382807608440871,-0.203957570135534,0.1817068662792,-0.0693790972222129
33.82,-0.412649786927005,-0.116813256695431,0.90159526779327,-0.0358406517351824,-0.0211505789325537,-0.013714362703062,-1.01193290556729,0.0520881820647302,-0.160910558607845,-0.00201231537929222,0.161153057831495,0.112253950147413,-0.927484211290654,-0.00594245893943494,-0.301901298839612,0.0047144889831543,0.368934518098832,-0.0121020123362548,-0.953062267708633,0.0260945584800049,0.383356252660925,-0.165254569706813,0.149539148595753,-0.113212104891032
33.825,-0.410321345039984,-0.106902883012464,0.899527960669121,-0.0343777443505895,-0.0219008809697136,-0.00932565803727803,-1.00655872561475,0.0550554790924588,-0.161817058527453,-0.00743606164248693,0.139600416221653,0.104922633303311,-0.933559229414786,-0.00163291258061708,-0.315156796141806,0.00188226539204549,0.37889470682572,-0.0253664543224087,-0.9528334880779,0.0344830502767764,0.381583676808546,-0.146544020241087,0.133266340321602,-0.136866817679495
33.83,-0.413352333891311,-0.111045668565187,0.901797837731023,-0.0287213941497056,-0.031473329510743,-0.00856629443916896,-1.00902459463371,0.059997954531983,-0.159221041611363,-0.00565765116118822,0.117140190581876,0.0977250371366577,-0.933606565289132,0.00466795785838388,-0.314909913210379,-0.0220846789236951,0.387165835532565,-0.0287274575095212,-0.944722076333568,0.0440249914892217,0.383668173446213,-0.130446146930474,0.114336631270313,-0.158514737819788
33.835,-0.416001676063535,-0.112068911545466,0.905578684720993,-0.0241538467495429,-0.0285063823041891,-0.00623827884796532,-1.00447591439827,0.059262508470218,-0.165128434445715,-0.0133973074172667,0.0910332050942652,0.0950529672774463,-0.941110137860362,0.000856159978945185,-0.315707567881193,-0.0650357876248984,0.392381843519667,-0.0216909234514185,-0.938031540695446,0.053990692384682,0.386725368538701,-0.125455853458566,0.106967459892115,-0.167325202847638
33.84,-0.412442322917189,-0.114431382691958,0.907459619878899,-0.0175685922914774,-0.0410894039100376,-0.0026025536154226,-1.0104741136203,0.060934239404102,-0.156748920481333,-0.0289231728317429,0.0757774580207726,0.0865609461830903,-0.957401674709381,0.00578628020660914,-0.305452929390946,-0.100084724675294,0.392485740264404,-0.0167482783392757,-0.928880682765844,0.0638415321419396,0.389605409615875,-0.126609368518773,0.0764286361435187,-0.160563848987637
33.845,-0.416093912384894,-0.106421293874594,0.901922694833906,-0.011324711120157,-0.0422114228780295,0.00215011115292101,-1.00859748466387,0.0504819716351348,-0.15327420765799,-0.0360953353797406,0.0606735407623389,0.0821361128119299,-0.95800791570432,-0.00268582458451174,-0.288165223767159,-0.132085350186114,0.380638122192334,-0.00728222793512349,-0.91857522235617,0.0709362791115099,0.395045102317258,-0.132180380795111,0.0580352887038531,-0.148827233689225
33.85,-0.416709662559673,-0.114157280872528,0.904506067023105,-0.0115205308076261,-0.0415683568883206,0.00198934459421599,-1.00914934294042,0.0465793096584596,-0.149327283817678,-0.0405394606026678,0.0570755351287732,0.0780691482220869,-0.963753754829031,-0.00550317848428575,-0.269623315030166,-0.165839357153491,0.369333406614966,-0.00367467591561518,-0.914919209693744,0.0811374630667968,0.397147611572072,-0.133511790726897,0.0288607836704398,-0.119377769098507
33.855,-0.41743044603532,-0.110832296735703,0.904091952537262,-0.00816164193439239,-0.0466685175035073,0.00381700187878512,-1.0048551100035,0.0501553371074222,-0.134237398601713,-0.0472217409185685,0.0366375671005615,0.0710133493105425,-0.968744651255367,-0.002107789523089,-0.250028161972167,-0.182773215003055,0.352134891028447,-0.00743450898514329,-0.911016831247774,0.0847463414759716,0.400436440589514,-0.144446975811923,0.0130872548796696,-0.083608010924424
33.86,-0.411819854833725,-0.107789939845057,0.900135388645006,-0.0103212086717522,-0.0490147351975192,0.00612310850639757,-1.00173456757477,0.0513908767795618,-0.121711679132331,-0.0525073562998701,0.0303723460376458,0.0700013270679574,-0.975144336634995,-0.00317507877291227,-0.235750320330614,-0.177395904119681,0.347764483218662,-0.014236006606139,-0.910604194047442,0.0907528134391869,0.403060837018507,-0.152748625021318,0.0149241973540318,-0.0430342087784987
33.865,-0.413299539590531,-0.110990982175214,0.900809429385731,-0.0225890539586544,-0.0554423660733497,0.0170117762088,-0.992184064844408,0.049388643988524,-0.103120213108391,-0.0657136920521767,0.014199355801037,0.0637732921287862,-0.97904145846311,0.000751782466948859,-0.209893362656519,-0.157850990746692,0.327340434952592,-0.0317929339947625,-0.904749024212807,0.0911600555919247,0.397973376442046,-0.162611581100771,0.00778423889037541,0.00517682283040746
33.87,-0.40544808376597,-0.106110101652285,0.902570336284429,-0.026619361647386,-0.06161199814092,0.0199571581589543,-0.981560248733746,0.0557922503882647,-0.099516384363075,-0.0675434164812395,0.00842032993539745,0.0586534475935059,-0.988125874781018,0.0154270796412444,-0.190198606998432,-0.149332408310492,0.300102335815189,-0.0513077793735087,-0.898316200500475,0.0913449735248703,0.400131802673075,-0.166048259701325,0.0268722321558666,0.0729257171260107
33.875,-0.407797373401772,-0.10243833990055,0.902915748373107,-0.0333392485813372,-0.0678297815651729,0.0140685341019476,-0.971859043231825,0.0696553216222437,-0.0945904575948747,-0.063597816470507,0.0112272220588214,0.0665821141085109,-0.995906700746205,0.0341507995294948,-0.163905782306957,-0.139509454926623,0.268211416273557,-0.0613807161973806,-0.892551037308954,0.0746617535841859,0.403773429846265,-0.172803530487029,0.0610633985932507,0.131683488373899
33.88,-0.407402088750495,-0.0922268972660239,0.90355602258461,-0.0537170507340419,-0.0704873805648469,0.00613359419306277,-0.965322625623863,0.0706928668093088,-0.0878065214199776,-0.0749089524392187,0.0280761524474038,0.0650134084835257,-1.00274436758655,0.0555141711999311,-0.145787635570251,-0.124190428884968,0.224634743861023,-0.0645367046405737,-0.890562619563586,0.0667188356172523,0.402946431493371,-0.16744134796684,0.102390457998278,0.197410936259875
33.885,-0.410051764628417,-0.0928830237952021,0.904235497216064,-0.0666598373079402,-0.0763711033312379,-0.00174168093324902,-0.965134980595075,0.0867735614035913,-0.07992331695058,-0.0921368982935539,0.041093085018533,0.0640751018357407,-1.01244824340291,0.0750310286731715,-0.129512287440816,-0.127502608171151,0.181059470230158,-0.0709830934351866,-0.885824933301617,0.0547555438405237,0.40313429440975,-0.169329280847404,0.142251678941377,0.241215327600647
33.89,-0.409928674250959,-0.102580226282905,0.90426405919598,-0.0751219242811203,-0.0894670184420087,0.000572210101543396,-0.96275859144746,0.0959596707086951,-0.0723754946321766,-0.108389298780472,0.0524939340717511,0.0608773649532102,-1.01966062311428,0.0899564876948953,-0.109568650444828,-0.133833113509097,0.147455928408697,-0.073261533297804,-0.922030161336092,0.0359572416204238,0.403182425185773,-0.174161225998887,0.184008174603718,0.290635307029904
33.895,-0.413999846373019,-0.10348302146707,0.906347255077925,-0.0796977548244593,-0.0756438301554336,0.00511614722509854,-0.963358201768313,0.106135039848802,-0.0577921082782014,-0.147123064381168,0.0598613428918024,0.0501747473496141,-1.02309224956048,0.105287927679715,-0.092951333872141,-0.151126829350387,0.0960006512082944,-0.0760119771831025,-0.875783136026596,0.0284682765292094,0.397312240146681,-0.1768270286447,0.214988664829133,0.319500745272404
33.9,-0.40400416364619,-0.0906608334175741,0.90867260358928,-0.0847479325027356,-0.0671357256932423,0.00645642812031234,-0.961998003326724,0.118569032141297,-0.0476619162353011,-0.158680660386298,0.0542411910348868,0.042486836811358,-1.01104947296005,0.102891648402715,-0.0747641565453923,-0.173910362775468,0.0536723637961144,-0.0723577750513298,-0.875983543782232,0.0158487567719673,0.403784156530298,-0.172718132991218,0.24231716134649,0.347407130336129
33.905,-0.406653589679228,-0.0882268225020684,0.909799380386572,-0.0960657096116266,-0.0595248460431194,0.000675417771411868,-0.954342673191339,0.130156480054369,-0.0445055639720654,-0.18178511010431,0.0512173236966885,0.0392079811779952,-1.02822493302761,0.11393920174047,-0.0565812531176885,-0.213494559927852,-0.014462626372366,-0.0663208141922951,-0.872341561181448,-0.00197037925985208,0.404738449809172,-0.157239708287828,0.284586901918035,0.367051117233204
33.91,-0.399297559467649,-0.0847016479390227,0.909765024689529,-0.103258481889815,-0.0548827270528181,-0.00787165381569721,-0.949209656169384,0.133178578150402,-0.0499858283535296,-0.20653108759163,0.0625027564522664,0.0288098351965465,-1.0207910325919,0.107575842172668,-0.04450363154366,-0.242346595913703,-0.0834827846172208,-0.0742085824795141,-0.870573751392319,-0.0163552406458181,0.400090898856175,-0.147511066285823,0.306280472161963,0.37200070894066
33.915,-0.408922853133174,-0.0829395357893082,0.908745814339083,-0.106885984539986,-0.052962585258901,-0.0160103750978971,-0.951983146864907,0.134213019253915,-0.0558900369481027,-0.239802906729968,0.089100929436417,0.0183027914985116,-1.01553557375537,0.120754679467498,-0.0391400314636674,-0.25924481179531,-0.13496904902316,-0.0816949647113134,-0.867053859490395,-0.0272145617284183,0.391345725008093,-0.141870249610208,0.325605315113406,0.37025815654191
33.92,-0.411070011474415,-0.0869333891536092,0.909616984034525,-0.114735835238923,-0.0494988661889749,-0.0183563267351809,-0.951349733454519,0.134615342536023,-0.0494430471864317,-0.275066911451634,0.112741007798758,0.0104333060846139,-1.02515912455068,0.12322044070289,-0.0340677384328207,-0.283206959559404,-0.186186412838307,-0.0749852995298761,-0.877966574180977,-0.0442233371303525,0.38790355707285,-0.128346646392982,0.336969455121824,0.355578484745977
33.925,-0.406670239031768,-0.0871066309188602,0.912557214869278,-0.122983638524021,-0.044151335956112,-0.0248216214465908,-0.951203051678414,0.136058455856925,-0.0364385012896628,-0.288682169606129,0.122353761254663,-0.00676806878422225,-1.02837285164734,0.120815759537427,-0.021913780783973,-0.348160580649997,-0.245798820038166,-0.0650745898766437,-0.882214947317945,-0.0488661449537605,0.393728627053722,-0.127795512054675,0.351771169556737,0.334743892276318
33.93,-0.39915154464924,-0.0777700557293008,0.912636524955928,-0.132400744161021,-0.0296051499495167,-0.0309250446534321,-0.961171473673867,0.128472350530146,-0.0304595354287663,-0.299640967301314,0.127443955249511,-0.0170385707069895,-1.03447794273512,0.105060164098778,-0.0162507091089788,-0.384341163678101,-0.294836904826423,-0.0642575355816705,-0.883454939487298,-0.0542529770654915,0.395778926721293,-0.123098954558372,0.368591808263921,0.301067785851061
33.935,-0.392414186145529,-0.0788859198289448,0.915119430860908,-0.146560210443209,-0.0183383070146256,-0.0337059335392154,-0.965236895519264,0.12007358038032,-0.0385502555628052,-0.318352174689267,0.138215028239845,-0.0304085637677648,-1.02897651093981,0.0897944474348744,-0.0083704350564279,-0.421225140877301,-0.327864982586347,-0.063895416308215,-0.890235312665264,-0.0612091802804645,0.39845450777247,-0.1181850915207,0.392642545874581,0.268436464847033
33.94,-0.392351693843617,-0.0799690482947772,0.913934714920989,-0.16198824022347,0.00634525832749993,-0.0501246858707829,-0.983511106854888,0.123400456520617,-0.035286887148226,-0.331420976224212,0.155777664721549,-0.0342493029596652,-1.03581521511472,0.0729439462080702,-0.00678995613085691,-0.447913543422093,-0.365639791999545,-0.0566136203280845,-0.893565386097379,-0.053649442996455,0.401288719609025,-0.109154870206445,0.412763210490444,0.225927953547238
33.945,-0.391940861414219,-0.0879721720444747,0.915220869636536,-0.169981938765109,0.00739288189294965,-0.0641488916677049,-0.997073300729105,0.113453080433734,-0.0306220696075507,-0.332000065084807,0.155705742731298,-0.0313802980892699,-1.03746991429061,0.0538366644664753,-0.00746416920653804,-0.499853842379667,-0.388854875616451,-0.0456032803750969,-0.899249364571138,-0.0521138755769117,0.405139691756144,-0.105490992775697,0.425357044308155,0.193725710145356
33.95,-0.387676242071405,-0.0932800842038328,0.915874161895775,-0.189095932149858,0.019132895162337,-0.0767621128697866,-1.00960492651304,0.100810410645161,-0.0247904169028491,-0.334713525747885,0.151887193322182,-0.0376158112105947,-1.04117439767919,0.029437886840417,-0.0108867765299356,-0.527406847306322,-0.412898971266987,-0.0361826799176923,-0.900019160738421,-0.047402744792493,0.415330197574376,-0.0959126033014378,0.432699238631961,0.155747433653898
33.955,-0.386813161725819,-0.110109375531177,0.921208438804554,-0.207124004971837,0.0346634689905015,-0.0878134772029892,-1.01236095306518,0.0969525469815003,-0.0287582215501757,-0.339327015589834,0.149555707236889,-0.0430553300226013,-1.04302406391367,0.00371051412444993,-0.0208234975099862,-0.534052789211273,-0.442246435729705,-0.0271288006261469,-0.908876535381155,-0.0347908959548113,0.421791201919415,-0.0920693873086753,0.430457055568695,0.135703757491693
33.96,-0.383613540040408,-0.115299660828972,0.921067930220167,-0.210680971976328,0.0453343555424066,-0.102041323528602,-1.0155210061955,0.0893023634052044,-0.0313092710072134,-0.325828231816057,0.154171170012097,-0.0395722736662966,-1.04063257635913,-0.0117457505949558,-0.0307003306016968,-0.534052789211273,-0.453544305500696,-0.0244975643398901,-0.90804081199733,-0.0313114859718859,0.423774454500089,-0.0824562159832383,0.430375349086162,0.117719919446332
33.965,-0.380007163190733,-0.1183095280308,0.916868138834001,-0.211300666019198,0.0675603166676002,-0.1146231599377,-1.00655758434317,0.0716653912716254,-0.0494728572504669,-0.285959004984107,0.148011899419625,-0.0396843759417441,-1.03773006373412,-0.0376126136955816,-0.0489421383725306,-0.528977010921657,-0.466780239302388,-0.0155023679609223,-0.912847506259141,-0.0263261424031522,0.425949473613637,-0.0693129605715251,0.428575089720027,0.103797703773935
33.97,-0.401907389024358,-0.0997457045098068,0.914574383358551,-0.210441224598349,0.0850867208795323,-0.124050325282795,-1.00133440667371,0.0579176957363915,-0.0721754876529961,-0.27141747916846,0.168793265570119,-0.0312431341923257,-1.03464497716822,-0.0563483023504737,-0.0581331222394749,-0.514722278958215,-0.462629321250326,-0.00699135208453156,-0.918186711874929,-0.0289569150513686,0.429730813464887,-0.0512872946012755,0.428838795989502,0.0904932505354469
33.975,-0.421228783991492,-0.0944819657072611,0.911326852572309,-0.217014615325148,0.0882407948374748,-0.120462269267273,-0.995099087052989,0.0479229666762285,-0.0873101198775564,-0.231655872741527,0.17036407543519,-0.0366332909960281,-1.0176230428431,-0.0697054328168895,-0.052038302787129,-0.473944190497661,-0.471509795928884,0.0102535618812202,-0.919495985889886,-0.0314319914020061,0.429805484980772,-0.0363051156618134,0.431094667923586,0.0799411076216873
33.98,-0.413532877816854,-0.125320177002945,0.903499846626533,-0.228247483652687,0.0871693677895306,-0.120676137343795,-0.991003938003728,0.0386956236912152,-0.114639047967113,-0.199764122965938,0.218344984293421,-0.026888043812538,-1.00090230436111,-0.0668788534385092,-0.0539272346417169,-0.435229737452751,-0.481965110217517,0.0299834619580962,-0.919143183980972,-0.0307346629161613,0.440333218653758,-0.0140061500746674,0.441036017831911,0.0726864451958716
33.985,-0.418740530590976,-0.123944348218254,0.90532487936914,-0.231919135285072,0.0834941231518178,-0.130616680802844,-0.986594704810664,0.029594043710194,-0.127514290913411,-0.158910369798592,0.244044748017349,-0.0275164396187767,-0.979767028795418,-0.0652983048825316,-0.0443221611813704,-0.387047011187591,-0.495210676541895,0.0546819714106912,-0.922006092274916,-0.0327113110409634,0.444027035811594,-0.000562985040127914,0.440704008029053,0.0692408116226436
33.99,-0.410257945361696,-0.117483640102179,0.905630023246091,-0.234344060607102,0.0837599027622109,-0.125451713031143,-0.978862010074369,0.0294329658012451,-0.129964513895449,-0.132609435482971,0.290601130423876,-0.0233229393654419,-0.967987162228489,-0.0617112272325897,-0.0277844439819349,-0.348107724004272,-0.501332147490466,0.0760254030134973,-0.923728400721544,-0.0331286069099379,0.445114459040356,0.0066631927146777,0.439008921384811,0.0651767373711358
33.995,-0.408390411197225,-0.120237775799437,0.908520320797845,-0.238806676596134,0.0941707817138475,-0.119430466124354,-0.982013325474907,0.0295491504344253,-0.130967630916885,-0.102807252506594,0.325152575033811,-0.0248138401657343,-0.956621342416916,-0.0535745647606012,-0.010639397292567,-0.306381840324479,-0.497840900252838,0.0963824445808846,-0.920702833775974,-0.0418403885106093,0.441975414349452,0.0200384040210605,0.4366849777763,0.0594115958449222
34,-0.413963405246084,-0.124984014356001,0.900680832564831,-0.25143359588133,0.0997920705789039,-0.109955323302532,-0.984109907420017,0.0284020888186881,-0.12399026146366,-0.084570922175911,0.379576381565162,-0.0182620917477049,-0.960996188861959,-0.0530659343188367,-0.00117445241398235,-0.263824601181519,-0.482037341512848,0.121597031929633,-0.918313740961663,-0.0467838635209374,0.438504995208974,0.0263751379198111,0.446641044013698,0.0493288093366367
34.005,-0.424820251424371,-0.138685485584157,0.90761970263028,-0.243588305846603,0.105408255092426,-0.0974781961880611,-0.99500001462668,0.0328458715086748,-0.11492920843883,-0.0691046772726095,0.406354577979777,-0.0199270639568567,-0.973590871292246,-0.0535666377034603,0.022173391748832,-0.2212046076019,-0.474192185038859,0.151806112754445,-0.915852495349856,-0.0526341256223352,0.433138453930067,0.01952876751269,0.46938034499712,0.0418583095583606
34.01,-0.432246116921717,-0.151112555344994,0.909549546298069,-0.236551631184088,0.119844242344912,-0.0844263892428339,-0.992126891751162,0.0364743161597257,-0.108037276561842,-0.0491793218602122,0.435558743662517,-0.0199270639568567,-0.994055997921238,-0.063834978885563,0.0382397350510602,-0.189056897100846,-0.491465028754785,0.179092226826438,-0.904139045708223,-0.0613360023635717,0.429998661362169,0.0059976956716381,0.492347704993539,0.0345221665850436
34.015,-0.42662354651731,-0.147766775451458,0.911957753720116,-0.224177625660016,0.135605415408762,-0.0745517458290147,-0.986581187136424,0.0366372519973298,-0.0969609221815187,-0.023322256259212,0.465007320524528,-0.0179829898939919,-1.00969474217798,-0.0828918630241572,0.0400715933483139,-0.170505637986549,-0.530575576635304,0.195287353973575,-0.891296828414361,-0.083278176884722,0.416103892092812,-0.00916015963568025,0.519636289445254,0.0368093689602709
34.02,-0.384821910998172,-0.134577958426231,0.914420370525673,-0.214395090937614,0.151652572989338,-0.0655866637825966,-0.983644199836266,0.0322843903646866,-0.0912057790019292,-0.0344810136871726,0.541620220873588,-0.0134199972767149,-1.02954697644684,-0.0971631682862393,0.0299445210434271,-0.149287101649276,-0.557479400281093,0.20245198905468,-0.904237225673426,-0.0889829737146144,0.406507716173743,-0.00909681472597731,0.544207343783334,0.0229928744972241
34.025,-0.366001885854875,-0.138141295368033,0.921083369755821,-0.214395090937614,0.159863087926335,-0.0682595002932907,-0.990638326790265,0.03624046450113,-0.0879338661652379,-0.041956521114336,0.574405133910413,-0.00979135787837026,-1.03808520880905,-0.104439879384276,0.017387949606623,-0.124066690184178,-0.5651975274086,0.197766509171696,-0.908194282777612,-0.107981422908623,0.385079684171357,-0.0308961967435812,0.55073958199503,0.00351012730831279
34.03,-0.368316224470034,-0.147986790521749,0.915859165946119,-0.215189693910157,0.179877820651311,-0.070105937790426,-0.99560381936374,0.0456718161028161,-0.0860786752325987,-0.0433965807053937,0.572919333961716,-0.0122122707565681,-1.032158380984,-0.107399842881384,-0.0050951730204477,-0.093229668581202,-0.556139115061789,0.186090489135986,-0.913665059831366,-0.127382692158439,0.373188102614385,-0.0182461679654818,0.567916114602544,-0.0243870596417633
34.035,-0.361300886057533,-0.154388300382739,0.911197623822322,-0.208693621595641,0.198397323585441,-0.068301270203271,-0.992778784336479,0.0396888773510525,-0.0952086974215587,-0.0900508450880486,0.585466007660967,-0.00656691978072432,-1.01039060802016,-0.112758441435464,-0.0330111131430355,-0.0164960153337649,-0.553323157033233,0.18168318271637,-0.912073696008377,-0.136864371765885,0.354114990320905,-0.000835495301778978,0.589481671867583,-0.0883707033212762
34.04,-0.354979290118972,-0.1531822613738,0.904550591799408,-0.195352359933668,0.221744538274105,-0.052736458150757,-0.993661036646117,0.0328389703402942,-0.113386691702049,-0.103153612583588,0.601655431040626,-0.00765735510648678,-1.00192680982325,-0.117953423425053,-0.0582854929938337,0.023600090087343,-0.542533834985196,0.181993897193493,-0.911585527998466,-0.145865407425088,0.348058581705797,0.0270528183424185,0.617705769813551,-0.130481860178947
34.045,-0.367040457245896,-0.155466968723901,0.928690135842929,-0.182777372297286,0.226818995383952,-0.0439326827581985,-0.998227302979259,0.0158889052579703,-0.131081473094934,-0.12652067449883,0.613797197136256,-0.00418827001211786,-0.98373385838219,-0.116136465195,-0.0876179382498755,0.110583781467117,-0.526762407063923,0.191263814166295,-0.907080516844542,-0.150562988040538,0.336123235174169,0.0757497539542443,0.641906540419977,-0.192678358574921
34.05,-0.377750213513476,-0.165381316753212,0.926276071547683,-0.158533259276428,0.229589661643276,-0.037693288653963,-0.997329786811672,0.00468009816903741,-0.143445951702619,-0.120869853541041,0.617864698215023,-0.00282333977520466,-0.970199174477641,-0.114224231205392,-0.122773143947862,0.152004727434201,-0.522447110294245,0.196825092760854,-0.902479876387622,-0.138943732726977,0.333278787077234,0.114875651145581,0.657720544079715,-0.240800937306098
34.055,-0.382931505367057,-0.161029132601113,0.92667360877405,-0.123538705299161,0.215165743109637,-0.0412429706467001,-1.00540236817961,-0.00512064389865029,-0.175440115106958,-0.0830272102161114,0.609224180414127,0.00642714366488682,-0.961804485443049,-0.108769033912124,-0.200498139071457,0.216782646712181,-0.496199951253766,0.195496208143421,-0.89807782297604,-0.112562002508757,0.345420058991636,0.184928019989873,0.637818658780175,-0.2861863276796
34.06,-0.400933827652167,-0.16569512779427,0.922693778895325,-0.116784501614075,0.195588594563025,-0.0445679103412194,-1.0064269938099,-0.016737059966565,-0.190814287411812,-0.0494918045040664,0.598634902865236,0.0165401972487601,-0.949701135990096,-0.107276858538561,-0.234376058927888,0.234766620206069,-0.461772843339532,0.185923856924206,-0.888057720613006,-0.0997686738443578,0.350729267565845,0.220603158699459,0.611879623958052,-0.298712714762285
34.065,-0.425093724668843,-0.19053805284634,0.896101163145754,-0.0997903828490362,0.169574865718044,-0.0644167641348071,-1.01226435357995,-0.0351954233273763,-0.242206002576468,0.00153090078193434,0.581615026543549,0.0343787509752104,-0.946895325696902,-0.0974435987882785,-0.238792959883763,0.236380319839253,-0.420288028441139,0.171469486967267,-0.877621488348284,-0.0864966609801538,0.368682670099915,0.245317081796563,0.580653567736032,-0.306374392867815
34.07,-0.453704927283108,-0.190546958613446,0.88276242285524,-0.0678004441952497,0.141554861990329,-0.0667454309203066,-1.00364292729023,-0.0566495277144735,-0.268406191526612,0.064100733501611,0.56291961138709,0.0475714243690409,-0.940311849736585,-0.0857844469227436,-0.224130629192037,0.243394908693851,-0.40109772114117,0.160257152984475,-0.872526576429422,-0.0729952741046752,0.393066549197282,0.25018937420082,0.54300240193634,-0.291461043058389
34.075,-0.466328742188805,-0.189650671334984,0.873070108792847,-0.0411225334741744,0.105509307798668,-0.050545174935853,-1.00700144558962,-0.0654790260218371,-0.262957680044221,0.156654412566096,0.54955652036571,0.0566959919106945,-0.92790250793745,-0.0854594082359686,-0.224293910764559,0.252609136408763,-0.367785990539491,0.136874112496273,-0.867193426985268,-0.0653829474693186,0.420135509886775,0.267845826186992,0.508602632584267,-0.2615946685379
34.08,-0.454652361803942,-0.187625341997347,0.880859947308125,-0.0218259814726922,0.0725221817350373,-0.0405214978890867,-1.00332763721288,-0.0567805569202044,-0.252820498520497,0.243448670818358,0.548447389875789,0.0598913282273646,-0.930080063911961,-0.0737698753531416,-0.229512181093965,0.270524722482413,-0.299125005457319,0.112591170269824,-0.862823508723852,-0.0506553287122937,0.446604599826621,0.261029746267988,0.47792828139308,-0.2151161027845
34.085,-0.435443692353495,-0.168176006538084,0.874376352372819,-0.000622144263184693,0.0458252482417714,-0.0423744656145573,-1.00146848346948,-0.0428063363996119,-0.246241669027492,0.308455588523136,0.532451198805335,0.0701887184184785,-0.930216542756309,-0.0511832520488321,-0.239818595910941,0.280209698063326,-0.231786261914431,0.0852125962430666,-0.865017285039339,-0.0463135608200059,0.479417128373624,0.238299522164647,0.431840721652416,-0.151170117390455
34.09,-0.421786443477669,-0.133821804749751,0.862250580469285,0.0151849314714474,0.00810169184797768,-0.0414828316877133,-0.999605718839389,-0.00776466474667804,-0.230808977993177,0.384016702360887,0.507566117314933,0.0805262097961385,-0.933158292515687,-0.0207905955768921,-0.266591190078269,0.292605238254497,-0.167868278886635,0.0626787245160206,-0.878424932321029,-0.0508168047309069,0.506648596831385,0.230803608068432,0.377589535645369,-0.0904496468819826
34.095,-0.409826266827457,-0.135474227890532,0.866176740432029,0.00889266029028588,-0.00706359142043483,-0.0373465140186014,-0.991710856545332,0.03749461172021,-0.225410122193261,0.410051385676511,0.486192077555018,0.092034521317132,-0.934455441155342,-0.000607096884269503,-0.282355958707153,0.294737542492628,-0.117431305253284,0.0455394100272678,-0.886815413425169,-0.0631470319251145,0.51894794839072,0.227978049017681,0.326303764101637,-0.0228304905516877
34.1,-0.4143583642624,-0.15373901127858,0.870197253711011,0.0188994752729369,-0.0354005524806247,-0.043870904292152,-0.973530504966525,0.054885892839919,-0.228797493784297,0.390222367033442,0.480323826379426,0.109404066558129,-0.936995292096846,0.0252532968334538,-0.286365980820134,0.286582988842802,-0.0500701650587636,0.0421891398349985,-0.897877931650506,-0.0832294901946627,0.535401525282585,0.246579960667241,0.264793490314654,0.0352992490824854
34.105,-0.424800685221308,-0.152457984290749,0.868867554652278,0.0317915328452808,-0.0488212481809225,-0.0504517950852971,-0.966259317457214,0.0717113062118418,-0.238988930488903,0.345268794507796,0.461240418127245,0.11682487344239,-0.939000410210208,0.0413163349805389,-0.285286832470529,0.256282601955674,-0.013083921506081,0.0476746755167239,-0.914564980430057,-0.0936912910331525,0.539000048032103,0.272846750164516,0.210137593056017,0.0708207555051737
34.11,-0.430914272779691,-0.149035294683653,0.861107741074819,0.0512131256848296,-0.069764120823627,-0.0553744768591435,-0.956957339236529,0.0776911089513894,-0.243617829174062,0.276357209788655,0.446014769227277,0.117624067830941,-0.931921184661368,0.0470408938075516,-0.28047988883084,0.187998119789719,0.000141304188540427,0.0676763616887756,-0.927304709300277,-0.0973883542910201,0.532501590462855,0.293735516795652,0.16453321369226,0.0898500316857967
34.115,-0.431631920636702,-0.144360785012593,0.857210353791424,0.0588334837221851,-0.0873245927639224,-0.0482669027342812,-0.952110857566462,0.073768770540115,-0.239373829610209,0.173609854271164,0.426306369874556,0.116209373947726,-0.920096362607126,0.0439035613141459,-0.264686575521562,0.0909771000451569,0.0108286283018821,0.087607076585816,-0.934208468807141,-0.101304334204383,0.524062236010137,0.292559286304557,0.120030562883578,0.104006914816614
34.12,-0.42701353780854,-0.136767704226849,0.852229281095702,0.0555815514722453,-0.109486956436204,-0.0352370066218386,-0.956961134244958,0.0789018565682559,-0.231727814575939,0.058408711794949,0.411712960222259,0.116814323676754,-0.920413501383481,0.0413232462154354,-0.238407803563706,-0.0269524569582755,0.0343842428164624,0.113257488394624,-0.94645257488551,-0.0966486918974685,0.50962146696421,0.291945427717226,0.093309721486334,0.102482665764587
34.125,-0.440621160223028,-0.134117115842223,0.875618126490617,0.0379055965884824,-0.128672291895539,-0.0240490473806858,-0.959823116542056,0.0774212360506467,-0.23532040418881,-0.0380838751896772,0.394803714013464,0.110149960413082,-0.917469225768782,0.0459266375249752,-0.204212639429371,-0.142287675512483,0.0645193809459242,0.133020896572449,-0.946408338565711,-0.0864936082036731,0.477270628529679,0.279339296231878,0.0784648296227845,0.10593071699051
34.13,-0.448773440791488,-0.129605289107091,0.876208147464193,0.0282894860672628,-0.132483754266919,-0.018945955383759,-0.97327350657031,0.0727576343654447,-0.220006050579241,-0.14555088537779,0.38411477004644,0.112668795694742,-0.922506732012154,0.0474015088596907,-0.17786208828533,-0.232635821632351,0.088022541123262,0.162471877187239,-0.951764843334006,-0.0740330292017161,0.455990508332799,0.258966931926303,0.0848797374125229,0.0984311454503956
34.135,-0.437542402493973,-0.115989365577551,0.881318097756968,0.0325529570491041,-0.143498583504158,-0.00929178002007641,-0.977707889482267,0.0612467095179346,-0.224382525372517,-0.208327580445585,0.390669944674429,0.116513628859154,-0.932579846721777,0.0364692264835637,-0.168197443917937,-0.310518084796904,0.119579940454482,0.180636127203657,-0.955259296340422,-0.0617117118469357,0.437545989753792,0.240201804939904,0.102281798589829,0.0998135950712863
34.14,-0.429397272777131,-0.135549474336499,0.891583360604526,0.00833823725411112,-0.154491477254186,0.00446830965663584,-0.98552052887561,0.050509387599572,-0.219904003043881,-0.278139786325383,0.361520144744035,0.118280902328936,-0.942694389397457,0.0275287480680276,-0.162737219293997,-0.378621382908671,0.160389786787126,0.194944836268181,-0.946229241578326,-0.0452136535089938,0.413514396972989,0.236662583450028,0.1343227802591,0.0955859166143242
34.145,-0.430645402568363,-0.150906027352493,0.880337077392024,0.00328757758872316,-0.161706256633186,0.0113218591204313,-0.985480293451372,0.0416727193306306,-0.221617327056716,-0.332236779094847,0.352984895074257,0.130091938562678,-0.962358723840514,0.0208452106826793,-0.152538535671821,-0.433490492529993,0.198507234163946,0.200482706265195,-0.940960399482956,-0.0270920473905075,0.397100894806882,0.235173248227708,0.172638341817339,0.0894310329242243
34.15,-0.418831434178902,-0.147625221906256,0.877035911090858,0.00838723135391186,-0.163231334782492,0.0322690046533634,-0.983284957773471,0.0266433392110993,-0.216655895769102,-0.37982775378951,0.358276443453762,0.133635354426638,-0.983050478606086,0.00621438460485974,-0.136743485825901,-0.471328491096035,0.218065596960921,0.197891836320846,-0.92733646768609,-0.0231608074064531,0.387256831534915,0.251716860155542,0.207266945756922,0.0932606699703017
34.155,-0.420371848665402,-0.146438480668408,0.890444765633059,0.0103967003524303,-0.155884162307506,0.04761993764511,-0.984016912684404,0.0213121858088798,-0.213802374710542,-0.390593767948211,0.354688465595245,0.138610577562479,-0.989816198685857,2.77989813580452e-05,-0.117709746671086,-0.493708017220977,0.233193696493298,0.191400144825202,-0.915149922253546,-0.00989835453265313,0.381730095683411,0.270777638208038,0.259910757791168,0.102277988916222
34.16,-0.420242779868115,-0.155426407647432,0.897307736389881,0.0181511905504284,-0.151614072188266,0.0720647815720153,-0.991499683995569,0.00620579635076311,-0.196744320005883,-0.388127445150333,0.359768185043227,0.148715012526485,-0.995202804495208,-0.011286455967236,-0.102916173956753,-0.514256524458048,0.249423550977823,0.177733591308679,-0.916575989286853,0.000804264196135897,0.383732106324511,0.284766885441857,0.281142416260631,0.112908546718396
34.165,-0.413011286256142,-0.165352244612075,0.892672816198913,0.035752308374994,-0.149689659878455,0.0807166979345481,-0.992389327737498,0.00253638649068293,-0.191703006449969,-0.375809035454548,0.368616433413322,0.156236808285975,-0.997590950569424,-0.0283391951931733,-0.084811028429414,-0.529402039246087,0.264569047500672,0.165446677761438,-0.913762070304418,0.0114012647365312,0.37935110798853,0.287086042163621,0.309500857693511,0.125159141107219
34.17,-0.406120407216997,-0.153875673752311,0.879316606345602,0.0422603101313578,-0.1442304540361,0.0902165018986727,-0.98868532641494,-0.00189889734559257,-0.195422228945055,-0.344349410636179,0.370141901926778,0.165706369244464,-0.994400672329474,-0.042981799774712,-0.0798050441213881,-0.530318058389511,0.296375823018244,0.148750062714191,-0.910226052950333,0.0149071747751887,0.386993782294975,0.265264083565817,0.328337015335606,0.132422796362107
34.175,-0.402619177671452,-0.152341123202102,0.883075101556347,0.0656042928864351,-0.124977400871819,0.125048364210053,-0.98812402931654,0.00376793857453763,-0.193232558570014,-0.314597030667043,0.386201416039932,0.166615521247313,-0.990609679178719,-0.0466308481518966,-0.0664810038171305,-0.499680246144185,0.313763912896171,0.142039783574777,-0.904680947922865,0.0182697522206928,0.397542652961114,0.257780424327893,0.344472245804012,0.154614720350134
34.18,-0.397456212412648,-0.145388828726844,0.895461514589733,0.0686058089115523,-0.118263080547248,0.140767207559919,-0.979547242985549,0.0178252546832288,-0.186928083433292,-0.258172131797183,0.390672171989901,0.163743548962936,-0.999327126341128,-0.0524583907251891,-0.0500032682378446,-0.454157214326143,0.326112436377797,0.14119961969071,-0.908743250804334,0.0225569483107457,0.405084389186806,0.235339100420692,0.350276560819851,0.176824782413071
