Header,foot_Accel_X,foot_Accel_Y,foot_Accel_Z,foot_Gyro_X,foot_Gyro_Y,foot_Gyro_Z,shank_Accel_X,shank_Accel_Y,shank_Accel_Z,shank_Gyro_X,shank_Gyro_Y,shank_Gyro_Z,thigh_Accel_X,thigh_Accel_Y,thigh_Accel_Z,thigh_Gyro_X,thigh_Gyro_Y,thigh_Gyro_Z,trunk_Accel_X,trunk_Accel_Y,trunk_Accel_Z,trunk_Gyro_X,trunk_Gyro_Y,trunk_Gyro_Z
27.86,-0.74853234981673,-0.248982625776699,1.11039634229496,2.79694403730708,-3.41125420419434,-1.59066160232902,-1.1936400782433,-0.00471335836783563,-0.447245920254739,1.7289922680674,-4.56084457672161,1.75671997614529,-0.665088970946176,-0.0700139814688693,0.153528497402433,-0.777857353371725,0.464032537003072,0.0439221216616118,-0.957102713225132,-0.233380109972863,0.0828529068865651,1.05541914846433,0.187983507524994,-0.00876437872648239
27.865,-0.720169740945323,-0.122382322978727,1.14134276974641,2.74927446774597,-3.24755091329519,-1.37011149939944,-1.23905646372489,-0.0950542736538995,-0.483368697025929,1.10195264699292,-4.53754767047459,1.69587372226161,-0.670082902759759,-0.0616876417868931,0.18553678618451,-0.79786516474439,0.3826835772871,-0.0587853454497404,-0.968476441562835,-0.244979218043116,0.0873394428337099,1.05971923590674,0.19523804857988,-0.00826247269759461
27.87,-0.749603311874507,-0.104210214188057,1.14398322505655,2.66428241143611,-3.07926232029805,-1.11954697889601,-1.26052039560368,-0.190174770802158,-0.529153457611878,0.524371157676797,-4.50605359434678,1.61863982967501,-0.68584471822596,-0.0574321082173481,0.20183850111751,-0.870851807498475,0.310693312578757,-0.145784581907428,-0.974089480348407,-0.251069284939448,0.0966037147322967,1.05827963352203,0.197172743821634,-0.00833735776510363
27.875,-0.780276106200627,-0.124217781818264,1.14974404491998,2.49135504203759,-2.87781230400197,-0.779218870867841,-1.27270935109422,-0.26917074116951,-0.563099277053709,0.135207264849514,-4.47553872942397,1.51413969955532,-0.708179742469511,-0.0513736254775506,0.21845910202995,-1.00390088983055,0.245787327984749,-0.245436044130068,-0.981055215109612,-0.257680035455303,0.106871839845538,1.05358782476103,0.190026888768547,-0.0122832603340291
27.88,-0.802446335570961,-0.188521118613263,1.1593126002264,2.3265575649213,-2.69689086093395,-0.496720787051734,-1.30256395721668,-0.338519983431371,-0.596489348733041,-0.0625644193801765,-4.42770092149353,1.40012117665178,-0.727551964403454,-0.0463387541776243,0.228432444931288,-1.1559117572969,0.176615321926683,-0.337570103315143,-0.989070910388659,-0.258990946855434,0.118778345593281,1.05804070796006,0.17767439134085,-0.0158285841037305
27.885,-0.824169906250002,-0.285576607731967,1.17550546022149,2.13611319807003,-2.49204935519772,-0.215195738573004,-1.32978277661415,-0.402374886271762,-0.622086273186178,-0.129445566081512,-4.35287503156854,1.26815966912796,-0.753907086366499,-0.0265937272841502,0.236432010007961,-1.33873066782577,0.121659185210826,-0.386856036912128,-0.997227905023997,-0.260411164027097,0.115828026639409,1.05821993911515,0.146980172382871,-0.0238266248526064
27.89,-0.836244861152178,-0.408140595007058,1.17985670170868,1.93863541048201,-2.32169751429074,-0.00588134729313955,-1.34075013602968,-0.45135281315308,-0.630316842369692,-0.0659883412778771,-4.2574071635845,1.11549598543606,-0.810332356637062,0.0219090922671589,0.260735029785848,-1.58415256794557,0.0697682649512982,-0.44608112582504,-0.999774355910703,-0.258169010552281,0.116044329669386,1.0629538944728,0.114091709648377,-0.0265852189815698
27.895,-0.866294064638478,-0.470663444204795,1.22941313802205,1.81738081523479,-2.14620693474848,0.0711540431899807,-1.32025416558788,-0.485871139823649,-0.642217838571131,0.0819248698962745,-4.18256199464314,0.989519731801831,-0.873986229828066,0.0725957411063966,0.276300856715749,-1.83297946631011,0.0397568902120301,-0.494704514885333,-1.00443580158462,-0.254786075738767,0.120656340647714,1.06209882641276,0.0803041250930103,-0.0293020376240213
27.9,-0.834109334013232,-0.5926866268478,1.21981911891662,1.61128614389105,-2.0282392833899,0.165654624335749,-1.34686121045008,-0.425699573702954,-0.659547141358035,0.307692473835104,-4.09476024261766,0.839203328950771,-0.896281808730262,0.112520312353429,0.28599239789998,-2.08575974470684,-0.00885585750859931,-0.528442068376001,-1.01346609377883,-0.24561946380138,0.118438280822967,1.05958142571403,0.0257796262440637,-0.0305265566685634
27.905,-0.93680396851157,-0.786289225368895,1.21939076340728,1.45524360143074,-1.91531118896485,0.176894472904549,-1.35044955224779,-0.34279339442246,-0.650788720781535,0.543078338124214,-3.99914874242512,0.71641498482794,-0.921670956672768,0.177903828670945,0.305273109255779,-2.41670669657875,-0.0866545087349332,-0.53251495453227,-1.01868922582647,-0.236934100709786,0.119700772957377,1.05240285846485,0.00280070892447254,-0.0334036619318262
27.91,-1.01527306585178,-0.864058324236267,1.23071203499646,1.35806511901053,-1.80317802486913,0.0329734156405142,-1.30755280832436,-0.293146080053954,-0.651006292337345,0.838454643664965,-3.93493436510578,0.626252428114455,-0.960276840345404,0.241998773267669,0.337074775930916,-2.64264919623662,-0.138484481348912,-0.536028573095927,-1.02247015064902,-0.232750434715544,0.121961057405915,1.04243855473626,-0.0259630586115294,-0.0356553045042721
27.915,-0.997147212792246,-0.874320976347978,1.23366749482436,1.29003067177795,-1.71570861962508,-0.26801990649916,-1.28597479882671,-0.259590075308581,-0.66920149508157,1.06978558159393,-3.87766930330346,0.534719754847027,-0.996449458258274,0.310874635020594,0.382284962618677,-2.64615205916517,-0.154511182103626,-0.617059680176945,-1.02428100233708,-0.228211494572658,0.12333998067334,1.03303002707823,-0.0417703120788856,-0.033279474414801
27.92,-1.01326718537126,-0.918721870661449,1.20159981597483,1.29105904975393,-1.68409212517734,-0.480916186832811,-1.29424011715454,-0.198113953350844,-0.680145987978351,1.28389994726989,-3.81253919783046,0.40331792555047,-1.02769376092855,0.31090431983309,0.418784625111562,-2.51959332464754,-0.151042472167095,-0.796041611052043,-1.02409368991311,-0.213441099126807,0.122312744644126,1.01395995803803,-0.0600844684546872,-0.0378710445163752
27.925,-1.09680712857428,-0.925267188713488,1.14499309880069,1.37464356880231,-1.63650254554261,-0.741932338581245,-1.29599923549197,-0.191129861025752,-0.685920479163629,1.47075597718718,-3.75305294286484,0.290427528388876,-1.01484391128996,0.292473356781125,0.405471038410949,-2.39290535341724,-0.137124650713225,-0.91798390341446,-1.02313057217301,-0.208150889032064,0.126290394824602,0.993349026613998,-0.069462967753155,-0.0380188842917627
27.93,-1.1392283567576,-0.861422197840476,1.04916667768968,1.50462849508763,-1.58558075933354,-0.951366136312364,-1.29738020928445,-0.186729149614381,-0.704566107592801,1.6738043732129,-3.68997938846294,0.186935356709839,-1.00673134352547,0.269248477820321,0.398740484940855,-2.23700598388005,-0.143947760183515,-1.00878875743732,-1.03086399521479,-0.19854534556512,0.133327853972427,0.962880254360795,-0.086745130838105,-0.0384568290312134
27.935,-1.18446889393742,-0.78241439010932,0.920016885693485,1.67483615477528,-1.52032991198436,-1.07031417446481,-1.32573410879202,-0.178683331805399,-0.718797602481509,1.86156862110894,-3.58709692591522,0.0896620720392286,-0.959740200573576,0.245972053785019,0.385162777976207,-1.98345806258085,-0.149882245466336,-1.13024264174459,-1.02960519520362,-0.190855480070755,0.144211617692653,0.934273349197637,-0.104228130249054,-0.0357174817584484
27.94,-1.23198864535544,-0.624106325989688,0.798075560857953,1.87789925229454,-1.39456473672723,-1.1821667571563,-1.30461278930389,-0.171504933427492,-0.729506824645135,2.03880815663513,-3.45892356132888,0.0294354839010788,-0.990648263956247,0.218784559920764,0.388821847619046,-1.75950816324116,-0.146396660810461,-1.2104765659617,-1.03122478501033,-0.182215121728103,0.153167025429037,0.902756213493493,-0.114492362009187,-0.0344199649989605
27.945,-1.2158538919594,-0.473850713546241,0.634750826540205,1.95895309956646,-1.23145165555616,-1.15111332405726,-1.27174553650539,-0.118634241745247,-0.746431918389228,2.11181091234635,-3.31872467216179,0.0306892498758998,-1.0332356374692,0.199439544267731,0.414405060165239,-1.56579648780365,-0.112671170997687,-1.27316929474285,-1.03556684885379,-0.177653123053777,0.162959687984514,0.866517292675125,-0.118088175571271,-0.0277246829898278
27.95,-1.27583649875476,-0.275753611864269,0.560283995034276,2.0430704315887,-1.22741227462441,-1.10848864737916,-1.21936553101564,-0.0784773685752478,-0.743028406295345,2.12276862453849,-3.17389242739275,0.0844943581868813,-1.07099109676147,0.205757540484448,0.420691239156721,-1.35767048597339,-0.0492314421077941,-1.30432306576727,-1.0429582012177,-0.174944612581766,0.168051273940337,0.841502439143777,-0.125364909845795,-0.0167299208551192
27.955,-1.29777085591021,-0.175438452080373,0.452963674466819,2.04005639842416,-0.844307278757714,-0.988969963662578,-1.1748301712074,-0.0161914804202824,-0.747330263511431,2.09828739244596,-3.03372963316462,0.165177828813047,-1.10721690011553,0.231776562108619,0.410765368487229,-1.21307641602818,-0.0219840189400359,-1.29119311398325,-1.0493223686894,-0.168071638725273,0.172556758060939,0.811748868506259,-0.117563658579902,-0.00335745338209395
27.96,-1.53779900678372,-0.115269897243652,0.435859954897849,2.04325435674369,-0.502566645971617,-1.01998671846843,-1.08859051417788,-0.0545883684669814,-0.751990498174479,2.06327393852845,-2.89921366822517,0.252324017093183,-1.13631870320136,0.294810029823068,0.372472643837818,-1.01940211219509,0.035006961906941,-1.24078977800805,-1.06108267389684,-0.167743640072059,0.177004894024356,0.77298327391755,-0.117739270168678,0.0205245911093492
27.965,-1.51757151967445,-0.109747284697745,0.37477510380745,1.9983419952917,-0.337253041763329,-0.967655792258888,-1.07721437605414,0.00575850346634617,-0.765680019568804,2.07434560098379,-2.69269810833895,0.291286885462134,-1.17755277813077,0.344567181069862,0.347524458721025,-0.907358617223421,0.133194212231875,-1.21488394597183,-1.06784114429073,-0.164150306866154,0.175246019532432,0.73656287108169,-0.115104379960179,0.0421850491189377
27.97,-1.51541448604707,-0.213401803214717,0.352679830560328,2.01289226915771,-0.153866398044951,-0.812223357048647,-1.09522999875236,0.0745455809817578,-0.768674457371007,2.06243408103651,-2.41256474457356,0.329206129000661,-1.13465548158052,0.403512466985961,0.250586166532409,-0.692205579198447,0.267455092827535,-1.18536946883106,-1.07648896520227,-0.162498819633611,0.171400414097297,0.703715887613798,-0.120450717093543,0.0657477994697159
27.975,-1.46237747415647,-0.226505584500632,0.327544900887794,2.03799590671234,-0.00319848106323464,-0.687216007932025,-1.01902549749157,0.0644790617248474,-0.736844936658941,2.01635732234642,-2.1832863119655,0.370330549317281,-1.13652276467868,0.445407065342412,0.209324527762057,-0.593915632512512,0.335923415265629,-1.11642416381712,-1.07540682735872,-0.168235631065191,0.169256407566826,0.674600419620491,-0.141491427730342,0.0927034185319079
27.98,-1.42310737822742,-0.371821075235496,0.226437019854822,1.9800388887686,0.0566182107188113,-0.413615540365364,-0.983718579524765,0.0294718933760506,-0.732221764029491,1.90557547056365,-1.97879484477247,0.354515221394639,-1.1454683097928,0.494895134585986,0.163990831416475,-0.550915028405861,0.369071690389746,-1.02279870855196,-1.08022148707864,-0.160670282523545,0.160461830739155,0.647673535538877,-0.161786186748267,0.121795031431961
27.985,-1.55958197864428,-0.453297663313242,0.253281925829733,1.95900075953439,0.193624431102704,-0.326833244282327,-0.92015101999801,0.0305626179843505,-0.720414636341492,1.78435121835573,-1.79021654593402,0.312422618893524,-1.17264934648603,0.560267413903854,0.117483232863274,-0.431384673786021,0.403576862227118,-0.891117729948564,-1.07119898427876,-0.165353823431582,0.153128154456155,0.632649528125369,-0.188113795509158,0.154797726624017
27.99,-1.66423032205122,-0.380905578803286,0.332336738462454,1.89829266190442,0.29093126016738,-0.39624911136211,-0.84458556860509,-0.0319187544819999,-0.716828992938143,1.64394990403592,-1.59784071808686,0.237439723584785,-1.19453445103526,0.610180046611031,0.0723877973360417,-0.271036768695297,0.418475003461094,-0.762166846492393,-1.0582978864623,-0.168341612091092,0.143405204412401,0.623454466827622,-0.222462848533353,0.186911814228772
27.995,-1.61603514543656,-0.260146758170003,0.348224635108187,1.66179387150978,0.241709277474187,-0.477170230956489,-0.769954876967127,0.0922512619632392,-0.763423684676261,1.51223130431329,-1.3956935503203,0.167385324637767,-1.18224420867047,0.651620395464029,0.01872495468705,0.0147377897692041,0.442586152263568,-0.589920589837162,-1.03795276264001,-0.17649366375933,0.13117609396171,0.616079377776631,-0.241389878254712,0.213435186224418
28,-1.57203153680824,-0.265532681342707,0.34530901213918,1.3920338022382,0.153322003447316,-0.367950251561111,-0.747602241312876,0.131198289634716,-0.764551406903239,1.41151232479011,-1.17764432361579,0.0921293532895437,-1.13401142094353,0.636928871326431,-0.0145965127263432,0.208649785877872,0.438654718573779,-0.482383791678436,-1.02274779437261,-0.184359864384851,0.115860525022382,0.612928933894962,-0.240866726853338,0.229988123427861
28.005,-1.5823459991437,-0.292653548426953,0.301011984713668,1.13542492803962,0.0485098271046718,-0.143980259434283,-0.731360151163427,0.0929333683800428,-0.755992183681882,1.26444594985676,-0.958954119215854,0.0269683633402559,-1.07926038681877,0.594288697048985,-0.0360261506902446,0.319605853715505,0.418806384846488,-0.390227417622781,-1.00537325624451,-0.195565749420225,0.106080585365021,0.604627248361582,-0.214470099612534,0.240369250358903
28.01,-1.57657334305271,-0.277221812461058,0.238233530982016,0.951555219755598,-0.0283803745684638,-0.0131577636977128,-0.707426772398237,0.0541089816461198,-0.763674475447642,1.13061274025915,-0.694377957115637,-0.0545162150510502,-1.02017001505546,0.542536465707967,-0.0378103383497734,0.363699235298989,0.363903898187403,-0.341933511452706,-1.00169251756926,-0.203571086614621,0.0975248081543319,0.593272037870898,-0.181786132180386,0.245326300217806
28.015,-1.5469229684887,-0.343068671005364,0.09585766316106,0.740557747826899,-0.0970264553167187,0.0268854721671996,-0.694603266036796,0.0429651721668926,-0.744880669404744,0.951640647501909,-0.374318193459825,-0.161320334971562,-0.984884350993489,0.493745169596616,-0.0332089456796179,0.338513561550055,0.281637691229961,-0.337409903209569,-1.00015915016044,-0.218988847945678,0.0901827396443021,0.582935972185357,-0.137851408972749,0.235948849449309
28.02,-1.4825590790299,-0.321262211033243,0.0485850331878816,0.603633017835703,-0.0716275301359034,-0.0014587637853003,-0.726567031947936,0.0622764364751636,-0.715119692744042,0.80893981244561,-0.154736217594128,-0.218770175170856,-0.952911418519057,0.429436828847161,-0.0183835428774388,0.29918299054215,0.160691799567953,-0.396662507861518,-1.002093602949,-0.246131523796976,0.0913248271954995,0.569758662833272,-0.0933941452195977,0.229152383272797
28.025,-1.349722927815,-0.3279466500588,-0.101817928451727,0.469372847564207,0.00710602321892734,0.00587636039315494,-0.706407511014315,0.0475992433904519,-0.701065972459822,0.683558206224905,0.0308138726405742,-0.228072174586489,-0.928613565504207,0.386407546824999,-0.0270843252352227,0.336369702478557,0.0785820706994055,-0.495718317344411,-1.00747766165028,-0.253262642132482,0.0951076989281751,0.572474329766233,-0.0541162178606125,0.218768480449599
28.03,-1.28185045174997,-0.303943904151789,-0.190607021046027,0.31039637733784,0.19028656131187,0.00957293201745959,-0.695779315324001,0.0146680955337194,-0.70326898787285,0.522483115210143,0.188842632133977,-0.211201849424792,-0.899401646706913,0.332479616734366,-0.0543787108558271,0.389638490969538,0.0381532611512591,-0.641165034616353,-1.01231634552405,-0.261714557652881,0.107469332513151,0.580475506190218,-0.0301209400791064,0.189025996834085
28.035,-1.408263201654,-0.0959200582631022,-0.209828372043837,-0.15331208637696,0.510599282911719,-0.235598518635306,-0.673334991805097,0.0264696867399242,-0.711810632459993,0.444089130139207,0.395586342259069,-0.159172102935088,-0.879462307640891,0.29250381626844,-0.0758388463788615,0.419180633751982,0.0382645743099356,-0.771563059266998,-1.01578593378617,-0.26970368259473,0.12396330504773,0.595094090693204,-0.0252513507214691,0.157696370377657
28.04,-1.47348567490153,-0.0868160608472974,-0.0962337445162911,-0.974071606710992,0.607166270109941,-0.656518616221067,-0.686928362984581,0.110836434152657,-0.724228823046767,0.495814397963926,0.526490178967622,-0.143220756577896,-0.838894292393189,0.234121297175517,-0.127518381037794,0.395762056782346,0.0594402587948545,-0.873046664300522,-1.02372364620968,-0.275833600273824,0.146130550269156,0.615893489658128,-0.0439721874991997,0.133801984285845
28.045,-1.22842160968208,-0.337547165954421,0.330077995163117,-1.90940161016457,0.548276344911256,-0.992617076943388,-0.746114265649755,0.24602591333252,-0.517124492322784,0.70851376984708,0.673164633037002,-0.13025818328836,-0.826768548270913,0.180068598305907,-0.168626983717827,0.301474764758243,0.0848699383911517,-0.966629622070538,-1.03154423384299,-0.274717030556044,0.168530298394333,0.634160204926826,-0.0731330106432523,0.10772733225871
28.05,-0.919423037465918,-0.0895570687614789,0.835836204544512,-2.14663126121801,0.517864205151301,-0.956657698440975,-0.851310587558425,0.402168620358057,-0.124159379227651,1.11317273609458,0.829752907757426,-0.132828410069654,-0.825939900790976,0.121469568400733,-0.186983660369517,0.0869005723534009,0.0981793135047949,-1.04941647326177,-1.04989997572072,-0.272931247399392,0.18389317401725,0.636640973249909,-0.107763241022335,0.0876432182890701
28.055,-0.456770990069757,0.913472251071843,1.68326657217052,-2.18635051952032,0.441379186172357,-0.681150656659137,-1.07668049870497,0.658905388614089,0.419805564647588,1.66514473565272,0.918268272906579,-0.147576791483132,-0.857188010250652,0.0507125673022275,-0.203473637622958,-0.177456877226066,0.0884279843865386,-1.12749942454279,-1.07072262325304,-0.262912793233402,0.200204078816116,0.633201331287857,-0.151291954699148,0.0615502938118134
28.06,-0.127300916008088,2.39462929880907,2.68822821281668,-2.10361274322152,-0.090477020153155,-0.90050614803393,-1.46035220904547,0.895481298321116,0.914331580453861,2.00222185263212,0.800775963785487,-0.14064496676046,-0.937832362558471,-0.0157875926912267,-0.225209851364245,-0.51372700214724,0.0715752567484679,-1.20116593605815,-1.09433952690833,-0.257014471443662,0.199051407887857,0.627624212884414,-0.214518797451288,0.049258010884346
28.065,0.0934119164609442,2.39199359465916,1.99998920954278,-1.46458406648873,-0.810930636370197,-1.10531102876565,-1.82538744704521,0.981909003785117,1.08447412530393,1.5759146377777,0.492562873922256,-0.0409798126493554,-1.10946026895036,-0.0860502435477914,-0.251648131720886,-0.933121412522223,0.0443847389156356,-1.31605808571681,-1.13921356405974,-0.243200688182345,0.206316213629754,0.600334991195467,-0.290616958351863,0.0287330806894539
28.07,0.378947144557569,0.65321084283835,0.849906545174311,-1.29416426729958,-0.851072864961745,-1.004403299189,-1.99510739225565,0.863568318894403,0.680154714423308,0.255560641125303,0.101791310071607,0.146790785939796,-1.30009179039062,-0.136087821162422,-0.281894176159535,-1.21128387554199,0.0466809917626893,-1.43944233902714,-1.18876816708016,-0.230578420151912,0.217118805858601,0.566431555925272,-0.359329839458451,0.0158318769181329
28.075,0.351112946358437,-0.301951009319483,0.483061138562655,-1.92523168223017,-0.34909060674131,-1.00142486034759,-1.81049651446621,0.568475696663112,-0.0711104569921881,-1.73417159265758,-0.185782015598097,0.347867892542264,-1.47963862126719,-0.177594706885739,-0.274887095804765,-1.45495895915595,0.058652284950037,-1.64176455606968,-1.25658165885132,-0.224894950172919,0.210687317648139,0.505006773206715,-0.447968981291026,0.00618463711965735
28.08,-0.92410438256628,-0.717710791179355,0.50252377416954,-2.38352966308594,-0.00662725787212312,-0.867353542113067,-1.40285473771017,0.253023001034775,-0.669032036623655,-2.65743346564879,-0.158631407386751,0.391227042345832,-1.55164838002959,-0.184724010227625,-0.187263103639503,-1.57907936387186,0.0359587575904351,-1.81980805836119,-1.30695944266049,-0.224535259346428,0.193617734755767,0.43799928153779,-0.510621596626799,0.00813239138128537
28.085,-2.23126157243329,-0.680947241936899,0.710730717438796,-2.21118647064428,0.036211421865127,-0.509754954027687,-0.973659811287322,-0.135393245380727,-0.881930235673424,-2.61864306227355,0.170043876612455,0.2399812330272,-1.57424139609008,-0.205419944427104,0.0135036820129115,-1.46933544817295,-0.0681858976136821,-1.94543861509877,-1.34728109274701,-0.230311071027447,0.155678230327669,0.364240690105904,-0.578449107451611,0.0137166124424763
28.09,-2.26978425633708,-0.245447305321773,1.0227081162748,-1.48560300914635,-0.13903093545003,-0.0495398326512184,-0.795996797544688,-0.519565199133107,-0.558155839386966,-1.71489696113836,0.669261897909238,-0.0486327048549279,-1.56616319037245,-0.231655887841107,0.238077095813784,-1.12011314579173,-0.20486097809658,-1.93437876837358,-1.37467457106451,-0.2336543242951,0.102801044604109,0.24643514439147,-0.669318426171859,0.0191125004160679
28.095,-1.10882923365125,0.131184049980515,1.14180113840059,-0.908206509880083,-0.331083302489665,0.268287091595883,-1.01893709831372,-0.624577221665987,-0.0535650005246457,-0.635187953925373,1.03905789232584,-0.31645965693991,-1.61666314760006,-0.252705372274502,0.400470701290746,-0.500555402454719,-0.324340923151063,-1.84218009795853,-1.3928586576721,-0.229502307452143,0.0458842579926982,0.141252671920206,-0.755724225452958,0.00764222326140218
28.1,-0.0323711672199696,-0.0083711784837324,1.12899308831863,-0.845271085489502,-0.39068175935638,0.187069462450858,-1.36886637760584,-0.485136287318609,0.166004178550611,-0.170243695752517,1.11673229407134,-0.322502454665643,-1.64732833540457,-0.227854242259874,0.448719094924372,0.460445250637393,-0.417688279253522,-1.63381589653562,-1.37955044956602,-0.222709067818043,-0.00195686770815607,0.0725669186657976,-0.813467382926027,-0.010264413345542
28.105,0.155295851080954,-0.326014709815277,1.08036526574326,-0.670643460301876,-0.394003339881056,-0.00962965901419668,-1.50286377476426,-0.289850865223369,0.168234491417049,-0.224418709003443,1.04693895514531,-0.093811931426875,-1.59128060308704,-0.166123452846341,0.342275875567473,1.17924595972769,-0.430105069414838,-1.40688293303795,-1.3679780837575,-0.206371606508083,-0.0428788982022575,0.0560748641623569,-0.849060322336402,-0.0502306015314384
28.11,-0.211663402890549,-0.351767823326156,0.990270894230363,-0.388700646258427,-0.316696437710737,-0.0584172466692878,-1.32868734189155,-0.188229218820656,0.0713093088825137,-0.382249708200971,0.975264873783922,0.103943858859059,-1.48989795498422,-0.0825050984303577,0.136193398183173,1.60290261175535,-0.385944228696533,-1.16200907959841,-1.3532461138075,-0.189633399680047,-0.0626952238822034,0.107664218881222,-0.829675463879373,-0.0734867683792424
28.115,-0.598322407529888,-0.0369171171264089,0.931884066564802,-0.0559911834950151,-0.186697413232719,-0.0171967627562672,-1.03950582427512,-0.188075306053399,-0.0524564881740365,-0.128966584870033,0.913143476212813,0.202892739325027,-1.27632524223447,0.0477304983001187,-0.148359209865959,1.56117557646687,-0.251500932864822,-0.846682538339528,-1.32398445424654,-0.172315491316519,-0.0790026393106101,0.216766478055664,-0.760479478724298,-0.0889506727890982
28.12,-0.580927822532359,0.156376631928578,0.888153717824384,0.115952468876507,-0.123195273987517,-0.0381446123825642,-0.831236993284051,-0.157746187967082,-0.123016088523008,0.545992919402041,0.922752279219029,0.0800249033244796,-1.09718368943678,0.115016595181052,-0.27694819341152,0.9317484534395,-0.16018267610763,-0.723939356155015,-1.28081261498817,-0.14781032485308,-0.0972601168086582,0.37594809846045,-0.631109406003114,-0.101128181915623
28.125,-0.462797115374225,0.281936649053426,0.803982485401158,0.217308668927471,-0.132055749022011,-0.0137502796034268,-0.862719973428529,-0.00465762349824313,-0.100200122728122,1.28869621410176,0.915954589737332,-0.0608597678943625,-0.901321279625785,0.140181596011865,-0.355508506031957,-0.18304805863826,-0.0703260773305027,-0.678030071123725,-1.23517294244009,-0.136153641589608,-0.11715845315156,0.496284833872596,-0.52388344877714,-0.104637109891934
28.13,-0.401747505564621,0.384384386155211,0.759642554130306,0.268335686499514,-0.134533898512796,0.0605293016240881,-0.965203128601013,0.258540881049373,-0.0200724508412512,1.85498991773838,0.879984536824245,-0.126883510684702,-0.769992819494141,0.127037586039409,-0.357722514009048,-1.36190437349189,-0.0115900412085902,-0.635132316394758,-1.17521878220706,-0.131147471229999,-0.134469247827075,0.600557969732042,-0.426330537330316,-0.120248267550239
28.135,-0.411147133526727,0.447947620440429,0.742954952477038,0.286675863345041,-0.150828089175535,0.0928531507392529,-0.988355029417563,0.449838234940383,0.0432521210449739,1.97021500558253,0.845850322368731,-0.123385539103206,-0.700616720189903,0.105656367730163,-0.311882288827146,-2.06631502452789,-0.00152681485710232,-0.626281833994455,-1.12376682639614,-0.128973384294575,-0.14300084424448,0.665308608739642,-0.373574911381041,-0.140972626636819
28.14,-0.397003449149474,0.501572928518025,0.738548554969712,0.204037999498899,-0.186515525199122,0.0839201812877347,-0.92433395062402,0.627690655096156,0.107414813853893,1.6730862431176,0.792556121796024,-0.11019590743254,-0.621988711107157,0.0856363579263514,-0.199131941163141,-2.74617011975176,-0.000872382894158363,-0.652846851700517,-1.08012619237025,-0.129470661289381,-0.142646721592083,0.703841906588762,-0.353512388496106,-0.153406111853726
28.145,-0.386183963044074,0.483137117167504,0.736136716610999,0.0903286713391205,-0.174186958574933,0.000235247070530855,-0.849818756142327,0.672235684983648,0.12197747329475,1.1199239863888,0.737377445817822,-0.116541749820924,-0.59252624731038,0.056743991094237,-0.0471565083483186,-2.77219828715488,-0.0521143962928368,-0.696424064334562,-1.0370271537363,-0.116711350428924,-0.130917896768642,0.740215300635515,-0.363893760934691,-0.153248439664569
28.15,-0.408315119299629,0.472831302606942,0.749609625848338,-0.0172970812484053,-0.154523582045894,-0.0470388896418998,-0.822319311255553,0.648827478571849,0.0768632679407244,0.390969485793501,0.678849024096739,-0.100208751321504,-0.62393943486875,-0.0024504395824088,0.0425429709630975,-2.37756111864914,-0.118560189818301,-0.776765682891953,-0.983208001106871,-0.1024977529393,-0.116820262168844,0.773972633615017,-0.389674555184722,-0.150480940937996
28.155,-0.443922297986062,0.408794701231625,0.740627330971786,-0.10747546689664,-0.149692983707256,-0.0560427591518059,-0.826915386750295,0.563224877315996,-7.54068919850952e-05,-0.214979155765931,0.644952495160015,-0.0461083370881586,-0.666070490234244,-0.10497913004402,0.103481378720452,-1.76773974715086,-0.195838328887471,-0.891526242751107,-0.94744691245477,-0.0826254071037125,-0.0960654052328204,0.793294793909815,-0.415873613087531,-0.149533955617242
28.16,-0.456221603812958,0.370552457052292,0.748364477323972,-0.218538404823638,-0.154207462308063,-0.0895508315856027,-0.871495147798762,0.438557360562365,-0.058189504150149,-0.396238084240452,0.631122470174742,0.00379487716911758,-0.734810935821597,-0.300852420875584,0.176107009966726,-0.874945036435314,-0.282745626213756,-1.03646832836481,-0.894507323929155,-0.0505909065116513,-0.0750286021622006,0.805331326388597,-0.447064886830775,-0.155425272110854
28.165,-0.453783425801955,0.365946733690572,0.750752432322853,-0.331098052481826,-0.199850335287969,-0.122438902771723,-0.939718264713679,0.29637511576821,-0.0606279123476536,-0.432804373323975,0.620330995042984,0.0172008608607918,-0.763198000768448,-0.471842965221482,0.219748590646076,-0.231054671145805,-0.349192177249252,-1.12928117424731,-0.857101858167472,-0.0278078325285986,-0.0555430014445159,0.805002148714359,-0.45571974022142,-0.155336943123568
28.17,-0.409769540941909,0.379644949815889,0.77719378584702,-0.442149992285387,-0.231648480516881,-0.13943932136082,-0.996903270175791,0.231172393607928,-0.0320961214924374,-0.450863971781535,0.598479866008612,-0.00464390025466483,-0.819638204011724,-0.610337714362351,0.255678352970846,0.255122742535375,-0.4167954110286,-1.17122407635277,-0.810670032489133,0.00507560229421895,-0.0396649753118502,0.799036349396641,-0.44654235124872,-0.155678603136651
28.175,-0.364960957000499,0.365731948044759,0.799167914426151,-0.524533797706232,-0.251410787349573,-0.156218803245742,-1.02487220611775,0.245378158356347,-0.00812290077692098,-0.476277269023477,0.577470978762358,-0.0088121251033898,-0.871655520079789,-0.676242125947917,0.293927119068212,0.463576406008553,-0.463579686400513,-1.12682605798063,-0.767396614576359,0.0310099081996318,-0.0204246331278622,0.783449520079928,-0.41458456308858,-0.153922153662533
28.18,-0.366185069561698,0.315960661964602,0.809380956068617,-0.553981347491781,-0.247118598126673,-0.187117613577497,-1.01189880962043,0.230493431323652,-0.0228865028601604,-0.522385777767072,0.547121985411903,0.0213297924788833,-0.910468462335103,-0.663718377098081,0.332156971245142,0.357054174667689,-0.475714127929071,-1.02357754384613,-0.732695668871367,0.0506950562373769,-0.00492704807139401,0.747306420241607,-0.354943224584246,-0.144885966176022
28.185,-0.415265869745257,0.234160216203328,0.813156478711923,-0.544031410025156,-0.245523427232149,-0.204233336171825,-0.968223379849886,0.181714201046091,-0.0683521902609805,-0.445197759744679,0.522867003880054,0.0460498679688126,-0.94355246168132,-0.604854538432141,0.397054950874259,0.00393937989780724,-0.439558380628352,-0.884730358169151,-0.697194115915101,0.0791262345121969,0.00982144531454632,0.663460262241097,-0.258936730143305,-0.128979048614233
28.19,-0.446575314837021,0.18141997492805,0.827180130789835,-0.50076852036601,-0.224524719760499,-0.194083535687596,-0.946490782948702,0.116112418798343,-0.114541651999213,-0.17752239768606,0.516249909234539,0.0165577860537514,-0.954997903760793,-0.54968379352797,0.440379268785081,-0.278259900360671,-0.358609835765305,-0.819009865081685,-0.661215477380057,0.0982595126816697,0.0290402413157087,0.566808871470476,-0.17513951744372,-0.103969169667012
28.195,-0.438610653493818,0.173177356930233,0.839339469292074,-0.433276573264135,-0.205848410884043,-0.162696498015426,-0.959367715622026,0.0887520841116204,-0.13508081611599,0.173747752079838,0.515833854675293,-0.0325333858416673,-0.968812164106725,-0.492957895669512,0.47187991963215,-0.538962249310949,-0.230508129480101,-0.783294426906982,-0.65216829724533,0.112820416504576,0.0343487313937052,0.450779896932418,-0.0890508468680513,-0.0695520068223048
28.2,-0.418593258218868,0.178931426038508,0.848343994773932,-0.352426333829226,-0.173737913352373,-0.108122909816615,-1.00272760761446,0.108158113719044,-0.114805176196285,0.481296557998859,0.513630634763748,-0.0646167135237974,-0.979915104616113,-0.453707625868577,0.473542914544788,-0.684245671079043,-0.117817006903763,-0.751913425187046,-0.647388911147101,0.122040766733352,0.0462095711819532,0.309655890774692,-0.0209675755459468,-0.0323894655062802
28.205,-0.400229587501557,0.203897667714252,0.85001813575989,-0.273456723193629,-0.148652191787738,-0.0767119384903429,-1.02977841727428,0.157428612215773,-0.0923760219789686,0.640788004305824,0.495065890883329,-0.0857441491617547,-0.988969771548432,-0.376612800893869,0.458050774731445,-0.732203488881515,-0.0183566913180005,-0.718262694581065,-0.657705692041729,0.12968950791488,0.053974008294001,0.161374269926673,0.0242798151172694,-0.00132617902577251
28.21,-0.393714460966043,0.227120585279102,0.843949137651228,-0.200503527522635,-0.128472200291141,-0.048246020906383,-1.03984618626915,0.242940403951652,-0.0816716179346568,0.665928378356377,0.461900947817531,-0.102469714060538,-0.9981576530863,-0.288766641884942,0.448162169479436,-0.736861743519809,0.131246221637441,-0.665181091749787,-0.687849716831613,0.130968108981315,0.0544042038543253,0.0328055020961819,0.0468574075483323,0.0246440153764644
28.215,-0.403194396607765,0.233855770722584,0.834641548930862,-0.168727899697017,-0.115732933355102,-0.0225085017755017,-1.03330321781559,0.290075175839595,-0.0873440667544838,0.590156659697996,0.446415155673007,-0.115427164836344,-0.989672778197579,-0.213457646933153,0.437143358581118,-0.714635413026037,0.224524223818996,-0.614327315737487,-0.736130939170785,0.130524005378161,0.0536127281920361,-0.086264952393787,0.0676019279078866,0.0607363967713858
28.22,-0.422980755209581,0.257806547294347,0.822321972494764,-0.133684246909913,-0.0875433368904792,0.00503349757138376,-1.01532693292337,0.314971236947385,-0.0876967635026448,0.453593510833148,0.420688479771004,-0.126293844758165,-0.949855663784714,-0.159861747673849,0.441477265011053,-0.681927970348183,0.352122290874664,-0.591189609431821,-0.803463421270583,0.113033808127768,0.0369912554851583,-0.197535840329536,0.0857312758817445,0.0885553637754283
28.225,-0.41780635608529,0.267845949388331,0.821084279558343,-0.139402155154318,-0.101128880255789,0.00463212872383074,-0.989795968567914,0.33241841815356,-0.0861502325339038,0.255586585352716,0.397174917526507,-0.115311645772651,-0.924681566233699,-0.160573127052018,0.441207884428473,-0.686419711374196,0.394958609312502,-0.611908373833003,-0.862783664349722,0.0966079216957256,0.0284216078306108,-0.250893774707355,0.104756995756077,0.115770518682611
28.23,-0.415524624862711,0.270573918908877,0.819236126748706,-0.154962330526552,-0.097404009333731,0.00187151393884573,-0.980627982443623,0.330308331469843,-0.0956129804947844,0.0551035370833301,0.371024947813921,-0.10299345109341,-0.906179566334214,-0.187676386429195,0.426956633850855,-0.666158234726282,0.379275678493587,-0.666631149948411,-0.928938621352899,0.0747845492899468,0.0138140553538808,-0.284334117001511,0.123156705949955,0.148537996879276
28.235,-0.423408443075429,0.265159992902387,0.816764686085867,-0.186066140712482,-0.097366567208894,-0.00793467263120699,-0.976335419970569,0.333583246788548,-0.100758448995769,-0.104478696030544,0.347235108094853,-0.0912381441042174,-0.89604030031061,-0.216029657394857,0.375788397340042,-0.603259647226829,0.307057743867941,-0.748011550355994,-0.97809697874848,0.0570883856805151,0.0137293427017307,-0.290555854370234,0.118296480409189,0.175661961957926
28.24,-0.424325786241172,0.259815543328875,0.819636661530835,-0.206389497169127,-0.100039031277441,-0.0204413524275158,-0.978825491968043,0.322891057320768,-0.100968551081209,-0.240782299544211,0.32365594441927,-0.0766227546862327,-0.889569534533624,-0.23669916716234,0.289453411828742,-0.451405513828589,0.224287216285703,-0.836347557809606,-1.04860107377745,0.0302155334783885,0.00777975622648304,-0.260518480641248,0.100269735284044,0.199774961392834
28.245,-0.415805742639452,0.253137165482085,0.816988577983607,-0.22153831889847,-0.105483479155198,-0.0374397876521149,-0.975540805777377,0.299179372706718,-0.103574772315214,-0.326291962330531,0.291050703436291,-0.0685204530967532,-0.894704956896307,-0.267602022189541,0.184051960382809,-0.237051825212174,0.135407349809319,-0.931903994943533,-1.1019432412258,0.0154042727867935,0.00288585687360636,-0.2136404569495,0.0652159399751867,0.217610970691595
28.25,-0.409902219410516,0.250183951902405,0.820280271220636,-0.221901780012453,-0.104218363485476,-0.0532991480464619,-0.98231755399204,0.258268733950377,-0.100234628548627,-0.302861830312329,0.26470267625723,-0.0677445442390023,-0.892548340787399,-0.290924635993379,0.0874794985658134,-0.0635588346171836,0.0932520228799018,-0.994719175562597,-1.14594166827368,-0.00396451215720209,0.0131090918611475,-0.135357314815461,0.00887407147783344,0.230485849650735
28.255,-0.405953625439979,0.244031640339953,0.820497124745878,-0.207059430466807,-0.107385273468392,-0.0621602200098734,-0.988314972711789,0.223146261140412,-0.0909537099594006,-0.199727355161437,0.249050147489927,-0.0768469431256626,-0.893775991001093,-0.33166525283348,-0.011242230987852,0.13345300802831,0.0761543716169949,-1.05444369565712,-1.1777651652011,-0.0212655868274153,0.0102540571947615,-0.0262331231207978,-0.0438858072675075,0.248624748329261
28.26,-0.407265310102367,0.250070466223901,0.819706913539033,-0.195474803447723,-0.0942836048539019,-0.0778631239313099,-0.985854027131183,0.198491931984162,-0.0773340440037444,-0.052398859262557,0.233038777567248,-0.0872400393123974,-0.896937340909389,-0.366490930515537,-0.0668541738875271,0.20952063548765,0.0998756769778947,-1.06201183974345,-1.19396840358459,-0.0320574117919151,0.00818073799489948,0.0955692803730951,-0.0948188801920879,0.270303391642093
28.265,-0.408443905239884,0.249979273434326,0.828818254053203,-0.179977620196628,-0.105890356004238,-0.0877582238949806,-0.985477247811624,0.183313430834446,-0.07869638211729,0.164163176827003,0.218002042611623,-0.100819586634499,-0.911776595373354,-0.393505384513106,-0.105090649534491,0.233170987110831,0.149700286182163,-1.03985758060119,-1.20254113294863,-0.0343334652653502,0.00964773102878863,0.244225002907853,-0.149135483837751,0.287720567169046
28.27,-0.404926877862302,0.23990482567935,0.831511480019883,-0.144208666712905,-0.102286224250745,-0.0868605466073391,-0.981126893866434,0.186125253597218,-0.0772021317946447,0.414529758984805,0.205343237617795,-0.124962243177631,-0.932165380861089,-0.411578767217163,-0.106890811895008,0.206597323335861,0.207875373405562,-0.99930378283523,-1.19687264100735,-0.0341996933691441,0.0116515201310279,0.380605452892354,-0.178753339515996,0.288108649487881
28.275,-0.408337250801757,0.227084215048893,0.835794814140293,-0.112199846183426,-0.0899810917446419,-0.0760796205757431,-0.975496363541637,0.180341046053342,-0.0676801818454883,0.61879749347406,0.207909525102674,-0.145989152689642,-0.951541989223268,-0.41082088258496,-0.0886110032387652,0.158861081921843,0.244481963554432,-0.932334717759327,-1.18155576769101,-0.031567209043425,0.00996586006394798,0.466907600853523,-0.188759782779161,0.28010240312218
28.28,-0.39899874000718,0.216465352794582,0.832366058056005,-0.0722745508533442,-0.0836936976472619,-0.0691333511127393,-0.975591410184859,0.180845830273933,-0.0605055135797224,0.797723675833095,0.209119172980889,-0.176885888921571,-0.978221323388789,-0.392465893292188,-0.0404861378377422,0.133002726820512,0.250311345806017,-0.835926964400562,-1.1533191000161,-0.0287475878987556,0.0182779923103805,0.569021642836484,-0.154671686212405,0.274283037248856
28.285,-0.411243212191888,0.215319039119867,0.832879133236594,-0.0305460318922997,-0.0641476318942241,-0.0656926063134191,-0.983684666333331,0.190720493630496,-0.0127011459081609,0.938919399572061,0.22088984167851,-0.201385143458147,-0.996929117724018,-0.367179067760594,-0.00324661819091803,0.181766696691415,0.233014401750648,-0.743407586824801,-1.12767368610863,-0.0302696961435918,0.0199831831697166,0.618938465002422,-0.10394727901349,0.267774949840597
28.29,-0.39503574457961,0.221224137012504,0.8312389620749,-0.0305460318922997,-0.0699063132903359,-0.0612979775918326,-0.993230318312631,0.190669539648348,-0.0110078417070099,0.84659275451745,0.220121617729711,-0.178416942852473,-1.0182167086751,-0.321198685144486,0.0425837089874013,-0.0425702133485224,0.204106230719186,-0.631884147539597,-1.10135787388114,-0.0375111704317773,0.0202210334404242,0.643368104738368,-0.0289573964376136,0.254657041654246
28.295,-0.404820785156393,0.205510944968775,0.833228307897908,-0.00305874258579397,-0.0603826569653609,-0.0488817219745496,-0.970847257353323,0.267026082495598,-0.0184266735121625,0.738201236564062,0.214321450859179,-0.207268065676368,-1.02331188360588,-0.289901204764874,0.0666907513929063,-0.0959415263246895,0.170431541009791,-0.526551532615901,-1.08073664929222,-0.04104150437762,0.0206686158153295,0.644249894427399,0.0290296387550623,0.237544587478795
28.3,-0.395723646170335,0.255600052014156,0.826205108449572,0.00461843525965557,-0.0538646857938751,-0.0369160511158239,-0.984024702161705,0.310650709495955,-0.00682758786020485,0.659427225583888,0.223611140774418,-0.201817771225302,-1.02629949796372,-0.24091844038124,0.10085476774239,-0.139476502696775,0.14707810257203,-0.439380367335209,-1.06718691766082,-0.0411522108206848,0.0229222782814742,0.615644466338215,0.0832245602152904,0.222322846517995
28.305,-0.391227739177384,0.269707709476383,0.810309154198719,-0.0110003259022599,-0.0555301779348582,-0.0316025968401424,-0.982334860583722,0.288475830509705,-0.00373617341921312,0.513245337014797,0.226292282342911,-0.185628372622622,-1.02854254788451,-0.213993452594639,0.118702724407461,-0.194451439170942,0.126236414502861,-0.373890210217641,-1.04971510066357,-0.0470119443631037,0.0255973239590443,0.574746234945208,0.125272045662513,0.192824715170112
28.31,-0.39330908395746,0.266166792512463,0.827541044963234,-0.0380015256602234,-0.0678598474356321,-0.0360692288389525,-0.980747344236739,0.251938995505055,0.00408332876293501,0.312250542646881,0.224419196393466,-0.17228227081503,-1.02417042155159,-0.188815345192568,0.139906283502473,-0.280341690829958,0.103716306367072,-0.325909033630769,-1.0375691769242,-0.0531085264888036,0.0310898196106998,0.527346909818693,0.139166413899359,0.17260976431679
28.315,-0.380642049651902,0.267791058700169,0.816349209875099,-0.0415473634840776,-0.0692425602347518,-0.0382463989315699,-0.981867760850755,0.310289912766071,-0.0159609933842798,0.146543952559222,0.220269839367475,-0.165851648403525,-1.01720877910943,-0.166394689183638,0.154446572257179,-0.365819283511552,0.0934915635345908,-0.316939286896155,-1.0228757262866,-0.0565777961713674,0.0386442127635007,0.47961643736165,0.141127538788403,0.153771904755143
28.32,-0.38820018761463,0.276469535166929,0.812374496679203,-0.0522498305991121,-0.0570174092755642,-0.0410677997778837,-0.976296907942593,0.294947767942614,-0.0432819985150569,0.0379099060221402,0.211167527766038,-0.153508212745955,-1.01415189190575,-0.164624349256202,0.161244196049562,-0.410808213527839,0.0812001137595038,-0.320037809163362,-1.00146897493445,-0.0689658251489746,0.0479662001897077,0.423042599824157,0.141367287780281,0.13829080894136
28.325,-0.401235966841266,0.26494749987759,0.813874281831147,-0.0685920455857425,-0.0667093880487973,-0.0555296876832157,-0.964851801836813,0.267906635745259,-0.0511721409739861,0.0329482759590477,0.214681652850575,-0.148055570655399,-1.00434617189553,-0.168044376262788,0.170368917127825,-0.463985742262186,0.0716434575731049,-0.362539065076441,-0.980526660162835,-0.07463901611695,0.0576925209467303,0.395794606700666,0.124021349014613,0.119872361747902
28.33,-0.39684979492131,0.257672075570144,0.81874858282299,-0.0742616246236918,-0.0710467453454835,-0.0611992667211649,-0.961241691569401,0.249437943512066,-0.0568546197735919,0.0508856031893173,0.211574273214049,-0.148370886723619,-0.993636527908273,-0.183551395804971,0.170590379712311,-0.511811579366133,0.061896105455634,-0.405720588347994,-0.957687785650022,-0.079251774671295,0.0701660415272336,0.376334570358632,0.101789899688772,0.101455331515295
28.335,-0.388182779269443,0.265990015713504,0.827161919531414,-0.0702244787249846,-0.0582442730665207,-0.0608167049812678,-0.941821603527545,0.241423614692366,0.0075205487558345,0.123434259218931,0.210293777632635,-0.161034116997183,-0.968539333757802,-0.202790745388618,0.175704236181057,-0.601528906665013,0.0177779749306759,-0.51281602615739,-0.9511866563547,-0.0836256862241939,0.0812211878554904,0.362166460912173,0.077861120106178,0.0761010946328388
28.34,-0.393219905200619,0.255808741970974,0.815336409976071,-0.0547497232129749,-0.059306621680471,-0.0726546941667882,-0.957989354109496,0.229912828643065,-0.0754478327542857,0.215953276759996,0.207394999613157,-0.169664635358998,-1.02354139921198,-0.240263319753669,0.165392932407023,-0.529023142594553,0.0664844590553387,-0.544006509351347,-0.899578855089824,-0.0947532175016896,0.0941070170716292,0.369243949651718,0.0685030380373036,0.0527649820752867
28.345,-0.394896895009874,0.253657045991928,0.815709070023327,-0.0452063642442226,-0.0646185151631874,-0.0815433307280624,-0.958254681619955,0.220814281218279,-0.0690181582415696,0.37197560931856,0.207232514089915,-0.184338015185649,-0.942550751553926,-0.250679614824849,0.154687874822483,-0.559146987081476,0.030252915304204,-0.587759198266364,-0.91811358758908,-0.0823434916629326,0.0981444495748211,0.362260416175372,0.0570271628811862,0.0543015614897754
28.35,-0.393703300960877,0.26342215760075,0.813160266716025,-0.0297610049795278,-0.0629347930876717,-0.0916905766695334,-0.963034889396558,0.20669155844764,-0.0587272757664512,0.529852820159532,0.202712727358206,-0.201809824167719,-0.945431375437169,-0.283652490207919,0.12724723217373,-0.574015483378318,-0.0133560184663916,-0.736173810918629,-0.892412519643324,-0.0750665614557154,0.107030051828465,0.36520836005434,0.0677030597699784,0.0999531071721014
28.355,-0.386347135887048,0.274971224899167,0.814117237449657,-0.0304824030356852,-0.0532938644697602,-0.100749785330792,-0.969155902456528,0.202087910651577,-0.0469313508735439,0.648459520296156,0.202813746503627,-0.214861683198219,-0.965746959465427,-0.306566470576318,0.137022411158852,-0.731490009874476,-0.101419902443484,-0.711943056063023,-0.884339668624664,-0.0810418788768157,0.119744801296006,0.394597267823069,0.0954104718731327,0.0788323771635892
28.36,-0.378316598254202,0.269750556482713,0.819367568007372,-0.0276120459414241,-0.0562452917404616,-0.108675930750423,-0.966477482673498,0.222166462941469,-0.0483512100735277,0.709896276608537,0.192324539748618,-0.222908002065804,-0.960109486569965,-0.327016126894534,0.138206276687388,-0.715328077414086,-0.129473958531489,-0.637934997126312,-0.877977306767778,-0.0593406873741768,0.117528685475916,0.412210325776804,0.134982980496313,0.0254741276766698
28.365,-0.386756206640687,0.265132524652204,0.81696208592861,-0.0199041155057645,-0.0667961314320564,-0.128716552710704,-0.962963335538445,0.244485562071277,-0.0513558598600133,0.750891928806854,0.184069631032669,-0.225628644227982,-0.941284127271976,-0.336857493459875,0.14017926106867,-0.714408945923138,-0.127108476853687,-0.550074586526322,-0.881370543789168,-0.0483392054619488,0.118021296652223,0.422531330259646,0.144144872342039,0.0188989430915567
28.37,-0.398465222079621,0.265689429240832,0.815172780823457,-0.025719756445431,-0.0706238486143575,-0.139815758940838,-0.960005132760082,0.25368213427406,-0.0513982170173166,0.746958815067211,0.17858634541889,-0.221903722986181,-0.930250818483196,-0.343914007051383,0.14099588934465,-0.688323280231278,-0.125910812858626,-0.504648238236864,-0.894461837120349,-0.0406996655671694,0.115825222763211,0.435484377649843,0.145514512852764,0.0126694883746116
28.375,-0.40016985886969,0.272011653870998,0.807670232766504,-0.0463828722525293,-0.0634925376267001,-0.133951328324883,-0.956486031444866,0.268099370723117,-0.0447647106127593,0.655254182586118,0.180846341613006,-0.212210272197109,-0.93248720565562,-0.346320457237891,0.144557740060317,-0.695343907933604,-0.124224903761228,-0.476613102462764,-0.909501036718814,-0.0399717329736174,0.0979247753610359,0.447022983656602,0.155166395296798,-0.00201258306479911
28.38,-0.392379882972859,0.254462540728184,0.822594653573096,-0.0469457971860036,-0.0722088289407626,-0.145931453079435,-0.965856183552687,0.270087212193865,-0.0461219703207674,0.546214120933403,0.166429251432419,-0.210214223888009,-0.920065403355626,-0.350819045885516,0.150446844230405,-0.710182947285068,-0.128722873181936,-0.41545740408579,-0.925140163715422,-0.0414742989878475,0.0885827931368104,0.469437880121973,0.189321471748141,-0.0212421210239622
28.385,-0.39478933824947,0.256165674814411,0.822166033435906,-0.059282524905177,-0.0671413458281808,-0.143450917765284,-0.9670442130689,0.273745729114211,-0.0545028266204862,0.433757893811524,0.161963630119139,-0.19928092325473,-0.90602260047891,-0.355760333056546,0.139883923810549,-0.653740006800627,-0.118828852389544,-0.387742176730813,-0.944647071508371,-0.0323828125036788,0.0796091240812454,0.47755920273165,0.211798702811696,-0.0347053318861859
28.39,-0.39900577574916,0.267922548772189,0.816894703873926,-0.0678959069840635,-0.0691545750182184,-0.140352162539216,-0.974210572105441,0.25796230621781,-0.0609546844213039,0.313128978614619,0.157877385616302,-0.188199960995207,-0.905786431783994,-0.356804943175182,0.131981013977453,-0.61082740337841,-0.110995881507173,-0.369905591675779,-0.958785550696617,-0.0286332788666054,0.0785433271501295,0.479755910187917,0.208588180057187,-0.0473790532728247
28.395,-0.401195140460124,0.239970452925433,0.827619043688097,-0.0824179607504574,-0.070648135096631,-0.139590823943148,-0.969613760695299,0.235850557783839,-0.0754922859140389,0.22662132144656,0.151586996213884,-0.180353177356578,-0.903181636293663,-0.360360470075285,0.124262207430295,-0.60938304564082,-0.0975032736014701,-0.349980395663275,-0.981949503378574,-0.0262024561679045,0.0837501133170999,0.494721130086075,0.181848580448539,-0.100281244910942
28.4,-0.39762888604469,0.23942460295564,0.823512805772427,-0.0910481062250698,-0.0712393495037138,-0.136266216244383,-0.969760124927102,0.219920115457928,-0.077983474532434,0.180351469092448,0.147650178926026,-0.175661187059196,-0.919132591033597,-0.351288423722626,0.121106029733275,-0.55588073521287,-0.0713519464757573,-0.323059928894495,-0.989184624081385,-0.0224099691018768,0.0811244978452428,0.50013055272909,0.154901616331383,-0.128134021542189
28.405,-0.404173307180138,0.241612754392216,0.824285823809295,-0.0860633539260008,-0.0575464740508687,-0.127017501078018,-0.969823865394616,0.21308359357347,-0.0711802335979624,0.172833076234119,0.148412135403877,-0.171392900370719,-0.918285503008272,-0.345705066779775,0.12231832341186,-0.526545425864737,-0.0565536398138932,-0.291273095069534,-1.0027230678463,-0.0163483704413893,0.079729447898627,0.517848106172497,0.115439295012562,-0.137558322171933
28.41,-0.393604384021798,0.257052397109697,0.819881045891313,-0.0903269824683773,-0.0636670721090203,-0.134341436430282,-0.974834073168755,0.218859130052849,-0.0529470919653527,0.181146429245609,0.140701967358966,-0.174029977386135,-0.917377557555459,-0.342728113566532,0.122462481952569,-0.498062697835538,-0.0412494988767973,-0.291076999515021,-1.01196339696648,-0.0158053628862351,0.0801013665189187,0.538059590815148,0.0743551395994985,-0.142937105467899
28.415,-0.374282362560575,0.266078882791909,0.820219232618118,-0.105002785773474,-0.0643416411544804,-0.140941431141653,-0.969878381373554,0.213924111857158,-0.0507201236146349,0.188668140826644,0.123877838723327,-0.171906075855751,-0.92452825855767,-0.335888439214732,0.120460171053147,-0.49326508803272,-0.0271004940682098,-0.283167370262924,-1.00859216633295,-0.0206658462828397,0.0799647807993194,0.538172422656017,0.050292378441175,-0.148924577480543
28.42,-0.382221795022513,0.282080643033529,0.820091017009952,-0.0968386157883245,-0.0610296219284975,-0.153308463203477,-0.975993982535647,0.224587428355482,-0.0641757072110653,0.211999310456145,0.114703173413229,-0.179749787963474,-0.929296353941629,-0.32687263373745,0.117679883761016,-0.519812865050369,-0.00720919245123535,-0.270186515291846,-1.00536921439902,-0.0112604569367972,0.0780369285211762,0.531667064326377,0.0292499345124453,-0.161355017485441
28.425,-0.390477612577447,0.280606296396754,0.815839015914746,-0.0980883946712933,-0.053241103947291,-0.174995174007774,-0.974371272281691,0.218538737243656,-0.0806446233981013,0.242571520979924,0.108367149373669,-0.179720284122539,-0.926905714558069,-0.324106269893275,0.124608304526877,-0.545094657342772,0.0128561160058329,-0.263739090281006,-0.989235241521213,-0.000927784850703399,0.0814179882988322,0.524955203490085,0.00151567789714277,-0.166472489406545
28.43,-0.391747996618468,0.2584036771107,0.820126567890914,-0.101404309272766,-0.0569399679612197,-0.188616547111522,-0.959429636755369,0.210092856034937,-0.09102983026257,0.291169441194693,0.10405110541406,-0.180785160819095,-0.918507163713708,-0.323656316203404,0.133243972399914,-0.563029784575138,0.0363348414689249,-0.260445585803054,-0.987385466557149,0.00180773122364524,0.0854524398648732,0.523924811627773,-0.0168844281600938,-0.163445267612172
28.435,-0.406617797197353,0.233737581230746,0.825955095815842,-0.106009019211848,-0.0533574931323528,-0.195639518131353,-0.951886538584882,0.221331939043641,-0.0946755726744757,0.353071699767768,0.093127578496933,-0.192920063785887,-0.913241005204481,-0.326984644775978,0.15063118059983,-0.610713938579154,0.0528778439732236,-0.276602022681425,-0.983347889973137,0.00114123319210054,0.0909126909476375,0.535231416065331,-0.0191265419125557,-0.159081693260283
28.44,-0.404551000106352,0.239557932508019,0.821894234561532,-0.100707851313535,-0.0519645761520425,-0.185569645226561,-0.963898291723832,0.223827576013088,-0.0915703531082645,0.365787878239473,0.0902416030181456,-0.199011068550806,-0.919271801273392,-0.335602944954273,0.163718132159807,-0.632955593152631,0.0507289381721261,-0.309062267213783,-0.986041369063912,0.00293334413584386,0.0968778101070401,0.546778247582723,0.00293324540626126,-0.152022002664004
28.445,-0.403442203149187,0.25302694147363,0.823091670042982,-0.0976116010346196,-0.048470713198185,-0.17032312365391,-0.985046934718638,0.23884031882677,-0.0909924582230191,0.343656463391445,0.0814834872163069,-0.195010305267318,-0.925854984033229,-0.341583944668924,0.174674681609667,-0.632082291391113,0.0492540236556889,-0.324723844528199,-0.988316778218372,0.00741751455790697,0.104235367475415,0.564846209182953,0.0378137716529827,-0.136343895833797
28.45,-0.399733928957225,0.255240496459549,0.823434199333778,-0.0984497624269852,-0.048470713198185,-0.178179988503567,-1.0009206084227,0.250265071406282,-0.0955902594208165,0.286427606427689,0.0734122311034294,-0.193864583969116,-0.933078310383284,-0.345144379946478,0.181344306291389,-0.626661552020622,0.0476638364576467,-0.33208480639023,-0.983963109423422,0.00480000236386151,0.113556745636323,0.589273164978412,0.0808784426904129,-0.124183458509349
28.455,-0.408831368105956,0.25491936791377,0.816499127607841,-0.0992291027358,-0.0506459200622552,-0.184534015506985,-0.992673435405416,0.234793287478381,-0.0951650073906084,0.228405218790107,0.0699423686875007,-0.191610140616572,-0.936627859222787,-0.348071352788606,0.185751304085258,-0.598940745531696,0.0467956526834747,-0.321950187035771,-0.977381775558004,0.00308797589977562,0.109803165118845,0.611813124287327,0.109740761363884,-0.112945654218373
28.46,-0.404674025878583,0.240019079299837,0.82364420925619,-0.10676316719506,-0.0444668773785157,-0.173799366207947,-0.973936522508774,0.224230687734559,-0.0902338510211102,0.191423690394989,0.069899861013586,-0.201210271323031,-0.934800998349269,-0.350168553996846,0.184736879801487,-0.565868161143887,0.0523559909146708,-0.312242237558738,-0.993309593240971,0.00474071592144168,0.105161675618771,0.620416196685874,0.12918007367143,-0.100163350498988
28.465,-0.405903557686922,0.240342327210815,0.823789821092857,-0.109853114948487,-0.0389472952953814,-0.161437510846996,-0.972217070727469,0.221258715322633,-0.0838430650334548,0.153236349981417,0.0656131713652574,-0.205496964856896,-0.936894679487076,-0.35540939748796,0.182096262987348,-0.505521868592935,0.0570452039436541,-0.312600252127762,-0.99774461698439,0.00389833935822508,0.103294640686501,0.634042618707953,0.147047673024877,-0.0758102274979731
28.47,-0.393074437482015,0.247741332380264,0.827357937601845,-0.115410141771263,-0.0264490796174282,-0.154431912921137,-0.98099775254041,0.227683978488388,-0.0813795517247993,0.110561719250087,0.0566830482650945,-0.205154250795761,-0.94236546688681,-0.361142345370254,0.176362511236605,-0.449627592109387,0.0602896343557388,-0.312876087274564,-0.99834171595084,3.50526248952992e-05,0.102170951259888,0.652843848273786,0.171624610953087,-0.0571026053863632
28.475,-0.386093709729956,0.249396596959488,0.830655932047521,-0.114617283850552,-0.0203153238221113,-0.158147799840992,-0.995914531809639,0.227552461571151,-0.0792320886684315,0.088402178508529,0.0491160745106973,-0.193742600950733,-0.950161558922451,-0.361789583194112,0.167553330786989,-0.383070057090621,0.0601945946816635,-0.310792927123228,-1.00541780116164,-0.00329645806625316,0.0947750353803158,0.669422346154551,0.182293742799405,-0.0421085734777658
28.48,-0.39409613708997,0.249778134333217,0.833033835775285,-0.110306842009906,-0.0177473784129596,-0.161994293365313,-0.993060562482222,0.202583138825409,-0.0781038888736066,0.0831846382083559,0.0485680944760119,-0.188012982327186,-0.95654578355445,-0.360934028868248,0.146282192107133,-0.32373234010325,0.066075823674262,-0.300281971197493,-1.00701869723031,-0.00507537045533491,0.0914759149496735,0.685305510377787,0.182402522120998,-0.0316715945475903
28.485,-0.400247578474229,0.234057691436794,0.832478760057899,-0.10380480736971,-0.0149335465314128,-0.16755727569495,-0.98391857169613,0.180296370718148,-0.0884885682784178,0.105351835106495,0.0484336471770036,-0.192406325303231,-0.95893273231494,-0.353300425276682,0.12556315626218,-0.273853520498405,0.079628661391791,-0.290664879746154,-1.00120753788604,-0.0106244660984384,0.0861271033142834,0.709461581179989,0.174091724381066,-0.0276053780242259
28.49,-0.401681286701611,0.222338084188663,0.835043366556462,-0.088230914065931,-0.0116816359426431,-0.170466354520917,-0.969094014664066,0.165455078754862,-0.0913406875786341,0.16938437183177,0.0522543319334911,-0.201526940706653,-0.969690410777188,-0.337295641774313,0.102156526397238,-0.237882480358977,0.100844997240196,-0.271687161872695,-0.995380297628543,-0.0100474195106029,0.085908340277342,0.73055735385041,0.169411733519414,-0.0254113230608195
28.495,-0.405308351440779,0.210240976825062,0.828247618518662,-0.0637115751809848,-0.030602858744428,-0.179294806687761,-0.964827048953281,0.150972894920864,-0.0944856252076557,0.242112037768695,0.0588645566816214,-0.203638151288033,-0.980227260948331,-0.323268214421437,0.088217304184232,-0.247753170495998,0.116365417446207,-0.24974563312442,-0.998841920104326,-0.0114715480794155,0.0856128911051154,0.757578587546355,0.1667096100533,-0.0222723115128276
28.5,-0.412778420727556,0.208678183442725,0.834564327027707,-0.0634669664103059,-0.0123666114533193,-0.159521512657875,-0.96906175831485,0.157248690143655,-0.099323529743314,0.314237202126315,0.0572061283171452,-0.204938875159778,-0.985479276107546,-0.308499826573081,0.0775096788815999,-0.275617861874152,0.140326487581991,-0.242931038672103,-0.99997386944125,-0.0137157909369563,0.0798702247491312,0.771403100774657,0.16168424487114,-0.028792615333131
28.505,-0.413506440251397,0.22409296916573,0.822452250835747,-0.0479425430913659,-0.0207534104203797,-0.150941171023009,-0.968765304398999,0.182463926304521,-0.0901686494100268,0.399634749366673,0.0690858642550524,-0.209174988332478,-0.99066907551797,-0.291451299276459,0.0740867590685394,-0.313868168857154,0.16654523436864,-0.239873175276734,-0.998430322464818,-0.0174634571062827,0.0726807981258222,0.777882145006301,0.162276508028407,-0.0331239499192836
28.51,-0.404802325460508,0.22445298754828,0.820838841452757,-0.0452063642442226,-0.0221127811607732,-0.143394882458832,-0.953825419088918,0.200658044338251,-0.0787871079817759,0.464718050390123,0.0804178257605757,-0.210682564056051,-0.991208578184245,-0.272997972725463,0.0788846116610596,-0.330379469554357,0.185514005930719,-0.235884241650733,-0.989982372742557,-0.0248484864678256,0.065212019909802,0.783628155823297,0.164611462413001,-0.0450220272162663
28.515,-0.402647969395412,0.221024850391788,0.816754703693939,-0.0320592971453716,-0.0443020080361927,-0.156438770511364,-0.93920789330811,0.22078761878346,-0.0782481314795408,0.494558924756077,0.0914806254838606,-0.219148086021799,-0.987427484224244,-0.255190403785617,0.0875682009580993,-0.33555397390052,0.210264074670139,-0.2316669318705,-0.99600138208204,-0.0222144303769812,0.0589435095472318,0.801030322179721,0.164264431724387,-0.0642688569281787
28.52,-0.415879322018842,0.218594795554014,0.821423546953549,-0.0467071995528554,-0.0430957424102642,-0.142724888000752,-0.934007973238367,0.222372825881629,-0.0741548979471148,0.495979571893421,0.0983402909172431,-0.231004172726706,-0.988090023715129,-0.243442331897698,0.101952433317639,-0.335446987092269,0.22287107261081,-0.229719724722743,-0.99242612242289,-0.0274232159113876,0.062530470079075,0.8258382899149,0.158822645463251,-0.0983992329529794
28.525,-0.420440513852432,0.225237400108203,0.816002337022479,-0.0446663213965535,-0.0598907921893834,-0.142494949803909,-0.924771491162788,0.229639373607088,-0.0628782980171578,0.493920877085993,0.116695570854973,-0.23727921634929,-0.988215194201103,-0.236094796899468,0.119408214889117,-0.326596636756014,0.225786294189602,-0.222191455061986,-0.992966008422535,-0.029161456380487,0.0560211043474474,0.858313850601254,0.149241618071217,-0.122192863887201
28.53,-0.409821388184507,0.243661483708576,0.814447256098938,-0.0461748716954244,-0.07184762224272,-0.137969301520315,-0.927799427984943,0.230138711494328,-0.0524087260591987,0.506547568173002,0.135366191124366,-0.247272008901535,-0.98753370839304,-0.230520088373073,0.131026844046404,-0.326105650048604,0.214643619968292,-0.212624751990331,-0.996338997954894,-0.0305343106204686,0.0542694165257779,0.890256191755345,0.131284229077601,-0.160499238170699
28.535,-0.398748878582235,0.262586876852708,0.810724179072024,-0.0441202188184997,-0.0863494050167897,-0.1433305435703,-0.948074104010521,0.23670979972222,-0.0330696053372184,0.514897877193309,0.145562669318364,-0.251264659794484,-0.986967678693731,-0.217422647219596,0.138671543051093,-0.320192704313349,0.19327940926294,-0.208205351727255,-0.996382293503561,-0.037890634203836,0.0439885877469325,0.921913943030377,0.11157785392573,-0.191519148140694
28.54,-0.389696964625408,0.266168902740618,0.81546552656192,-0.0719321870634431,-0.0904189040706486,-0.150756046295584,-0.954344327008499,0.233008389606559,-0.0339733916838529,0.482765664581425,0.159837967180023,-0.24460758964976,-0.989732066532603,-0.205088148224739,0.131781806608339,-0.334540766652649,0.151667094974441,-0.183372254890895,-0.999854631787425,-0.0313857388626217,0.0319585152873171,0.961294490759978,0.0820143059060474,-0.232599093380854
28.545,-0.397237588896559,0.255597954937453,0.813979331860759,-0.0785588779009373,-0.100026394457088,-0.164881252520393,-0.959561919258013,0.212871336282444,-0.040428828865529,0.46292845330547,0.175546748050056,-0.244458856337432,-0.97831820451672,-0.190945373114338,0.128246648490104,-0.368610000002715,0.137592224487081,-0.169040873646736,-0.999120569508481,-0.0286661023400379,0.0244403728184318,0.986721740247884,0.0534919137649306,-0.265442570952136
28.55,-0.407231486259489,0.250781656125888,0.815965682019908,-0.0963739296377389,-0.105128619197377,-0.158788149345479,-0.960512862409306,0.18841424480534,-0.0460713437344426,0.466833586282419,0.190386267243351,-0.246486781877085,-0.971817896547721,-0.186762586217923,0.119219342852352,-0.398127914246086,0.14463420935687,-0.17503365325209,-0.997761503198533,-0.0223405225255776,0.0130159921785606,1.01017256067222,0.0182469400234965,-0.302532494689316
28.555,-0.39578926665979,0.239461013164093,0.820145427692656,-0.0939429410054995,-0.106026667214565,-0.148404349290426,-0.959685558309206,0.175594692192408,-0.0518662204369407,0.463172046181137,0.207261514808435,-0.246483509179185,-0.971139800277712,-0.191129499446755,0.111724632492451,-0.452917930179305,0.145730957388878,-0.182461908715208,-1.00402102167444,-0.0164001989154471,0.0139119560215656,1.02391710026095,-0.00776946602839985,-0.327316506202264
28.56,-0.390407576298798,0.233693004303684,0.828639673388134,-0.114414591175357,-0.103632010102464,-0.126063691498311,-0.970506812401878,0.179341418051357,-0.0509361422157914,0.446843363337376,0.221405506134033,-0.250369637527578,-0.976167179069996,-0.204066722365292,0.112866428217505,-0.480428331970105,0.131617177998848,-0.216651031293355,-0.999228167211545,-0.0212987052889831,0.0242701814873589,1.06600762243323,-0.0530800653347872,-0.35167400772782
28.565,-0.387187640645395,0.232759955844036,0.832630859648801,-0.118411491236321,-0.0925482561973419,-0.101570827547838,-0.975945251867101,0.187143641713456,-0.0570324422622773,0.413972321526406,0.229004088731119,-0.257482177793759,-0.962658663088501,-0.218198262132965,0.101298830802084,-0.506715401569362,0.108596363696047,-0.242803201887691,-0.999003110371384,-0.0260336860120113,0.0298497992201981,1.11706532643724,-0.0904658919022541,-0.375311274493197
28.57,-0.385940896146438,0.220016027208206,0.836879485457456,-0.120186393678307,-0.092706723272761,-0.088140294492087,-0.989483073653309,0.182234230332723,-0.0730427255014211,0.352384776511292,0.237005417096593,-0.254198567635774,-0.951498737488748,-0.243192112982746,0.082136679431593,-0.503052953399942,0.0954585751579922,-0.269768558290256,-1.00150399799091,-0.0264114832904258,0.0545890636036095,1.19388398190568,-0.128352088537395,-0.401194565325814
28.575,-0.394527565371939,0.194680555079239,0.836684010615214,-0.108366603282602,-0.0899470129781154,-0.0777100180249022,-0.99539726202278,0.161727823537776,-0.0922700134610374,0.273492241808415,0.233810656687726,-0.248916122132382,-0.941777360022131,-0.265808951212101,0.0552792766618973,-0.482572087553964,0.0786877945864745,-0.304361403526021,-1.00426695319201,-0.0236087739306786,0.0784104716979639,1.26930890637341,-0.163752582803466,-0.41653559523548
28.58,-0.39249208288415,0.186965389014488,0.841775835044796,-0.10108020792392,-0.0848974156364281,-0.0549826458173489,-0.990687527280614,0.14632104348039,-0.109033501756995,0.249816457183531,0.239730924367905,-0.254852212027149,-0.929191475719895,-0.28661991006002,0.0312563639478569,-0.479358645908025,0.0674905495134566,-0.332303119643476,-0.996406482451268,-0.0323425828887561,0.0907795417852048,1.33749497744293,-0.185332916321776,-0.430754894528402
28.585,-0.400838220835834,0.194793598108355,0.837697955718475,-0.0904187115853919,-0.0752749973291842,-0.0301386188494591,-0.995359789209044,0.145700998188692,-0.126742772324659,0.262816254024445,0.244108496879593,-0.268133356558807,-0.918390397410187,-0.313283478026761,0.00961278996641649,-0.520978492813121,0.0451989516854007,-0.371323780934338,-1.00010542338594,-0.038636184192984,0.121859807180614,1.40194135220184,-0.225161410236193,-0.444484687948632
28.59,-0.401710960011029,0.205597600796682,0.835876430561993,-0.0740379549620382,-0.0738817588761273,-0.0152026441022816,-0.997429537737138,0.153209881586679,-0.127742843257719,0.306396099083303,0.24950447678566,-0.277774780179125,-0.9112811102082,-0.340408714815618,0.00460295916716196,-0.527432297246657,0.0464780853411801,-0.415070216220802,-1.00242444946165,-0.030623483702902,0.145012504406782,1.43134558266108,-0.264862329910034,-0.438146210503639
28.595,-0.3966555566909,0.215310971942421,0.836464163182665,-0.081823463417173,-0.0680234477458595,-0.00896554547702092,-0.997779021083994,0.184405809507686,-0.121024565600702,0.351958843087403,0.259126227975684,-0.29022665011962,-0.904378693966822,-0.357211598518945,0.0135895748344359,-0.554550607602656,0.0445353290867751,-0.454138313890171,-1.00447888400118,-0.0251729633998098,0.157089842484653,1.4451647948304,-0.286155009812792,-0.427041207922201
28.6,-0.403907521078803,0.224468922773828,0.835928140182261,-0.0742186836405688,-0.0676977743725447,-0.0171870261135219,-0.991854018548366,0.223125128956877,-0.113117131350101,0.401027152297161,0.254846190093588,-0.298930317163467,-0.901851294232313,-0.363654377573515,0.0477055956089844,-0.585720885852378,0.0229649137154407,-0.480988197086089,-1.02724194282447,-0.00640460272151199,0.178952575024483,1.45084532671983,-0.308635617257238,-0.42921194972211
28.605,-0.404095394235189,0.231729028156084,0.831042703076671,-0.0784885857702432,-0.0689622062694361,-0.0309414671121742,-0.978761078792066,0.263829827017847,-0.101582632004522,0.409222143508275,0.261744542926426,-0.30577682837295,-0.906091611516736,-0.371297959033735,0.100244000263397,-0.58809970340246,-0.00157164788458859,-0.489657313914001,-1.04178129893343,0.0118045716192074,0.188534215733868,1.44662530025894,-0.326103107372921,-0.440531885740523
28.61,-0.402378762575268,0.243114693908623,0.82560919431019,-0.0783103102496281,-0.0808023163009265,-0.0416495845903751,-0.964010963212986,0.287738534751206,-0.0936340550402703,0.389519937592937,0.267583602648973,-0.334643308780709,-0.92090050051462,-0.380267523770418,0.159408481141287,-0.586562810875286,-0.0296100052664128,-0.47446934564244,-1.06553743550535,0.0306970855928959,0.187640390198573,1.42725117320685,-0.348298753024146,-0.442753970765378
28.615,-0.407269603869592,0.230183322031538,0.829834535940438,-0.0831083289664074,-0.0887925194009075,-0.0663691137146738,-0.953940112853195,0.292590467067896,-0.0865314452013765,0.390228440498538,0.272647518112605,-0.360867934649374,-0.941860228156252,-0.375480421743826,0.212258263763493,-0.576824359712944,-0.0503819850305753,-0.429512105162133,-1.08243134003766,0.0521181951388903,0.177355907771388,1.40275314183654,-0.370074250275636,-0.4412442445755
28.62,-0.411647962285514,0.245367456905875,0.822116796294256,-0.0915966580827342,-0.0927187782101386,-0.0730281466382212,-0.943532428522964,0.291207159839946,-0.079387443427634,0.364286077030554,0.287939061280796,-0.384062510056278,-0.966834613654676,-0.353996265898719,0.276940834701174,-0.542545049813893,-0.0540567992033351,-0.327759212848122,-1.09551788491141,0.0650268056468664,0.156404326481689,1.37869932678984,-0.392745325956054,-0.438658462087705
28.625,-0.412364903921831,0.240537255270613,0.820277783028528,-0.0983360187406418,-0.104128091933788,-0.088482509197006,-0.932556054321551,0.279416458509719,-0.0685397903065993,0.37192555881976,0.306761861788711,-0.404433045790423,-0.982563102815656,-0.321827096030388,0.315308026420601,-0.512197189382851,-0.0411168724473608,-0.240932018969359,-1.10880061195752,0.0675264104893117,0.125903819371426,1.32546991682318,-0.395270908882081,-0.413059531071183
28.63,-0.40857438920435,0.260605226803138,0.823832694648136,-0.101458402036624,-0.107112050056458,-0.0916610422211226,-0.933811573259464,0.276098721294584,-0.0527146999309624,0.387724793278357,0.321787490669623,-0.426392643101484,-0.991259307574985,-0.284654007068628,0.350242679300357,-0.502466113043252,-0.0211123905016463,-0.139173152403385,-1.11336876223729,0.063038773094891,0.0996279068148607,1.2631663592791,-0.386903800386568,-0.384428594495406
28.635,-0.36691010061315,0.302727717474191,0.817123644260149,-0.104745696832318,-0.104101509182902,-0.0998570950649363,-0.955598083200962,0.288840169542813,-0.0435158039497577,0.394671795546607,0.326337127526856,-0.444379017159833,-1.00424561962841,-0.266556696747457,0.374476395007887,-0.491236543349111,0.00106760746637985,-0.0690066002636144,-1.12301763333874,0.0495714306680765,0.0886169560160078,1.19256937080132,-0.370456878201284,-0.358931711631312
28.64,-0.344847080985309,0.341301271291776,0.834336639637072,-0.128231187352624,-0.0885442250854198,-0.116289687117082,-1.00799554416359,0.28623905495685,-0.0643120462011445,0.360512008351203,0.31992407859556,-0.44823804664296,-1.01853101509233,-0.260031701065429,0.38492105032373,-0.501620253208231,0.0258309694173041,-0.00185462389100313,-1.13591431630911,0.0304528195107281,0.0846006428803595,1.1145905291833,-0.338899735860868,-0.342774251535211
28.645,-0.350233397736248,0.300633692612883,0.836455004317934,-0.14330351220765,-0.066530587426531,-0.141465214286773,-1.04346213544679,0.267790481646188,-0.0778986109631974,0.353464241610764,0.322165903478041,-0.455601246309577,-1.02945549534664,-0.270394138083276,0.377113512519666,-0.516034110504744,0.0590369189107179,0.0607418028988897,-1.14141759804784,0.00406374348853335,0.077334708296607,1.07396035590111,-0.311325272211456,-0.330437920361347
28.65,-0.373125314380039,0.246359599392129,0.845382075996921,-0.146899037821635,-0.0434111189541307,-0.172479944879664,-1.06731186061195,0.231286239840429,-0.0885456335453154,0.328109289555314,0.321584463119507,-0.482104309667846,-1.02965997889664,-0.294756758269779,0.357082060330496,-0.548601101313122,0.0776139224125696,0.0888035683801967,-1.15743909475845,-0.0239917691696884,0.0764865460389745,1.05540932482095,-0.284086513103058,-0.308756133925041
28.655,-0.371322674232513,0.255138030792848,0.846437403849674,-0.131146251528517,-0.00910265357564631,-0.170406124958408,-1.07439328137055,0.216565192078377,-0.102722610258205,0.280009420068169,0.327380561587278,-0.501044373286126,-1.01955152055721,-0.33957180315275,0.305249289385998,-0.593765010370916,0.0922724256603709,0.0971728183157659,-1.17871216631883,-0.0610792164176541,0.071872433626342,1.04701235089648,-0.253147056827092,-0.267353741036119
28.66,-0.393407494520231,0.274889655826464,0.843363527326019,-0.132757494780453,0.0270689024058355,-0.176153357505085,-1.06300279355179,0.206428896913447,-0.114006301838887,0.233519842937389,0.314587016808737,-0.508172800051916,-0.994756328629775,-0.380044829545472,0.249668757874797,-0.612222501472104,0.0938379876217958,0.0965206593392233,-1.19903947768023,-0.0970706645509216,0.0657343488445895,1.05643996726201,-0.221753594417444,-0.237987122962651
28.665,-0.380593032837343,0.251464155457601,0.836441061050331,-0.130724981427193,0.0303861532840359,-0.20833307451648,-1.04306108926001,0.180755982762138,-0.128969092748613,0.185707830696537,0.308336570137222,-0.504499690990524,-0.959700132183135,-0.417757484729556,0.175693301665828,-0.597344962654526,0.0975011954451638,0.0958258274730708,-1.20570677629615,-0.124715146236278,0.0565883366988295,1.0814253053628,-0.208562204247299,-0.202721749320941
28.67,-0.400803478310549,0.241015593133464,0.832551792742711,-0.11840116919522,0.0563658949307305,-0.220770566438042,-1.0051620375821,0.145666788895295,-0.1441480392029,0.158322924733898,0.302936119533663,-0.501035189652838,-0.931288984466646,-0.446678674195395,0.10531899137458,-0.56997149655906,0.0921626115174665,0.112611939330384,-1.20355122468656,-0.151640419735499,0.0411136102284951,1.11868052617191,-0.220135688762745,-0.188284729781347
28.675,-0.4065889695024,0.235768352269572,0.846482908793715,-0.0937059681299958,0.0838938182311174,-0.221666704210321,-0.984056308689052,0.110655613310646,-0.137117203043221,0.167196174245896,0.299673838410329,-0.49920831820016,-0.902534900428987,-0.473438450269359,0.0334810217469443,-0.525223513417618,0.0789673816737785,0.135052416585216,-1.18350922534242,-0.167490684585049,0.0295703228033113,1.16801575176663,-0.247729069176881,-0.174231166390209
28.68,-0.393647568895284,0.219003403261954,0.842015652396501,-0.0822248093421189,0.102406731247189,-0.23100543122798,-0.974684307706698,0.0923302074000244,-0.135152795046068,0.158448369926911,0.290056865806393,-0.489987604608162,-0.874608809047228,-0.487078855161655,-0.0406386089175582,-0.497454773179199,0.0522025335913715,0.173908443190849,-1.15621660019847,-0.164928703619065,0.016312699552452,1.22721503441725,-0.279867544806664,-0.17421526339181
28.685,-0.393877959462915,0.210610752844925,0.844361436698933,-0.062820021741279,0.119488994590788,-0.228821301801135,-0.978359909660506,0.0892622939028386,-0.143396889806087,0.15498735214621,0.284973644311679,-0.473322032884338,-0.860026468373197,-0.493032039081685,-0.108580748125748,-0.468983377747464,0.0276754079501422,0.200542472352814,-1.11306789902794,-0.158365409707326,0.00317215415250885,1.29307202499498,-0.310706534181072,-0.187799380590136
28.69,-0.396640228701391,0.218679811130032,0.84912042086654,-0.0443530140730783,0.12444231393792,-0.226649056695215,-0.985633982134843,0.104084274597652,-0.144309907346689,0.174778765413233,0.272421002231588,-0.454449979778409,-0.844429497614374,-0.499957185222721,-0.15507938063986,-0.464670593424764,0.00561874313741053,0.227603436441773,-1.06922158593546,-0.147116959142844,0.00360445845616096,1.34863547761132,-0.315002862341611,-0.204914169366635
28.695,-0.390943534627803,0.211295802098581,0.846178915957143,-0.0502343208199414,0.145969395472783,-0.224585655695419,-0.987287752915285,0.0939830347884661,-0.146586376195391,0.158910802427187,0.263898494817885,-0.441450085482855,-0.827624456220147,-0.509612868662245,-0.19250780349771,-0.483500973547805,-0.0117812520465927,0.247462720796546,-1.02524560728685,-0.145431183815534,0.0118593872649986,1.39111677176525,-0.294506294943909,-0.229392604611297
28.7,-0.398877011457921,0.180129376187009,0.855419434831558,-0.0217269981090314,0.153676939594318,-0.232639376165044,-0.985284048178008,0.0695244192124773,-0.161814433731123,0.141371433431168,0.254967421645217,-0.428752686440977,-0.824084208959794,-0.511947239796872,-0.221193685982039,-0.547482477974391,-0.043415649940128,0.246097351212458,-0.978583617701483,-0.138337043609335,0.0334754850161369,1.39372234612426,-0.244538190660097,-0.246137436198261
28.705,-0.403445193372244,0.174899683783275,0.853816321130033,0.00336562155069314,0.171516570351637,-0.211146761788958,-0.981701823534595,0.06667879801143,-0.165672793989149,0.123152592002379,0.247348781230599,-0.428358123824745,-0.838282931954354,-0.489217780330742,-0.21941966378947,-0.613163372224961,-0.0624758487186768,0.240253107025646,-0.932689941224042,-0.130606316420915,0.0618950166070157,1.36706200278632,-0.182788824905925,-0.274766857890345
28.71,-0.399229522328137,0.166531657952733,0.857568757245276,0.0397867387104411,0.186203846692135,-0.204587225980788,-0.982848702912498,0.0733878079034634,-0.169095167397171,0.11403205614592,0.233753719152482,-0.425336992472096,-0.85762029739242,-0.458347093529971,-0.199255787294033,-0.686116671488386,-0.0730524878666409,0.244326755235414,-0.89620647786788,-0.120097276100114,0.0930438652097064,1.31781056183309,-0.125786348590017,-0.288142779298776
28.715,-0.394126223455364,0.165227388132868,0.852610501906334,0.0719675464032345,0.194617869808508,-0.193464930288104,-0.979949639509451,0.066735138860434,-0.174314851864588,0.0952448771091562,0.219286374629126,-0.41643999496152,-0.869202992908264,-0.441207820255506,-0.161732072125582,-0.72922851112356,-0.0590381416551341,0.255682467585499,-0.858339963956516,-0.101293766281874,0.126044222825494,1.24158694314369,-0.0581829894556213,-0.306037671009122
28.72,-0.40933134715547,0.171230352104458,0.850153938061406,0.125649057737418,0.206501400419661,-0.19275909939703,-0.972251300870079,0.0588216688542086,-0.174835493606106,0.0978131417222224,0.209032336716072,-0.400252847888081,-0.872714411638537,-0.444369591483681,-0.1352724883426,-0.753620772968044,-0.0427464654673095,0.249685706389372,-0.834048546233875,-0.0825825744713337,0.159409449401758,1.16866668010015,-0.0121449647867716,-0.308865092370852
28.725,-0.41536514444249,0.165856328022575,0.845587668747576,0.192358659334097,0.211177302367192,-0.197746839938704,-0.962161536539858,0.0662913686236836,-0.165214814761584,0.124274216891023,0.200011804800875,-0.3906697033606,-0.874933820666805,-0.440476731102165,-0.0873051345551698,-0.823503093067174,-0.0300381738876141,0.22634812349684,-0.818352189419153,-0.0474025599536751,0.176182091344597,1.08005147635305,0.00425797503998257,-0.31436034200191
28.73,-0.415358476068237,0.204290499104997,0.831430856603039,0.233079031018612,0.216811746902307,-0.197857980873699,-0.939303109671761,0.0824598529657459,-0.162076962820202,0.125890791105307,0.193167073418875,-0.384736936383725,-0.874930495618618,-0.42110207953945,-0.053350257418267,-0.910420623374317,-0.0316336360796952,0.22275583476478,-0.809678940992123,-0.0282771051667301,0.191206565255961,1.01639664165767,0.00452788894149762,-0.299654873230211
28.735,-0.429639623733521,0.149751772845255,0.831869854759921,0.22658356945493,0.191882488337054,-0.195270619167408,-0.90859560295879,0.0797392380901964,-0.171609547845349,0.132821440293425,0.17627990880601,-0.369942797005025,-0.878094151955102,-0.371588014783376,-0.0169395272831743,-1.04718604437728,-0.0569009812198991,0.246174832480356,-0.800257726302045,-0.0144123000095901,0.191220751056291,0.962723052081942,-0.00421917180817394,-0.28270186529675
28.74,-0.413684349454977,0.18710389639245,0.809062788870203,0.271166338448051,0.183588898607882,-0.205414474649845,-0.923123617916272,0.12396813997346,-0.125241243918975,0.223563706657032,0.174685024278053,-0.375335561270187,-0.88611257733536,-0.350352744383141,-0.00144901922511769,-1.1319543787358,-0.0757447528199129,0.285499256400034,-0.809837313074134,-0.00041873894860452,0.191005608057102,0.927845766505386,-0.015626485833945,-0.251812390120105
28.745,-0.406029442730229,0.313378244865339,0.803100240241099,0.257387020251035,0.179565247638994,-0.197240435880249,-0.947834806195333,0.164162258409473,-0.114942801590418,0.180878572757268,0.148450468035511,-0.371293002608737,-0.885554290236106,-0.365189972395112,0.0188937768596193,-1.18811153574908,-0.090554430024762,0.295776389136403,-0.808249070462345,0.00379743965692796,0.177224724591417,0.89570429836145,-0.0218540524957182,-0.225103768525867
28.75,-0.386161954342564,0.278118170941266,0.810576919825736,0.205880082382642,0.161837688181412,-0.252486697585926,-0.95529617229107,0.182749282625412,-0.135877252739298,0.113668666945563,0.117735990692699,-0.346372789570263,-0.890789483812972,-0.395502481321849,0.0473749404227588,-1.26684386068088,-0.11991063227545,0.300386369466983,-0.811870050381674,0.00397610800583891,0.159116808682133,0.890231771498436,-0.0108340915783774,-0.198437700618324
28.755,-0.387859099758776,0.251791216277869,0.824912671280653,0.207506037670546,0.166731173217085,-0.291936435820241,-0.986571555845485,0.213206444774666,-0.138514826928957,0.116558805123701,0.0910727829936063,-0.331603654064854,-0.899937462003959,-0.412843811167547,0.0748741634339723,-1.37087057004283,-0.175062090266513,0.308562838007526,-0.825577184788002,-0.00657534808653601,0.136470460897587,0.89683850696032,0.00610322647056829,-0.164735726579075
28.76,-0.436313971098769,0.320333766561343,0.808122772696069,0.241894384062048,0.172264446154802,-0.284497029827476,-1.00607261143679,0.215015411654614,-0.128706874771793,-0.0148143122395666,0.0538152835079353,-0.319354761245213,-0.914319711592314,-0.429182513313687,0.0813891720575149,-1.40090243986845,-0.234134717521405,0.34225216675115,-0.837564909694184,-0.03051562925519,0.115094765988444,0.906979852088955,0.0255154647045188,-0.147656892182059
28.765,-0.422341069719611,0.260277614597632,0.82384346564049,0.21246852669527,0.190381265505388,-0.32206909218782,-1.01624797907509,0.194865444769409,-0.163252953454022,-0.136541868078536,0.0264270979745486,-0.307659902462409,-0.92773818598008,-0.441756828650369,0.0680104749558221,-1.31264069361818,-0.248764954203449,0.370792133354568,-0.848817779974899,-0.0610785362605603,0.0839829603763945,0.916731712257993,0.0366923668205257,-0.129248523928997
28.77,-0.416748860965497,0.284927312190021,0.817288992764245,0.207427398476157,0.205578458186606,-0.376088387575847,-1.02847820949482,0.199656113776129,-0.143721343909383,-0.121282416410801,0.0172065832267595,-0.304188487810988,-0.939743236838292,-0.449726812949123,0.0538048136026151,-1.21698538237663,-0.254984825849533,0.408753732292097,-0.867120481208544,-0.0847792690889915,0.0558645530575725,0.930025127795835,0.0450241380911466,-0.110012390812682
28.775,-0.412115007768919,0.2927590387087,0.830302447525757,0.185929875217442,0.224272224316204,-0.370954865439595,-1.03308238055956,0.174074896887817,-0.173363769941801,-0.192281141330848,-0.0144265754264434,-0.289072512374797,-0.949293544266317,-0.449646917285328,0.0305316579138537,-1.15440223035383,-0.259723650910341,0.422185281572137,-0.899258628540254,-0.0965760560459367,0.00830309421703714,0.958124676532824,0.0433509709810696,-0.102948928036655
28.78,-0.41654950143275,0.288710793003987,0.798675618503995,0.211550361742675,0.204861196414481,-0.467894857021473,-1.01176687256951,0.178765527376667,-0.15807626264413,-0.116500845934695,-0.023380522318229,-0.250905119797947,-0.940151888969656,-0.441263739830988,0.015270767703896,-1.11050743513552,-0.253229021970656,0.436652564420465,-0.931899999544482,-0.101921877951739,-0.0169125326241002,0.979291259599029,0.029649788047532,-0.110586812215697
28.785,-0.4142024261951,0.264308774239486,0.823259043446276,0.177544109928864,0.186783207181958,-0.511770231063926,-0.981465648528002,0.156292137322803,-0.16592849493103,-0.0782416837847308,-0.0486980542056545,-0.221200120455305,-0.922295795059186,-0.433598259884272,0.00531581171565452,-1.06323969698873,-0.247019455980852,0.449213169088517,-0.962173521858361,-0.108996841328761,-0.0439685494202794,0.986199617385864,0.0138592086732388,-0.125288476450496
28.79,-0.421878489163311,0.211505693783432,0.809255482709631,0.201533074780968,0.15441626860579,-0.568766490782087,-0.942233766177128,0.131658471209165,-0.169725038724787,-0.00425082826134759,-0.0594036213913051,-0.18532694716903,-0.911796683863263,-0.438381768977871,0.0121066863563753,-1.02645308841074,-0.241877832897338,0.465245420926003,-0.995234829363581,-0.123908167636037,-0.0468751837831694,0.976641899325597,0.0077769981991163,-0.138943350267984
28.795,-0.426699500159195,0.202284038708351,0.834330631765224,0.210006100164828,0.103024246192236,-0.594787952166105,-0.924450702235965,0.121805497070679,-0.17145336442897,0.126889870492677,-0.0805024322638649,-0.16787289430454,-0.895242479165171,-0.4252234096024,0.03385907619204,-1.02612264966138,-0.234108804776469,0.500930283562163,-1.01000640418808,-0.13983642566758,-0.0443052031103244,0.939895914336804,0.0138279198026568,-0.149227965452145
28.8,-0.371593860568348,0.154648466815899,0.862706796770612,0.23246679987499,0.0668772669052356,-0.645140920241356,-0.91621418329831,0.108613984145878,-0.137350261811463,0.26627275293089,-0.0925511094729155,-0.155884424267459,-0.89642459500776,-0.410171829256055,0.0574707704922993,-1.02439007310475,-0.22252065432278,0.532498091669884,-1.03241662221446,-0.171962372736649,-0.030591008896982,0.860390844869655,0.0447778894728211,-0.159543148550178
28.805,-0.331688111353736,0.141665484415557,0.852056062293927,0.329415864618455,-0.00160832933365897,-0.71775726313523,-0.940627203730087,0.132736574014774,-0.119062856429844,0.422792950933594,-0.121960855271277,-0.142483227704111,-0.898017900604607,-0.397593241585515,0.0745225692126103,-0.990949056050157,-0.196072120937239,0.527275660355511,-1.04413186994895,-0.190575514740566,0.0028426544259821,0.782888653989348,0.0716557601151664,-0.171148043233606
28.81,-0.370893317102604,0.285260387833306,0.789824165717086,0.387264574568695,-0.0517080629290249,-0.748057007789612,-0.960962116765023,0.169980372846406,-0.149367230205295,0.493682872578746,-0.145527721563726,-0.113259408794175,-0.880863579526575,-0.382909903797861,0.0672896748351663,-0.92165692271623,-0.139021120244382,0.534733055764615,-1.0533089830472,-0.212129184602565,0.0303784240740131,0.696637625085324,0.101654193142549,-0.182596559650299
28.815,-0.487876924261143,0.329645293477908,0.799447493022369,0.32180980526216,-0.100045945998101,-0.803703539861585,-0.939140850167024,0.164159994989504,-0.188184384495789,0.568199971718049,-0.163315828133248,-0.0889521972627023,-0.863866825920129,-0.379574656782928,0.0662208459587916,-0.865381055403192,-0.109084219205626,0.576703677448077,-1.05955141000323,-0.216773080881723,0.0662042425475726,0.615978521595614,0.135813821168794,-0.193611322375247
28.82,-0.469701826098053,0.136558830839455,0.795323916029433,0.370103704388467,-0.12546984897354,-0.855522053611816,-0.902320560849218,0.149425383060682,-0.199838791847869,0.772450291916548,-0.158806882456967,-0.0873804019721338,-0.870854854821957,-0.397249054079721,0.0897571549527312,-0.895145680558979,-0.0977376890158158,0.620079646528866,-1.06899055790555,-0.218126435774937,0.0948262953717463,0.573869940297781,0.149673516561912,-0.212723835201964
28.825,-0.470636825492544,0.23193917842373,0.810521993371466,0.42584125411422,-0.172494099069594,-0.891342877617368,-0.915726015461632,0.171114210365976,-0.162919592040846,0.882617091071129,-0.165273597161802,-0.102112776473993,-0.893986806099059,-0.409620715861926,0.117471702596234,-0.923495215006191,-0.0787657219612862,0.63919314659864,-1.08120709008721,-0.214009227498903,0.119002439299637,0.54814309673165,0.159012955677509,-0.227716693757879
28.83,-0.386108431020591,0.18255535262569,0.901647718044751,0.408402624918236,-0.221001461448749,-0.914882149668392,-0.929719673648461,0.189603505195628,-0.149541050199254,0.905388156831107,-0.160927835983084,-0.0885430012524441,-0.923715881705806,-0.40462865724054,0.117264674408507,-0.913697285870804,-0.0440687060380191,0.622390695859238,-1.08422907918134,-0.210876092912707,0.131979455875369,0.534747386025263,0.164630773750718,-0.234418591812369
28.835,-0.348490901557701,0.0488578641219602,0.790730773809969,0.418311228586519,-0.275499961581158,-1.078004046408,-0.946757548161776,0.192076570842359,-0.11761050481426,0.939373522543514,-0.168604594691597,-0.0820751115090769,-0.937324582308474,-0.358352042020025,0.119656385331526,-0.90395156453443,0.0108898540029228,0.587479543664729,-1.08664914175388,-0.201351120665083,0.138982134023871,0.519878890633012,0.166537699910303,-0.235966233225962
28.84,-0.432800943716126,0.312733027717033,0.784341740438606,0.527501825104807,-0.337093975091947,-1.03824208947108,-0.932441687135934,0.126743954195952,-0.164748991220053,0.903220045341839,-0.180055452571518,-0.0674943032124254,-0.946801364662218,-0.318943435908931,0.105087425032266,-0.94663401292167,0.0325159986522557,0.588270940964392,-1.08246753120612,-0.198406877064442,0.142389165494417,0.514125129756406,0.162905931472778,-0.223665175813057
28.845,-0.486881959660894,0.33105598871221,0.792809154801817,0.427791893785851,-0.33392620118752,-0.996440649674235,-0.907598407964147,0.0809352737582199,-0.211622317650951,0.952604042225341,-0.178283169555645,-0.075554772901516,-0.938946640762243,-0.280754032368171,0.0709780242808899,-0.957627374773108,0.0406564290394395,0.599378582802379,-1.0750565041985,-0.196963984287905,0.137982618015034,0.512726966357832,0.164540275627866,-0.194429457396958
28.85,-0.536581661237824,0.130303961411493,0.75891741523369,0.380144229077093,-0.351129396558978,-1.02695680632655,-0.897874551995676,0.0704899308685091,-0.191087473603439,1.02934575328233,-0.135101315613132,-0.0635780818026028,-0.925558611151536,-0.252563205637269,0.0336704978159141,-0.961884190606795,0.0422063021058083,0.617562959601024,-1.0644940617403,-0.18346934948022,0.130392705411306,0.518538745059732,0.16571521232291,-0.166840349622665
28.855,-0.522306017097417,0.118692214334034,0.791777355786696,0.440663460873214,-0.389173147557486,-1.03534863549879,-0.897014692728078,0.0752972706127414,-0.18860540134709,1.10806315667328,-0.105423859284321,-0.0665744479243957,-0.927830241073259,-0.236268940439982,-0.0126301274970819,-0.956488239747086,0.0332747514957864,0.642318430494909,-1.05351663182811,-0.168525285233216,0.118275578753998,0.523147667841101,0.164142521340856,-0.138531989538045
28.86,-0.481084303441576,0.200856080142192,0.779783799311426,0.44667454848208,-0.421638494230671,-0.988563113799837,-0.903919267598772,0.0657295116152965,-0.188147324084673,1.13812931252147,-0.0694368265651555,-0.0570347979664803,-0.949192434620134,-0.226248373114128,-0.0424502911838066,-0.973381398227194,0.0195675910183909,0.685384495253403,-1.03805824884777,-0.151045524704915,0.104417168451929,0.535063532046288,0.159240856766701,-0.103489996110168
28.865,-0.502727922774211,0.19811926234833,0.794131300066526,0.397512070565541,-0.466100396972172,-0.971610556679805,-0.879010341204706,0.0412158833908837,-0.177859967808802,1.17677875222939,-0.0135137997262014,-0.0650909787599124,-0.962626425712052,-0.217207100765973,-0.066483134038,-0.980997669821544,0.00472970914042772,0.773957049383233,-1.01637273042593,-0.137258458365379,0.10297138519038,0.54428051329778,0.156630323831175,-0.0761557456442208
28.87,-0.479650774712204,0.0647208814748021,0.818910145259105,0.348214931209058,-0.499774457477624,-0.951821869810258,-0.852812724573565,0.0122247106921736,-0.15050850316097,1.24055317585676,0.0396581586243294,-0.0898341278866286,-0.948512813419825,-0.18739533175055,-0.0723813862662494,-0.944458279439321,-0.000568313926157868,0.842576370823285,-0.995889693012275,-0.130548080609885,0.105948702469369,0.548742843006638,0.149754328885428,-0.053983661853974
28.875,-0.488851534121919,0.0644278358282714,0.800454727137458,0.394882612806602,-0.555937110193149,-0.953271375134194,-0.831345174567817,0.0161743757017028,-0.149226397755514,1.28549246718515,0.077307516527593,-0.112464119837166,-0.926436255287071,-0.152053668146867,-0.0771753382354446,-0.876839270773625,0.0198826688648377,0.924637109567049,-0.963549525721286,-0.1247674219935,0.0966818710541544,0.540562707673125,0.140022192276346,-0.0279343994407816
28.88,-0.492850677907488,0.115405957440547,0.79726344656583,0.342427506312555,-0.613240851246194,-0.904784292732569,-0.831530153843561,-9.50026092393693e-05,-0.127119697181871,1.29989596088455,0.123654373545508,-0.126671388745308,-0.892447742743625,-0.132860093424323,-0.0816720077427777,-0.862094025823518,0.012174826732322,0.959087781507524,-0.93619521278394,-0.11750447877151,0.103695320217907,0.518282038950094,0.138472050428391,-0.0108958900747928
28.885,-0.479506728934308,0.117607142478389,0.760687924063252,0.307391193098762,-0.652377420044918,-0.870742805344329,-0.827114390570444,-0.0352375135038886,-0.123660417208253,1.29982114928345,0.172243723105433,-0.139516317954795,-0.874557480068763,-0.104693118873664,-0.0726740677967979,-0.870607898975763,-0.027910564183199,1.02690701835399,-0.912192106188648,-0.114533621081769,0.112906343437107,0.485098870999566,0.141263942069934,0.00659296921292711
28.89,-0.484027830289777,0.163057451112497,0.786379691767485,0.233082329146254,-0.705673848848867,-0.78573713411001,-0.830220884837482,-0.0840225444777051,-0.112240677868338,1.33505890474667,0.215509413310923,-0.169696181039085,-0.850077530190758,-0.073765564899765,-0.0754477355291656,-0.886965809651447,-0.0589228707962808,1.0568288229083,-0.888974291646796,-0.116251498097876,0.123621662937917,0.445218082915798,0.154659497262764,0.0165857808710525
28.895,-0.404051606223817,0.230194559310545,0.744020476800401,0.0628339849627519,-0.719127914232039,-0.670054522077617,-0.839401621158533,-0.132756793670352,-0.09815080600957,1.31905562968558,0.250596864484731,-0.208340994641328,-0.854257472418904,-0.0407359713974981,-0.0718057329617242,-0.915692569123388,-0.0930762352525192,1.10301954828557,-0.875864934195946,-0.124695234095928,0.13625042477736,0.405627852390864,0.173460544881148,0.0169279269304716
28.9,-0.386345139260239,0.156691666400669,0.816667315436544,-0.0944024174202019,-0.695275410344904,-0.511429802168379,-0.854106508877225,-0.183961186757148,-0.104029036981839,1.24201470869377,0.280968751745394,-0.242658825274091,-0.835937173255426,-0.0303632997591989,-0.0520928149171574,-0.835640488774906,-0.0645720947127299,1.10379540368342,-0.861593280826965,-0.119563599532229,0.1434706475592,0.344731744326596,0.203726204208035,0.0467721410865817
28.905,-0.349908013056873,0.087271553260945,0.81547129276576,-0.178089047367133,-0.684700450691045,-0.339911533152893,-0.895742675024988,-0.173747655969135,-0.0720416754096229,1.16765305273724,0.30862633126444,-0.297768330225435,-0.827888236070176,-0.0522016430141071,-0.0286570950585825,-0.799011702667921,-0.0521835535764694,1.02472075118508,-0.853699356324113,-0.134402084441609,0.152302769677077,0.278142749975584,0.224463394258288,0.0918872933494106
28.91,-0.333307141573351,0.210484247213285,0.834184643635015,-0.210874634329105,-0.652767327767503,-0.176199105856921,-0.946718076364546,-0.111785587008556,-0.059571875267599,0.987519376566794,0.31172978793986,-0.3160340487957,-0.844594272280167,-0.106712065995171,0.0262304661237226,-0.856139923601596,-0.0610727730705809,0.916238511861555,-0.862582552170308,-0.15808400939879,0.156669917575039,0.220451493421696,0.24595883688471,0.0855603900396707
28.915,-0.309600122278927,0.240819658406845,0.867503813874382,-0.237139671847103,-0.615209758475544,-0.084621540636268,-1.02954377937536,0.0268426970825783,-0.0673871028478329,0.720051105790249,0.295027890050259,-0.2861084277652,-0.889241122257831,-0.172181959352076,0.0502507085619534,-0.844333852109462,-0.0609549734885418,0.830592297424334,-0.877848314538394,-0.165966872443422,0.160442435179524,0.169009716680547,0.242958462245056,0.0286525014149524
28.92,-0.316898618735987,0.264488135959907,0.873593444310555,-0.300235820928202,-0.547642845730334,-0.0599236412915386,-1.08958356850818,0.104905481148545,-0.0822011179714081,0.451816198566993,0.263414170563132,-0.237045562615251,-0.977162750127257,-0.23426198022381,0.0433301296429365,-0.714369615044163,-0.0125716360112013,0.750053752383453,-0.897901736296855,-0.170601538348919,0.159735241701782,0.124898457904704,0.23115633748967,0.00398116411571118
28.925,-0.311358439174602,0.279786886101496,0.887623752172073,-0.321433204856613,-0.486227943318132,-0.0522933576872596,-1.13299625609264,0.113297094439131,-0.10561534262661,0.151958626070161,0.237654416081038,-0.19480671990975,-1.02079948774503,-0.270109633799602,0.0227893153633904,-0.535398548009076,0.0574136607809828,0.697983724507621,-0.932357141941834,-0.174028202435937,0.15824550603757,0.0966834095818157,0.210212402599734,-0.0101087176355215
28.93,-0.306698445166875,0.265281166602844,0.877738554575798,-0.331161057899801,-0.412762616801261,-0.026667553151801,-1.16297393709268,0.0906272970279063,-0.137545099417932,-0.143698955916966,0.201468521700133,-0.158045584306944,-1.05791981565007,-0.312562838352896,-0.00773229839873957,-0.326887090572195,0.155512273584996,0.61046108990459,-0.970195762904426,-0.177451205364105,0.158691145308623,0.0725864979362899,0.217236137635294,-0.0212691420052367
28.935,-0.350689155313489,0.198587166467146,0.892192559541405,-0.343086907143341,-0.314262911756782,0.0280585998348489,-1.17720504593649,0.041156409134622,-0.19563916306682,-0.522080984609361,0.188325678510269,-0.137995873470042,-1.06547291520791,-0.33966108270225,-0.0290502933650879,-0.150198290816369,0.221476843091553,0.540937230306755,-1.01676553920452,-0.182252350770397,0.160656040118869,0.0452596474043903,0.245984312644402,-0.0199337088537388
28.94,-0.37333681857366,0.120493323371498,0.902312669470808,-0.332766038699177,-0.254002487973309,0.056628208140379,-1.17443414322692,0.00383293445523896,-0.241966418872367,-0.716386673430243,0.187987906977739,-0.146218508481979,-1.04326694391354,-0.332687438168352,-0.0223357590195319,-0.0254969377967045,0.261513275251788,0.438233943466973,-1.0486433545985,-0.163667966510212,0.154136130626545,0.00460473112603781,0.272248597056441,-0.00528937034506812
28.945,-0.386337109538526,0.0970837711336639,0.896131146047715,-0.289419145571251,-0.199963188468253,0.0805718994438864,-1.15217520018436,-0.0308605530576078,-0.264649610132336,-0.752207660416984,0.199797064819332,-0.149463776642722,-1.01458524708749,-0.323144102576404,-0.0151312533762383,0.121659595940226,0.280668518648719,0.315261770707429,-1.08103343149857,-0.158821273580004,0.154049237578154,-0.0349644732612144,0.292173450102037,0.0059539775278107
28.95,-0.382555815708714,0.148393335507342,0.876602655161855,-0.237865966385238,-0.151418633556643,0.122421626069544,-1.11794834424827,-0.0442055138488661,-0.259397984445045,-0.711620767444967,0.217645342670081,-0.143002460133419,-0.996482631151577,-0.310703501398986,0.0185150797387018,0.215612384418899,0.286816489269183,0.246382998682658,-1.11355739335105,-0.142549199036782,0.1531926719813,-0.0752479091736424,0.284510544218311,-0.00299481900045434
28.955,-0.3866688307992,0.18998074564325,0.867601948693215,-0.21456966649248,-0.131260159508128,0.138123772037489,-1.0849841971644,-0.0349686063352119,-0.254680010721353,-0.609158612199678,0.213671159297062,-0.133243738766449,-1.01722721631444,-0.30337307531517,0.00449558341502505,0.304004449099789,0.258000644893295,0.184240869712794,-1.13080407695499,-0.117078506449566,0.156062610215175,-0.108520850889553,0.25786921225097,-0.0136237503204853
28.96,-0.382269464855984,0.212523344357417,0.849314195911551,-0.206340814624105,-0.107320547099318,0.14398849549101,-1.0391828027014,-0.0122439014627388,-0.253702972903917,-0.404863560635092,0.203066379685337,-0.11258765335064,-0.999278199256771,-0.305123632058246,-0.00754372818300953,0.340075730173685,0.25577129386363,0.137437671646316,-1.13940458533139,-0.0945114807394578,0.149112161521598,-0.124918308887993,0.189420372492925,-0.00798465612167213
28.965,-0.394533529490912,0.213736319582359,0.841445784445999,-0.213603754740439,-0.0999441885324627,0.134587363090688,-0.99728565287894,0.00907262745955143,-0.258495121098505,-0.197355124440573,0.193584684928856,-0.102163569988483,-0.970709238512493,-0.308498680208805,-0.0282487565664402,0.348353817907944,0.280732969332905,0.0789546212411683,-1.1395309942548,-0.0801941614300292,0.14586914844939,-0.13444419930513,0.12956362352988,-0.00230591252849562
28.97,-0.407777018545469,0.207808068281153,0.837143000503996,-0.234773584827776,-0.0942057951506648,0.121475660489668,-0.968911015486222,0.0250851696584812,-0.254347456684003,0.0784253512920564,0.173552181144196,-0.104732694171703,-0.955518806226332,-0.304173342776456,-0.0436390133381514,0.329257729351712,0.309655443537835,0.033655395526617,-1.12436195283307,-0.0701460596086264,0.1509433616826,-0.138607007999843,0.0640477888348603,0.00609549787128928
28.975,-0.415572357692906,0.199000765267107,0.837035236181613,-0.254974474393668,-0.0901294364212807,0.119841142786231,-0.957916619664683,0.0365592803055226,-0.243419994299161,0.330332072577803,0.160320773720741,-0.108726408720599,-0.954480417860932,-0.295754676726558,-0.0490302001094283,0.292400178245018,0.309654998057904,0.0323217414082859,-1.11317225361662,-0.0594046034959656,0.149035443586903,-0.140128522555057,0.0284842344105899,0.00604425222472291
28.98,-0.404804993567057,0.21256880515067,0.837881420112839,-0.253541115015439,-0.0914141922563437,0.102794910160617,-0.973951258631838,0.0567807581114965,-0.240088537552891,0.539963416073738,0.156192624022847,-0.125277662578741,-0.950517188535257,-0.28741415099329,-0.0569602100612744,0.26902859767496,0.306012295399486,0.0383716907580387,-1.09612056716055,-0.0632209887499791,0.147496501000086,-0.131171928068561,-0.00561451148564111,-0.00679988292797155
28.985,-0.406497662717429,0.20946763593776,0.832296463436629,-0.259623315110454,-0.0894475855616522,0.0902855473444315,-0.984977041814513,0.0806961520842712,-0.228063195330347,0.722053230181246,0.141262660159194,-0.134588034775877,-0.945703666026775,-0.279012083396047,-0.0604895222197902,0.244645426850085,0.294990572489959,0.0270688877840051,-1.07629678234262,-0.0614466404559528,0.155250233909042,-0.128180611730596,-0.0167543640766873,-0.0128716624498299
28.99,-0.409045761516523,0.204889345523434,0.832554757451732,-0.248058311381602,-0.0861394346169319,0.0786225767379407,-0.987895532478431,0.103341198693566,-0.210359017285393,0.804243413380598,0.129866270141677,-0.13776333149121,-0.946878239138825,-0.268264016626132,-0.0628434730787813,0.22055589771428,0.27884316917413,0.022446098863185,-1.05597872600915,-0.0647230203219301,0.157497517551635,-0.120770341942929,-0.0100838927418588,-0.0271003643782806
28.995,-0.407261337881745,0.216919789084583,0.833703227944129,-0.241533715207546,-0.0884942504786672,0.067523279120853,-0.994477287232648,0.114754431647687,-0.203441082957035,0.826626058849519,0.112083262767547,-0.140011460676152,-0.946961895920317,-0.26764401396919,-0.0596960727872929,0.223740527469709,0.260549842258801,0.0129712213594588,-1.03479985764934,-0.075971739688043,0.158242463492285,-0.113518728741505,-0.001139445524992,-0.0401417820582814
29,-0.392056628767224,0.214103099986017,0.84089106726936,-0.240422213648956,-0.083187317636065,0.0577017361582626,-0.983206606903704,0.126212065731106,-0.189526528379693,0.782738970674543,0.0911057074143793,-0.135363759566611,-0.951736436436944,-0.260195245053272,-0.0536926326648474,0.216279987358856,0.243604241082445,-0.00370304132964726,-1.02431997735126,-0.0731208022629281,0.159510653474556,-0.105276652080582,0.00871184776608899,-0.0393157650423341
29.005,-0.39060751149069,0.203026771337633,0.8449203553355,-0.250999058333354,-0.0841511638784152,0.0452905176253926,-0.978908425941632,0.116410350395147,-0.181603285079639,0.695400482039571,0.0645812657752483,-0.129762905384057,-0.957998019526591,-0.255449004568342,-0.0481926655250394,0.182780247389198,0.22512248797393,-0.0310377864045632,-1.01161840371923,-0.0734791412101699,0.165414614070237,-0.0962998237920229,0.0186678407925595,-0.0355635132181223
29.01,-0.397170778640718,0.190778527996128,0.847297725335817,-0.262958780563772,-0.0824947099908068,0.0290929375118932,-0.979552581708172,0.098602749820025,-0.181755486348918,0.590378678332713,0.0455227007124807,-0.120033933632831,-0.960122948055567,-0.2495325085708,-0.0515464897253658,0.143654914637519,0.215477198829808,-0.0593154393730159,-0.999235792553341,-0.0746891288645039,0.166405839898094,-0.0880626187357969,0.0208348526449331,-0.0290588179471432
29.015,-0.396752487537877,0.185679321697736,0.837439656485086,-0.263927731872796,-0.0922804382702424,0.0216866731777728,-0.9770084744227,0.0812243248614978,-0.181994080736926,0.503989010598305,0.033579046253702,-0.109837241275235,-0.961941184618173,-0.241305112257657,-0.0529708784888105,0.124266760640121,0.207343167462954,-0.069644041922703,-0.983409899678464,-0.0780955010438931,0.177828130485113,-0.0762999023039818,0.0111470406112218,-0.0180573986194775
29.02,-0.393220437214626,0.189916218799486,0.84072051709843,-0.280089026099502,-0.104055169602417,0.0167184832588684,-0.983730919322166,0.0686809336624548,-0.172908397903537,0.444506761833289,0.0224838931729666,-0.0980152213691044,-0.965842458217027,-0.238400826626809,-0.0559788859201494,0.109778622316798,0.202043635008016,-0.0761920884251595,-0.967172076861502,-0.0763677609756288,0.190781923331766,-0.0673996697443503,-0.00850073890216336,-0.00595154662336945
29.025,-0.388389408782358,0.199190747550512,0.844093190479733,-0.296897714770959,-0.106842124540922,0.0143777905523257,-0.993400006293665,0.065376091170995,-0.168217051077789,0.371343193139265,0.00924534028939897,-0.0904352445184417,-0.972923206214644,-0.236785506552317,-0.0604564760925954,0.0942636760182736,0.183016160350099,-0.0792332588158371,-0.954576987902775,-0.0803573002210989,0.192293439475505,-0.0542683653410269,-0.0228170219936543,0.0121853169468961
29.03,-0.378824963483966,0.181728986483464,0.849041759675665,-0.310948772446552,-0.121373548283963,0.0116488369186779,-0.993137071805007,0.0634868370766182,-0.171222600722353,0.294442316876253,-0.00261229819919873,-0.0767044173152694,-0.976060256285714,-0.240504009055059,-0.0667691409266071,0.0580361187454078,0.16854647590398,-0.0831954192197494,-0.936819269186382,-0.0874910523546007,0.201008460254403,-0.042757190763101,-0.0357971781886172,0.0393802421621169
29.035,-0.38961836249446,0.158066734445181,0.850455015738332,-0.306447702343155,-0.13144531234845,0.0155523953621604,-0.991821552608384,0.0517249163764089,-0.174163605338803,0.229518907060726,-0.0132103594755919,-0.0703471818030399,-0.971250634829318,-0.232489142307584,-0.0772872560281972,0.00595244243769505,0.159300977923821,-0.0906947700981406,-0.928254051320595,-0.0966839185830508,0.200944369167749,-0.0388020351529121,-0.0351494635119065,0.0673570272597407
29.04,-0.388666992304983,0.156565075084871,0.844766820652312,-0.297076756608148,-0.130441255301942,0.0157197508099923,-0.981730583083091,0.0389922218888557,-0.17530673104661,0.189380195586707,-0.0174326356694814,-0.0649747668519853,-0.965527245268949,-0.214741179218609,-0.0865931760058043,-0.00815687071438001,0.165500767733287,-0.090190669603716,-0.916590469840488,-0.109561982196046,0.206963883588896,-0.0477575655159721,-0.0262762365665272,0.0958656371480996
29.045,-0.381189680529702,0.161330612414415,0.845055212894353,-0.278263855184201,-0.135907726594552,0.020732247632284,-0.977368139196622,0.0309155251539686,-0.17229367355231,0.183894556435498,-0.0260020106628365,-0.0686495213074249,-0.965134051564075,-0.201443996405857,-0.0921055861892787,-0.0122375017102724,0.170450583422757,-0.101569006189326,-0.913547232706836,-0.118650755873762,0.212508952352089,-0.0546893446687221,-0.00540820086062229,0.11707543812474
29.05,-0.375708503332722,0.164372103539733,0.846558125605765,-0.261906322164715,-0.130950194483922,0.0305922660844712,-0.974209593786419,0.0220386303579821,-0.161930608082514,0.207102170332864,-0.0299732942272901,-0.0769933655012299,-0.972254734447519,-0.203394572109136,-0.0893831502247836,-0.042009581552797,0.168866620286254,-0.0931427474540073,-0.91565499994576,-0.12950660699775,0.206674938130434,-0.0685653292807141,0.0144493731240698,0.135269635354391
29.055,-0.368627167407613,0.175156791628047,0.850026851473635,-0.238959847670148,-0.133818570528911,0.0361001230820883,-0.982481045254575,0.0181483309156416,-0.159486787682831,0.230511058806654,-0.0314177840046594,-0.0778711017732091,-0.982568408395471,-0.214201586000401,-0.0773450047062583,-0.10661069570459,0.169895988437985,-0.0918052680127771,-0.913629090672827,-0.135897071548049,0.196412940646154,-0.0917267164974983,0.0276077336080848,0.148036381733534
29.06,-0.36868565334662,0.174166571322847,0.857219048099882,-0.231816666116637,-0.124554421235632,0.0455587283275147,-0.981572030629451,0.0306071187713762,-0.163920851204539,0.240090932049526,-0.0417948397570974,-0.0725148250503267,-0.979696134748896,-0.219003825444728,-0.0625680804961577,-0.168567206091183,0.168831070917363,-0.0947416671205019,-0.925904463780945,-0.146450554467868,0.184126230181791,-0.120406891476972,0.042179325319787,0.146390825510025
29.065,-0.3760178893641,0.162795042048564,0.854808980149725,-0.207964309120311,-0.118280444368467,0.0423793569207191,-0.982337626669802,0.0364690604847822,-0.166913074610283,0.226465156077484,-0.0465292559115295,-0.0684844355581481,-0.970091035999159,-0.216296006806083,-0.0461592957278906,-0.207325204271415,0.169096267154923,-0.10177275575091,-0.937917524315476,-0.142419271288268,0.170405243422067,-0.153492582717995,0.0489284260229832,0.143805508250762
29.07,-0.384563707291227,0.153098429714488,0.853464617456151,-0.190187441338336,-0.132116731702128,0.0404266423074113,-0.972651192743338,0.0439494693369107,-0.169257539226966,0.210714380215734,-0.0468003405209206,-0.0662414052357782,-0.962137007542567,-0.209894319001971,-0.0452571120954039,-0.206742305859962,0.175825099840721,-0.107094737687625,-0.949772150561728,-0.144443674131714,0.159481221816559,-0.181149753431748,0.0530206113235154,0.131528952578437
29.075,-0.386478151332761,0.161048549819183,0.851657903112197,-0.175621085433412,-0.124298110850522,0.0483780533289529,-0.970479748524766,0.0509746758743425,-0.169373588447576,0.197742332976514,-0.042428594897981,-0.0693036674116603,-0.965286188073435,-0.209316388802052,-0.0325527484562896,-0.18727680727956,0.184125367389166,-0.0967869349366944,-0.96277684310648,-0.138179556077721,0.142578313534412,-0.199223681638002,0.068934446647806,0.11357022238416
29.08,-0.382776072749351,0.172912598585207,0.844870198744299,-0.165266886856154,-0.118626018532778,0.0552992843899478,-0.970928110469282,0.0530001644230532,-0.164175852832739,0.179880204743115,-0.0409741533664097,-0.0716951340436935,-0.966759255680255,-0.206435827281816,-0.00955654102819998,-0.173976665411793,0.192593766229144,-0.0886389391597232,-0.980748054756148,-0.127098876244343,0.130903538935683,-0.215218349852044,0.0928681574324057,0.0952924192542216
29.085,-0.383102373749178,0.195038291310051,0.845321619283446,-0.174707212205658,-0.11810548132894,0.0497119588771062,-0.970269289017985,0.0711975793257368,-0.159591279640365,0.146577384041139,-0.0388631544151561,-0.0657059529519719,-0.97491266926473,-0.212707561777665,0.0158821464441192,-0.165483693165396,0.194598734378815,-0.0814944238861655,-0.991265641280741,-0.121276068542804,0.124415237117734,-0.218391135334969,0.115751955463788,0.0727190085890516
29.09,-0.379316091132335,0.19014477584431,0.849872984158625,-0.176926676633381,-0.114442214369774,0.0523692313125383,-0.965602460468955,0.0838896514250942,-0.161443380188832,0.103591597405604,-0.0359400290441693,-0.0588859292662185,-0.98476843743816,-0.218490596298208,0.0348332190253582,-0.145865860119163,0.184241694310784,-0.0717429279539884,-1.0047689599088,-0.107094376489778,0.114504662588696,-0.224744788175854,0.143244744568992,0.0458398340822971
29.095,-0.375171230808275,0.179905491189986,0.848905825526659,-0.175927683711052,-0.109793661455557,0.0423793569207191,-0.970876280605445,0.0863150111709106,-0.165839200758693,0.0624519401107847,-0.0409161923787385,-0.0509782339106837,-0.984311165935501,-0.218725938809143,0.0447493017700653,-0.0975349818503838,0.177013426076129,-0.071627563369804,-1.01206002890858,-0.0993548383129404,0.107792108112487,-0.22513290241489,0.163765613559229,0.0272073317393139
29.1,-0.377554602224035,0.186622306944193,0.85219034439399,-0.173873795926002,-0.101540645977646,0.0464871283155724,-0.974668067446215,0.0892189299013869,-0.164983683380575,0.0159824062127698,-0.0424805134534836,-0.0469954094133255,-0.978783389317426,-0.213526320067374,0.047527430070496,-0.0306615596243586,0.172026459591213,-0.065836765512948,-1.01719665863821,-0.0898251090116837,0.102729679506482,-0.219063561642906,0.161134976876479,0.013349288390525
29.105,-0.379346670244121,0.180490750071446,0.847421567794921,-0.172262594103813,-0.087235141782332,0.045120045615043,-0.986526638687861,0.0892595059186251,-0.161292307761473,-0.0192554080897868,-0.0371232497169143,-0.0491405704038918,-0.974935128406492,-0.206954573941573,0.0436259818572071,0.0459829781455648,0.170109467489277,-0.0647526932553692,-1.02242654288433,-0.0873129332718379,0.0968041907179772,-0.214766734414701,0.15123184242731,0.00315382559370199
29.11,-0.377327138622285,0.191384520582525,0.848843766973494,-0.157367456166223,-0.0849697223192131,0.0367263686997665,-0.987176486108825,0.0861601355039312,-0.161454787274137,-0.0364395102693705,-0.0317889784976182,-0.0574466159774928,-0.975755614577117,-0.211127343082061,0.0388471267244906,0.110968097803228,0.158561582777192,-0.0598225171155578,-1.01939928074431,-0.0838760482819161,0.0943221191757261,-0.208523535924964,0.131085289291101,0.000783646789535595
29.115,-0.374132204700362,0.189505986938832,0.854878469932945,-0.15333632364775,-0.0730548187030179,0.0343732177807101,-0.982080219466362,0.0775216741012374,-0.163044443311507,-0.0437468731241052,-0.0302149460313446,-0.0608457638068827,-0.98937887312802,-0.220492685341424,0.0317410335554768,0.155344354229842,0.151822564882364,-0.0542184433645094,-1.02816964381075,-0.0799107268983395,0.0908981193769708,-0.198966307039721,0.0937585136971414,0.00582607286265146
29.12,-0.368240925091807,0.189538295393703,0.858265447281394,-0.144680259521265,-0.0737980874655684,0.0250872130814919,-0.976950846922853,0.0806400838995576,-0.159503052087204,-0.055213936578614,-0.028347698923924,-0.0632080124985987,-0.993100858850863,-0.227139578164303,0.0233532226491098,0.1689779413245,0.142065867781639,-0.0616842572863929,-1.03037513727428,-0.0934395769133771,0.0894244367772771,-0.190136779879926,0.0549092925145031,0.0133815055198442
29.125,-0.371865668007411,0.178124018674859,0.863222322980251,-0.143968762248137,-0.0627413204314768,0.0273577663006981,-0.976194870901066,0.070456599610955,-0.168770632210586,-0.0636264055836504,-0.0243762732703399,-0.0582564957439899,-0.991861017682977,-0.227894300634096,0.00663916473947262,0.200324233441113,0.141187350909758,-0.0472146009016514,-1.0322691315368,-0.0926358612510432,0.0922049635732242,-0.188245114753058,0.0378151098070115,0.0185745597412247
29.13,-0.382461878517092,0.162614680007874,0.855535079501186,-0.128740516145138,-0.0535962541295054,0.0230710048895583,-0.973330104587182,0.0592769275803927,-0.171728842151631,-0.0600626172122244,-0.0250651696436477,-0.0603882611032342,-0.985483864527743,-0.217253475805688,-0.011557094247876,0.235375211072111,0.138971364801727,-0.0443474899909199,-1.02839532789281,-0.0962578906169287,0.10023441131069,-0.185478630121037,0.02270406540171,0.0301100975670786
29.135,-0.382239595115911,0.162135087222548,0.860679557295883,-0.117076531935879,-0.0540732438916223,0.0235479968708519,-0.9751983870813,0.05187629839647,-0.168528436266313,-0.0570745520484953,-0.0181056901477833,-0.0590906449236001,-0.981124079626886,-0.21230535494628,-0.0291146136527421,0.274280546656242,0.143115790624696,-0.0408488390647979,-1.02317186333388,-0.100374436055018,0.108130230307615,-0.179831863235265,0.0197002004864444,0.0405226525486955
29.14,-0.376896499974652,0.162752576529693,0.85945721189115,-0.101032586255419,-0.0483895153168782,0.0214012238421745,-0.976334681143061,0.0450018882800773,-0.169249948393714,-0.044906396038682,-0.0147539461892025,-0.0642015488856282,-0.981056127516808,-0.217950583271846,-0.041109102030396,0.277399976676245,0.147303469803771,-0.0356099722479579,-1.01299023411827,-0.103204344600341,0.121339871344918,-0.177621593930355,0.035782929686541,0.0572794890474942
29.145,-0.378479576145537,0.158352801544735,0.85829751853742,-0.0890124610106845,-0.0491690140942385,0.0196034342800664,-0.971812593591038,0.0426711928868902,-0.16911655331014,-0.0333075130378635,-0.011827438318517,-0.066808357834816,-0.975126171278069,-0.221603218558676,-0.051400405155425,0.260448594853311,0.146515947184556,-0.0301159918213512,-1.00690182123166,-0.105931973550744,0.129010394467193,-0.178075209259987,0.0509242898828493,0.0710600098773195
29.15,-0.379853683577102,0.156222671342054,0.858966018851869,-0.0874644970974177,-0.0412030458239314,0.0274215600790348,-0.96927503345533,0.0428252742631567,-0.168235271782207,-0.0248795355072482,-0.00722300765192653,-0.0645365998833672,-0.96990394254254,-0.221307263375424,-0.0605919174139759,0.242039312018287,0.145286850202799,-0.0257138202246428,-1.00127230748708,-0.107643446851794,0.131928250186193,-0.177619810466822,0.0623784337329492,0.0820587516545226
29.155,-0.379304864156339,0.156706107649791,0.859873524655812,-0.0895247093701473,-0.0269922070197577,0.0397032443034416,-0.973488346965035,0.0434199736132689,-0.167773912535096,-0.0185962723293841,-0.00172514967699959,-0.0590387443033699,-0.980449869958069,-0.218056123305118,-0.0675489564574288,0.226623176460753,0.148532349300245,-0.0240910706759198,-0.986951895171463,-0.106115973481756,0.13680134644304,-0.17378676948959,0.0800104053974805,0.0958576916922305
29.16,-0.380231706351189,0.157811695357144,0.860759302385448,-0.074460186253235,-0.0357137750707555,0.0357388973872451,-0.972830945691814,0.0472839035863237,-0.170263448144489,-0.0142265826628156,0.00461820201033567,-0.0540856665339192,-0.974106423758403,-0.220559695004525,-0.0682649306663891,0.204414806267653,0.155236642252968,-0.0300838943970982,-0.977585582065746,-0.104530215766669,0.146464220739572,-0.174104395963168,0.0956506246885731,0.113525671342764
29.165,-0.379622722391103,0.16127704329691,0.859989596069554,-0.0632114666089398,-0.0399188548326492,0.0346245784192996,-0.972382075130715,0.0500914737032528,-0.171995059987308,-0.0113378828468863,0.00959840321453094,-0.0514381620878092,-0.965111246612854,-0.223515341991842,-0.0663797291581501,0.176756109660621,0.16000534788717,-0.0381209108583621,-0.972664897873774,-0.10306666474451,0.160248646935476,-0.178075209259987,0.109740106909399,0.13447716948914
29.17,-0.377582986869054,0.166940706864737,0.85767766677723,-0.0555154536099271,-0.0399188548326492,0.03616378008041,-0.973821528478497,0.0499308393642542,-0.171410463631656,-0.0106073008157473,0.0117901493079479,-0.0528993261500872,-0.970141912877813,-0.219870925404081,-0.063137513637073,0.137057894401354,0.151918671751617,-0.0432669768787085,-0.966294561229965,-0.10861932669921,0.165547629961005,-0.178075209259987,0.133799921300009,0.146871621482544
