Header,foot_Accel_X,foot_Accel_Y,foot_Accel_Z,foot_Gyro_X,foot_Gyro_Y,foot_Gyro_Z,shank_Accel_X,shank_Accel_Y,shank_Accel_Z,shank_Gyro_X,shank_Gyro_Y,shank_Gyro_Z,thigh_Accel_X,thigh_Accel_Y,thigh_Accel_Z,thigh_Gyro_X,thigh_Gyro_Y,thigh_Gyro_Z,trunk_Accel_X,trunk_Accel_Y,trunk_Accel_Z,trunk_Gyro_X,trunk_Gyro_Y,trunk_Gyro_Z
24.95,-0.398739039040933,0.190652093059787,0.833635437563603,-0.0301018478204475,-0.0631566901507191,-0.108538371995421,-0.96392749945781,0.252249220106109,-0.132132541650399,1.01079705834,-0.0354016292576336,-0.4228239990243,-0.967495575174092,-0.114108056517376,0.0467380681383347,-0.286581743412451,0.429331133749862,-1.50918745221093,-1.00423466879164,0.013043486575038,-0.0100989150417681,0.689152439026455,-0.00624234730422026,0.0595377091050182
24.955,-0.406532884823897,0.200982077885536,0.826853766464275,-0.00909698093164838,-0.071940501538041,-0.110249920298817,-0.952539555406525,0.270764360780698,-0.123374164679459,0.996341970188775,-0.0308026330849832,-0.401338545657229,-0.968528019959481,-0.100599920530678,0.0518904971615289,-0.356308510320176,0.428580931843654,-1.48094850939608,-0.981551919888146,0.0184995888902348,-0.00573902963059457,0.715653551006782,-0.0184982744588859,0.119066446495488
24.96,-0.399255368398973,0.235878091361807,0.820134948835787,-0.00889411887848978,-0.0725472943214754,-0.11520051235209,-0.936417344897931,0.291251006609114,-0.11015827796332,0.951690675379823,-0.0263667135543404,-0.38354307476284,-0.974149003427992,-0.0882999459251591,0.0619350836633934,-0.434651895756647,0.418812428659547,-1.43741856528799,-0.95041503001655,0.0188236473591736,0.00137039620499463,0.738234845600383,0.00112037718788508,0.175729541980075
24.965,-0.407526966652014,0.2394293930648,0.814602162581678,-0.0319077120619228,-0.081549790891511,-0.121716757754955,-0.922034175559778,0.306813693927771,-0.0975922107516173,0.892309917410884,-0.0190504645290885,-0.3753082948392,-0.991077211016503,-0.0848616808737213,0.0705125528012768,-0.499702873107791,0.400723143707821,-1.39900120515667,-0.923635567840994,0.0101291943634957,0.00934573856033486,0.749124049170835,0.0474936021033867,0.215063195629105
24.97,-0.375728799785889,0.228000828662192,0.820043787072753,-0.0390978902578354,-0.0913621297273734,-0.135816426329506,-0.924260152691182,0.297455111811458,-0.092580903666005,0.76991695268521,-0.0119549502469027,-0.369557687421089,-1.00922157917445,-0.0826878938711795,0.0750909597954355,-0.594056938399132,0.394026987872322,-1.34088013240741,-0.896456453084169,0.000917316950563683,0.0267225123987347,0.751323326110561,0.122857117333414,0.226711692907209
24.975,-0.357242725024231,0.213777183832509,0.842538549526703,-0.0379770720109168,-0.121593002069893,-0.123860792653035,-0.930969924092892,0.285880087409943,-0.0830174713292111,0.647191951945729,0.0013112248387934,-0.36200636132041,-1.01253185232842,-0.0868467032540269,0.0895267501032686,-0.645338849298503,0.390581061112576,-1.26395909110082,-0.866967004287857,-0.0206963003212461,0.0472534872797313,0.760933264119651,0.193797960755385,0.219790143321244
24.98,-0.408875892957216,0.240531026094343,0.820513567871313,-0.0450321057223346,-0.109903955204672,-0.129705320337572,-0.939336463943906,0.28254523969343,-0.0828220266551192,0.535877527188872,0.00970078933415043,-0.362399845312036,-1.01283531887922,-0.0795823807334748,0.108005469599017,-0.610944897165748,0.374540145393873,-1.21619059555089,-0.845271161730401,-0.0418124553325996,0.072348721133129,0.764777582059721,0.264440634807035,0.200212564439074
24.985,-0.405263924703966,0.226809623506042,0.800539612239912,-0.0533877812342095,-0.107679549472742,-0.166500462306459,-0.951781656104281,0.258247500083202,-0.0896940748412617,0.460826827022006,0.0238848835587013,-0.358662049384167,-1.01080007010289,-0.0712514511769282,0.115928538617198,-0.565213767711501,0.326393357719905,-1.171766086323,-0.818253243049444,-0.0644985773204366,0.0954291570709099,0.759192333217961,0.334016873208504,0.174179513319903
24.99,-0.393798984553092,0.205714471862504,0.825905363245501,-0.0708619505167007,-0.119682175665146,-0.190787708719133,-0.944751679753417,0.227450822215622,-0.0751708039230606,0.441449841658729,0.0511178364446663,-0.350857501952726,-0.999996506697033,-0.0678844322207951,0.120709962920491,-0.519613353382748,0.281728493578339,-1.11571538031309,-0.805508983739463,-0.080195265315748,0.117214364623777,0.748995265624004,0.392262857699744,0.152264509344643
24.995,-0.378021461718784,0.241710716641014,0.841044991295405,-0.0705782060843762,-0.124042343322701,-0.189175120993864,-0.948151648470016,0.219921767865057,-0.0732653162132626,0.486342152892659,0.0716183784331465,-0.357699806816917,-0.995422291300207,-0.0813328290387291,0.112634784718679,-0.479367239788104,0.237824987422359,-1.05612685839403,-0.798723330724539,-0.0874279318090917,0.123051107492965,0.742019239890239,0.422297047467982,0.145050988984385
25,-0.398063822647913,0.263400746592475,0.831047241325383,-0.0713154645711975,-0.136152770849567,-0.193581254708351,-0.946632091073482,0.238873470604478,-0.0813534787704215,0.500682366271723,0.0888232876153067,-0.362521693042581,-1.00099438771879,-0.0980952477755765,0.107333197606668,-0.459696411352439,0.213194969325817,-0.983574120281952,-0.793051987348554,-0.09605810111955,0.135446674792568,0.732923063446137,0.450732831432256,0.145061926508725
25.005,-0.410436857888118,0.245239184238198,0.804530955452874,-0.0849768265866959,-0.135149483904008,-0.209927491012851,-0.934273591543266,0.247908194060648,-0.078071275771678,0.515363745989896,0.105514192346585,-0.357130485255165,-0.97767337899051,-0.124426279064686,0.100754412297046,-0.473531793726431,0.20139205258719,-0.908737705570246,-0.792621243458793,-0.0989346933934075,0.144053366966306,0.74016501403949,0.461256779141747,0.156679092660592
25.01,-0.363312372722765,0.224615439068904,0.808083749598381,-0.0804654861828394,-0.13581872114936,-0.217884082501752,-0.927208578589889,0.231109747385215,-0.0754870105876837,0.551971135446453,0.120940574253091,-0.364472865019751,-0.973039331467289,-0.126901461947666,0.0876016227965159,-0.540324818937515,0.189625919532204,-0.911683372323846,-0.801262851849665,-0.0938309637486319,0.146204689094926,0.759246443062171,0.462108318407173,0.175255736001491
25.015,-0.355912643461425,0.224995994661737,0.835750944382784,-0.066293834810069,-0.142541199922562,-0.213889601053504,-0.934395950212516,0.214686205887379,-0.0883442293630024,0.590584293065241,0.141213825939129,-0.386444220842063,-1.08899169954872,-0.148695861341399,0.0998899808257053,-0.656208865405568,0.231826243713577,-0.773471121609617,-0.756314755044194,-0.0975952461777588,0.163219670851322,0.800705072779664,0.477282736188366,0.178628216245216
25.02,-0.401317505367848,0.24221967360004,0.843547937667229,-0.0700761198506166,-0.141476665511466,-0.212797637209557,-0.945452742386091,0.223710271932535,-0.104175905133865,0.612464307386027,0.157044314709174,-0.395843968139834,-1.00359586041265,-0.154197917826545,0.131634473094699,-0.64974767504666,0.35127320606291,-0.686543697370625,-0.837543082188505,-0.0688176451192472,0.14668828340975,0.832544922708605,0.459357586550201,0.223514374361616
25.025,-0.412384013723424,0.279615751879924,0.82328301307268,-0.082597172835183,-0.137798938881019,-0.211781274912612,-0.950982225649249,0.24321136145916,-0.111746585883024,0.606150535427885,0.177068996849641,-0.378695960210475,-0.991666081191163,-0.179834790779061,0.0492301727225569,-0.727104241995141,0.304633750246072,-0.823836935115254,-0.814569045809736,-0.0261210275073106,0.147831700299417,0.811442413103519,0.47590796799825,0.414713046271019
25.03,-0.370282227337802,0.244488887861902,0.820496042269725,-0.102867157287245,-0.135186905473634,-0.219328536455557,-0.958253436619969,0.225525830037099,-0.11590609571891,0.572585315173936,0.17136249953255,-0.366193235078082,-0.961138470799644,-0.187988026571008,0.0581522504196302,-0.971341583966369,0.175758740924864,-0.819215013088505,-0.800640336949618,-0.070254370893249,0.128902378310147,0.89954884421157,0.496036226060193,0.493512082454261
25.035,-0.374903048756813,0.163790500259067,0.837321354194198,-0.109096629479418,-0.138429674055374,-0.233807892599109,-0.96284330857383,0.186106506503243,-0.139779771089549,0.517540672831943,0.191030064795986,-0.357299157757675,-0.986658070886461,-0.197203057546733,0.021396676962665,-0.689815440271696,0.181969295676469,-0.798388191846744,-0.835543663458941,-0.0638079264704165,0.123893000710668,0.967842531292866,0.560020065130332,0.324774039309202
25.04,-0.403438105615103,0.146586020346819,0.842876408449664,-0.0890314065474443,-0.149962343874126,-0.230350963393132,-0.960471940260173,0.176375459206367,-0.150953706641251,0.501171970441087,0.204703388094303,-0.361710914655359,-0.983892288368259,-0.180781980736202,0.0155263335721045,-0.610834345297573,0.168482692522601,-0.678346139302817,-0.847644850738181,-0.0364887502608848,0.106774551732642,0.987235846547931,0.501180885649207,0.273632549496446
25.045,-0.40689329449189,0.185237455685781,0.839399003677862,-0.0940357003654366,-0.124090467504759,-0.190877444411226,-0.95957039948537,0.175954907330242,-0.159896166886286,0.509092941288469,0.219084049461601,-0.362947179675228,-0.986299301988828,-0.200775834340245,0.0570918526731559,-0.551645355130339,0.205370899945852,-0.585115751852634,-0.875838675039277,-0.0257512066709552,0.104730435411204,0.986492768098055,0.379634727713122,0.269391149944208
25.05,-0.400625825630227,0.210296172024532,0.82992629913174,-0.0939387830149226,-0.120847112578911,-0.176900243394488,-0.960973834468037,0.181685034700203,-0.164153602736961,0.4890003286256,0.22704260897175,-0.357292682789739,-1.01211729128891,-0.21647971320984,0.0788177528749706,-0.464510445244485,0.220642057656652,-0.523983437166328,-0.906274739923201,-0.0180776317213902,0.0951095168212397,1.03284133767392,0.314920607095818,0.193774978734162
25.055,-0.388547693180282,0.198464674783456,0.840843831152642,-0.0916491751607385,-0.138219213743441,-0.188557744967168,-0.966140499472179,0.191665270230563,-0.161203508518341,0.474186884383296,0.23114413555527,-0.348496226212601,-0.991891447966122,-0.218321105717531,0.0952986275875609,-0.543456353108173,0.196935774546464,-0.492119541093279,-0.925013381173343,-0.00650938186198609,0.08367188081804,1.09318878830609,0.313419407151767,0.0902227433587337
25.06,-0.378707234314039,0.192799983536836,0.84625728952851,-0.0884936139471919,-0.137390443618545,-0.185878991103882,-0.972084560569494,0.19733113876324,-0.163836320250411,0.457383710484837,0.228220082201486,-0.345354706048965,-0.959643301910064,-0.213091343872823,0.0866272019244847,-0.622338773231996,0.154579577738358,-0.545822783620205,-0.938412661336296,0.0217655530593122,0.0701460432668763,1.12658824390654,0.324804506109572,0.0257997828872188
25.065,-0.395858493068378,0.201270244531738,0.838761575124161,-0.0822834506442181,-0.138066407500468,-0.187270692062657,-0.978645619985564,0.204867399546682,-0.172487436855409,0.452112842013663,0.226634481753025,-0.348482507874793,-0.944953195240583,-0.210462917399637,0.0660232675855107,-0.627952599059125,0.141411537048573,-0.619934007568061,-0.948108548717744,0.033555967067281,0.0681408322768027,1.13963581828901,0.316699048248592,-0.0380626834617498
25.07,-0.402561675441038,0.204171269048573,0.832394630406297,-0.0863001992513558,-0.135766182011805,-0.189742609858513,-0.9698724102602,0.194466567068499,-0.178046871344501,0.462641295987578,0.230144821378818,-0.353749278372694,-0.935257745340851,-0.219640676987082,0.0458053171123403,-0.592107164577459,0.150794898480666,-0.65083143207687,-0.950359735931662,0.040417223365464,0.0758292764497334,1.13525874557694,0.304231781298121,-0.13483476032246
25.075,-0.399476567538603,0.196290624910907,0.833913601932269,-0.0965140565175144,-0.141622320105671,-0.196153896222884,-0.952918130011343,0.186382858579845,-0.177983575368337,0.480569901466367,0.238419638276099,-0.362368838191031,-0.938026869918788,-0.232716105215971,0.049491626370307,-0.643130501149506,0.158994404904189,-0.669352442554853,-0.955927985197649,0.0532156285942021,0.0866127683284397,1.12313342215963,0.289353948058088,-0.229724560078103
25.08,-0.392569224899546,0.20515075082108,0.841410714059507,-0.0807021963554358,-0.155927425124647,-0.205591293262929,-0.945871846449672,0.189972594479673,-0.180698976234242,0.521415077055406,0.231861560810335,-0.368176899540894,-0.936832426546055,-0.242320920653196,0.0666746524247167,-0.71041393812544,0.170183762588989,-0.654970181431027,-0.955956787426229,0.0593669524587962,0.0953763667138747,1.10899862399651,0.24942788999318,-0.318458119422275
25.085,-0.397104623019587,0.202845843197039,0.83953477609098,-0.0915773986248421,-0.135424453954168,-0.200924617421955,-0.933788975460964,0.197209287894941,-0.1762529005107,0.558954213530191,0.228746764878461,-0.371006137495595,-0.925856551199894,-0.247486421293962,0.075123094038113,-0.754194007748284,0.16778347138996,-0.657635964371512,-0.962422218597194,0.0678186003685335,0.1107323296485,1.09112399779341,0.193178537461388,-0.368984003898978
25.09,-0.402217388853264,0.202262330247904,0.829090524331577,-0.0881461169616156,-0.14543083749775,-0.21033096648298,-0.937390880512837,0.193036858553539,-0.171964969576537,0.574638072869363,0.238278062345245,-0.366998472405413,-0.933793159680237,-0.246415405182495,0.099471552303108,-0.723882990661711,0.189916721692774,-0.682029711080373,-0.968469186492541,0.0840594699136309,0.11841460764033,1.09370875358582,0.160382954695497,-0.403562769850702
25.095,-0.39821291339819,0.201467338522328,0.829423062989392,-0.0837840561956123,-0.14996156085864,-0.21521778745929,-0.939142896424369,0.197539433162387,-0.16535893411338,0.585993137437689,0.237465852115232,-0.36531347928618,-0.946846859541,-0.256297424111147,0.111582516438867,-0.704392539922328,0.199943046862206,-0.670991823358389,-0.965592612299046,0.0870444431646978,0.1245490683507,1.09298532677255,0.154354080557823,-0.418032050132751
25.1,-0.392690125205105,0.210556917517782,0.83111143962822,-0.0959304317846042,-0.156661918763561,-0.20721111998523,-0.946049726569381,0.206976655244653,-0.158954128932492,0.586955649818441,0.244223936813342,-0.372783946347752,-0.960409599701496,-0.254402572314727,0.126508698569877,-0.652509489095275,0.225630947209996,-0.621948163668742,-0.966385043925848,0.0897604915553849,0.142393113857204,1.08577397100491,0.157803902490823,-0.416814463882728
25.105,-0.377932017160761,0.22121367462643,0.83631340258223,-0.0953846719377298,-0.156437372329964,-0.207965814513057,-0.966200729642214,0.215400648158806,-0.153237281510701,0.556728457451513,0.246620933264697,-0.375995795585287,-0.95991886871497,-0.245183188633343,0.140751585259686,-0.591347185384282,0.246074176483781,-0.588476525704961,-0.957803914054117,0.088814674548938,0.14960978244622,1.07837126969096,0.177948818929938,-0.40716946018455
25.11,-0.377383002963912,0.219865235595052,0.832929438105366,-0.0960890608291057,-0.154433878492266,-0.208328556057985,-0.971117998437181,0.216921563444223,-0.15578380360313,0.509175645573459,0.247647361611283,-0.375929825232776,-0.957800470640506,-0.229694243343927,0.143378155540661,-0.532468491365637,0.26457124601861,-0.595418265703451,-0.949641051108932,0.0890054151650268,0.162970607264221,1.08480160518719,0.195858880520537,-0.386478469347658
25.115,-0.381725370340734,0.212630397983535,0.835097908604704,-0.102308839123854,-0.155196684372575,-0.214176490902901,-0.963287187295639,0.204416951427092,-0.15976691499136,0.474318129904044,0.253542879073286,-0.373453676700592,-0.955494124609338,-0.220840469072735,0.143680998176665,-0.480268775751483,0.269134164413752,-0.612612550537134,-0.941746249398904,0.080890428591096,0.171215964164947,1.09098794044446,0.215633490724788,-0.359658436239067
25.12,-0.389075002842479,0.223544381245425,0.833265404712803,-0.107104030009401,-0.150278974506841,-0.209292003130478,-0.96534657125795,0.196013567959698,-0.163438125251136,0.461394429775091,0.263093721911856,-0.378148008028998,-0.963731834557194,-0.225904770464438,0.140897086150056,-0.417137954790507,0.259923116396944,-0.634943226600823,-0.94283139746669,0.0704100888185447,0.177408799006292,1.09837131207563,0.224988143897121,-0.324463997335804
25.125,-0.37959996538521,0.224386752764978,0.835215523721314,-0.116409379509432,-0.148911996076048,-0.20396824551303,-0.972284718705752,0.20281665892722,-0.164546847648232,0.442980676822577,0.265680095222049,-0.385424408726263,-0.973723581162035,-0.241410537398904,0.138706202616312,-0.377526486788959,0.25065003725376,-0.645648401056863,-0.944428337320757,0.0593139571438059,0.182532016423507,1.10103893280029,0.226825726091974,-0.278637246892985
25.13,-0.373150316286947,0.211818629385768,0.844086879979313,-0.121899100737295,-0.142997902311041,-0.205441958809735,-0.97836306835178,0.202926188371017,-0.163535850407482,0.417047660120705,0.27199980453769,-0.384687900114355,-0.993406042121362,-0.264122897310991,0.136993885774361,-0.356717055667961,0.245487575943362,-0.639570445081133,-0.94087637519562,0.056023092416643,0.18510630442471,1.10005516369015,0.224466465772128,-0.243676649054763
25.135,-0.382838406280161,0.208520297986979,0.839827371365384,-0.125446378141136,-0.132767632603645,-0.203619285525578,-0.979811455654938,0.196808889605838,-0.164117713539683,0.394555463718991,0.278278454159525,-0.389403222074084,-0.997421856681598,-0.26390782521855,0.124763773729846,-0.33180955079409,0.263453854058011,-0.65406453373062,-0.937054685724411,0.0489814236104932,0.179039797180821,1.10705916650161,0.213127843036283,-0.208268452906464
25.14,-0.382539585358498,0.207865047312232,0.838938585864189,-0.121560106821141,-0.132463291828557,-0.193107671055628,-0.979702102032217,0.168397841967332,-0.156270587048362,0.382508238934566,0.29360998684774,-0.391820608820648,-0.982258531839492,-0.241984426458002,0.101319564506939,-0.275898072162354,0.277423558183959,-0.695372620829255,-0.924909934878647,0.0495201197299368,0.175429986611644,1.11401416261108,0.216188673401958,-0.187763674301494
25.145,-0.378705258233762,0.207157613396156,0.840586394886247,-0.122201718489235,-0.129159761228504,-0.187725514239672,-0.971703505485918,0.150012024886184,-0.155369302215976,0.385324988179004,0.30924309569781,-0.394105566709776,-0.96072064766449,-0.197230273423192,0.0701013003135468,-0.18616522056083,0.288101784488754,-0.742950609609631,-0.914060617688828,0.0496376234077734,0.162010250019079,1.12047711899939,0.231490071087529,-0.163859296628592
25.15,-0.384908930789724,0.192575608404692,0.847440550185133,-0.119729727506638,-0.124791504767748,-0.186077520251274,-0.961444745217724,0.13394569236637,-0.15226295061128,0.404589811783906,0.322661097182121,-0.387571498650032,-0.944175985317216,-0.159030039772745,0.0343407506622869,-0.111202666407103,0.281235366042107,-0.776020982063021,-0.912178765898809,0.0489991092079626,0.149864121701588,1.12518238283018,0.245054373467981,-0.147452195858584
25.155,-0.38895646529739,0.183359984698793,0.846247831215528,-0.121888535634691,-0.122559057452924,-0.17960109147857,-0.946568141080711,0.129966859237686,-0.151406069198582,0.428976119721973,0.341653742410041,-0.383511720365973,-0.944650427242053,-0.147168178540193,-0.00381363393637008,-0.0958760405296281,0.25952347305628,-0.787916343180636,-0.903898509789784,0.0533112646956434,0.148687253637315,1.12914483308237,0.272283821925353,-0.127248046884615
25.16,-0.389488511034143,0.180719588274004,0.846629574019829,-0.113452302378338,-0.126350493050596,-0.180053530079036,-0.936514815511308,0.127286287437886,-0.152145324628345,0.454599039267362,0.358610215538649,-0.379996868753669,-0.952861074165861,-0.147629472779326,-0.0439192212586297,-0.0995293387010904,0.241119923462141,-0.792639150953976,-0.89687063142125,0.0473820366405899,0.150757252142949,1.13158130645752,0.308718676233638,-0.11492333939488
25.165,-0.392139204575097,0.177290721113764,0.843642280656525,-0.113169648932309,-0.131763653225323,-0.177090233251158,-0.927419741972351,0.126029341524991,-0.150609892060224,0.476191754224008,0.382775539013378,-0.37525963106641,-0.956882048249571,-0.150279506672202,-0.0771665961095452,-0.1575316808329,0.224076612678704,-0.795382162745118,-0.897156484963072,0.0368022036192737,0.157992081312675,1.1403172043772,0.348422429892252,-0.109798365125268
25.17,-0.384843048979292,0.173398919206404,0.846525162077575,-0.105567985622035,-0.131840142258107,-0.172299783981315,-0.923590187165769,0.133615517933599,-0.147650993145996,0.489161009670107,0.401683458247929,-0.372554904354126,-0.95576820065518,-0.161031495840847,-0.100215403724495,-0.250797873048834,0.204352075369961,-0.787998096787849,-0.899149290532948,0.0285677877181272,0.166371101297532,1.14904256637294,0.373692930319747,-0.107334271001463
25.175,-0.383330012675823,0.177856221211181,0.845451810594242,-0.107624390442256,-0.133545298410279,-0.160420747282554,-0.925734071003322,0.145495486187538,-0.151463830834633,0.493626998192984,0.430356099266152,-0.373173319462398,-0.959877305308161,-0.173948180096623,-0.109913115071748,-0.348113242933159,0.197346198065427,-0.761834374582744,-0.907917091965776,0.0252920331565579,0.177191225316341,1.16510582777009,0.406575243625725,-0.112615065193288
25.18,-0.390526429400693,0.186382342825547,0.843385632462621,-0.0932807882724283,-0.138404672972853,-0.156874708151238,-0.933691046896207,0.15787319533172,-0.154397626845043,0.485956060573397,0.455137689762042,-0.374482626937431,-0.96467252737434,-0.176339244547801,-0.0958872322810239,-0.468996896558621,0.192053645443188,-0.727294776580958,-0.91709706091309,0.0195008041094796,0.186646387308819,1.18221100870801,0.42470872629672,-0.128509853290837
25.185,-0.398752313307391,0.174882517578883,0.847963504228131,-0.0880515783968256,-0.142455296049459,-0.153177676914613,-0.938119656707493,0.170351760754069,-0.158579096844177,0.468172452355017,0.478136339052451,-0.380475999544191,-0.971048058017526,-0.166968328591393,-0.0812593582820011,-0.588948859845306,0.194274558847238,-0.688951348677116,-0.932318161586884,0.0185784694388957,0.189959488834788,1.20272249137532,0.447438580059707,-0.143022171469439
25.19,-0.397314468619504,0.174797361732263,0.847649338519718,-0.0960844426071913,-0.140221551948608,-0.157731069338678,-0.936202033999597,0.176197212195008,-0.163400041289062,0.461624621583014,0.496240503045442,-0.381921012186706,-0.979965431120196,-0.148288294814856,-0.0516114587809161,-0.682993706803127,0.194598734378815,-0.655077389261986,-0.950905930344659,0.0068555604125471,0.189916065253015,1.21123471168948,0.457414506142009,-0.158134543249632
25.195,-0.392980222231009,0.178133860946093,0.842541791835635,-0.0978449597287698,-0.142964130373209,-0.162865325808525,-0.934938850962929,0.169435661629028,-0.161200112997612,0.470596963043508,0.530805519800752,-0.394835684086303,-0.982706412166268,-0.143436448533845,-0.0254925792021301,-0.753641350537967,0.19459309906584,-0.634502237534106,-0.964548435696291,0.00353355697526786,0.181269559695411,1.22528854314096,0.449046618745414,-0.185216710127762
25.2,-0.3946563673086,0.192561761851193,0.83672275562748,-0.101192329204058,-0.150673658747593,-0.16529958777064,-0.920554428766988,0.169052222210587,-0.157275966248792,0.486914299950709,0.556364857992795,-0.404704969035569,-0.987557527326647,-0.13858947500888,0.00586075556847553,-0.835228153872737,0.178222961481175,-0.622455590831752,-0.989525328526702,-0.0117319335741311,0.179260318953196,1.22962658101474,0.433186061182353,-0.213864559388632
25.205,-0.394845164305124,0.203169158428833,0.838901518330376,-0.11310388972504,-0.170496713625541,-0.182103779039018,-0.916494191390874,0.176521724662722,-0.155839492338033,0.518141351326401,0.580684208072681,-0.410805578513104,-0.983547744913048,-0.130049919245685,0.0413354455947022,-0.921194599606376,0.159934235426137,-0.614012457027582,-1.00875180084642,-0.0122011055995615,0.175016289904723,1.27480098886636,0.408042067013992,-0.253584067357869
25.21,-0.384285900250697,0.199890902522109,0.837394028112238,-0.124736421621086,-0.178249787041152,-0.192936570213734,-0.922699262596946,0.197439068577001,-0.157710015838781,0.5544675024901,0.612106445668928,-0.420200510920971,-0.992009019818882,-0.117006939228668,0.0799964624364348,-0.998562456138552,0.141705030957235,-0.62582934973141,-1.02125600089718,-0.0204218968609151,0.173954404983556,1.31891459296434,0.382220056615008,-0.281165607055751
25.215,-0.37308100512843,0.210285391080269,0.841003721974126,-0.141562225551043,-0.182067023896278,-0.198568058792558,-0.934815822188119,0.217304565335092,-0.154981658371362,0.577293916303032,0.636367225311906,-0.429175337074645,-1.00200211329831,-0.104803193882255,0.118300101931164,-1.05342296520083,0.127240681038557,-0.643464166023764,-1.03626145406322,-0.0301446092208623,0.162613836981212,1.37782204799166,0.34425829153554,-0.305180660467707
25.22,-0.378669154569722,0.227790570449642,0.839267689325321,-0.16040678105296,-0.18272813955927,-0.2149550045267,-0.952500773726056,0.226164720805676,-0.157880034983487,0.602648652083676,0.670776005996817,-0.446655932541699,-1.00877738124451,-0.0954189334270879,0.153580556710003,-1.10889308945867,0.109098808037481,-0.63259468198315,-1.0501144857386,-0.0254503122725202,0.157040699300448,1.41601007108577,0.306547599460664,-0.325070256614128
25.225,-0.384950799125282,0.228984565877975,0.838342825643591,-0.181983935850557,-0.187108397986718,-0.229634863645707,-0.956389177601119,0.225108028442309,-0.157592490034559,0.634382111044638,0.707189194448843,-0.477863972439901,-1.00763057220574,-0.0846689107162584,0.185049501717999,-1.14690833412979,0.0914636471295069,-0.630207908956642,-1.06215986547846,-0.0114254441811631,0.145976125820592,1.44353588393172,0.274499642109019,-0.343046315314504
25.23,-0.38591018179016,0.211333935888236,0.83278307856666,-0.202123163034279,-0.190595346763781,-0.240916903714271,-0.944703347488751,0.231776167836172,-0.154531679336502,0.660913405767085,0.743050714446656,-0.505762532772802,-0.986751261522382,-0.0700896956030433,0.214368687009991,-1.16036405199424,0.0720251309841965,-0.636756950480202,-1.07513177537651,0.00894429553856724,0.130048927566827,1.46399693522117,0.237008640046921,-0.365136915539316
25.235,-0.40413611239445,0.200551144757043,0.8334522957641,-0.238302901196148,-0.190500076588612,-0.246556316651763,-0.921371723944315,0.241010209660839,-0.140704796305318,0.689351387577402,0.793089859752717,-0.538492256486185,-0.971423813833988,-0.0525575532923969,0.239470752900715,-1.14946994028504,0.056814642841335,-0.667317089557284,-1.08492615260468,0.0275926089392928,0.11659598329479,1.46835878824757,0.207760348686027,-0.380944512899494
25.24,-0.40718853475638,0.211434316505662,0.8193660840169,-0.253321591797827,-0.197944615069388,-0.252608611152305,-0.899855674859584,0.255700025147849,-0.117058893674115,0.708384948569485,0.858119178110965,-0.576375471679744,-1.02381162747268,-0.0325052558174508,0.275797430294305,-1.09548348246106,0.0560467342295214,-0.625309053032286,-1.08662256708753,0.0536435550418074,0.108759344972502,1.46970764924204,0.193924987403483,-0.397248513516858
25.245,-0.385806883270036,0.259128079662235,0.814554158722659,-0.269670229002185,-0.178399171184378,-0.256860127962063,-0.894846640496518,0.270918579106868,-0.0780132741743999,0.703626717524543,0.892530340375224,-0.597010574921777,-0.966380786649859,0.0110519217055134,0.299432336084445,-1.00076951963555,0.0809335152042186,-0.58690804199663,-1.10874687560192,0.0915025614275114,0.0923160434013928,1.45972928831232,0.179912980778089,-0.386562409877847
25.25,-0.339198914270586,0.322117909483509,0.825140916383296,-0.310383312703275,-0.184471887260563,-0.265065562091368,-0.920373918734095,0.294351778936857,-0.0448354311951111,0.65443770473291,0.940879618464915,-0.615906175318185,-1.00360423554248,0.0376976195971926,0.272223920027976,-0.915032035126938,0.052949414247978,-0.713639903437331,-1.09978488768584,0.125566054157231,0.0848792433461007,1.44603056465234,0.164648819200087,-0.312191441113372
25.255,-0.318757066487915,0.29979226975863,0.842132693183576,-0.356967318751116,-0.188576195133494,-0.304864256755509,-0.947063318042853,0.290334814146935,-0.046646625976158,0.549414836945643,0.992760645331122,-0.628632900249481,-1.0642571684288,0.0562029026666098,0.317690967637989,-1.04408664787862,-0.0306968595136968,-0.67959572208076,-1.08084381385887,0.124399894809427,0.0886799449762268,1.48617315206332,0.189673976353583,-0.3497609567524
25.26,-0.332747421575201,0.280889063334795,0.83868488377868,-0.397181828250685,-0.183702441319781,-0.330723849418423,-0.952881435679695,0.276312140784892,-0.0683775842582508,0.458475916087121,1.03939580863127,-0.649361797626009,-1.10140458822737,0.0550367774349702,0.307859996563245,-0.879087957824584,-0.0406053479378128,-0.567284181391407,-1.06683216822575,0.136478204500433,0.109297418938411,1.49967926957374,0.17606599703779,-0.407456541201534
25.265,-0.359009717675576,0.244035629172073,0.843315843133104,-0.429544340663661,-0.172981283446533,-0.34247997894663,-0.957900226218443,0.263448795956422,-0.0802198628441353,0.41141783234015,1.10738335567988,-0.692484819437434,-1.11074321534755,0.060696779718156,0.292157438620621,-0.804070735512466,-0.0269824490557187,-0.419372560331515,-1.05159829656477,0.137310512916018,0.138088662558611,1.50111821154448,0.116494691226957,-0.397526822027616
25.27,-0.358006865102137,0.227119336793947,0.854997965371973,-0.456342593692255,-0.148908911465067,-0.340229690675982,-0.97024868747573,0.243852113277815,-0.0878255884790928,0.353870443399265,1.17546701344429,-0.732344771791982,-1.09343556292703,0.0537311193493354,0.288913621010105,-0.80120645023971,-0.00150783329192427,-0.287726877850256,-1.05693036777257,0.136177522381018,0.165680697906698,1.49482286632954,0.061444708562783,-0.405187366031807
25.275,-0.345686172480535,0.224909475059905,0.866986095506344,-0.481034671602622,-0.121078404302753,-0.335497625584865,-0.983820448543524,0.247423229344986,-0.0938378302364786,0.272333914172221,1.23511519587939,-0.76598576758991,-1.07051886774786,0.0651704146838194,0.283553150204689,-0.691985048779064,0.0171815748060611,-0.167071629508808,-1.05731292789898,0.136872523277846,0.176623920353588,1.47984971084242,0.0437940938425735,-0.397870709134761
25.28,-0.34276236441394,0.220144273066839,0.873674068613087,-0.491162622845302,-0.0928265062135642,-0.340612431455586,-0.993426884270348,0.269043006527962,-0.110542471942547,0.189672033820424,1.29268040812532,-0.798149386429784,-1.07132550546175,0.0241008841632732,0.289295154454986,-0.697042307298796,0.00921104885592063,-0.067859590046359,-1.06340917674918,0.130809054824738,0.178022448414448,1.46438916032171,0.070256017509491,-0.365110431318778
25.285,-0.349771545748527,0.214349897620851,0.878574541430862,-0.502768079245427,-0.0558533743676675,-0.33718032045449,-0.991888666434508,0.27544950006874,-0.120154639493441,0.12659250345671,1.3542087301624,-0.832758404462991,-1.06946209634664,-0.000677131648313974,0.2971093094365,-0.747234926311367,0.00227734626752156,0.0210584290276551,-1.08270095344001,0.125369487565708,0.180060558242757,1.43446987524325,0.0930320247232564,-0.316688045861495
25.29,-0.348599685300903,0.200884814756682,0.886262358415194,-0.502691421745634,-0.01879736433531,-0.344417711230573,-0.985569749365408,0.276055816864262,-0.123083481461622,0.0481901325660044,1.4203523184942,-0.864192870689294,-1.04917727389945,-0.0112760594621533,0.305456238933347,-0.726414989140518,0.00645778514444828,0.117961903217085,-1.10242520606292,0.117940568583884,0.182598751879397,1.40255157787216,0.103758583088607,-0.283522705999241
25.295,-0.344525055951183,0.210574266237177,0.879807150469973,-0.481834132577363,0.0352300030114383,-0.35351916507901,-0.979262178275901,0.261543971059449,-0.127152648514254,-0.0528213131344999,1.48963781151107,-0.903860027835098,-1.03661343042116,-0.0369640152601439,0.30844498977933,-0.729455410395716,-0.00360925320290485,0.205656390083067,-1.12079636450239,0.107523787486313,0.17159566742912,1.40079972992011,0.0953772058342833,-0.286201752859495
25.3,-0.345588171482086,0.230348824777389,0.877583217078989,-0.481118841841138,0.0890798411914009,-0.36725769953384,-0.979051035195869,0.249415676073895,-0.135469428453343,-0.134929259997489,1.55743240485887,-0.941123111672975,-1.0346297089448,-0.066068311012949,0.299593243029217,-0.777037012661311,-0.0287025136260285,0.291203822934871,-1.13111837786945,0.0941487256562486,0.155677251300151,1.42280460516653,0.0740411972292391,-0.277528486835836
25.305,-0.341152361531159,0.24355109555214,0.885522808854173,-0.496659779976551,0.139375456390047,-0.403189306556793,-0.998862395981558,0.24964747325539,-0.148091756270959,-0.170581836445244,1.62588051073278,-0.978482575183961,-1.04388265735487,-0.0714239428534881,0.295249596764747,-0.841721639148681,-0.0461228947070885,0.368681051148698,-1.14639553668125,0.0663289917972628,0.141776056088672,1.48606389570037,0.00281998504142316,-0.241475191233031
25.31,-0.355360700992416,0.242506227748444,0.889633834048534,-0.50326710804373,0.183826724125746,-0.451447609320944,-1.01917841434373,0.228256226195299,-0.191384776678354,-0.206334013257051,1.6760647912836,-0.984930437488723,-1.04853785241424,-0.0867657222938667,0.284520741029916,-0.908007752755983,-0.0707546254357112,0.455571432497025,-1.15435255561642,0.0401989535588268,0.125172270441399,1.54264073233195,-0.05614700498805,-0.191793060036091
25.315,-0.403192068648295,0.238095226454947,0.89416096786545,-0.511557189036579,0.266381330773671,-0.492857837402476,-1.03312364276428,0.200183891643846,-0.243277569280446,-0.221567853796736,1.74044396935662,-0.998845984475369,-1.05299033753062,-0.0918525591768051,0.265888297916911,-0.943448197991688,-0.101996048646903,0.560869715490185,-1.16831409252676,-0.0175858805706716,0.0947008673694178,1.60752521730329,-0.0791365723883583,-0.117109689025134
25.32,-0.461330111377046,0.221936776176804,0.88934142609386,-0.516204006929015,0.358875860011614,-0.544182912915047,-1.04496829851878,0.188357792437059,-0.299546692025646,-0.202040365645192,1.79823653290914,-1.00661295593023,-1.05348718076876,-0.0939221745667542,0.23774109625292,-0.960019903809263,-0.127354932725113,0.681727547653213,-1.17952866549422,-0.0797114186725493,0.065454905111606,1.65445856707417,-0.0658956830107365,-0.0448830029528246
25.325,-0.535783146088854,0.227543495274258,0.90746624176992,-0.511622590089217,0.481033834046975,-0.636905344677877,-1.06437340293342,0.203400321997838,-0.355283586104892,-0.157051657044168,1.88248962266032,-1.01512544964075,-1.04916620580927,-0.10131980310328,0.213954876860301,-0.995577211728823,-0.159329210636292,0.796234817314956,-1.19588243177863,-0.139760807186798,0.0388119435917796,1.68754763439122,-0.0215762589999267,0.0218701497380298
25.33,-0.541985780047452,0.259435387214005,0.968794517928586,-0.538980954251846,0.635570933796204,-0.701189604880162,-1.10842033610449,0.236383638333293,-0.341067481680218,-0.0584175463077564,1.97266755122814,-1.01662801868835,-1.06504077008656,-0.103911036624625,0.185858876924292,-1.0300060073742,-0.191247208981402,0.908805943613771,-1.21344950504555,-0.205456275176315,0.00521903241028003,1.70999353888643,0.0499340650781214,0.0756317427107982
25.335,-0.489750748080546,0.338394391631419,0.999827460409981,-0.584922267550712,0.812377377332574,-0.786468441741847,-1.17220426916488,0.276663798190551,-0.325737942250668,-0.00369892570942397,2.02904934684903,-1.00610133255286,-1.1194493660383,-0.116492985892253,0.152752799162564,-1.04506522106424,-0.21749008032315,1.0243110508599,-1.2429049691116,-0.263638879924739,-0.0245829494868609,1.71400985084313,0.139070288102134,0.118217929655445
25.34,-0.537749290465265,0.442469604867103,1.009136259924,-0.610924822526668,1.01745880954094,-0.89851865801903,-1.25935826434988,0.347130404948782,-0.35066779794251,-0.039196262586986,2.06664767484934,-0.968478168672653,-1.21251520865044,-0.117843223649533,0.107473156053018,-1.02553182271003,-0.223975479907272,1.14723977199479,-1.26715571824629,-0.325195346406465,-0.0711009414898642,1.70103059429138,0.253520529364108,0.153476597478012
25.345,-0.562997344257198,0.462467503943364,1.02348604469119,-0.67391672863887,1.29663188774078,-1.14425328148907,-1.35437647654443,0.391401789330555,-0.281967172083241,0.0613500180390326,2.13562471703681,-0.859333046746264,-1.28971310511146,-0.124414407174472,0.052829348786001,-0.978991704975409,-0.226888424567598,1.24419569335037,-1.28766433849094,-0.372665055092025,-0.12127521854231,1.67774167497571,0.35518519973091,0.168360330401691
25.35,-0.419850013425089,0.504295498604411,1.06032981611675,-0.74022997742402,1.51082438904108,-1.31059942761114,-1.42971087366333,0.398000058410229,-0.223153941820007,0.200338064403566,2.17027339705171,-0.782074086864372,-1.38423206376944,-0.124824862500402,-0.0444287343982848,-0.938545620894514,-0.23806071855972,1.39439308432149,-1.28642259456661,-0.399005269861898,-0.166160873663044,1.66845556285675,0.417556653589763,0.165145646812182
25.355,-0.233660177626838,0.508479048029193,1.16488790688057,-0.774153613447063,1.79506664626304,-1.45036451381598,-1.53779331048052,0.340234090362809,-0.147785837638571,0.352699981487261,2.19686452912875,-0.668801643181594,-1.45407950093475,-0.124296444866363,-0.112639539222475,-0.939751029119485,-0.257697763564819,1.54489790487158,-1.25845426415544,-0.406242371782847,-0.229877030177391,1.66548160585223,0.45709641719206,0.121082212876117
25.36,-0.156528428219603,0.565084826019596,1.15183778437952,-0.733739956211272,1.99400076961761,-1.59558353214681,-1.61309015053367,0.296745223266682,-0.101358912926272,0.466863505345628,2.22331602143069,-0.566660466153062,-1.52259272924378,-0.093849447655544,-0.191459618194136,-1.00820143459808,-0.297371486567916,1.70700121663803,-1.22861386214921,-0.401524622849629,-0.268761662389894,1.66521437909388,0.451613875152807,0.0632425001229632
25.365,-0.232706690658088,0.607006743960184,1.10884423393361,-0.746537601705429,2.27724409654514,-1.78006432714909,-1.656428557043,0.218235012158946,-0.166726452248346,0.494749796216674,2.22575315688785,-0.446254280576175,-1.56441043887572,-0.0651212203116667,-0.241376566239092,-1.1583590484781,-0.34578687415008,1.85979163711387,-1.17084206091413,-0.364440782471448,-0.311038323326627,1.67729743503871,0.405684786573179,-0.00764749668681439
25.37,-0.432568533102303,0.574006016338894,1.06848520878106,-0.788957974446403,2.5013986796768,-1.9755531830747,-1.64250704756874,0.18860753252202,-0.261353776900486,0.647670117713019,2.24849933510696,-0.323344055626844,-1.53416910471585,0.0136720469674738,-0.321614318278876,-1.47662893853552,-0.424626430549466,2.10811016741487,-1.13476179409386,-0.328671083491297,-0.303179680169471,1.67551705852721,0.380089192903107,-0.0599707005228421
25.375,-0.561052063389538,0.535888209592813,1.03952371671288,-0.827113964396496,2.75493569466171,-2.17671827568756,-1.60331355846058,0.181884272699445,-0.336740524940859,0.842861609369941,2.27181349944243,-0.219197736686429,-1.50126051630535,0.157772077496087,-0.382521943210082,-1.68576697329917,-0.477991326641242,2.34889178835019,-1.08560919761658,-0.284268478915263,-0.276428953148006,1.66897208335694,0.375162410174267,-0.113115936410747
25.38,-0.602330693452,0.507090361140633,1.0552320921791,-0.840529501438141,3.02637583834436,-2.39552077626696,-1.55820483320308,0.18996771601642,-0.370234536270183,1.14004552103521,2.3232891014865,-0.113612639337568,-1.4972308880697,0.360855956728586,-0.425175563852031,-1.78982001088248,-0.513860614576992,2.75522402209201,-1.04348052906437,-0.250182130967762,-0.228866255647178,1.64123328149628,0.40787997812456,-0.153188092664343
25.385,-0.609502913318373,0.513309577453297,1.05831241575675,-0.852954024086668,3.24978549160651,-2.59669955250345,-1.55671979006271,0.224002729450775,-0.381719629122266,1.37066381861116,2.34443504189649,0.00554416574709352,-1.52438307767315,0.568793941037968,-0.452891711642236,-1.75874473430379,-0.515450416363374,3.32009241131223,-1.00406711958995,-0.218736428665425,-0.16760647625423,1.5922160452071,0.470620634006896,-0.183404520202524
25.39,-0.624513916934542,0.50669027313857,1.08678025934123,-0.904349456571129,3.47868987805853,-2.88455697090593,-1.56613965441821,0.256998012409761,-0.356861120276829,1.48455511284586,2.28406126231557,0.137686081499479,-1.54797855718159,0.743456356327034,-0.496642546844089,-1.63150647174398,-0.487873504428492,3.9923068753594,-0.96405285392492,-0.193898476211511,-0.0931845133800488,1.52301430523831,0.544312060874419,-0.206550874049371
25.395,-0.596876862437029,0.476573709270761,1.15141673789406,-1.04798160413256,3.6181434412842,-3.11656905075023,-1.5696570191751,0.263038480367194,-0.33770832912108,1.55019763639699,2.1627589205277,0.250629888252296,-1.50600652602619,0.727499992586219,-0.557570385097353,-1.4345681393366,-0.442690110928757,4.44606476252675,-0.928311929181118,-0.177374134559453,-0.0258105295641101,1.46131356320241,0.601994090935917,-0.221053960709551
25.4,-0.472299043039352,0.41867482923451,1.25864723318367,-1.26228098643708,3.68558309102181,-3.35206404489282,-1.54459210912764,0.263381558611234,-0.316097002658122,1.6738174287896,2.07054946297095,0.313691619509132,-1.36904413305296,0.373509344565982,-0.615058609755982,-1.20516343302154,-0.369763230788744,4.35087637905809,-0.899665123373275,-0.167238524593414,0.0378587996706323,1.41413230551062,0.663137902278944,-0.227140900461161
25.405,-0.354120434067086,0.396777201899796,1.26893571527561,-1.43160902923609,3.72167873382568,-3.55499703744727,-1.52980363408385,0.210847828709496,-0.279059676188624,1.86978792845943,1.95253170531997,0.350559699389413,-1.24026163196556,0.0304512416598064,-0.670027460934565,-1.44471716245576,-0.319075550995693,3.65969980533417,-0.905477009990439,-0.145626480029325,0.068589688528443,1.39736253648074,0.691858590015368,-0.235410256049135
25.41,-0.272671056887849,0.346420830327366,1.25800396855129,-1.56181125562062,3.72336572705556,-3.83379966146975,-1.50269504707092,0.175391393709159,-0.201437330485449,1.9856862750544,1.83809066511681,0.375169338757465,-1.33864573375698,-0.151691530709842,-0.562104318299397,-1.59336706846483,-0.164492862029021,3.1377928226895,-0.853352396752575,-0.130585427876427,0.0921298374501684,1.41262683877049,0.683226993982339,-0.256802455109101
25.415,-0.338347212043047,0.129786772232622,1.14975766049191,-1.62768765248917,3.7081379498719,-4.21736663235454,-1.4295093464374,0.170635635595034,-0.219246909770283,2.18747299170638,1.70927770904192,0.411445662408104,-1.20032181964312,-0.277178622588532,-0.44542038982258,-2.07768941614835,-0.124217198789461,2.73271740636995,-0.92737130052123,-0.117705119411722,0.0749878878067853,1.43777681441869,0.621768672255119,-0.266562987952557
25.42,-0.47695757620494,0.042719759312677,1.04173109617144,-1.48407623808222,3.72759156440132,-4.71250485998004,-1.3484191998074,0.166863352648585,-0.199383194785213,2.47685896799008,1.65112490877196,0.426548602659059,-1.19761461751591,-0.415798250336703,-0.338328506322244,-2.49032109870435,-0.280233790433574,2.28696451629276,-0.904076737523539,-0.112069470575853,0.0588914630615618,1.46525613835243,0.532156560579137,-0.251851697646831
25.425,-0.5871720662722,0.255728039516753,1.07750300986214,-1.26515439824401,3.94549143912277,-4.76893085547997,-1.27524543324247,0.160537628855448,-0.172494630244233,2.74257840373314,1.6138967210364,0.427704583031324,-1.22789390149089,-0.505687324272863,-0.202729972968921,-2.72283578298059,-0.413757692691058,2.08750407551541,-0.88790672023709,-0.13522731000128,0.0396317549791295,1.5188493237549,0.442683120006926,-0.27043892847709
25.43,-0.601178196479857,0.437580289042627,1.03804364874409,-1.04241852873018,4.02810371985972,-4.7859554205262,-1.21281192241984,0.214849123050266,-0.169424181747181,2.95100707562341,1.57909747282568,0.468621218333274,-1.2795063618381,-0.527407849272685,-0.0646211340945013,-2.68781685566906,-0.50400529570085,2.07093213314078,-0.884082096858291,-0.159586836756582,0.0139609008361668,1.56899038703702,0.372508036230246,-0.287962896050062
25.435,-0.563342225963751,0.683190986812136,0.999624416336148,-0.84602559127494,4.08184240275474,-4.73033273577585,-1.17234176861519,0.324196116094261,-0.179447009574541,3.12800685002688,1.53406337189846,0.523736017636812,-1.29832002638592,-0.491491057322852,0.038922655896225,-2.73654584481659,-0.594446400588717,2.14552380433848,-0.883067469541924,-0.182939779505593,-0.00759399252016685,1.59277777620335,0.291679415138054,-0.272627797470334
25.44,-0.60615038685026,0.763382775124549,1.1613033302577,-0.462180501520814,4.05415356978046,-4.57260199282117,-1.12783939446401,0.415282357318981,-0.186739221772812,3.37481130519685,1.46696974552087,0.60520418929411,-1.29237233019553,-0.477045395993666,0.130102655961012,-2.82298991008391,-0.680668760117675,2.19309842100296,-0.889141158934216,-0.210154362757759,-0.0290469535723099,1.60513411525088,0.236340163041364,-0.268972067226352
25.445,-0.848334066795701,0.585209015570916,1.58119770564013,0.457336263469622,3.66260831237344,-4.5878784431481,-1.07409898036206,0.473812745611482,-0.26456109425837,3.58981831981423,1.42888789940738,0.689710689499537,-1.27655739608593,-0.524641402832667,0.167057046878438,-2.84857342834065,-0.765747336445146,2.14805064404135,-0.886902093466356,-0.228367861947256,-0.041034381877304,1.61242855249348,0.238562908743122,-0.269235518284127
25.45,-1.01143186265898,0.762337768177131,1.5637463547865,1.02880484712617,3.09458251565655,-4.47229860865051,-0.997602945576077,0.542106067586526,-0.275113237689543,3.72075242609538,1.43526655312883,0.837027065003935,-1.25737573482631,-0.60292462088701,0.0748295749787345,-2.76344489921123,-0.875912569326497,2.08082569256204,-0.882826513271915,-0.246175843759164,-0.0546486062398469,1.62817497846785,0.315279282253638,-0.235226224274543
25.455,-0.710987526543634,0.930420175383691,1.287570445782,1.45019111120467,2.56441930634762,-4.18525870726076,-0.948503701333508,0.567987674035788,-0.187379610227491,3.80886132593969,1.36976335380673,0.997552952744852,-1.23353423298334,-0.680059145570844,-0.0474743979384834,-2.62397638896339,-1.01705135298245,2.05807517414707,-0.88014811389608,-0.254601638260544,-0.0534334885593257,1.64584297502949,0.405653620055387,-0.19827594427172
25.46,-0.435965826997937,0.876769759255244,1.1341537942902,1.43241040667306,2.17370689171101,-4.32914711631174,-0.906788962850957,0.585785124635089,-0.183085291531427,3.74887346846854,1.25856704580219,1.11354255664207,-1.23371460592235,-0.737101134772056,-0.173018723432094,-2.41575767537869,-1.10225551360695,2.06295686487589,-0.882499441944147,-0.264590040345904,-0.0350930455049405,1.62957916736391,0.471550368171548,-0.162309188196254
25.465,-0.369874031723696,0.855981123636854,1.28957625616422,1.57421403238911,1.83062760625287,-4.5458250178037,-0.867963071481205,0.561661109936963,-0.192013758533379,3.57320563722265,1.12567740856672,1.24942785482149,-1.23205350743095,-0.772697070248694,-0.360978704453567,-2.046976187827,-1.1695165424558,2.14562931061135,-0.892054314294402,-0.26306405593147,-0.00513032867416342,1.60937039876505,0.500930945259186,-0.145316289283869
25.47,-0.362361302472281,0.860525776037493,1.22280607617964,1.85848657876701,1.37525079281662,-4.56612827795774,-0.815114775205053,0.405964606767393,-0.156477661761532,3.42035179276623,0.986613090494483,1.36177184403272,-1.22631942200445,-0.751660078978322,-0.544599844519322,-1.64260350364838,-1.16256753753368,2.28100170578825,-0.909421033018999,-0.262390102336578,0.0365056599873278,1.58567247149821,0.499574019068139,-0.129452336289334
25.475,-0.390759795089372,0.925954132263686,1.17238628036121,2.17277265378619,0.829706154237347,-4.48255458653705,-0.78178672691302,0.290219109369414,-0.149612768927042,3.28977699130557,0.851378013891999,1.48820693380733,-1.190164907906,-0.707443035955009,-0.68058824794787,-1.28898383900155,-1.10950952789074,2.44101090938667,-0.934314926510975,-0.26302188516146,0.064452734742019,1.55481270618978,0.463446008731885,-0.117146660721599
25.48,-0.453939113697113,1.15579768763451,1.15443092974448,2.37766136589829,0.367235740746302,-4.20344688213045,-0.776357805544293,0.24388417036422,-0.121100036323304,3.26879034967685,0.719679692025577,1.64535398505371,-1.12386489481309,-0.65526938890725,-0.795152663189296,-1.00826934515229,-0.979862899039788,2.59807482987362,-0.969907955320701,-0.260943452234219,0.0906285272869312,1.52289472317981,0.398814451343915,-0.115176687701497
25.485,-0.296365258826297,1.52164558204394,0.858407090381596,2.47936102679923,0.0167217290689406,-3.72390158879428,-0.773048230283736,0.181662039311875,-0.0167070658875726,3.40035929847608,0.567386688479316,1.7556148671687,-1.09079747115237,-0.600656100045394,-0.849294101504012,-0.81891002877919,-0.770754867669949,2.74228410981694,-1.01403811074941,-0.250347621773112,0.0973036204405069,1.4886184959434,0.337346534253746,-0.131644101999898
25.49,0.0111272084033603,1.79878877443703,0.606198190651507,2.41034442527316,-0.0603024377797963,-3.24296177970742,-0.745869561097743,0.148898383196764,0.0413720146337699,3.44284503836466,0.394654737135002,1.88952218429793,-1.0471115686234,-0.54677517072832,-0.778166361232464,-0.604075806157829,-0.623282761760352,2.85773827443086,-1.05652747966803,-0.241585749214835,0.0967120151681526,1.46030355355909,0.290956720747752,-0.157119262161555
25.495,0.233226191860975,1.65635779167656,0.539909650855268,2.26630418382709,0.000472207972865931,-2.7500671462333,-0.746426118903224,0.164274828466545,0.0652809625209906,3.35814836989238,0.227664097731696,2.04375342096698,-1.02575073142799,-0.464118209757888,-0.690540543043128,-0.442597329886671,-0.535453958464227,2.93228056894834,-1.09062924395441,-0.236244138099351,0.0871921135259673,1.43532642706855,0.262223356477494,-0.196582331271973
25.5,0.198316349119321,1.30430980812641,0.569424306785419,2.27387094272286,0.0928116863709618,-2.16960122738078,-0.742209571519538,0.197819776702332,0.0573380641902671,3.18179003653619,0.106581849078485,2.17482857369504,-0.972423300234719,-0.389968847778452,-0.633983084071296,-0.435379015924466,-0.4600828833988,2.99797319647377,-1.11734062081412,-0.222226800800938,0.0769732730999211,1.41461869419341,0.243722179296422,-0.240073800456143
25.505,0.0459918609643562,1.20950715953445,0.665020179907523,2.52065420805873,0.0989573599676793,-1.56253751924909,-0.676413246183634,0.2647153148547,0.0313765142442587,2.86446857149362,-0.034333518750741,2.32786716179673,-0.919343081778698,-0.322491759447291,-0.575360551544088,-0.55341393222237,-0.240912083367976,2.95962140521323,-1.13318219084061,-0.206592382868646,0.0628803753798431,1.39921808712515,0.225987742847487,-0.286364036256129
25.51,0.00965447894522849,1.28084176120211,0.756066668197452,2.74705274529689,-0.00284821514827971,-0.988508456371037,-0.626354451305662,0.312734198530791,0.0307406642817732,2.61428542177242,-0.14516095995422,2.41073710724836,-0.891812798397808,-0.284127108112726,-0.475074235428375,-0.650912296483361,-0.0839292097160139,2.87427853374735,-1.13296252764989,-0.204017451508754,0.0547595381236786,1.3977192521904,0.206285342307345,-0.336880193997793
25.515,0.0907847441466746,1.21858246057268,0.802910257948672,2.80627473239341,-0.148931419371037,-0.54071668944818,-0.598418066081959,0.334577660814769,0.0655043124623327,2.31238508142188,-0.295796072340017,2.47511812668304,-0.87279804895612,-0.264118906676289,-0.343509756608438,-0.901289778277399,-0.021904232871864,2.67445830029713,-1.12538013931322,-0.193762291549444,0.0414191447655154,1.40896669559085,0.175581863488896,-0.367947986770664
25.52,0.189806567420498,0.964490068915015,0.803431224387116,2.81360110959324,-0.295019435184207,-0.136204046499107,-0.599510859517574,0.322400699117363,0.119401911075942,1.89536799302516,-0.473080471643867,2.56746569997688,-0.845704021094067,-0.260874864299555,-0.301183356696612,-1.1980020559344,-0.00993992900193331,2.51246522327071,-1.09836668820391,-0.19288624019782,0.0173943373302616,1.42552224531281,0.125378076900985,-0.396388270703268
25.525,0.265305318332903,0.755658231476801,0.805438793362255,2.88502710784343,-0.405488160429317,0.101612431914385,-0.614650113011515,0.295819497156603,0.160381764598203,1.44677857506553,-0.64371642422116,2.65872618746076,-0.825608400206475,-0.27057705218187,-0.247355156472676,-1.57227719664264,0.0257078929820035,2.32690841593698,-1.05857911285855,-0.18830938622411,-0.00998106219925782,1.47252288608681,0.0680913541794491,-0.418374496697727
25.53,0.345135799858048,0.538968160928476,0.826737014196365,3.00602886651885,-0.479774296080317,0.246146202404059,-0.639081694838258,0.257124995015916,0.172650138153972,0.952469104209842,-0.823100274543454,2.75346139002916,-0.81791438778277,-0.295019694842921,-0.194475621511009,-1.8258357366401,0.00457583770405475,2.09709949281195,-1.02728335224769,-0.185713101590714,-0.0303119440768475,1.50917003209324,0.0249497313379769,-0.430225164630414
25.535,0.390259738022945,0.391275999571956,0.861991368190251,3.15899361456938,-0.560918929721354,0.33563675236629,-0.667996924605042,0.19130422850651,0.178964010844201,0.426180032645369,-1.03061440949809,2.85169802855635,-0.815408412791385,-0.315412453172547,-0.164703717009953,-2.05839719700878,-0.0366021590750182,1.8360303257482,-0.988799388195545,-0.17949563481527,-0.043992605971562,1.55716907368157,0.0137522472613033,-0.43177919632087
25.54,0.405448955521699,0.286612226434598,0.905827017825273,3.27133757868609,-0.64063600794639,0.36364552509478,-0.689705619051529,0.118519176191536,0.173754907129162,0.0403216829753586,-1.21221875239226,2.91242630009386,-0.824099866824409,-0.326342405041911,-0.149255871389524,-2.21467493468996,-0.0770428799324767,1.67190281006297,-0.954291553654273,-0.17409399365177,-0.0527181669957288,1.60522224804678,0.0394594650407872,-0.417829335180011
25.545,0.398804153001305,0.189828893284735,0.981049169044083,3.34904917990348,-0.748498151484593,0.337929903531387,-0.718314735867322,0.0304879136982221,0.159406954522738,-0.343499891984459,-1.41206067536462,2.96970964339041,-0.828781813367922,-0.339447346529479,-0.129127419968208,-2.38397907398004,-0.128619978097231,1.51564480223001,-0.924192250580782,-0.176849026524027,-0.0585764137169226,1.63833468089251,0.0975454192071417,-0.389766413473438
25.55,0.391942116906195,0.0924814584100304,1.04032440420208,3.39853843964482,-0.898105929517792,0.279583490970944,-0.744517234983519,-0.0613838563377603,0.143874052249746,-0.647802554617219,-1.60980517553402,3.01469501612598,-0.820727722892377,-0.34953338164391,-0.117188776287276,-2.52793906854547,-0.196309633598904,1.39331628311955,-0.901583538745224,-0.179941701869147,-0.0526337139681778,1.66078911483086,0.181692355791573,-0.349188989083199
25.555,0.403453748704101,-0.0447059899337268,1.10064389367557,3.44278119237672,-1.02809460502116,0.216633180918852,-0.770312113199748,-0.147567009241077,0.138751596859841,-0.850572695090979,-1.7893237767839,3.04790616477299,-0.818707373668076,-0.35875957917997,-0.114576938010526,-2.60142619486352,-0.242615216044336,1.33581951154537,-0.885046922566518,-0.180674564229788,-0.0456035488816074,1.67362510643974,0.262030998660289,-0.309217343830485
25.56,0.42753001339513,-0.158588384946895,1.14785640199764,3.50226094787367,-1.186144954891,0.114349003248943,-0.802823459893073,-0.258610241047251,0.116890211310385,-0.946607140525999,-2.00789536947981,3.05828642845154,-0.799475866536391,-0.382407942028123,-0.111322482266213,-2.70000942647425,-0.326222526236642,1.25263209485227,-0.873874402179226,-0.185706772210548,-0.0305058406074943,1.69067732303025,0.358484645282543,-0.258020920370031
25.565,0.428506440944329,-0.244022293922363,1.16086671283848,3.5558276556403,-1.31577227858648,0.0152994807333731,-0.835066647041106,-0.348447957020139,0.102873083872995,-0.895400743201895,-2.15905056158233,3.05702970238848,-0.78595820837333,-0.39642558306693,-0.102694790904333,-2.72765305591844,-0.382698772086892,1.1999841420971,-0.863233221140433,-0.1919380949723,-0.0223585187334642,1.70133483095331,0.407399324297072,-0.222273270932731
25.57,0.422814649479283,-0.337312033659863,1.18088551350204,3.62717360458833,-1.47095957809662,-0.138808275652434,-0.865815623478231,-0.458123394968289,0.0862436759067902,-0.680353003797929,-2.36250640218334,3.04287797970352,-0.772622073164449,-0.393730757114162,-0.0833218610009889,-2.73966841262592,-0.427226223883453,1.11963346046221,-0.854969675901431,-0.197875349384852,0.000139405939326767,1.71344878384868,0.446281650466293,-0.175427984971577
25.575,0.424573989372264,-0.416436764192326,1.19715614520059,3.6965236247779,-1.58644705460217,-0.287393237207972,-0.887828120252244,-0.556669419471729,0.0527999952928505,-0.35013142118184,-2.5553169694569,3.01204426267243,-0.762459293520191,-0.373001845585206,-0.0602992239255217,-2.72986615458142,-0.46115204886613,1.03851687007691,-0.848396817831025,-0.205100074429602,0.0227467024641576,1.71584904600917,0.460999399423599,-0.130399388115547
25.58,0.436223378459337,-0.494623366826991,1.23377760612113,3.77291023004561,-1.68968828712117,-0.441425862394015,-0.902659666267017,-0.630922077647472,0.0329735355185695,0.117742696439939,-2.75774659959092,2.95216369726858,-0.753753795434525,-0.349295894965829,-0.0315443924268546,-2.6749305853207,-0.488552023628274,0.935987228539647,-0.852498281155905,-0.210074383016618,0.0507595404459229,1.71543060796056,0.459224266114665,-0.104406872195027
25.585,0.42242829549035,-0.549118771510748,1.26459255550681,3.8447279627157,-1.79944509856182,-0.605049058210854,-0.916488982229753,-0.654366783353295,0.00672935056121437,0.571410469145595,-2.89592018420504,2.88536703658034,-0.747504744887678,-0.327657960878646,0.00334897268783759,-2.58748617269641,-0.508244035438178,0.810377567873185,-0.852089117837278,-0.223624742751596,0.0726193223101105,1.69629762838502,0.447419700623319,-0.0747062626748636
25.59,0.391076548207521,-0.570059144739953,1.2795439584542,3.89860663122705,-1.90032510000648,-0.765336250123075,-0.931774907427859,-0.664270831499017,-0.0217584835341886,1.14154678611319,-3.04907171659769,2.78944087669245,-0.736572487632505,-0.316019162709024,0.0308866042674767,-2.47548259530409,-0.521052234688847,0.68813085073629,-0.863982100187438,-0.234310667592948,0.0936093927804254,1.66983297916749,0.4379938245655,-0.0531586062409289
25.595,0.368407594716521,-0.576850691980605,1.28079418339467,3.91743095397422,-1.9865826006641,-0.931573195687324,-0.95509810650557,-0.651931249485162,-0.0447445048160802,1.65332173818405,-3.17825070828816,2.70113191048282,-0.731512845733943,-0.306969940598383,0.0611002233933024,-2.36453527375678,-0.524616209332288,0.534527860924655,-0.877237455215596,-0.240764582643152,0.100098060147091,1.64288647838479,0.435137310371698,-0.0459228058723809
25.6,0.340509656824072,-0.571476260815545,1.27705075550211,3.94280784376445,-2.05947635426993,-1.10134602260583,-0.988733978512734,-0.612403485211139,-0.0642328748612388,2.11415442170156,-3.3142516045478,2.62295588039452,-0.748850679808732,-0.303623136117946,0.0807343390948599,-2.22810918202353,-0.491633746873239,0.354362024581736,-0.890569734953825,-0.244448201004745,0.101034359311362,1.61931397946866,0.439718072867638,-0.0516810027001999
25.605,0.310879646431944,-0.559467066757061,1.27528553112447,3.95169054701202,-2.08514973077661,-1.21616437589318,-1.01364443614576,-0.575851074343391,-0.0724425971285593,2.44105717051301,-3.43508616474833,2.56270991034169,-0.734990985334978,-0.302042121099185,0.0810768694518345,-2.1011432706873,-0.458248569618053,0.226244455128735,-0.911802910994858,-0.252002143202319,0.0983299067915422,1.60559193019943,0.450752243530294,-0.0637543428910594
25.61,0.260446645169469,-0.534769379238844,1.28134883787568,3.98650290190127,-2.11143727849101,-1.33854394426121,-1.04514321250607,-0.535064988083575,-0.0865312769155877,2.64262520240298,-3.53479288314225,2.53250806392682,-0.72066086004585,-0.298147748052847,0.0812183062627674,-2.05886927232355,-0.458809384027608,0.106552826399435,-0.940197338234137,-0.254271561568596,0.0855411241367336,1.60632361637019,0.458488823918979,-0.0908052549039002
25.615,0.189951787804134,-0.46306688294337,1.29835377848819,4.04434840445677,-2.13189798589654,-1.42403053638069,-1.07050651148666,-0.486346824691353,-0.115721685840038,2.79094756354181,-3.63172410068879,2.51631903183502,-0.717207163187761,-0.300127776844343,0.0774800671657067,-1.99061443815064,-0.455795041758189,-0.0250801315005232,-0.970590214356732,-0.254415737507256,0.0699900986233922,1.6125387036208,0.457979106072623,-0.12441827807075
25.62,0.123166734863333,-0.408224699628657,1.31238652439277,4.09443856933406,-2.14443632935483,-1.4872123242383,-1.10061340003485,-0.439556582046673,-0.148743734474372,2.88060372567392,-3.74142158406301,2.52253822598368,-0.710103904667323,-0.297035180563285,0.076409744153134,-1.88811841695941,-0.434338974237385,-0.140900218946431,-0.994501106030408,-0.253512955252974,0.0598003896962771,1.60993030088062,0.464719964676006,-0.142706456088884
25.625,-0.00300251937954613,-0.308055304106653,1.34487925799664,4.14243270703607,-2.16778066477825,-1.51625504329852,-1.12508553614106,-0.398858868096898,-0.185560911950649,2.89078100348364,-3.84014375463309,2.55291152815953,-0.713341148181421,-0.295058660720535,0.0615659771884418,-1.72167171704066,-0.36026846655513,-0.261553617526286,-1.00714957984773,-0.234576702924614,0.0497601688171175,1.59645786596531,0.464722003906984,-0.128073960373452
25.63,-0.0720208622666648,-0.251530016263192,1.36141469068747,4.16969953212575,-2.19432199883413,-1.5073102204331,-1.13456266098038,-0.371744509429385,-0.208060492596973,2.85942462437534,-3.89041051611614,2.58412572749717,-0.715852924324475,-0.282335543571112,0.0353513003385125,-1.69262285386721,-0.315346764867937,-0.294376505071486,-1.01849059552641,-0.21858432866408,0.0504931321206628,1.5737612603882,0.424166816832961,-0.127338648892837
25.635,-0.121724035063507,-0.200095317064295,1.373036958405,4.20335613972409,-2.22324619134352,-1.47278118636973,-1.14636317801643,-0.327568246115412,-0.237133997487669,2.7845962326166,-3.95955826017447,2.6234959918351,-0.705411188956463,-0.277290978198611,0.0171714469890415,-1.64802049890972,-0.263154392440975,-0.354574188135104,-1.02373184810229,-0.204615143311957,0.0603702709644198,1.54520674783398,0.355701341189022,-0.155335572595369
25.64,-0.166579923138072,-0.173537053787817,1.3663002384349,4.19844067708249,-2.21295037514425,-1.39755068654893,-1.16712624570715,-0.300168840932834,-0.257158233829943,2.68115601103431,-3.99572183987672,2.65780677519118,-0.700393731465585,-0.274228010513264,0.0011641444906766,-1.61954272273715,-0.226357392889961,-0.437970934105342,-1.03142985199891,-0.180622080466372,0.0631887401869221,1.52185830858608,0.314542016563731,-0.180108271607994
25.645,-0.195020089007274,-0.152767504965254,1.35456071497844,4.18192801975033,-2.18987635320203,-1.28885076235227,-1.19044219000831,-0.289978883157371,-0.278336150131492,2.54743585120374,-4.04346151445403,2.6798574606992,-0.701531572923703,-0.260209800558957,-0.0175550067426308,-1.59504311191063,-0.199071890314914,-0.506595285781818,-1.04187771520295,-0.153933816277874,0.0738382780995704,1.49496830819477,0.275106893548637,-0.183401722522675
25.65,-0.183636849269139,-0.175676994893885,1.32628468582567,4.12754917563637,-2.13688496480336,-1.15471164714276,-1.2191665780081,-0.298403145250859,-0.286775128024661,2.37683976641039,-4.07214341983426,2.67077458125364,-0.691244455432853,-0.245021707746702,-0.0348418523101767,-1.58866149272238,-0.181789991194825,-0.543940865467708,-1.05109546704036,-0.132193242228396,0.0878379984141904,1.46281638747423,0.26466185964695,-0.175708240916828
25.655,-0.168839889017843,-0.184454133083015,1.29914687515223,4.05155674658208,-2.05333910555239,-1.01030218987642,-1.26705271891261,-0.322391766951958,-0.286291413264632,2.16345503585668,-4.08329903568919,2.62015234621092,-0.682094607203573,-0.23063244949429,-0.0426408290408884,-1.57327237739728,-0.160510425364263,-0.562323660406206,-1.05936058479808,-0.113571018043362,0.0978971691406015,1.42667027426726,0.281795692583654,-0.161858946145973
25.66,-0.118618509950794,-0.170909483580856,1.29190351178807,3.9080093638646,-1.90921234689684,-0.763937336635919,-1.28495422565957,-0.352142599820254,-0.29096417850496,1.90555669278836,-4.07270872732592,2.53007161252481,-0.678448784028525,-0.216828063617976,-0.0226967334171435,-1.55010312710188,-0.157422609947689,-0.555593026659179,-1.06277583570009,-0.0984784212858619,0.0999888999919467,1.38502121949302,0.311942622281255,-0.143546539151888
25.665,-0.178638191696048,-0.211616252129475,1.29087682413761,3.7299107913408,-1.75675806215709,-0.503175553102956,-1.28364194154641,-0.389923800101806,-0.307571557074581,1.66257053261133,-4.04258178718832,2.43432492526037,-0.674555484464792,-0.201468554577781,0.0391941030862923,-1.49721044197895,-0.167339877246457,-0.50745981335765,-1.02054697649952,-0.0952463024794258,0.0993523479883781,1.33789528446603,0.329448437838187,-0.133620771319514
25.67,-0.238881338400941,-0.323440367369557,1.29812586890142,3.43063212079101,-1.56166778145308,-0.265510043449876,-1.27458843858487,-0.423309366438306,-0.316486286922285,1.32631542491515,-3.99751685022617,2.29733099015568,-0.684448489988935,-0.176310238851814,0.114384415556544,-1.45307494876946,-0.209796139808636,-0.435314573394423,-1.06656606210594,-0.104302397019928,0.107386895483254,1.30214024122647,0.328102657508498,-0.131023156019809
25.675,-0.254973102682119,-0.462083784424493,1.33651235265733,3.19132904521175,-1.41685173430631,-0.0547426144859529,-1.27260153932638,-0.406917660850284,-0.34638825084803,1.03203158905071,-3.97105560555796,2.15686157104087,-0.729667543775973,-0.145756211460611,0.210368678102987,-1.37847884001395,-0.270302678404548,-0.379736519756655,-1.06963564136581,-0.05049536973449,0.113074744879752,1.26350840422291,0.316315878667119,-0.133599353280338
25.68,-0.289484139334592,-0.642022714342356,1.40108772050885,2.89265333823566,-1.24815430398674,0.112854730520567,-1.27440303130704,-0.417995407552357,-0.385449046461658,0.80515731807223,-3.94992160543161,2.02404226188665,-0.779332051389144,-0.0949498095088594,0.320998190717418,-1.15529100295952,-0.358166783264275,-0.297220918200434,-1.07091655779455,-0.121811399593562,0.12726754692245,1.23138916550388,0.300392280683169,-0.105757825260189
25.685,-0.255806316726444,-0.714562080762665,1.45238649931352,2.68676231315816,-1.19057889924202,0.259291368679221,-1.28964812263271,-0.432352417894686,-0.432355510720731,0.531752514228189,-3.92065868858352,1.84218152791453,-0.81705258353069,-0.0516752381189754,0.41726661471414,-0.899402909235849,-0.458871777839668,-0.237184334420116,-1.0667800498932,-0.126939981835359,0.133463326424756,1.21945458087987,0.277798023086934,-0.0807377254553154
25.69,-0.391246161568458,-0.85433613438949,1.51923318497056,2.45129683718373,-1.13789022834765,0.409245958673614,-1.31014927050663,-0.453982008183765,-0.475748575229766,0.313720687706287,-3.87870433892391,1.66176849829499,-0.833663703941894,-0.0350047030005022,0.476768824273542,-0.700164506276167,-0.541540392730467,-0.238941768455295,-1.05888952802315,-0.14548653051512,0.141732915091392,1.20635645744842,0.252593208484378,-0.0473922530250886
25.695,-0.788297917931322,-1.02202117640882,1.55853674610162,2.27502788527778,-1.06299403533057,0.288743491687175,-1.33621212990692,-0.522821806588426,-0.531008429069766,0.163920556211212,-3.83957634954849,1.45942431585895,-0.834451679339938,-0.0186535451473144,0.552933871569532,-0.484692040885228,-0.663539513635624,-0.3042943709591,-1.04151763078283,-0.166810351960662,0.14038835480898,1.19520548308305,0.224716466353404,-0.0130591734063495
25.7,-0.639946362417669,-0.993434293215791,1.55005154097352,2.10643073525116,-1.14291350332351,0.205166336812482,-1.38748848199239,-0.573958863959741,-0.608175895507417,0.104432999062698,-3.77992667887725,1.22034025378774,-0.901546399566973,0.0277342173153067,0.627469882909247,-0.355261857618574,-0.759701765946506,-0.442357495540989,-1.01791310214158,-0.19248714662984,0.137671602027229,1.18815548879645,0.17567049182941,0.0240452449431233
25.705,-0.737239393943911,-1.15994936927636,1.52789726602508,1.93713924280281,-1.19279602577996,0.296784032132722,-1.43318394816785,-0.570488396782871,-0.664370152259731,0.104039211375141,-3.6825818816594,0.987182404321217,-0.93531131129759,0.0669730327913593,0.662899493673832,-0.254066418685018,-0.782546140114661,-0.67465145431791,-0.995655661719957,-0.215989705457513,0.137792580355357,1.18700585098031,0.118022006446646,0.0665608797443442
25.71,-0.932238824720913,-1.24411591474862,1.47508476948997,1.82031255941851,-1.21772833587412,0.296865331229461,-1.40675608268835,-0.637991693335939,-0.71813450492102,0.230590746283293,-3.58490259522003,0.803340525443715,-0.919245641557842,0.0995222612747638,0.676273258047634,-0.317295101413664,-0.80169158050862,-0.902104014345844,-0.976069301880261,-0.238618786657238,0.132581014342179,1.1835530757519,0.073232748946809,0.101315485578607
25.715,-0.987418453405312,-1.25093961546784,1.40432631029494,1.6827430059265,-1.23599666143509,0.231348427121014,-1.37519767811392,-0.699753881591682,-0.761893286851958,0.422111654622407,-3.48252580848035,0.640916506629569,-0.937731051328128,0.157630298451078,0.688868561233485,-0.521669394264486,-0.842215115897049,-1.13073150864139,-0.959851105839392,-0.254073832095534,0.126535178630024,1.18171833217175,0.0295656140206908,0.134634800007955
25.72,-1.02595239532202,-1.27607899537961,1.25960937714784,1.506208382741,-1.24751873619574,0.148743100505599,-1.34081424617871,-0.731362308953797,-0.796322418137726,0.732805439066333,-3.34205092703309,0.439239777655797,-0.989510765298163,0.25480491235732,0.692658108064888,-0.719830748844878,-0.857108587233989,-1.37444666964057,-0.94416751972439,-0.27010689802541,0.117324882326296,1.17541802443257,-0.0105759963191908,0.165723501379839
25.725,-1.08571356241759,-1.25919557948713,1.12089169388061,1.34443482127971,-1.22287185233081,0.0879020319223547,-1.28219756747362,-0.73376923495193,-0.841259058519843,1.06015366194948,-3.19674965216381,0.214786694732065,-0.976538802170314,0.369089636265816,0.625771454200986,-0.930796900105237,-0.807039882863678,-1.5707771595564,-0.933346506781247,-0.272740774846778,0.105221443720632,1.15854735612433,-0.0315228385881449,0.182803714643585
25.73,-1.18449577079592,-1.25067142647399,0.951618606375013,1.21683663415166,-1.18583483583463,0.0343717613699676,-1.20390751638487,-0.652283471829572,-0.880966035091739,1.44753589426754,-2.99281513939569,0.0696526008880926,-0.995344531961133,0.474982888461953,0.524027641890467,-1.11907123106968,-0.765081512260549,-1.67707007776507,-0.93495605354234,-0.27380900261909,0.0965228077651941,1.14624823781015,-0.0520991503362115,0.186705797698022
25.735,-1.31593796764294,-1.17320003072633,0.76331914157227,1.13572463560709,-1.07618932121122,-0.0743795503206117,-1.11779925107984,-0.55724615705788,-0.913413121552733,1.76110745128478,-2.78155944424303,-0.0366391483495916,-1.01948186507375,0.565931911684389,0.409233542098788,-1.32363822195734,-0.660147475053971,-1.77407205150548,-0.945546500757823,-0.257281113501964,0.0828296085852531,1.1204992231908,-0.0433074132871205,0.179250061242349
25.74,-1.36515110104106,-1.09112418007203,0.56943574450469,1.12769607945269,-0.94392859543606,-0.139599542593826,-1.04043865849405,-0.496983596629278,-0.952910755130004,1.91711284823328,-2.61187047898893,-0.0672304711818739,-1.03768867991884,0.621758862068742,0.280775896439029,-1.31039554983757,-0.555724302526134,-1.84377204998978,-0.951007000715138,-0.237620947530296,0.0700606721613379,1.08273921488531,-0.0404423058035471,0.173094359964891
25.745,-1.35884245128398,-0.983946496805851,0.324766172599285,1.16888830181467,-0.733519121204675,-0.180271590895224,-0.951835639294353,-0.437275628421171,-0.946808166085684,2.02145531217236,-2.43436214478123,-0.0592643318655456,-1.02684449433521,0.642482076599032,0.164623489422746,-1.13810362753384,-0.407516912717668,-1.89532785314218,-0.96030298588683,-0.216180560946599,0.0629921882770728,1.01801950157202,-0.0345872284018004,0.154380894267817
25.75,-1.34037302154398,-0.972700358431931,0.105028065729371,1.2666529752664,-0.439318549256838,-0.125894588997051,-0.890210104164116,-0.327570937478704,-0.914153904399249,2.01320815493863,-2.23693341355816,-0.0128169271092891,-1.00769840655133,0.62985062155386,0.103905389150346,-0.780429629675927,-0.251103527175372,-1.86924318269886,-0.973934167920411,-0.18568183164632,0.0591842132451051,0.950275091137385,-0.0246998262796201,0.135637674995891
25.755,-1.38914725135823,-0.91941214001959,-0.0374703633020435,1.33266615290312,-0.0581138008912912,-0.141780672612835,-0.822353508201685,-0.282847598721691,-0.882588754511046,1.90940680376069,-2.03818270219494,0.0572236287970517,-1.00452681814783,0.611868789090729,0.0946709345977388,-0.440468561894073,-0.106790369899877,-1.76607964318526,-0.998609444948286,-0.149441573202365,0.0632013345469856,0.863000490447634,-0.0065100267804723,0.113574091071871
25.76,-1.34509483930797,-0.869527561020675,-0.17433510433269,1.4351358893473,0.428259811683261,-0.227473992551807,-0.823372480804713,-0.2266073561412,-0.865752884571199,1.72684456123584,-1.82410870510847,0.0793159992014009,-0.994157285421967,0.596168414686515,0.122746099594243,-0.120461862321,0.0308991613984071,-1.61143800916513,-1.01389190649076,-0.120537928463069,0.0654435059846659,0.771567114384956,0.0101835989189213,0.0987552617840513
25.765,-1.20319498365339,-0.881533993971269,-0.242485049849435,1.45291063716562,0.909704230961965,-0.202665245364698,-0.858333781264482,-0.180035156451916,-0.838600205239652,1.43045932739248,-1.533903647583,0.0405604216799226,-1.00181390727448,0.574992955137378,0.153328182971072,0.0630439936911603,0.129811885482872,-1.51059554940523,-1.0384725098403,-0.0929533195979448,0.0682180403331539,0.680803515689396,0.0313177851869069,0.0874059839560763
25.77,-1.19106449976496,-0.885694913842233,-0.274186169695387,1.41092064287248,1.36476695423586,-0.172680332433931,-0.86304695257234,-0.202439730074876,-0.805930408523991,1.11435366293183,-1.28637799247105,-0.0168503333229788,-1.00703916638233,0.552648079696755,0.175099210277121,0.0689693982650512,0.21211195033031,-1.45293265415655,-1.05850429287857,-0.0617572129993639,0.0718707423227328,0.576284867836531,0.0548623512842634,0.0788520133143309
25.775,-1.16491840360125,-0.805620523258379,-0.25472518824998,1.29633481742657,1.87024883607501,-0.141495796446812,-0.845431240252378,-0.239216113282154,-0.797147017004554,0.802846745339342,-1.07739021734693,-0.0587336980655856,-1.01326143914817,0.519173452006641,0.176364767682033,-0.0578138297335948,0.294017496729781,-1.4104462647981,-1.06628614111514,-0.0434305405941334,0.0774072044174523,0.493463907592689,0.0683341314852487,0.0835830723813371
25.78,-1.08208190548613,-0.598054796936033,-0.136503846988542,0.964981026738739,2.27821538435733,0.00168637381466192,-0.800275621815964,-0.249322760095863,-0.821843344642588,0.461339826161389,-0.833984426571984,-0.100178783583,-1.00858266617557,0.484007279689157,0.129600800021656,-0.209269397595232,0.385838664591071,-1.38041275111792,-1.07792180586445,-0.0283132951258439,0.0839626836665336,0.410325198827831,0.0615610400326306,0.0991122842858672
25.785,-1.57789364243249,-0.179507626205812,0.311572303023976,0.142506239606696,2.48043642264433,-0.165735008290422,-0.725722174263011,-0.192711616508041,-0.949743456704452,0.186372633505337,-0.549238449238453,-0.135436778103943,-0.949628997105479,0.456520851234958,0.0376254976744089,-0.376427038889099,0.480799268570139,-1.32321821529532,-1.09170125625537,-0.0282443606680692,0.0929622437375682,0.331345841558759,0.0362694041625918,0.128804444606929
25.79,-2.46195073872051,-0.208225391857501,1.45502848801885,-2.97515793050849,1.83629564213916,-1.4234080163396,-0.616943186475013,0.0306569870925834,-1.04085755930223,0.118595272854456,-0.299388958252084,-0.141255474188028,-0.983463100909886,0.422492645422203,-0.040700105806487,-0.434815374516622,0.540631006679197,-1.26342739980787,-1.09441616453351,-0.0406223773630312,0.0990640205452155,0.276130465041865,-0.0109669693224519,0.167700778332082
25.795,-3.01899032485919,-0.74917804656532,2.40612006065293,-3.48924671548477,0.263122870245823,-1.64104347947646,-0.493813509693713,-0.0903187455956493,-1.21317395775953,0.0752235491295059,-0.026143214531377,-0.156788535030028,-0.965796841863321,0.399442017757148,-0.184573852288556,-0.44804810486464,0.605668289347256,-1.20166514837527,-1.09973277969098,-0.0590928917059127,0.120351836603855,0.233094427613708,-0.0574679104936178,0.209557502713906
25.8,-3.2353466146624,-1.13618056465848,1.88818629979884,-1.47803619861144,-1.21974031623327,-0.300784763334246,-0.456002946472728,-0.137765461704109,-1.09206037154642,0.215777153728641,0.361687522314229,-0.287908633632419,-0.972313443628694,0.349518793666679,-0.300861162104275,-0.431912420141198,0.638768731107863,-1.12303892353773,-1.10233273902019,-0.0911763022128003,0.1326179383752,0.197085449358879,-0.159198010985321,0.269980245818711
25.805,-2.18348624597167,-1.43885094825305,0.678638429473048,1.06603633662397,-2.54947724596166,1.21946761562573,-0.646357462919074,-0.0967533157555496,-0.67833383187505,0.636470876297387,0.694314010893114,-0.440816848450814,-0.982499497713055,0.288609086447676,-0.344575435128664,-0.326549487175059,0.639658812893748,-1.09868431533557,-1.10327037493223,-0.11677341111314,0.146269571456896,0.189113014435652,-0.2395527282402,0.329895264072236
25.81,-0.361329583673056,-0.254315673286109,0.383453855619427,1.50847243862011,-2.4092395312642,1.4069862903665,-0.995696896861953,0.151379447372948,-0.164438908540165,1.11533259149468,0.869492662140599,-0.537793348807377,-1.00003527192659,0.213442560334399,-0.37120468776734,-0.133784640965456,0.620637019698474,-1.12470320165444,-1.10869107879875,-0.143836108070117,0.151349611562817,0.188320132504979,-0.297116890563491,0.384291271559162
25.815,0.446293655439118,1.44065023938225,0.643155655821675,0.897527888970145,-1.94021452073563,1.17484655412491,-1.23852576200319,0.586800170018181,0.363886495789959,1.60300828567933,0.794190958992222,-0.46279601982083,-1.01878760362483,0.122689942479143,-0.367413956756099,0.0680261784426717,0.572203112255275,-1.19742716970618,-1.11287190402315,-0.174884979033729,0.156696682225427,0.193111891807758,-0.366658961067461,0.446932257100818
25.82,0.598255628528205,2.78390144353054,0.978389591533318,-0.0252030128179066,-1.47380466551894,0.60995883931396,-1.45924739128346,1.07300903357239,0.910348274005687,2.00453275980299,0.523610692305621,-0.229364333053479,-1.05447572312114,0.0184889232272697,-0.368202144266963,0.21056134114131,0.514475363233744,-1.29352127294184,-1.11137129921749,-0.196692380547688,0.161194025019479,0.198681086820339,-0.421304657129513,0.492825850568301
25.825,0.724191062616813,3.30398808411068,1.14358515500403,-0.744294094916789,-1.03000646468107,-0.100856477459587,-1.67020295632706,1.38119388095694,1.1756155577605,1.70039779816133,0.0919376475640851,0.059813619493929,-1.15615334219931,-0.106542069696273,-0.380373429452726,0.207394537869158,0.447201413982255,-1.44364419541068,-1.11748586359843,-0.219275739707525,0.164233316825648,0.199219601753189,-0.475746967296397,0.517817040989948
25.83,0.791075608917013,2.1636372415751,1.03966542249003,-1.42528638630175,-0.659443650050622,-0.64534364391222,-1.83520059994806,1.3586348240166,0.907930010256476,0.671386815874053,-0.279084692061579,0.292548092402453,-1.33867371482369,-0.197566262358869,-0.380118788058879,0.0357509533140568,0.384462231350757,-1.67671802053063,-1.13317812046211,-0.230480002660384,0.171641749151351,0.184946665430702,-0.531622858980237,0.52919845048156
25.835,0.337495644207352,0.388656352267761,0.998080821401109,-2.0805927087463,-0.345128472832198,-0.954650813093296,-1.7030257485526,0.941782917336642,0.390742218297765,-0.521095894881745,-0.50688139694901,0.456269539362021,-1.46668387376952,-0.204963133521866,-0.376058740356133,-0.185428323552251,0.359374093030545,-1.90497183857672,-1.16389927413112,-0.239856279153154,0.174081411981572,0.162957536192179,-0.586266781314214,0.53620217071388
25.84,-0.402147780432906,-0.732065192237036,0.866969216751436,-2.23900809008086,-0.175898453510364,-1.01227522230365,-1.42638599846641,0.455056369369969,-0.00509001251501271,-0.955759697014875,-0.549696116222382,0.467450652033521,-1.51244560156453,-0.163820248179491,-0.3150231331203,-0.486217631940355,0.342566279249366,-2.15104032078187,-1.1970048541641,-0.246213413643431,0.163076554808203,0.139419979095183,-0.606706623998933,0.543897247664724
25.845,-1.39760067550623,-1.40024445510152,0.781644420197713,-1.7885387598168,-0.165473620965671,-0.861896529243144,-1.03498436296203,-0.144244629679348,-0.389997228625076,-0.983928282609168,-0.409337205463635,0.250715257950987,-1.48617791322665,-0.113972144654814,-0.142592682207004,-0.797133121671661,0.285776680365676,-2.20106251240117,-1.23761857362881,-0.257080504400852,0.141891628233078,0.106865638901451,-0.632188383984087,0.545873466707867
25.85,-1.67977680198562,-1.05069083316259,0.742806016520559,-1.08741135972367,-0.364227216116026,-0.691838142396651,-0.749607944857947,-0.503315897682545,-0.560900167112949,-0.713225103019099,-0.0800337146302859,-0.00205270465466028,-1.47198672350841,-0.0998968260365543,0.0604962782450245,-0.848935189891542,0.197667664092775,-1.96237706689522,-1.25634099667852,-0.270078922289227,0.0908933413388551,0.0819104302067973,-0.677751649764459,0.50536387085702
25.855,-1.29032309517163,-0.317344065664036,0.821666877042505,-0.747733055670194,-0.525144529821267,-0.489181473126973,-0.722449298841135,-0.61014830445959,-0.427716691740094,-0.0884818298260618,0.292760992054197,-0.175191275806845,-1.51277253133706,-0.135495940001612,0.22435833150617,-0.489556325463739,0.118316915815058,-1.58689163339478,-1.2506298969238,-0.273285608247175,0.0369044671150524,0.0770429087825619,-0.729647877392093,0.439599835405314
25.86,-0.68708784266116,0.139596762985136,0.932146108528702,-0.712107890815259,-0.551737052625812,-0.270445124114434,-1.01774911683718,-0.485569168383313,-0.0812546181373179,0.662335218270764,0.609415998992671,-0.300468728232228,-1.5537520304954,-0.1936002415246,0.316682369871634,0.169629680398818,0.0398207484934303,-1.19730715453737,-1.24582185530998,-0.261749613633937,-0.0234714424791584,0.103967139653385,-0.79014410351565,0.342598110218079
25.865,-0.181514952124925,0.286020136926332,1.04535653545874,-0.733934892017792,-0.505323234516181,-0.0527493620578309,-1.42692569523173,-0.242190444177715,0.189791414880051,0.861744149312774,0.701690158124024,-0.255838676861811,-1.55177768824708,-0.241661417863037,0.287800031964931,1.0814130303765,-0.0670819746797226,-0.78463529657564,-1.25100283732831,-0.234866642231528,-0.0641289792699989,0.161379170549443,-0.815069039029068,0.243632647770009
25.87,-0.00114219751918949,0.130612632548532,1.03025699695685,-0.646149485218496,-0.374211647840827,0.0345540767467197,-1.54596509807456,-0.113099713740192,0.24221602601103,0.56145571681073,0.655596307764017,-0.0809527210742847,-1.53941117026702,-0.221308880609556,0.137680160186484,1.76556779249271,-0.154210044895797,-0.440112315380737,-1.2653282148147,-0.195835633991318,-0.0943792075241371,0.256045811223962,-0.783302858244778,0.155012864487916
25.875,-0.112868374295927,-0.152126541950195,1.0503990542008,-0.487319969670907,-0.237566939170463,-0.039353214105737,-1.36795048728775,-0.0259869939834571,0.142836888252294,0.142124379057168,0.595710962955496,0.104543924746354,-1.45637209815655,-0.0763357814025047,-0.0830168296876405,1.77114705249891,-0.170941410226524,-0.204334623840752,-1.28201710815658,-0.165227871016784,-0.118235983869486,0.350527010292601,-0.707054359033515,0.0925822902339126
25.88,-0.339059085352618,-0.310401735161146,1.0300752886286,-0.259950469316575,-0.208451184660153,-0.0721347119592947,-1.16455317522815,-0.00745869006256217,0.058554902340303,0.0419522833263469,0.562723007333616,0.138646492840758,-1.31263790395413,0.0605883252854788,-0.220097789322518,1.2073377318817,-0.151032258958964,-0.120311629818743,-1.28764284993901,-0.131611534272974,-0.145376183204389,0.451622149143874,-0.575012865490919,0.0415663786033471
25.885,-0.432385814219664,-0.0650272110643466,0.849009249437605,0.0966394483030875,-0.0849668774841729,-0.0282458546403245,-0.925013098106584,0.0172687402500149,-0.0160995417494868,0.271675656809358,0.548380660962183,0.0607618465086567,-1.06572508235922,0.241152105654875,-0.26327883049163,-0.726231663918441,-0.180882223722581,-0.219743694949984,-1.26697724927548,-0.108998223949922,-0.179763849909523,0.48872990541449,-0.501223478938927,0.0145388273186667
25.89,-0.485420136881961,0.366205486070603,0.784097920794937,0.169803858123292,0.00272996965409126,0.107393367936883,-0.82409473723248,0.18319503722373,-0.06398322981478,0.641361462520348,0.55656793565846,-0.0914316273267305,-0.95981790043685,0.319546701921677,-0.242417662389676,-2.37039846422994,-0.219894556818727,-0.3839279342173,-1.22173118792475,-0.0903989909820706,-0.209769987262621,0.49141338467598,-0.470924307366044,0.00497200002852584
25.895,-0.506789375415483,0.463802506890253,0.732435701114728,0.128629053071095,-0.0376869425953448,0.138582114985973,-0.814301158277024,0.422820019709603,-0.0552782605332296,0.832958569820755,0.58786218889037,-0.192685019301028,-0.855982140711315,0.362466620962362,-0.201146706104283,-3.97282730707007,-0.237226629524421,-0.616943082995877,-1.16365584459267,-0.090778049600226,-0.23409324587109,0.472833508560788,-0.513376299121098,-0.0150196725211723
25.9,-0.497618554421812,0.385507606427289,0.759171726296096,0.0358378828088282,-0.109768809188345,0.118457215130484,-0.844887224042772,0.631500611295894,-0.0450355592557705,0.565065152814809,0.611026315321349,-0.221801523980213,-0.802792260212253,0.322752545718592,-0.146984622011628,-4.33141690584347,-0.202124112717115,-0.796389350779018,-1.08785496154781,-0.10258080221926,-0.244531623011707,0.439165640048635,-0.609864525207813,-0.0364357122196376
25.905,-0.448883212371854,0.305150289644907,0.777901564507959,-0.00690280824987134,-0.146996942441138,0.109159379522123,-0.912032120397603,0.720536574158564,-0.0345494529970448,0.0508678776160734,0.606100189128925,-0.186344319832692,-0.767492304147117,0.23885689632625,-0.10409845283057,-3.62241190908653,-0.181144410252546,-0.837467177566413,-1.0478058826195,-0.099882784144684,-0.250610069781047,0.426982798290335,-0.679960865841286,-0.0603238698380514
25.91,-0.397273286879999,0.335559196679957,0.787656967376709,-0.0257538178430917,-0.153536438941956,0.0990690057318874,-0.947843600906451,0.64428200743468,-0.0457009481577869,-0.424108712958122,0.576131341954018,-0.124931281351164,-0.775825848975916,0.110033887229518,-0.100611575138459,-2.40251204800637,-0.192360617348986,-0.801563882088088,-0.993845617342873,-0.0952949114123041,-0.244859923857463,0.428636795679159,-0.736689003319122,-0.0995243359526997
25.915,-0.377950983540393,0.41042244781904,0.765928021665949,-0.078399249473981,-0.156924489857708,0.0484142246495364,-0.945626070700356,0.475292565940195,-0.0708031571879463,-0.698538119373039,0.539108841682762,-0.0685407432985737,-0.775487147306461,-0.0862221496435315,-0.0587439728573924,-1.08162143643266,-0.204946530938367,-0.788513654534749,-0.951095354529576,-0.0984359506674586,-0.226350200895065,0.469158225569909,-0.739945807821733,-0.139456460914932
25.92,-0.407172481551946,0.459239658471867,0.744060802082679,-0.159781766862706,-0.158889979119962,-0.0477337194750146,-0.915760971599658,0.273623966936124,-0.102886711916001,-0.640374178557404,0.507224505817897,-0.0251844865771842,-0.746377173093622,-0.306051904587977,0.0166086149115772,-0.172193407856683,-0.208978777614944,-0.852277115898652,-0.910048551687615,-0.0965577460773061,-0.200488560250496,0.528873108362426,-0.697579778695832,-0.175319295394058
25.925,-0.446594356558631,0.455745297260209,0.732595343891311,-0.295088736633292,-0.169650568132599,-0.151387853334322,-0.88127186719966,0.130729121643365,-0.119436266991066,-0.293374924797767,0.489456099296786,0.00187181409959854,-0.730505351966222,-0.524114382512862,0.127030650031707,0.266654412538814,-0.23194213270173,-0.97872509094556,-0.867581031020044,-0.0885479316854029,-0.173783435554901,0.595576695514893,-0.59604603321093,-0.199237907812716
25.93,-0.44487031453166,0.421939007565689,0.748101482888367,-0.397652565251221,-0.198001061825607,-0.206158102939851,-0.878202291100276,0.13549207177895,-0.107154304767094,0.192341584474529,0.482172125952036,-0.00122772631257489,-0.73914944997756,-0.675353711075827,0.2372059256807,0.270418408490338,-0.289952283904675,-1.10828032511584,-0.822582579997909,-0.0833867506632968,-0.147897535249408,0.659296101271,-0.448071348138773,-0.198510779125092
25.935,-0.443625047861116,0.311879378472761,0.778320651700437,-0.4712889694691,-0.225840051587267,-0.219013201165825,-0.922470441107899,0.213839469668239,-0.0864934708740884,0.441221455397994,0.478688474766108,-0.0064605637555582,-0.769957814925879,-0.780481199199902,0.372601862639584,-0.124047857014863,-0.414890370093371,-1.23317009368425,-0.7860849841862,-0.0720439462136352,-0.122251261071566,0.684459606135963,-0.303843557222478,-0.177927380045385
25.94,-0.403639335830774,0.209159296083247,0.812810258825359,-0.458180784987555,-0.269480878231727,-0.243671590962773,-0.966812295702093,0.265595117208754,-0.0766544118817797,0.539060173423533,0.475829609291292,-0.00907706118935713,-0.791173988172968,-0.813998164430119,0.461711070382428,-0.43662925086337,-0.481280040325676,-1.26715620783225,-0.754989327535944,-0.0569048250709616,-0.102947190228793,0.674098678799966,-0.221857656314927,-0.164603270298175
25.945,-0.395302762899911,0.160163291832712,0.837016773325723,-0.408716127912063,-0.262989259316774,-0.182856724006583,-0.997908726388358,0.275804490686241,-0.0709988803847361,0.483990299640438,0.461572985225896,-0.0149400520709925,-0.820947972918742,-0.82251166230165,0.521442812576322,-0.583549497266233,-0.473011714864898,-1.23557587888987,-0.718419162790095,-0.0390620398616567,-0.0722492883499483,0.624981669941358,-0.169442680476776,-0.153493726795561
25.95,-0.411847184948711,0.199953341307827,0.838819972227748,-0.337857820300312,-0.222818110249918,-0.160345795713935,-0.99263490316551,0.256015506421093,-0.088067899131722,0.422781913051049,0.441087590256516,-0.0418572393221598,-0.856915738948689,-0.799721171785261,0.518203418383502,-0.425478438537747,-0.369372116688566,-1.10029700826541,-0.699589357464773,-0.0254356028999777,-0.034241126276519,0.544158066293238,-0.164588654799843,-0.144654093339451
25.955,-0.388693543371506,0.221724616376971,0.83300033028606,-0.271429974830023,-0.17906497631255,-0.109658078421072,-0.983386781777162,0.237156679876175,-0.0950000590632947,0.427312507085557,0.419314861507409,-0.0749212449386924,-0.910149194376736,-0.719734143761551,0.494275245793155,-0.153468361388066,-0.197128862301418,-0.844555641152386,-0.689351871695483,-0.00624980129355163,-0.00861062482249017,0.456688212252251,-0.195939333538082,-0.130870769202463
25.96,-0.385856744828072,0.231156859963834,0.842141998985237,-0.216036948647149,-0.113458190987517,-0.075617095961032,-0.979023116242176,0.21064854595868,-0.11293461460907,0.3990829668191,0.390276323995273,-0.126321101682585,-0.964747033204757,-0.592902666803367,0.47365660827511,-0.0575988323258229,-0.06828268406649,-0.581824130560726,-0.696258493065704,0.0171600691332907,0.0199891029703925,0.347512580257053,-0.220752257133874,-0.0998900646432983
25.965,-0.407276914180999,0.201427968494469,0.839038210680414,-0.173078577134596,-0.0794213851154061,-0.05427104122206,-1.00342474474818,0.226051071605627,-0.142887305506509,0.349660407104653,0.359014199657892,-0.153881563537533,-1.00259000308404,-0.451290666516859,0.46639268216043,-0.147025608264327,0.0397353806118482,-0.371800738375856,-0.720983885194066,0.0403468518033848,0.0351987114214687,0.259202564245133,-0.221234906857155,-0.0715161351695946
25.97,-0.420995483909343,0.189699087099359,0.836557288811748,-0.140545325480122,-0.0633431882086906,-0.0273464390190105,-1.02606637510261,0.241751882740257,-0.161071223581786,0.293381353893476,0.341174097219758,-0.154310294474786,-1.03220834102808,-0.309086669639109,0.45455545223781,-0.329141027251124,0.158008817841683,-0.20740814399767,-0.755636251188081,0.0667931977794781,0.0431889660710663,0.162679971763759,-0.204312103896838,-0.0351757096553494
25.975,-0.413605002369984,0.221180919914304,0.83758164152467,-0.107634218106808,-0.0556207664373029,0.0187441756011246,-1.04649225185869,0.263757678284098,-0.176144290216751,0.188401562806043,0.319386241453631,-0.142431871755484,-1.02699866652195,-0.206127230747009,0.435761363728324,-0.567544782281291,0.276277344362926,-0.121811307410232,-0.795177878425859,0.08086373879263,0.040280386272958,0.0816894189114761,-0.169228037876178,-0.000549290262101334
25.98,-0.406616528268716,0.255195229443412,0.82571990565123,-0.0977392271161079,-0.0562000191129883,0.0374925807118416,-1.05057362356514,0.275687373918507,-0.187946218006136,0.0568220368066468,0.292663133969751,-0.116970613273137,-0.997338099284958,-0.168817839642102,0.419302406324794,-0.71676195305597,0.362319284345664,-0.109626438708159,-0.835733880628174,0.0858628337846222,0.0341530302378082,0.0172209248232466,-0.122053901340066,0.0346424341267862
25.985,-0.408330578129214,0.262155438420741,0.825995506190016,-0.111241242205559,-0.061523248880943,0.0338920448185282,-1.02480943972586,0.274013698589248,-0.205584551980776,-0.0385038013189048,0.253465765107017,-0.0881124118417809,-0.951386966224403,-0.184829906680759,0.382303940713451,-0.762598273873345,0.403547472292628,-0.174466666529629,-0.886714099744051,0.0737556170324326,0.0310171380961576,-0.0324855071630746,-0.0669362791530924,0.0643837888094306
25.99,-0.407946850172511,0.254507308797882,0.824015006577729,-0.125620469736104,-0.0478417337542051,0.0335613863588087,-1.01240178590008,0.273724741362987,-0.211059215587991,-0.0896662762879115,0.216980302356849,-0.0737929141765705,-0.896958023103232,-0.214887552089405,0.360320520917116,-0.89724253175365,0.345382503663054,-0.333971990280346,-0.940296866575259,0.052167802756627,0.0390123977339915,-0.0521311035201441,-0.0261655696915265,0.0855792384703577
25.995,-0.403262706433875,0.244642949556729,0.814147903763898,-0.139033857755849,-0.0474938491609006,0.0162328855863457,-0.996218856293064,0.270159381058145,-0.209507866176214,-0.060702909274264,0.171283288807646,-0.0565330281266424,-0.916378032119069,-0.292585058582898,0.298216142734756,-0.470261518185246,0.395482467235917,-0.554166369254676,-0.99764046785758,0.0258111281955771,0.0469811347657277,-0.0337592102506676,-0.0184268907523392,0.10100512931878
26,-0.407461847513835,0.266500966817532,0.812987027014187,-0.137734533226898,-0.0424921600169108,-0.0090879491193267,-0.983470804884175,0.265461463824598,-0.209191977603519,0.0107728530765508,0.137973982109353,-0.0453468231513486,-0.889475078457684,-0.364983553554899,0.237749098237627,-0.270711389272689,0.401296648462832,-0.648922985127047,-1.03840479574913,-0.00617204509116505,0.0553421227362133,0.0237720103002065,-0.0400545869393913,0.112132528982444
26.005,-0.407853133666994,0.279531132399062,0.821624657659502,-0.132725523059096,-0.0370326096735299,-0.0292233580985342,-0.981735827019234,0.246161733557972,-0.202428458596525,0.157304252398764,0.0849343887630823,-0.0534477023111916,-0.832471997176399,-0.447933480889633,0.166742442515116,-0.213641431910274,0.335290223499713,-0.794648265153643,-1.10478458229496,-0.0230040851537907,0.039300839166633,0.0898058150950774,-0.042670173358611,0.136492413643304
26.01,-0.407692872267483,0.267440039099112,0.820565994442263,-0.127930204475559,-0.0432826093078034,-0.0462016846575026,-0.977346782824327,0.227330674802859,-0.192038516751911,0.342428571949126,0.0414859799870145,-0.0674838250857738,-0.821617815914383,-0.523192145740977,0.0977361522234867,-0.117140246764592,0.262004242847059,-0.959610380993584,-1.14887919112667,-0.0411888593813798,0.0283638807335804,0.166644702761564,-0.0420271190287683,0.171249750276399
26.015,-0.403194816493188,0.21314824733273,0.836227066452103,-0.101263767190393,-0.0459272014333012,-0.0481261564062831,-0.980963509638408,0.217634614190025,-0.180785278653666,0.56104108014459,0.00703294760278913,-0.0934260909567412,-0.840767792273537,-0.586364388235492,0.0303095569981087,-0.164925733700862,0.181713126564808,-1.05105065992918,-1.17007415523599,-0.0593670594775338,0.0292519305707611,0.241045349472748,-0.122581709831294,0.190755609151547
26.02,-0.415782785364014,0.217950247507027,0.821902439647813,-0.0521859371771139,-0.0360501976101196,-0.0466573149802135,-0.975882758538593,0.221010463409056,-0.172389058864985,0.748633999850884,-0.00932661256593645,-0.117844369303937,-0.864256240427106,-0.625239859048789,-0.0247982564527865,-0.298991160634923,0.151631284919771,-0.998066259672299,-1.20551421620772,-0.0600849856621698,0.0155057271371819,0.290736844663799,-0.231229737536038,0.165444210094993
26.025,-0.414088439189511,0.244065412723076,0.820481445882366,-0.012822805311419,-0.0133026443405527,-0.0324433025303634,-0.999856357231025,0.229306079272794,-0.138499364789007,1.01311206794755,-0.0362300648219752,-0.15924003397616,-0.904989236879323,-0.631871153306603,-0.0313465822936515,-0.333724210649636,0.201631614369329,-0.884574015384695,-1.21151907763261,-0.0497898466914159,0.00396032377331531,0.334037425241783,-0.285297835738446,0.165811028881842
26.03,-0.403976776243797,0.229931813527983,0.860784335047475,0.0201117015805821,-0.00405408698995775,-0.055803692062923,-0.995025091930213,0.23015840482319,-0.112507855681693,1.14914096173226,-0.0352200712340585,-0.182973922172615,-0.939786889589592,-0.60672936283915,-0.0345252097934963,-0.392919856538699,0.25187161243015,-0.72399068256057,-1.21136971674128,-0.0390840441389149,-0.0120062010179,0.408117941190364,-0.30707180719486,0.181534874019473
26.035,-0.386289802132766,0.22330965709464,0.839023496562231,0.0519317125507337,0.000398979216222629,-0.059469877145948,-1.00321025246624,0.245670853260923,-0.0746695872694246,1.22347299993212,-0.0506331421651908,-0.19396140091698,-0.955829575023298,-0.556300025888062,-0.0219284841357062,-0.458927971784032,0.272410812029452,-0.596436792506504,-1.19745593970841,-0.0248002627340336,-0.0138972674179944,0.469806503089738,-0.297381602206937,0.188283587660106
26.04,-0.39241468263503,0.224166901096774,0.855563007645177,0.067775263075122,0.0248030133910112,-0.0517636279901613,-0.997046815633023,0.250985925331168,-0.0582497146590973,1.16798792992032,-0.0669010438331508,-0.186770741835013,-0.977697461029212,-0.473569460764465,-0.00231716444187841,-0.530840527284603,0.256906596015833,-0.47705267797522,-1.18126341647224,-0.017766259573365,-0.0202483087821737,0.51433291346699,-0.252805387616724,0.196272709874406
26.045,-0.393143768607504,0.225726745101285,0.837431533108797,0.0901908141553361,0.0244275138203442,-0.055693127618232,-0.973190069835227,0.253154547855321,-0.0636847590891517,1.09610699720878,-0.0705794990062714,-0.18837195707727,-0.992253844285318,-0.377827709089283,0.0233569542927803,-0.544663328574279,0.221044436399704,-0.385599244887939,-1.15581287728637,-0.016567457653512,-0.0184042155871356,0.553639276503808,-0.181882066962402,0.195562698840576
26.05,-0.398016938520077,0.248513113826715,0.8480599343104,0.100275206259206,0.0236869606319108,-0.0455159685341776,-0.981018301986632,0.254994551603238,-0.067405709840687,1.00233848302765,-0.068369586826582,-0.195122480116158,-0.996058708967271,-0.295206645243767,0.0429362970455505,-0.53113198682706,0.181652848449205,-0.319636786013834,-1.12809362732043,-0.0237604614466399,-0.00514676538954285,0.580099517164118,-0.10932785387599,0.180055167676213
26.055,-0.392029180424815,0.268089108408136,0.836548830529038,0.101930026326364,0.0254467796262145,-0.0467679284921868,-0.994174475890368,0.274638220006281,-0.0667208553569529,0.879906511416035,-0.0722308610050028,-0.194656610074824,-0.994718064825149,-0.227194571188971,0.0509612982441277,-0.533165329125232,0.127947942360937,-0.287782568908395,-1.10440024491695,-0.0347181982043644,0.00560995455393615,0.589942262218176,-0.0672160413651671,0.160574530599061
26.06,-0.393318316958265,0.226130117513124,0.83029421134919,0.08214329395756,0.00679896480635028,-0.0410935645900159,-0.987113176169154,0.288995895627113,-0.0769297284153765,0.719706905120902,-0.0712214662540046,-0.174504203452998,-0.993467680227592,-0.180227347500345,0.0617431416901751,-0.570923894492894,0.0612968678514132,-0.294959337422915,-1.08004866449863,-0.0529177022355545,0.0170489451914869,0.600478322284965,-0.050869696502248,0.135343303659373
26.065,-0.400223546997965,0.231194276606028,0.843587243378799,0.100051553247742,0.0101293782566231,-0.0564816636403629,-0.974904862797861,0.302680774020339,-0.0649842468567912,0.577092923679708,-0.0622798551617547,-0.151681791552247,-0.991188991554536,-0.153397694893056,0.0592755574808036,-0.628626598394172,-0.00742634737599866,-0.328560617575132,-1.05880674466571,-0.0620976859563705,0.0265966195220112,0.609059998570691,-0.0568483600829171,0.120885947861857
26.07,-0.409213730956051,0.250254099631676,0.833952300531369,0.0953727265318783,0.0284960400313139,-0.0139569495635482,-0.972914744481346,0.274299071772694,-0.0805148667701094,0.438335147258018,-0.0666519983185606,-0.134919992640442,-0.985890313958789,-0.149202148895291,0.0527418131439568,-0.715930125559038,-0.0517774714178748,-0.394781008857246,-1.04043120724521,-0.0820585412501719,0.0374978955529555,0.615275793678655,-0.0850109746130168,0.0980813801856308
26.075,-0.418362444530802,0.25289194768672,0.832630435098998,0.110465337444696,0.0282551783259561,-0.0448079036834904,-0.967200470056042,0.283578131288281,-0.0791205636940622,0.415496966443118,-0.0721459910476326,-0.138101299865142,-0.984257488621246,-0.159449512747484,0.0519397159368533,-0.778326807918724,-0.0807970650476683,-0.448995409474557,-1.02225084499398,-0.0840416795323293,0.037669678543826,0.618509641815812,-0.112115169243463,0.0872289011450252
26.08,-0.410370485623179,0.259160600527788,0.818467596080536,0.0939240379783866,0.0262684356153678,-0.0718855795700362,-0.967319596670518,0.261006833942684,-0.0593447651670987,0.463971107580981,-0.0614982235047529,-0.152096129869647,-0.980285664820273,-0.188573901005076,0.0632619006782208,-0.864238210665306,-0.0916845540920348,-0.506224460879869,-1.00319969299045,-0.0957841658918463,0.0423375697411344,0.619343279619649,-0.155771559582278,0.0710553838884766
26.085,-0.404649401109302,0.266974606159133,0.813682076201339,0.0973432527319913,0.0263081427580028,-0.0745812474186712,-0.945077260697198,0.247533253174578,-0.0684829978709208,0.464668911807361,-0.0591731876883343,-0.130161252911844,-0.976452232435566,-0.214170864474988,0.0774983248753843,-0.919025107563121,-0.0940509742711824,-0.542015406689068,-0.978700940359969,-0.0997715872231692,0.0437803551444223,0.616757549581857,-0.194061394128313,0.0614872707015457
26.09,-0.398994724799437,0.285488344038466,0.81756793600822,0.103002981659496,0.0240509075060308,-0.0780980786082445,-0.940036698565332,0.295186650642787,-0.0682232977147477,0.561202059756045,-0.0571183888083234,-0.167020999683617,-0.970534486136946,-0.247262436141172,0.101751134714408,-0.979226169454573,-0.0900560840964317,-0.577559845501413,-0.951119402097399,-0.113395388685432,0.057397207687292,0.622656737216796,-0.226637052954236,0.046564847455732
26.095,-0.399920932896537,0.298917631966972,0.803346508506129,0.115874225080176,0.0248309578746557,-0.094911654118019,-0.938982699108499,0.286391628769605,-0.0513797766821515,0.689532693833597,-0.0409975774575904,-0.181116830859349,-0.97052341381542,-0.2736361248194,0.128808179674051,-1.02634494892829,-0.0881619510614596,-0.594389481628415,-0.934022035922219,-0.11107396000507,0.0673760217489652,0.633781895493199,-0.240774823523011,0.0298082608184579
26.1,-0.402422167890926,0.259465108473172,0.812026006585537,0.111992279801966,0.0166571961968172,-0.119749759526613,-0.933458708455968,0.260053576339304,-0.0340850753309437,0.746443550333207,-0.031402672704037,-0.186295243413877,-0.969304397163688,-0.293188346236726,0.158353756870594,-1.04863609306554,-0.0917078126753564,-0.599011595733027,-0.911902131475166,-0.111341487063168,0.0794434553893625,0.657292851287607,-0.251733363585275,0.0154365844833207
26.105,-0.391146100353023,0.254125241239223,0.815408072423258,0.108004076724056,0.0173832811504054,-0.123888598865554,-0.930024463957222,0.255797181288393,-0.0236249436467462,0.778258064480485,-0.0226147968026619,-0.198305099045098,-0.968922013472888,-0.305328119182899,0.182381049989357,-1.03912057997171,-0.115995495232555,-0.595724869166013,-0.894209106047665,-0.10614076791966,0.0965910882977378,0.69084833343421,-0.254376217604837,0.00203329661800042
26.11,-0.391792198933643,0.286735636766101,0.817132640753787,0.106978602013899,0.0163745141812124,-0.127772189533887,-0.928687300833853,0.25934887688416,-0.0296717221392427,0.788318282322925,-0.00973187769449901,-0.203340316428389,-0.964735039596363,-0.311248652524332,0.198203146725361,-1.00223875200134,-0.161369548092653,-0.555666153035022,-0.880943438246713,-0.0959704434403452,0.108670104515093,0.723398587499891,-0.246430088383538,-0.00981604842687321
26.115,-0.398567713111246,0.276188613278959,0.801423813449614,0.101615485856,-0.0026124943013937,-0.140481503915757,-0.925637795933277,0.254960138445483,-0.0406023012108736,0.781740811281735,0.00326157183529313,-0.199054606940178,-0.967263501709642,-0.310935919877823,0.200476372417796,-0.947740300873877,-0.205442205465789,-0.504136252721272,-0.878404205989412,-0.0771961121154695,0.114406187628344,0.763827395111967,-0.228275813787588,-0.020669931193761
26.12,-0.414441151471653,0.283746324446314,0.806932659372361,0.0830014478520208,0.000172707759067829,-0.138445452311606,-0.926834357400114,0.269512697236774,-0.0383292368086683,0.739123686164056,0.0147855963694931,-0.195137460545383,-0.966766149682271,-0.303329389764923,0.191672530904008,-0.876711717210131,-0.247625023961463,-0.440951491809771,-0.877038500437162,-0.0576180735401871,0.106284030233487,0.815040314396364,-0.204179635232859,-0.03121913722037
26.125,-0.414453772993853,0.264246888349961,0.801839006686733,0.0760293018294263,-0.0193368041755804,-0.139466373964258,-0.93759293107075,0.27886385958738,-0.0470543867587719,0.68232083381391,0.0286805524136506,-0.19130008047001,-0.949800394071864,-0.297911538001877,0.176085344034089,-0.823027705855076,-0.271257078944377,-0.368708441421537,-0.880995597049785,-0.0512228714510255,0.108550819148081,0.851364971742669,-0.17948398220128,-0.0367969405261184
26.13,-0.411295286270039,0.271361835261952,0.803158862080668,0.061511275084696,-0.0248283029477975,-0.137816279237588,-0.948215622561938,0.295381763195528,-0.0470016235031134,0.552961489883327,0.0350041430781084,-0.188459900975873,-0.936062885494022,-0.298464390826976,0.156277101134238,-0.773674133489562,-0.282642141253471,-0.306635042987782,-0.894710833276159,-0.0374918679079536,0.0978657255186067,0.890924231441551,-0.149634290960484,-0.0412172740613852
26.135,-0.411277060184516,0.281025671653663,0.813922340801665,0.0435693324294014,-0.0408689327651647,-0.141689667982995,-0.948114618704922,0.294287072926284,-0.0605990964374579,0.456572292314078,0.0388686702295566,-0.183638923249344,-0.929900978508679,-0.305009399763017,0.149697403260911,-0.727314169368242,-0.279221229395744,-0.270032210666385,-0.901969107479091,-0.0367217288349398,0.0824758301600864,0.919535944192865,-0.113657750068243,-0.0511982055419082
26.14,-0.410469552660128,0.266535362720317,0.810255090623085,0.0299615021469683,-0.0412940477053723,-0.145915100447377,-0.944730544476334,0.277462387022566,-0.0740596857721701,0.339577178881284,0.0433076914171288,-0.174673065767892,-0.910619700134482,-0.316515014438362,0.144493162373556,-0.693170738150721,-0.277451656595547,-0.232258644957033,-0.913689352499541,-0.031610791903667,0.0718588742792204,0.921982985324705,-0.0756208065375818,-0.0667244296199602
26.145,-0.422749859861865,0.258650841004147,0.810047462403872,0.012259896284636,-0.0497856479398526,-0.150422686555778,-0.933928781218,0.259139474310259,-0.0961684468319565,0.257009179824173,0.0501367970774581,-0.16378515969316,-0.894803900620539,-0.334400467340837,0.137652740750119,-0.666836300827457,-0.272259632870576,-0.21517208203671,-0.929279883010111,-0.0314494188494655,0.0544491623258917,0.916890126010442,-0.0497810893293351,-0.0849135039424871
26.15,-0.432775184497611,0.249788554483698,0.802193223166142,0.0059456015757499,-0.0587754182342079,-0.143105872225169,-0.92236492474797,0.237876456537216,-0.109585865780755,0.239104609268131,0.0540333464741707,-0.159348736612094,-0.879127836644102,-0.356433197531892,0.136840664270176,-0.653810972832724,-0.261001788229856,-0.203533524133603,-0.936961845327378,-0.0317922286396769,0.0448436066440929,0.90625373586208,-0.0295860202530059,-0.108793186807262
26.155,-0.436195173011471,0.251091949188959,0.796921044552183,0.00136243843474898,-0.0676353071780746,-0.137713241258368,-0.916953813657378,0.22156824512918,-0.121372647252132,0.270300749025496,0.0586814175170822,-0.165978263494997,-0.86756407428232,-0.371855983509493,0.140608519349291,-0.648509627737136,-0.247578990310852,-0.192253068089485,-0.940938353986552,-0.0315447115783674,0.0364732310399139,0.890413937811883,-0.0125425669416005,-0.137463665228255
26.16,-0.421967318616482,0.25685016037409,0.803162758443481,-0.000271025631743942,-0.0760925208317833,-0.140874817967415,-0.912194533026686,0.214895745172086,-0.124859502093374,0.332472189117886,0.0641184448756246,-0.168209001421928,-0.863810705932776,-0.378387701656384,0.144741848530739,-0.643268778716511,-0.227882563773284,-0.188000116051657,-0.944687029098645,-0.0346410848551395,0.027714543780399,0.878236285689899,-0.00255795572747569,-0.16489863066761
26.165,-0.414496890609707,0.253596110316531,0.809959790459622,-0.00273514709495736,-0.0983306662488592,-0.147410047589158,-0.918698316716074,0.215678771549985,-0.126402442016031,0.413402418307136,0.0632106271256766,-0.176389886676164,-0.852775767107443,-0.384438475220306,0.152502934243463,-0.634369776921127,-0.202561344289049,-0.184922903776169,-0.948846302504035,-0.0351828951873716,0.0130979582179641,0.876682038841698,0.0137148660523834,-0.196015711521316
26.17,-0.422660896823953,0.254589236737803,0.799461322306364,-0.000415893020037517,-0.113808893458489,-0.141302033555557,-0.924566911675333,0.221055300945895,-0.123767942050542,0.476500104583064,0.0596263201062533,-0.177231660553128,-0.838274786383002,-0.390103180415509,0.168758976323855,-0.70039495778875,-0.208622498204903,-0.181144755744913,-0.949448341697845,-0.0327320573433866,0.000934871041696742,0.88763299150716,0.0387456612763354,-0.212849324353864
26.175,-0.418269427953978,0.26304056184411,0.80755204676569,-0.00342977107159824,-0.115663908421993,-0.146505336266248,-0.927586351128342,0.23199517483103,-0.118513387915831,0.533554057161305,0.0578083023925673,-0.181208151080241,-0.854128870234999,-0.395308357023471,0.176549651318018,-0.677134349438186,-0.168732450547218,-0.219179897463946,-0.96380035867784,-0.0325905954790107,-0.00415688433494819,0.902315017560055,0.0599573204208589,-0.225601245603999
26.18,-0.401982334967631,0.273510953481852,0.80890363936692,-0.0086532588802306,-0.125567775153788,-0.159135082769557,-0.940219748741143,0.235805353475437,-0.116634285845959,0.544270012040492,0.0503610851521125,-0.186532624875396,-0.873780990087085,-0.385223072731823,0.174403411171222,-0.28111686937828,-0.097267125161278,-0.183890675708742,-0.943572584143576,-0.0313176004100907,0.00465158597450314,0.935816140523438,0.106560230741106,-0.233067352833589
26.185,-0.406498899224637,0.26352824093829,0.811972290075634,-0.0136212441089617,-0.129523883526037,-0.156556759073818,-0.943233364958728,0.247669637501021,-0.116715472669429,0.53588440009394,0.0434780324162818,-0.185479686592159,-0.865350116204685,-0.38208667893607,0.192126029806255,-0.602211026627783,-0.0785569327734311,-0.15357482270535,-0.945565146477724,-0.0319473351490102,0.0150958871745138,0.965166478641982,0.156094478459657,-0.230066832216794
26.19,-0.405488597870872,0.268675889813464,0.808083830685087,-0.0202379455598869,-0.129179166984866,-0.155535161495209,-0.959631668010556,0.25103793694712,-0.121348899373062,0.506247024177848,0.0277855382462829,-0.186736795060055,-0.874365138191009,-0.395134275510563,0.19346289600371,-0.592833822663319,-0.0741740539669991,-0.169917775551441,-0.958173493483761,-0.0189427446864332,0.0324731713660505,0.994968797151821,0.213953295417235,-0.212789555746753
26.195,-0.40469948061143,0.271411166207221,0.817851722380505,-0.0221962950987832,-0.142541199922562,-0.155148438254685,-0.985156024190215,0.249367862285311,-0.118178402884506,0.450625932520031,0.010542329880185,-0.187430551853546,-0.891274554186343,-0.402154310757978,0.19841995768385,-0.594520085070046,-0.0744729610922899,-0.186092474176857,-0.965478293553843,-0.01589496622836,0.0525406632573409,1.00696849822998,0.241456856159779,-0.179667294333204
26.2,-0.399520130808089,0.257358619815248,0.819281772101536,-0.0320598259583714,-0.140522807834466,-0.154818061091756,-1.00257045640894,0.251248509515837,-0.125756073928847,0.374555825317959,0.00181768224506082,-0.18509961375577,-0.915506358730159,-0.408337441171467,0.200772157741073,-0.569154873834839,-0.069531254019432,-0.183099128478165,-0.976178576938998,-0.0124108867914016,0.0689215093376624,1.0127117584069,0.237429291009903,-0.156098096175096
26.205,-0.411096292808615,0.245748915520187,0.815922160924104,-0.032978435016606,-0.130874681518176,-0.154302482462857,-1.00519967536805,0.239065232900425,-0.134448640423641,0.31622701192504,-0.00799237307854773,-0.182869344949722,-0.933340625973124,-0.411678328989798,0.200322918418665,-0.520260429992698,-0.053596695282247,-0.154079658161638,-0.984309110935904,-0.0122288561157943,0.0876277489144344,1.0297958437229,0.240930855460388,-0.115426912179827
26.21,-0.413901174981918,0.245677947633175,0.821226080880142,-0.0325226466197305,-0.121951012212475,-0.146297482709934,-1.00393075646714,0.229510907919257,-0.133406992919818,0.28319101796719,-0.0188814162565369,-0.182154145581019,-0.934895888810841,-0.414589490478577,0.196806706933524,-0.480589869801351,-0.0314670973261537,-0.125776220170818,-0.988566688482635,-0.00649661709253101,0.0959820317266866,1.04057034178253,0.249650813223359,-0.0777710904958619
26.215,-0.404934396538275,0.246016976670435,0.821482752845997,-0.0238026690101808,-0.111363939821576,-0.133744931136938,-0.997091474934129,0.221852997602714,-0.127452311616761,0.261792943567474,-0.0333966340856523,-0.180842775418476,-0.932094147293534,-0.415965627746258,0.191007407828351,-0.442756583738531,-0.00787480623805675,-0.120858417293498,-0.99666063809695,-0.00615288990507035,0.104959142766843,1.0448409318924,0.250434683029086,-0.0423823617172022
26.22,-0.409582239531052,0.251964970726776,0.831137717667189,-0.0232366419724019,-0.0951329970542398,-0.133565439681129,-0.997849792533154,0.219156305986416,-0.12588974986208,0.240745606240166,-0.0432894576492401,-0.175057112713491,-0.93386520557237,-0.416753104740487,0.185268034874889,-0.399498424812582,0.013640772322174,-0.126767302278606,-0.99964363928452,-0.00574757800350184,0.11031072352765,1.03831496966721,0.258213562868275,-0.0128122324674667
26.225,-0.401276352012422,0.239071585902452,0.827631150462653,-0.00676762534771019,-0.0882850323210178,-0.135748011705501,-0.990770614893272,0.212093777018281,-0.126164703998572,0.250441588402767,-0.0515971302897771,-0.171189142511381,-0.941465385610581,-0.407506021680773,0.173292079897489,-0.357590179758902,0.0308485582580504,-0.13480467954103,-1.00032993331506,-0.00673250759913314,0.115787999886112,1.03240042975825,0.267529889535624,0.00823572834881966
26.23,-0.402892833650128,0.232646137978962,0.830770391463604,-0.00350239647846621,-0.0717348354595631,-0.127545323958673,-0.984611842089574,0.206841899318883,-0.122102134496539,0.280367862957198,-0.0586022237028901,-0.175778845855219,-0.943557575248545,-0.395902476289306,0.158481540654011,-0.3411506723001,0.0414167423251678,-0.139236807942487,-1.00952444428127,-0.00588009787445298,0.127474358772841,1.03043952059009,0.261490485330993,0.022854708490306
26.235,-0.405271243914269,0.239370752473871,0.822445986218126,0.0315781574035759,-0.0838244486631267,-0.142014828610278,-0.975569494696258,0.206885253374957,-0.112600633200318,0.334045978268685,-0.0595842450857162,-0.176760867238045,-0.941567900427771,-0.380621355500961,0.142045896207754,-0.335157482526159,0.0527865757775111,-0.150473491797121,-1.01233581312763,-0.00606642522329162,0.126799781737208,1.03018069267273,0.233224127233903,0.0317300320935014
26.24,-0.409865915608637,0.256243670478201,0.817259505781149,0.0474719900095151,-0.0784162852419566,-0.140278031601575,-0.961863954518887,0.205087504798366,-0.10219238475224,0.395772854431927,-0.0557199862696237,-0.185511901915973,-0.941598733450573,-0.357222183252868,0.123862622982102,-0.357009340868521,0.0635511648169707,-0.157841706680593,-1.01399721247819,-0.00723835364798977,0.123815869149719,1.04468024468698,0.197647608799027,0.0327732339501381
26.245,-0.39846183736072,0.267685573316095,0.806830548165104,0.0453021526097072,-0.0905073925925867,-0.149358195891513,-0.955245080340192,0.208551230148629,-0.111961911006157,0.473741652567255,-0.0470718956519322,-0.192978401937829,-0.945703798224189,-0.329237118581254,0.112970508537872,-0.387124892373623,0.0675475215586549,-0.148240780653545,-1.01994100925729,0.00171521121853867,0.108483595347055,1.07037059417149,0.155314249359973,0.0397183659950241
26.25,-0.375202729615978,0.360389061312353,0.806535206501326,0.0527770177565928,-0.0830019929084642,-0.116117092500115,-0.943856376565135,0.197375148883696,-0.118762348751449,0.616859993284539,-0.035895465650095,-0.166120892456681,-0.953828465841387,-0.306160590299369,0.106810824589475,-0.406687935714222,0.0724324164411906,-0.117709399050916,-1.02565612182934,-0.000771004679318497,0.098591378997229,1.0909817629149,0.136276775454074,0.0376954586171805
26.255,-0.430689273810955,0.174571245121474,0.833277073782239,0.0288881124432013,-0.079684579517867,-0.130114139782923,-0.95880763877412,0.16217178021392,-0.107359927881534,0.761972387173929,-0.0203009261197592,-0.187422395305098,-0.976021089289653,-0.289443580361846,0.103054558332648,-0.437646179173468,0.0766098038883334,-0.100400075042521,-1.02474220128677,-0.000234704031451351,0.0892781361000097,1.10286918768113,0.130528778239946,0.0363211087941978
26.26,-0.424003789834403,0.161765765404691,0.838280687655545,0.0863917205994605,-0.0910838910087131,-0.159277922013026,-0.994134327649084,0.182472229928856,-0.0579022020804227,0.76917071431281,-0.0209736059410399,-0.221535960587148,-0.988610242177186,-0.277719280307403,0.0883320858922051,-0.466194475692186,0.087780609187061,-0.0884624603719061,-1.03720203473389,0.00643310835589158,0.0710919617529205,1.10699326801657,0.13809242552436,0.0230748371752763
26.265,-0.388140452896513,0.260280037710978,0.828172395676226,0.13850856099425,-0.076207306427017,-0.141271693193574,-1.00066882982025,0.273597333924726,-0.0413850121679247,0.6660691868143,-0.0272565214475404,-0.210498381554161,-0.991762593229212,-0.26063049007288,0.0911508606260296,-0.508336818954438,0.0788273032314764,-0.083900068968713,-1.03566724769563,0.00424150301116619,0.063714354652519,1.10215461117578,0.148511484387812,0.0114188402556852
26.27,-0.36000325818752,0.319333567574281,0.809455133094935,0.151602497746619,-0.0768731927778941,-0.155150024535965,-0.987171762879754,0.297076753584182,-0.0420179829985534,0.618758845437187,-0.0275596247252202,-0.204338724282483,-0.995914959260084,-0.24982255403335,0.100075522161097,-0.568310477678678,0.0714767249773943,-0.085158266916572,-1.03305008185331,0.00655372411999596,0.0545439457998694,1.10073407735335,0.148822960998045,-0.0140230010671106
26.275,-0.390811763475836,0.280752064305219,0.817996127022923,0.143503482939325,-0.0910403866564159,-0.208522005321056,-0.958299700309234,0.264806661838387,-0.0466204583377214,0.570029087218901,-0.0201307902410278,-0.208931875106091,-0.989775961266498,-0.256286460466417,0.110176349259083,-0.616824879175342,0.070598634418339,-0.0982089628502028,-1.03969039811581,0.0101677381291288,0.0471087572122119,1.09370875358582,0.13524115977267,-0.0389345710022088
