Header,foot_Accel_X,foot_Accel_Y,foot_Accel_Z,foot_Gyro_X,foot_Gyro_Y,foot_Gyro_Z,shank_Accel_X,shank_Accel_Y,shank_Accel_Z,shank_Gyro_X,shank_Gyro_Y,shank_Gyro_Z,thigh_Accel_X,thigh_Accel_Y,thigh_Accel_Z,thigh_Gyro_X,thigh_Gyro_Y,thigh_Gyro_Z,trunk_Accel_X,trunk_Accel_Y,trunk_Accel_Z,trunk_Gyro_X,trunk_Gyro_Y,trunk_Gyro_Z
22.46,-0.234278404837591,0.539514928670125,1.20725999362881,-1.06551781333553,-1.91852313544743,-1.48287730182059,-0.884243553665875,0.0506566713044305,0.313715600928143,0.173005934642816,-0.0475941094929028,0.373062238586538,-0.844837368471054,-0.484965686699166,0.111400319448429,-0.295149626255871,-0.611228852687779,0.796953983184356,-1.00056700809711,-0.174448207851028,0.329859496640448,0.300398187718449,-0.100908489560637,-0.0538948205337363
22.465,-0.161763361079911,0.263484192490355,1.13763753912816,-1.3099969775135,-2.0704972746044,-1.18181261980554,-0.87369057369369,-0.000113776327368011,0.35487015000092,-0.174172107286243,-0.180814346703431,0.488404735238549,-0.8396013673042,-0.49079032031405,0.113632818376472,-0.106075103747938,-0.600951075541878,0.76958507605994,-1.00371560649186,-0.167338401265466,0.327666655122485,0.310235089797131,-0.107402127091169,-0.0403553432559361
22.47,-0.118416618470835,0.145925357577935,1.08403051479528,-1.24020363260781,-2.13664251489055,-0.910322348113447,-0.854160373072759,-0.0542264836265164,0.376957131569719,-0.486820320107644,-0.2886975163794,0.557562198930998,-0.844291678866327,-0.463834583529096,0.11132467596103,0.166817939993638,-0.591128889158561,0.725856742279622,-1.00303599139586,-0.153814791402176,0.326088222553425,0.321419918785674,-0.107665746065403,-0.01061860577824
22.475,-0.071828926977999,0.130577491000586,1.03567808085688,-0.840279272884134,-2.17833401094973,-0.459147812500641,-0.829910015693491,-0.135088208123863,0.400781431988499,-0.813835303983514,-0.435773434391455,0.623301497897291,-0.843362209559369,-0.407467607884037,0.109594793650913,0.496749315516954,-0.584105039979637,0.673795961106782,-0.999824411778901,-0.151927498955636,0.327606560153621,0.308430024157686,-0.101683661297054,0.0163495842999903
22.48,-0.0369490896527438,0.178611270646551,1.01782078638936,-0.572211115407378,-2.19339114592805,-0.125171777418382,-0.813951450442522,-0.171502265960207,0.39822837334288,-0.874224404684622,-0.53885362748796,0.649882233159849,-0.841357285409224,-0.340350816324996,0.11836915096964,0.747080173528599,-0.580637499582751,0.633577299943589,-0.993862094936486,-0.150081087840335,0.324151025972211,0.29950982136973,-0.110199236746493,0.0375778643485041
22.485,-0.0281593845133705,0.222368567448354,1.01605660186998,-0.426988884966846,-2.19842170160649,0.152004970183663,-0.798479217644792,-0.189633887192814,0.401811545618826,-0.852488532485935,-0.638291302146423,0.667914087993084,-0.843230570334826,-0.291929144514736,0.125393816128401,0.892066247004238,-0.579857885837555,0.605020111134661,-0.981649739704048,-0.140075053368825,0.320739348505763,0.291684444638645,-0.118781377083881,0.0681299818718034
22.49,-0.0432822951477594,0.251599230792608,1.03208344691917,-0.424682458503924,-2.22107349411858,0.415582844471835,-0.798075664934811,-0.166839304826826,0.389806746725031,-0.775080748387917,-0.755132306910813,0.68730336229286,-0.842224614404043,-0.220177477626824,0.140011004304881,1.01343073823891,-0.575189235379483,0.559983026038926,-0.977180497819666,-0.144571348734584,0.313534627995102,0.287472535243293,-0.12647142214252,0.0885605616558752
22.495,-0.0831395036008966,0.219929881401523,1.06536276548768,-0.530590622605166,-2.27863691334535,0.689982447038314,-0.803404354303193,-0.116606213396769,0.364922348140046,-0.690779588358179,-0.874102955024355,0.727753932562192,-0.842832119976069,-0.183695802521533,0.154921008278435,1.04191614102597,-0.574959750998693,0.514688650509151,-0.962895724482794,-0.14241245518632,0.310751816826435,0.284303668997946,-0.153686329039497,0.119108597620517
22.5,-0.131616770151994,0.135073225401782,1.10181401299677,-0.644800595663268,-2.35558342250078,0.878962349909175,-0.807505746227085,-0.0657301146849519,0.34164353295346,-0.67035798231355,-1.00366364414059,0.779214885782043,-0.843693126230216,-0.146520404975329,0.163731907778705,1.04559826850891,-0.578802498208017,0.462513107943292,-0.959678269312478,-0.141671316873528,0.302610240439477,0.286758133288852,-0.170377315062329,0.136890534628252
22.505,-0.150752222430484,0.0332281508957221,1.12165923423261,-0.685373528283384,-2.43125395987519,1.04046412617247,-0.829476347661883,-0.0386653090530307,0.315283117214212,-0.707123703505873,-1.12484633942162,0.824786521121589,-0.836368397432055,-0.103162224600477,0.168195595202131,1.03273390818263,-0.582826591802002,0.3966772027678,-0.952094073342235,-0.140033932141163,0.29269134033765,0.286790044706214,-0.183620134115963,0.150635344524595
22.51,-0.16827822236609,-0.0634388012122744,1.14221540368363,-0.646234833010013,-2.54284848596933,1.21810151732443,-0.85513440104533,-0.0191777816418431,0.296317366524013,-0.770578342234397,-1.22997432968222,0.855273698666273,-0.839430991387204,-0.0611851541211432,0.171093909186148,0.988972495520475,-0.580357287591374,0.323694268082243,-0.945662825245395,-0.136469277680884,0.285088216290544,0.28305002508015,-0.202547952644988,0.173261716256212
22.515,-0.203342044735338,-0.168933236853068,1.15916157414334,-0.563936347468082,-2.64456369802229,1.32884633044956,-0.878609166812121,-0.0208221141945243,0.276715852834745,-0.840796061135542,-1.36868909595831,0.863538721779473,-0.841832377155028,-0.0245065547355315,0.176890385530932,0.927622045613085,-0.567772993598793,0.281402575899083,-0.940148423509332,-0.13831316667655,0.283354302809767,0.260484513633282,-0.212491074308792,0.185793235619346
22.52,-0.226971976614337,-0.227991643693222,1.14946024839879,-0.481819750375271,-2.74640102425262,1.40374835916666,-0.897908131084344,-0.0308465182632198,0.254088998771138,-0.891934500476754,-1.48335737000372,0.865801453590393,-0.839519045536693,0.00555315325923131,0.180850247614453,0.836229408119483,-0.543022164394746,0.251228380874362,-0.935687021359886,-0.14352933202464,0.276908775780726,0.280968620786927,-0.21892230783208,0.20578914231891
22.525,-0.234047472273797,-0.2858181013375,1.13216401490572,-0.408438942640374,-2.83869829363303,1.44951483817534,-0.918431649866449,-0.0520221618935157,0.242569471126781,-0.932840199995763,-1.61305673643883,0.850137071724308,-0.836047056052517,0.0354604949553829,0.185526046472705,0.760630460428741,-0.523276277345306,0.245211288332939,-0.937659706022853,-0.140489887494023,0.273699008336444,0.304855130208683,-0.216048878445782,0.212304939675944
22.53,-0.243853818075601,-0.330810257280755,1.11806994946456,-0.348690094136481,-2.92417421044561,1.46214488614734,-0.94028384203168,-0.0680317843540904,0.238137606552841,-0.95776700460405,-1.73411643000278,0.824442413401874,-0.828286930034291,0.0572442966429478,0.188115272415058,0.607673082456311,-0.494166389668818,0.254635220118643,-0.935006755261874,-0.154346921801848,0.275407721916002,0.304519139144381,-0.203852371351984,0.217149108382004
22.535,-0.27525331202855,-0.377051747772389,1.10662325920108,-0.298689379295123,-3.01853350234205,1.45377571883079,-0.967320039768658,-0.0706835657405638,0.227646447401224,-0.989411278350987,-1.85136869471471,0.800754397194441,-0.82697131312088,0.0610215041062216,0.189119158374402,0.477412872320377,-0.464021750053201,0.27534564367572,-0.930393278851112,-0.157052907498754,0.273576766137543,0.320580281622953,-0.190214041396253,0.219972018739643
22.54,-0.320188539285191,-0.426098201756427,1.11258836498048,-0.270526466550805,-3.08965290473947,1.40484283706175,-0.986911907302556,-0.0687003344654511,0.211164906840167,-1.03107689805975,-1.97837178986065,0.782121545708168,-0.822732827241555,0.0636315217597308,0.190737409471827,0.316539037157887,-0.441744445854329,0.301136230639646,-0.931911940662902,-0.156127146182171,0.271239649079176,0.331753833337489,-0.171417009600923,0.211292911551781
22.545,-0.361079742736448,-0.45091663350981,1.11128490483715,-0.254669716121775,-3.15006983461027,1.34386524161576,-1.00049904484385,-0.0630307982173748,0.185819942853152,-1.085681023876,-2.08767399767325,0.769136539818662,-0.823622234730713,0.0590827540978289,0.193563661824135,0.184115691542113,-0.419606729865469,0.32501249649547,-0.929393506751656,-0.156355382742118,0.275671013265273,0.347584865839048,-0.156359236258816,0.205681993688439
22.55,-0.395280557861238,-0.481757812087873,1.0936435386707,-0.263538681679859,-3.21912131407599,1.21977553215216,-1.01533794038648,-0.0632986495684759,0.156215576981186,-1.1588888220664,-2.18116045154207,0.761398102893252,-0.818963193942203,0.0571695339246081,0.192024502368162,0.01381616004472,-0.380233637044188,0.348350944111199,-0.921943538172405,-0.156934431732141,0.283185454038159,0.341413147854118,-0.143435458638788,0.190639995145111
22.555,-0.412821053603923,-0.495018008719241,1.08196196690507,-0.267918655822027,-3.27708779764502,1.13596535462819,-1.03531698262905,-0.0640409516433927,0.137790560528765,-1.22646748914822,-2.2595606210248,0.745032158629469,-0.821002364621656,0.0510515510119248,0.189011092246483,-0.122410869356838,-0.359015453866598,0.350230925564931,-0.922281467576815,-0.160605154288794,0.280258224311378,0.335814448047593,-0.131637552653427,0.183266314251149
22.56,-0.432591962386089,-0.50442898756571,1.06072543704255,-0.281179793242947,-3.31349683001825,1.02851905357676,-1.05944473448253,-0.0635735444549245,0.131889612027561,-1.31707794746181,-2.35267402830576,0.725021140032981,-0.819493321443208,0.0436962711849422,0.188798528171404,-0.273328027273268,-0.346121506558998,0.339887735429485,-0.918030334980409,-0.160209440663895,0.279632812080309,0.327643538562925,-0.11728170173219,0.171244315336112
22.565,-0.457232608744889,-0.519658992739162,1.03472721325372,-0.289510756897858,-3.34031482112403,0.905458470998259,-1.08219297292079,-0.0592839047075676,0.116909926874098,-1.38546912612044,-2.42014701949535,0.711859972896297,-0.820724621476691,0.0400241134959841,0.192410282362663,-0.38516817491707,-0.342573349266696,0.326827741492734,-0.921376178510997,-0.158116961322914,0.282957291011673,0.319926086810913,-0.106188383536941,0.161115489438694
22.57,-0.488651515891263,-0.519358740113276,1.01969214441434,-0.28745989913243,-3.35774796671675,0.764517248525375,-1.10467566581064,-0.0636917574621388,0.0911332115490849,-1.42853038941318,-2.50237655007343,0.689145914534026,-0.832547320861726,0.0268574290862091,0.216575958441288,-0.574283396849617,-0.352496883724405,0.281987943794058,-0.918328801744831,-0.153211076181542,0.284574043227193,0.297346781873308,-0.0770150425289348,0.15281117880156
22.575,-0.521195281415605,-0.507012992584785,1.00255610622988,-0.268418381815582,-3.36454688325878,0.614913751869802,-1.11327505537984,-0.0822286152639303,0.0733516208302102,-1.4418166425035,-2.56833991878568,0.668693549726312,-0.840739433179334,0.0152715757590091,0.226887168478152,-0.708287577930723,-0.383699439898165,0.243304037536451,-0.914376169825547,-0.153300136140601,0.28696975580141,0.280613054195742,-0.0625270365942166,0.149298621190993
22.58,-0.544469417745338,-0.484783598044824,0.972671673535416,-0.23571587081713,-3.36063273325177,0.487411444274175,-1.12084732411745,-0.113711474039386,0.0544738591789926,-1.44737392158141,-2.62603486614155,0.647405258068569,-0.851353551019713,-0.00443597081808414,0.240841879094033,-0.846342277938189,-0.396470293562572,0.203993840606864,-0.913386444163216,-0.147744905298766,0.283811506038195,0.278808226452525,-0.0650931543626395,0.14312286017409
22.585,-0.557305865111064,-0.459182783715243,0.947139323345169,-0.206200392729322,-3.34256313087498,0.38700806486005,-1.13128175929032,-0.141564068337052,0.0442737794790572,-1.41550620985253,-2.66495013415238,0.625808251082389,-0.863608505256004,-0.0237721364701893,0.25960764258443,-0.953404058686359,-0.419515920139908,0.16194059710012,-0.915968713970437,-0.147534620343452,0.286570334105336,0.268130576367215,-0.058364407421306,0.147468876960359
22.59,-0.573712407939558,-0.441083900030782,0.918893381675703,-0.153904039470222,-3.30347867562323,0.29524855527418,-1.13234967053533,-0.158417384101896,0.0390704287710264,-1.34887373709997,-2.69685288322277,0.602575799167489,-0.873697888079206,-0.0542302231693678,0.279543006082195,-1.12405352061409,-0.46643438903464,0.0973802981432475,-0.918909657158376,-0.140712865058251,0.289083114169851,0.251114911930508,-0.0543680205071522,0.150281857199493
22.595,-0.588875826915456,-0.400208456326227,0.905855499159983,-0.0905245843707787,-3.26230795488471,0.20936338118777,-1.13450021205645,-0.175671588743053,0.0237522896195689,-1.21154135428971,-2.71998570483212,0.571474567843895,-0.87465264650014,-0.0808286164568382,0.27858319253589,-1.22863292286791,-0.501902894361145,0.0553816788022841,-0.911454881702136,-0.145413322106363,0.292334642255985,0.239974749561578,-0.0579555832769559,0.161846708187977
22.6,-0.611424985492426,-0.365976904821155,0.895582243270455,-0.0374593247239278,-3.21221630642928,0.15756905809438,-1.13246824283003,-0.182116892431961,0.0163736209767437,-1.12579588802033,-2.73247948189001,0.552760348114969,-0.866086910388592,-0.111451379809714,0.28009006799828,-1.33664148433863,-0.522713029347429,-0.0038917955683483,-0.907311211338035,-0.14414154612855,0.299135530892946,0.225358015354607,-0.0549545915832205,0.173318039232443
22.605,-0.656111971996793,-0.341265652576923,0.887668968041106,0.0269174306890084,-3.16584343975646,0.110079679084341,-1.1229333128335,-0.179795663673905,-0.00468709842165941,-0.965842510277101,-2.75129896291545,0.514650479311671,-0.862886041361898,-0.147020696296564,0.294552439291735,-1.42264071430748,-0.537932027178558,-0.0600537085190965,-0.908766590463422,-0.144122723412051,0.297886854437635,0.200998414251915,-0.0521587406332161,0.190093159550386
22.61,-0.688258673587396,-0.306300638540505,0.883293098536197,0.0861175215519017,-3.12763103888358,0.0739556770370697,-1.11685834457328,-0.175251363702787,-0.0247345647557607,-0.871206897761045,-2.74366074767921,0.501906113415078,-0.863979945118488,-0.169218339980667,0.311680260429832,-1.48136840526128,-0.55544703523002,-0.0992445649131382,-0.900752845093342,-0.136863269262759,0.291957755731212,0.178659588098526,-0.0610346522799993,0.194274723560743
22.615,-0.729036785418735,-0.273490779317055,0.869210623400866,0.156433712915016,-3.08553533359846,0.0536701352706967,-1.11066982753027,-0.173485314526099,-0.0420391872730545,-0.760658206074398,-2.73809286114701,0.485842560176139,-0.849172981200567,-0.200149590174673,0.327969001745661,-1.55183950068327,-0.592787652039826,-0.139826480912812,-0.893185485807182,-0.135208592496857,0.290656130184195,0.176976146696722,-0.0791531139752129,0.209620732379755
22.62,-0.740903826156912,-0.23657394060526,0.854365787555615,0.192604581221835,-3.05296162268961,0.046669523943971,-1.10899371203282,-0.164997275320745,-0.0517852154708857,-0.676085421817905,-2.71290480589592,0.478861708963441,-0.836896172901174,-0.231573974457312,0.345733292059899,-1.57004976272583,-0.593795209713625,-0.162319215291617,-0.892399774353311,-0.136714145384619,0.286791333601298,0.16671352638028,-0.0918733997002727,0.219606549244455
22.625,-0.744134674470149,-0.188658590363861,0.825814791184507,0.207831208689709,-3.0008577516211,0.0491129658656932,-1.10735691815952,-0.141052463916044,-0.0543068306428417,-0.574892876270502,-2.68764867507466,0.476406188621823,-0.82733533504312,-0.255095269343823,0.389325661255036,-1.58199575743072,-0.611988354391111,-0.192219004058106,-0.893657579899279,-0.132769810981897,0.293097880304063,0.154016378560076,-0.114942007736217,0.234666806615155
22.63,-0.748762412666256,-0.147703454749455,0.795942994793305,0.186773013467148,-2.92035807181485,0.0606425445328497,-1.10440986659886,-0.125579922698723,-0.0542953594817717,-0.48575894480244,-2.64976853015167,0.473637521266937,-0.822205728619266,-0.278149530612458,0.439252068633124,-1.5816742182289,-0.649230884123928,-0.20894444539427,-0.9017324837804,-0.130029123082093,0.288341208605131,0.128023131693149,-0.13911752423592,0.251986384807976
22.635,-0.753672950687572,-0.127142113780357,0.784230067532286,0.139218967524402,-2.86320565362886,0.0896065401754035,-1.1021453273407,-0.111778290036707,-0.0533162737056371,-0.445939958779235,-2.61355207491715,0.470668712554332,-0.814885398034009,-0.298384223836956,0.469429299897924,-1.56893194388919,-0.667343373619367,-0.214518455427313,-0.904651701102039,-0.130320249067484,0.298312899065151,0.10363064208565,-0.153356532268836,0.270389866095488
22.64,-0.761232042826953,-0.107275441651431,0.778740723411625,0.0663922994523914,-2.77706458433496,0.130328016514081,-1.1009767215492,-0.094158772336108,-0.0523349120343784,-0.407957678625882,-2.56692345248842,0.471059006186366,-0.8038429913449,-0.322703279446667,0.515187446071688,-1.52196310981778,-0.659258028957876,-0.212513592862121,-0.912412591515843,-0.134994807586133,0.30509267290517,0.0893836605972535,-0.163286507129669,0.299079673715369
22.645,-0.773716924356434,-0.0992688737441079,0.791128931887627,-0.00481697606183898,-2.71406084653526,0.164117535026092,-1.0989175089961,-0.073720704487956,-0.0511170886507503,-0.367774488819058,-2.52118807049456,0.477524031038942,-0.801138377876044,-0.339402501744203,0.584069542745593,-1.46882405778853,-0.645829379558563,-0.202895229432405,-0.915843131481053,-0.143144998949283,0.31477279793686,0.067606560354428,-0.157077967977343,0.327180484037073
22.65,-0.775125010820678,-0.107520923711849,0.80776750415031,-0.0586864787192643,-2.67215905730785,0.199559670136627,-1.10181962476076,-0.0609769034347451,-0.0450020005632445,-0.348157985353176,-2.47914014073676,0.481384443499451,-0.815751339869402,-0.346344815113067,0.604743795614235,-1.39703769119448,-0.633588993348563,-0.194306885210984,-0.92133420959069,-0.142551402728066,0.326777409751651,0.0506703371233297,-0.152635473979069,0.343450203074787
22.655,-0.775191124700589,-0.12925716781392,0.834611219271975,-0.121118218129018,-2.63708515251296,0.237362288572101,-1.10038043158084,-0.0495378968052474,-0.0488798721073474,-0.34507980436901,-2.44326521424833,0.478608372062555,-0.812359208860912,-0.353301474849797,0.599767067135742,-1.23104887841389,-0.526884665843204,-0.163791955235046,-0.922974376462203,-0.141618797325576,0.333366292464732,0.0274459035224582,-0.138130296574157,0.365094969660401
22.66,-0.779566759985644,-0.136525290302236,0.84054171849558,-0.131064151080184,-2.61360774931927,0.268219821864044,-1.09164454699003,-0.0310416172786484,-0.0523293067646239,-0.369984282188153,-2.3914409405976,0.471655901202309,-0.806962948997423,-0.361993204820053,0.617445644385412,-1.11132061914355,-0.377398549432882,-0.142315793905216,-0.926998491143102,-0.139540537763248,0.34197101846091,0.0099139787449324,-0.139501406491681,0.376909148978072
22.665,-0.782360574653409,-0.127648416990255,0.839903136185048,-0.138836488297556,-2.59113136983513,0.295885351816088,-1.09343857306291,-0.0250269208326821,-0.0526658821994576,-0.416702954784014,-2.33872139984473,0.463484948514182,-0.814996404592197,-0.356800680056414,0.630786449372931,-0.994771395310498,-0.245222388577,-0.0997294156740769,-0.921270809104611,-0.138129650328242,0.35040890891605,-0.0197533919500154,-0.145735163104531,0.37983806342149
22.67,-0.770814233894878,-0.122926521287527,0.828499685916046,-0.143393116504397,-2.56607001195863,0.322085970952645,-1.09060878062768,-0.0203661129912201,-0.0487470795582271,-0.470224305732972,-2.27836760634277,0.455513677568803,-0.809720015703305,-0.353319152278634,0.609238727150698,-0.902540716673946,-0.133634570257757,-0.0496287673695315,-0.919144109783406,-0.141506620399366,0.354352391504806,-0.0425571618463984,-0.156029489176442,0.365017850167097
22.675,-0.773413379987966,-0.138496785845937,0.830028031942682,-0.151592435903711,-2.55100589800741,0.341032316566418,-1.09151869435973,0.00224013892896979,-0.0338066219123961,-0.510245713920817,-2.22722307028133,0.439676593763433,-0.806380955558793,-0.34777314106328,0.580313488843034,-0.783327027737306,-0.0177234613790428,0.00163675972968805,-0.914709347460622,-0.137186602267278,0.351020802186241,-0.0608019520947385,-0.179112023165015,0.346189672339838
22.68,-0.763095043329917,-0.156942358393577,0.831268783153403,-0.137247956948516,-2.538923026536,0.353458641812979,-1.08526686480029,0.0190947894446948,-0.028985990987209,-0.568644999083538,-2.16178460506505,0.438666084892562,-0.797122757164263,-0.317673713372787,0.542054663169054,-0.642258489467795,0.0813320910833241,0.0420819787435464,-0.913250407334032,-0.132508832698967,0.34622883572529,-0.0745626153584663,-0.199616480332485,0.3272377314994
22.685,-0.747724378610916,-0.172032976464218,0.796829387514225,-0.0724022231531849,-2.538276360954,0.36904674650415,-1.07301560869751,0.0123825483370745,-0.0336685278620482,-0.630264678344727,-2.11087854064826,0.434776779124743,-0.798748526914984,-0.300802339376645,0.528476740721341,-0.502520873304163,0.157131811677162,0.0532183539165834,-0.920441419316041,-0.127597651479713,0.336614034640038,-0.0940036252316618,-0.211617768177671,0.317811266653231
22.69,-0.728719431204297,-0.164887215770775,0.771462622562593,-0.0299119122919834,-2.5042690009356,0.380183683015078,-1.0566732427859,0.00940053579974552,-0.0347576306913057,-0.705733675957591,-2.04645984630519,0.430260510610117,-0.80004487072469,-0.269556986613683,0.529407124928684,-0.326790703803413,0.209566916495106,0.0453000380303585,-0.928053608684245,-0.123729894861871,0.332807655731579,-0.124831762541706,-0.231218311098559,0.323976730712173
22.695,-0.70654273290587,-0.145976852642472,0.742681492289557,0.0133951062365682,-2.47139940814466,0.410671344321958,-1.04284368179212,0.00534591931536456,-0.0255964196974793,-0.789313436758924,-1.9761745091099,0.405222624540329,-0.825112440891,-0.240558398415616,0.531252792349174,-0.11538426352808,0.243378463797385,0.0414975460399408,-0.930981282011071,-0.126547753799691,0.323942518102371,-0.153620479767515,-0.236427000889033,0.33914299006819
22.7,-0.685980541130247,-0.124366147194502,0.706593616019311,0.029090565817579,-2.39453976755571,0.439309287407833,-1.0346876086596,0.00154881251392563,-0.0206343350533496,-0.880772044853808,-1.89899644967807,0.390794905490825,-0.840986535806488,-0.222625558989816,0.515400146815136,0.0685500969800372,0.281033799249946,0.0525339791042949,-0.935590108306672,-0.125179903776911,0.315802881549174,-0.206907617216564,-0.21659175734253,0.381101821455362
22.705,-0.677693947229618,-0.114505693589768,0.683051674133645,0.0205942037102468,-2.31774685073277,0.468402670271026,-1.02660818011942,-0.00623428529776128,-0.0171229771190583,-0.963837053076153,-1.83529375004494,0.357425584590585,-0.842421644371276,-0.211033466169048,0.497014711095116,0.102316569413126,0.316408246264692,0.069058440496512,-0.935539000839115,-0.132968841703781,0.317965824901114,-0.242825696903506,-0.188941602189756,0.422494352723232
22.71,-0.672779573836151,-0.114250621805688,0.664453691875027,0.0106284328672584,-2.24565403015203,0.49814102132464,-1.02279222177481,-0.0101771682816758,-0.0185011330086046,-1.04559591031774,-1.76733988240598,0.331144708959293,-0.834807443223629,-0.223022514511276,0.473836231345049,0.0718858850796573,0.385302587076963,0.103508542511073,-0.933884067935598,-0.129417027116115,0.310534314285474,-0.287598017255401,-0.157053330662715,0.460174221953356
22.715,-0.67975646883023,-0.110462318451868,0.639643233416805,-0.00730805252776146,-2.13560911667431,0.531338447428928,-1.00165000048631,-0.0273180086951478,-0.0316055318171542,-1.11718577426006,-1.69394905100416,0.317254792978577,-0.827401181952749,-0.217841340287575,0.498420841486944,0.003319203258841,0.442869866208073,0.149758008405153,-0.929983567600841,-0.137494978376153,0.320389164756326,-0.327588078805268,-0.0867980415081489,0.516085973119019
22.72,-0.690462402089085,-0.105751869342538,0.622486597685533,-0.0255848051184305,-2.04627002522463,0.567173110201837,-0.988053355813406,-0.0413582181738631,-0.0471635142003442,-1.16706243446661,-1.78286315528056,0.28896708447867,-0.829082561378852,-0.215421587677452,0.528220264010299,-0.0527942502489494,0.465459594945681,0.197483495998333,-0.925085876206941,-0.142441974842636,0.325692517601739,-0.338884932708302,-0.0635005548116304,0.535142556160423
22.725,-0.697644511315324,-0.116329532771226,0.592458645174365,-0.050281156187755,-1.95529981956911,0.595974894632909,-0.972764163803298,-0.0675777907954225,-0.0541460621756755,-1.21329861187056,-1.59440158207961,0.268224989912,-0.82940661047648,-0.210364331069064,0.565184829664343,-0.102119633580852,0.478926046922083,0.246696176703706,-0.923440286366659,-0.151105861793707,0.333629889170982,-0.341898468854343,-0.0469334075701612,0.546409436026605
22.73,-0.69094527280435,-0.143341699865441,0.556481067415685,-0.064512492547672,-1.83392443679182,0.633147493013,-0.957890739045024,-0.0920119735543773,-0.0479539479376142,-1.2074987167032,-1.45541108655967,0.254192293272756,-0.827993873554845,-0.216850060535844,0.597191122335177,-0.144039735897309,0.48176169121168,0.274206472379909,-0.922296930308641,-0.150107198311884,0.333636669453221,-0.349384823714308,-0.0534518954401255,0.542160895218113
22.735,-0.682035099837804,-0.162649165128622,0.536840326886179,-0.0503135357627369,-1.73504669298858,0.656414116415169,-0.94900905971141,-0.106017406582493,-0.0485672732925789,-1.17460224006643,-1.37318416730691,0.238477311510423,-0.824762658159649,-0.219987511855147,0.612502654874262,-0.133956625449016,0.475937924364748,0.284330167485664,-0.92255607607259,-0.156550842022084,0.342492420283355,-0.355327431796467,-0.0822783659685673,0.526074937008088
22.74,-0.683659348194141,-0.185522492520402,0.522877374859259,-0.0210476752821165,-1.6304009054849,0.668272078262373,-0.937701371800957,-0.120898487357894,-0.0554902341950671,-1.12296139753115,-1.27878141003151,0.230875486812512,-0.820700167667263,-0.22420251930731,0.617991341039146,-0.0802425642825475,0.474107836597566,0.283592214261705,-0.918562684635709,-0.154735424090815,0.341458308757011,-0.357450434703687,-0.111692674884413,0.509806835525211
22.745,-0.688849385517158,-0.191381459086749,0.501459204310523,0.010245235905175,-1.49445207810589,0.667184193340804,-0.922782599687549,-0.131878725645265,-0.0612877031282803,-1.0252584710986,-1.17450927122962,0.222597373177681,-0.823931791200245,-0.233612127605848,0.620461305805769,-0.0379374520824522,0.458897569035788,0.263483013730862,-0.922807839874923,-0.160720042577458,0.341150610118295,-0.361767062065348,-0.131006200283047,0.494567350520867
22.75,-0.684321140221561,-0.195263908044491,0.481584535983839,0.0345393688329647,-1.35650449146591,0.653643353349427,-0.915800520733221,-0.137102833835919,-0.0695942650072959,-0.902135670128402,-1.06242849344708,0.216560419397335,-0.824880582547327,-0.259929894841118,0.62729767536995,0.000710697756536557,0.428055014001914,0.242532515600318,-0.923873338418417,-0.155561674470612,0.343096919072245,-0.371655096202017,-0.151739071221232,0.481620595244564
22.755,-0.690173321133492,-0.199572933728922,0.453921842265556,0.045088569452783,-1.19702521454357,0.613465169029072,-0.922514171388117,-0.13398710526786,-0.0678641599565148,-0.758745716632416,-0.93894759370094,0.205257863633912,-0.839606312027951,-0.286259635307742,0.637760857541774,0.00667193824920913,0.390513473412384,0.222172041186158,-0.926208842678335,-0.155622853730877,0.341907982898953,-0.372291224797589,-0.144910965365741,0.48242362817124
22.76,-0.698564830593406,-0.209715961525098,0.441902514207762,0.0501796751674322,-1.03855069181781,0.570387232874406,-0.924688551165073,-0.127125695716385,-0.0737998359542245,-0.639381653886051,-0.843603511490761,0.204671344767086,-0.862401696279865,-0.304622939571247,0.642705105506552,-0.00631749303181355,0.339456610475718,0.201156821466283,-0.929369011263618,-0.152594586224122,0.346505421043685,-0.371561714609038,-0.13457406991291,0.488924064834487
22.765,-0.702363923556795,-0.214069908794267,0.434196244630353,0.0529167756852074,-0.890594517594217,0.522612874986009,-0.920970303251114,-0.111470532887484,-0.090081221468862,-0.512355988464414,-0.734750874820561,0.198611355815717,-0.881913273274619,-0.31137428011927,0.653654569329301,-0.0148263368723427,0.291855753729153,0.185156166973845,-0.928133720298375,-0.14545678353566,0.352082698691,-0.386812674878411,-0.127383005002475,0.487617257630546
22.77,-0.698888500562579,-0.215910831784617,0.435512413756528,0.0592644810676575,-0.711527448984106,0.440898614731393,-0.920767827393946,-0.099750620232573,-0.0994085845061421,-0.360830669754182,-0.587897040957645,0.195439008795806,-0.910690295124882,-0.31689252679332,0.654152066126079,-0.0144915331483491,0.231659626018666,0.158925377115172,-0.931149747490973,-0.14368790933706,0.35049641466384,-0.403956330791409,-0.12692189071447,0.49057972216722
22.775,-0.71189307431408,-0.217697531153285,0.442620568316005,0.0612097183070718,-0.582775255719803,0.377928626896561,-0.919833321776178,-0.0823442691196128,-0.0986216913847872,-0.273568908949249,-0.502029996302992,0.194672289955113,-0.924342353424517,-0.306267760211834,0.649342923217049,0.00492570946479978,0.203931387835179,0.135825642589898,-0.924369407095756,-0.162619934029757,0.357216063821456,-0.450782869131775,-0.135457332278265,0.466590677797148
22.78,-0.732603300690188,-0.216170507101418,0.457288396202485,0.0667673388011256,-0.4521772056764,0.30672339183202,-0.923933861196858,-0.0654040755572836,-0.114967817360459,-0.167386994833798,-0.359573482068897,0.192196112317264,-0.926489548775718,-0.288385923014344,0.637994315763063,0.0276428260124711,0.177861396407648,0.118170254490176,-0.925007323589942,-0.1825925576924,0.366017953593641,-0.369677083526334,-0.0894416763277256,0.496745787174554
22.785,-0.747569032501803,-0.195693177976839,0.464453258617035,0.0768429226408115,-0.321921307898521,0.223923504126185,-0.926273919430145,-0.0511550986378417,-0.130319148111844,-0.0753257008055259,-0.2742321090377,0.187188579645989,-0.920793630641416,-0.263378430798932,0.623502423217505,0.0667916286317788,0.15286992982361,0.105182799493069,-0.941324816903434,-0.179934520934481,0.373130661306024,-0.333324276396787,-0.0754183680861944,0.500776105114972
22.79,-0.763384938248495,-0.179074910720807,0.463557010415889,0.0733491105164249,-0.186579167446222,0.141071108553669,-0.926927377788379,-0.0380210623295519,-0.140227480393591,0.0228863959063247,-0.156353377779365,0.182997587125803,-0.928048348988342,-0.244151377023858,0.604612461814891,0.102273218571347,0.145687019039344,0.103547959189067,-0.94074377818144,-0.180001390253198,0.379736206123723,-0.368939129651469,-0.0619939077034285,0.503846894323534
22.795,-0.759766193466646,-0.146205870327095,0.450644545030053,0.0808025320602961,-0.0841231910192132,0.0360249126252276,-0.934821392088755,-0.0257677749929221,-0.145086966844811,0.068327204937973,-0.0314362513028698,0.183829097731167,-0.925310491023203,-0.220631563474843,0.577880111793501,0.123675566634631,0.139307535410425,0.11474034584217,-0.942478366498731,-0.18572671396477,0.384787701960611,-0.38063294425463,-0.0450256840899061,0.500682234764099
22.8,-0.747201797386861,-0.143215539518312,0.420902325423455,0.101509025362743,0.0257370433529661,-0.0120019710103788,-0.938034756357339,-0.00825816451669493,-0.147792603666062,0.0954626676243607,0.0934342195754813,0.186491568297495,-0.919506329534644,-0.209967110692977,0.539829484862525,0.136657506227493,0.128236536890423,0.124060131286974,-0.937032496419716,-0.189126518005932,0.390139084329785,-0.393687210928607,-0.0396311190986756,0.490150115024618
22.805,-0.750655549007389,-0.141714655022353,0.406749442154149,0.168128000184083,0.153401261374113,-0.0603125892045125,-0.93729349620932,0.000771768246155945,-0.156046462355092,0.105827952209079,0.20412382557682,0.190707155146871,-0.920116620302784,-0.198099778106224,0.515920289529607,0.119584316575588,0.111869154509292,0.13251536703028,-0.925844525938064,-0.189952823163956,0.39197984092657,-0.400854488368265,-0.03883181650076,0.481925940474593
22.81,-0.764402198015928,-0.10388396834284,0.377426118267914,0.239019345819774,0.293825966278888,-0.101990099839191,-0.936952791168386,-0.00338032734595602,-0.170643843071598,0.100394042230006,0.306152792300242,0.193200847769019,-0.919591846992817,-0.196703949595191,0.511864070397529,0.0893886212765782,0.0470829163981676,0.145967396608229,-0.924029055495915,-0.191151842348845,0.388617568192161,-0.404766279293746,-0.0401212155643591,0.47376381189382
22.815,-0.778416007175077,-0.0541410286639459,0.342915048602265,0.284305494527738,0.453862912622816,-0.116224680964966,-0.918892841118876,0.00590270279458768,-0.189303684721977,0.0919309342927232,0.434785522572094,0.189694654382595,-0.915583085789906,-0.197003931493257,0.510498296936194,0.0557953892271453,-0.0345361740459729,0.160450511112709,-0.921125885097708,-0.194261381140634,0.394352907317493,-0.407753765583038,-0.0381701879682283,0.463230688318042
22.82,-0.795653120751131,-0.0127396736837158,0.316725804209188,0.278284632104701,0.613549398841551,-0.109359298457477,-0.905751101117346,0.00344240290653628,-0.207293329100491,0.0829916481760214,0.560266313427127,0.192175086743011,-0.8997359560825,-0.189449012113881,0.50232460710565,0.0127083739561753,-0.126725036402931,0.171688039960074,-0.930276707126702,-0.188827650580823,0.394725521068631,-0.404556881222311,-0.0421558418938317,0.462432946367789
22.825,-0.804938751925279,0.0274187086237958,0.29734291108669,0.250918103005144,0.765091897506764,-0.0884512904345901,-0.893680724806488,0.00860896055616638,-0.220315652419616,0.0628506861561872,0.698372103284154,0.192647784948349,-0.874280508651938,-0.191182008196599,0.484027861501445,-0.0630987115313778,-0.19864362571231,0.181947575374935,-0.938428354072535,-0.188117344457322,0.390235604746036,-0.405160140153653,-0.0541050143082813,0.466174324819768
22.83,-0.821956501930061,0.0482163855468148,0.310259906411791,0.215370735868504,0.960033764450221,-0.0471912354563934,-0.885298500199356,0.00589307031944344,-0.241941927749075,0.0523480017127567,0.805278187190267,0.192647784948349,-0.847437863299657,-0.175502486505588,0.465509391204579,-0.133886848291565,-0.239891302661916,0.196453645476047,-0.942785006988546,-0.184333739900047,0.390428886172559,-0.413123586553042,-0.0493335853567157,0.470287592357958
22.835,-0.884490771851581,0.0461525646184655,0.354479937150391,0.188212057852463,1.08559425153845,-0.000820544045669831,-0.871716327179888,0.0108763119247834,-0.268110932007988,0.0190528404284412,0.91634902558855,0.191150391416416,-0.818528101559504,-0.167195819285842,0.4402209004617,-0.217627352555475,-0.281346253366254,0.212628951301664,-0.951173018195779,-0.171158782059652,0.392029563597581,-0.421454191531429,-0.0686215231376173,0.464939505132174
22.84,-0.955592770651088,0.0474871043680811,0.403497968548921,0.168234253831415,1.1914153808876,0.0578313511292693,-0.854301976186721,-0.00358921071820032,-0.315983109396168,-0.0480819416164273,1.04142645927338,0.186323654065838,-0.802027849015327,-0.152041756385589,0.439745722179899,-0.237784699933857,-0.305058749004721,0.229452483977798,-0.945747874335689,-0.181840259532255,0.38847469195963,-0.433977283284185,-0.0962137217948316,0.475749164019892
22.845,-0.970682200686615,0.0921752390067985,0.448110259383123,0.143942592914349,1.23277789916923,0.139999521024764,-0.847329654357632,-0.0298609312350224,-0.35287544929703,-0.0975119099357461,1.14565075986575,0.183361797369479,-0.796058840263024,-0.12345988325628,0.442034732798622,-0.209582502467601,-0.32527310307351,0.252069126892571,-0.936445732123024,-0.190467006815531,0.383768733999034,-0.362139393036652,-0.0943439206513362,0.521132768040201
22.85,-0.973146108357329,0.149536243552734,0.445557469511487,0.128502810276955,1.24136644324278,0.219526628637095,-0.848019485449373,-0.0450258930574741,-0.378616609368998,-0.137348167003239,1.27925794836681,0.175211088873408,-0.788187885517504,-0.10223253027506,0.427402250280284,-0.136306595142437,-0.303649565971011,0.277767668824753,-0.939990354431673,-0.178493720122751,0.382185568881373,-0.318570077419281,-0.129571547948392,0.538126654598325
22.855,-0.949338381667305,0.207044240274489,0.34669300291351,0.0446482482551879,1.24742030557592,0.36517208701953,-0.847404294195268,-0.0489751138833565,-0.373632336074395,-0.169340764499116,1.3839446731843,0.151135798489496,-0.770406811703382,-0.0806309401167798,0.399706767844289,-0.00825590628614945,-0.227989010397606,0.303298576449699,-0.942467024435964,-0.169006927293934,0.378824514553174,-0.321070427815019,-0.157892404078519,0.552050355962062
22.86,-0.907497151598432,0.210176949643768,0.28294212507792,-0.076197864313182,1.33470533779721,0.564343303448707,-0.859040371944425,-0.0591241782253199,-0.34416007025219,-0.205680978528462,1.45385707514572,0.156856271768889,-0.75917755728204,-0.0763919743048191,0.360323172867262,0.101964192071215,-0.111083795763142,0.314808253456165,-0.944127196831461,-0.165493325778012,0.380680117449451,-0.327833251312145,-0.198032296593941,0.558101892471313
22.865,-0.755303786114754,0.200876341456685,0.255244093171816,-0.20760774527484,1.46500744233666,0.808384713169626,-0.874685556330558,-0.0965173723460371,-0.267310567894708,-0.187445810237948,1.48928154169069,0.163563945186337,-0.751344085137051,-0.0781204545049173,0.278759109997695,0.272375635210639,0.0920758938725454,0.33738154264687,-0.934966751963305,-0.171999673735865,0.385536883102286,-0.327299727440735,-0.25169064940865,0.566453162572489
22.87,-0.512544707161676,0.143526549885675,0.280704857763096,-0.285996060485557,1.66425697798549,1.08831824301874,-0.934421944357684,-0.123447932627715,-0.0706739608556202,-0.167141260842053,1.49290500979656,0.141342037328482,-0.750778952202433,-0.0958865022934468,0.166251438914787,0.43627508017542,0.372116225669614,0.363194986284415,-0.93801988922135,-0.176621978036227,0.38571823138052,-0.265201380763949,-0.262766346870368,0.573809112210285
22.875,-0.0525526819516394,0.0692507551500719,0.326779090991304,-0.308664364225967,2.01087957349517,1.42938785244455,-1.09595606851203,-0.118290396313055,0.388100392254328,-0.0529149723042157,1.43618130956348,0.0966086496916355,-0.77438583601301,-0.128238345900269,0.0777591450729262,0.572647373879014,0.677813873767751,0.399665208714458,-0.936986280673212,-0.163025339174011,0.39612853804855,-0.22713579033486,-0.291499506271463,0.57839917062943
22.88,0.728191613033628,-0.00209904171403155,0.57348799541901,-0.186248897194175,2.6229786445916,1.71736457406669,-1.32385928617258,-0.0693589457962064,1.04401316432517,0.203959259134896,1.30202959552554,0.0583139013129324,-0.846052664299211,-0.166545626401593,0.101244090280371,0.619344138839504,0.764466943605563,0.458416339237265,-0.935309882698639,-0.150477800297257,0.400384109322447,-0.233296361637062,-0.331590937620328,0.569829003665198
22.885,1.23425457251164,0.0367935546902318,1.41451738708668,-0.70936875931646,3.45748537065932,1.75965010476375,-1.64515582334386,-0.0440271926516589,1.57611518737806,0.387324850343523,1.03157301926536,0.0102185831926928,-1.06997790419924,-0.225300195545354,0.286042074911114,0.584932479303539,0.44773236712998,0.582576144194614,-0.933759148536054,-0.135570806642506,0.396468772610963,-0.22164845772809,-0.361279778435107,0.559464138564036
22.89,0.0441637592771287,0.46131212271508,3.50169925615427,-1.99244737194678,4.55903631436025,1.23727233249552,-1.79874799022806,0.176421824527849,0.929853174080558,0.108235528162799,0.99176327000266,0.080300437420501,-1.2734048450474,-0.2465955297709,0.441838033734749,0.515115623700262,0.0993523301858698,0.653927888797996,-0.934379936817965,-0.114197828918693,0.395039767192917,-0.187833255834555,-0.39404661648893,0.529248193117248
22.895,-0.900383677948642,-0.669836486250206,3.74688866995431,-2.25580551682633,3.94761175427961,1.45141135168211,-1.70493218828634,0.365499086489238,0.39149447394926,-0.196333459075226,1.10343698010946,0.280081245791226,-1.62325140620304,-0.273788901393827,0.658764544336464,0.337701742286135,-0.395451084011109,0.743543920445499,-0.946710794757619,-0.0865143018615555,0.394858300347665,-0.186056526884908,-0.431963014436373,0.493239366618385
22.9,-1.52513329090292,-2.48419726553048,2.45415054653669,-0.163516656319867,1.41136985100041,0.732596973126086,-1.5036062097533,0.489340715983762,-0.0946799982021253,-0.806384976377567,1.26395938253977,0.439983660391447,-2.00239091844874,-0.245202860665141,0.779699207302017,0.0870854486084441,-0.619732936302829,0.755888300029573,-0.995577979754642,-0.0309942173893861,0.393936907317411,-0.244133802488689,-0.515156959448234,0.42729347722208
22.905,-1.67958268824916,-1.90185282014519,0.973263464978382,1.87764464111173,0.397342929926344,-0.653598010713648,-1.42457310176063,0.63939831533691,-0.526346801910942,-1.44261093498976,1.39606634373696,0.323342140894039,-2.18619033486553,-0.134384489623302,0.717718719534278,-0.181109757055488,-0.450334929381118,0.700630885539987,-1.07180556665244,0.0172455840877943,0.399431761425687,-0.327758377710274,-0.612229632385818,0.381199107839012
22.91,-1.82847261714793,0.226947978550494,0.0245644342651691,1.5163231947466,0.987546415744512,-1.00627337625017,-1.47436652966898,0.557072190896112,-1.01205945950701,-2.05113786976707,1.49588400303027,0.121115702117312,-2.01250506340291,0.00385884585504563,0.549835768718703,-0.503893048637241,-0.0635799616482829,0.652716019446762,-1.15607657217426,0.0407627283818485,0.400186583173095,-0.392393357696814,-0.710079433190595,0.380192314987755
22.915,-1.90896880889609,0.94230944983818,0.81825354617279,0.896908944560696,1.22978138922092,-0.40447554544473,-1.4156549639896,0.196945097120778,-1.09453696345457,-2.41502707846139,1.53456446398986,0.0350719842684887,-1.57683458699259,0.097952521381156,0.351267441636547,-0.993748286230736,0.374863080789061,0.666732858481891,-1.24650430807939,0.0523105418995432,0.396444957792958,-0.476090199900428,-0.794955647502206,0.407104293274247
22.92,-1.57653807039403,1.03332594383098,1.3162144468071,0.243107679787504,0.618323991853092,0.396888921328152,-1.30966979814311,-0.168256685164954,-0.814790907109096,-2.87984213799634,1.65710430332739,0.106633222335971,-1.22257960748661,0.0681168807463867,0.221133909439203,-1.42889509785488,0.650781495107972,0.778557710374525,-1.31629930343922,0.0312832262996976,0.384783089432092,-0.558041251962965,-0.848671419400401,0.479025129588924
22.925,-0.955587059443263,0.54677578790582,1.18985225414305,-0.65055339228027,-0.163942823200355,0.700654131888161,-1.33686132420088,-0.382827182830554,-0.29794942525337,-2.95422585974894,1.7619843349882,0.254926587058342,-1.03196107063829,-0.0438739633738205,0.123310946969089,-1.72058331561324,0.889834990813801,0.962219858788525,-1.33602321249727,0.00270069034360214,0.369432301305712,-0.595918884474918,-0.851487585301505,0.539473977210905
22.93,-0.37504103018791,-0.428900648827207,1.04560612581466,-1.17068958865362,-0.497796816705226,0.697335691541462,-1.30066113835888,-0.431841405312021,0.204104681459303,-2.84844601862581,1.67643433184272,0.325559482818987,-0.9980325483668,-0.154941822055982,0.0371281494103125,-1.73390390475207,1.07654656127173,1.11858300016175,-1.33017887981184,-0.0466936759238257,0.337043857087833,-0.648979972940648,-0.871534673069115,0.604068862367273
22.935,-0.218282486527589,-1.01192351661324,1.07762242387114,-0.997691483341274,-0.304995709056679,0.449162198659842,-1.07793700729074,-0.514439492199641,0.294624278663434,-2.51752860846632,1.51675579542223,0.297364814893754,-1.02601623285169,-0.270598234728232,-0.10610402499736,-1.54489854805519,1.2398379420077,1.20514966106055,-1.31861974049184,-0.0844832116807069,0.293608632749033,-0.704540908231299,-0.914990433098008,0.603313155520076
22.94,-0.262994756668188,-1.07111952041251,1.13728979680777,-0.346832476621707,-0.187218012402599,-0.075262349446118,-0.83515092467925,-0.595010439464367,0.0618718410805913,-1.8999818343055,1.4885505664215,0.369111265282723,-1.04829225634456,-0.319664402893154,-0.232995163559707,-1.19698129073188,1.3483232171408,1.21420237748937,-1.30763893481838,-0.122177017895078,0.236521841768276,-0.726122559848227,-1.02265940910375,0.559064733235186
22.945,-0.493753985163997,-0.607980198836937,0.932489814853825,0.229776574282127,-0.169711843697809,-0.352712774509013,-0.731705888598666,-0.584568873535435,-0.108157292806362,-1.30356107791021,1.53389796574622,0.464126699098756,-1.00454851481171,-0.329557599047568,-0.259667563673683,-0.877733011070068,1.33639409348115,1.12672044322768,-1.30987690124047,-0.132772929922005,0.16638214965748,-0.678887897938092,-1.16173095637038,0.473833522444445
22.95,-0.777465767272963,0.318094538402601,0.773408806670646,0.505149369528372,-0.0201043820502927,-0.0395860032386893,-0.683962138340632,-0.466251228194603,-0.221181980724983,-0.576883968754862,1.57262209296946,0.51474394746601,-0.932343419732529,-0.36100741910922,-0.241192207464387,-0.683394359669254,1.25833850562066,0.993429324917343,-1.31586654632299,-0.113922384894039,0.0874829760279175,-0.606516693179756,-1.26001363558725,0.355769207421675
22.955,-0.801353325025105,0.310032580684248,0.828073453284207,0.251587817268933,0.0013783949666542,0.196946006397404,-0.721560825334323,-0.311434860074803,-0.263973820033607,0.163076218509265,1.55825312990612,0.47994442244559,-0.789628798792163,-0.377897047755403,-0.186093757667455,-0.413207773638675,1.16780584728443,0.859460133980519,-1.34306871622626,-0.0719520074434205,0.0344953116731925,-0.51119671427926,-1.27915210031094,0.234957598717321
22.96,-0.724052275490271,-0.0749050519357848,0.91313997926271,-0.00970477807598975,-0.104022217741122,0.207985510273974,-0.809584485420879,-0.171243370724073,-0.256282314621626,0.566675600014959,1.4930560810341,0.414222202269473,-0.688828903153688,-0.331853268672341,-0.160882696171845,-0.0457196053913665,1.08099662928448,0.736992110668937,-1.35796084473532,-0.0204161743521765,-0.00113921290130704,-0.40281638282938,-1.20401990727303,0.150379763255813
22.965,-0.48583055201447,-0.308259418459946,0.917952825897167,-0.049806445301583,-0.187550064476548,0.160568204518389,-0.92038806284118,-0.0520884051941808,-0.204782183057882,0.832476848247068,1.37637471365379,0.364058335870301,-0.656807641883994,-0.240843080951036,-0.169937500344476,0.372326548914571,1.0247138931064,0.661984542576716,-1.35831984497566,0.0378214140504408,-0.0282270021250678,-0.274832869490275,-0.993246952809808,0.13813320579063
22.97,-0.354258138559819,-0.228660331515008,0.939131841711054,0.122499306173052,-0.182119962432448,0.101484928439741,-1.03258440228469,0.0699349577665259,-0.182757824363451,0.928853860083994,1.24830663259776,0.344581569478176,-0.684905386235613,-0.128832217953584,-0.195470636369681,0.813522203446124,0.984466503560317,0.606299054132286,-1.33644999205512,0.105187783160998,-0.02792258480931,-0.161534163543063,-0.742268138365096,0.18823318927096
22.975,-0.366864064268157,-0.0327292471509394,0.906737168651169,0.256524437931261,-0.113479841989899,0.0867710594418204,-1.13786194762284,0.192815499064719,-0.160025783744461,0.925874358211309,1.10790410671236,0.370030593129679,-0.760141463229504,-0.0257409360042255,-0.224357697244636,1.19610348014688,0.936596478182806,0.527460568429741,-1.29763479667329,0.154548052955135,-0.0125015908580605,-0.0930112197458442,-0.452321915905406,0.275730639106558
22.98,-0.410166281320756,0.0233676760727398,0.902496712471663,0.289943786049337,-0.0483824681969085,0.0749226338034521,-1.18989673090509,0.267878628381108,-0.139326346307172,0.875146048438242,0.984526524478722,0.388470279656577,-0.837127977879639,0.0486966226369504,-0.247175179998169,1.38176097131126,0.880257333052845,0.424216680404506,-1.23031837677171,0.179728802695335,0.0246349083993466,-0.0394729539407855,-0.170941073430837,0.369047659159188
22.985,-0.422674678630716,-0.0410810972110734,0.90524270623399,0.227361176638199,-0.0440030160749535,0.0366367059641095,-1.19831369525889,0.294509956728833,-0.135793366721948,0.786331822891649,0.910317173756667,0.365500985052519,-0.88769483483945,0.0986826300197852,-0.247916036968576,1.38512732139542,0.822575057849314,0.344218049019999,-1.16559532440316,0.179073325183432,0.0631236862479588,0.0213815196149286,-0.0158845981439513,0.403945811381981
22.99,-0.433147017010204,-0.0753515135435767,0.91278070167137,0.171610002294646,-0.0662251630564757,-0.00249805831976096,-1.15874185327915,0.305521943675458,-0.146770112854796,0.57519540736298,0.863725457483106,0.335038728107109,-0.955968036312284,0.192638103214497,-0.229226424152977,1.29246471104858,0.72729390577709,0.273888543041224,-1.08412939384118,0.181497774225955,0.124862579248882,0.113663278944493,0.0832185511529105,0.382403867805462
22.995,-0.445118472314906,-0.0852306730042405,0.902703604295712,0.100640271247369,-0.0989926902826085,-0.0242061587441321,-1.12052354420448,0.314288240349832,-0.170919742919266,0.327608103393833,0.855771615484693,0.322711639358548,-1.01093243860185,0.265321724526143,-0.207161191368514,1.20790291787606,0.665321672705359,0.260711282086527,-1.03270389920889,0.182071859182529,0.157924678892705,0.144276951924435,0.0900698942046884,0.338081616406474
23,-0.427134645960349,-0.0660810180309722,0.900617003265549,0.0284342308685597,-0.101586151798809,-0.0303676193295862,-1.08939193860477,0.320256725725597,-0.160484335297443,-0.0333676431252165,0.835855492899179,0.297148435980481,-1.13464441185539,0.411624514565356,-0.152761661887092,1.00356217706813,0.603399753390986,0.283132802436636,-0.978380786798806,0.201517726560971,0.195401606035123,0.164250234485213,0.056326009338761,0.265305800470341
23.005,-0.426541798512145,-0.0798620277643195,0.912142624060312,-0.0674067946069229,-0.100740665778109,-0.0318366459166018,-1.06188187920628,0.298153280599505,-0.133414943805671,-0.397904227810837,0.815747925279634,0.270441520953481,-1.18221591226022,0.476560238961125,-0.132959799568759,0.839980622194421,0.590304111992893,0.305391574908767,-0.920558058231614,0.210489992483751,0.2208658554137,0.132324236371884,-0.0483543333860062,0.205382586964409
23.01,-0.406267912390646,-0.084485899183998,0.917831533704704,-0.13121653598229,-0.0889240523429956,-0.0460165856419573,-1.05331474085823,0.250390901410604,-0.111166108639554,-0.764569443368855,0.775022552864885,0.23708347121823,-1.20662547099063,0.515231561703238,-0.117283562590822,0.54906767537392,0.606445754238864,0.32772655154673,-0.893752898659582,0.223123777896377,0.226167944673962,0.113498984091666,-0.100014965598974,0.192969411719734
23.015,-0.40341531336708,-0.100362531289749,0.920014853337216,-0.15896932497578,-0.0867565997439106,-0.0550501198790831,-1.03164585879209,0.177970505021797,-0.0851763627698601,-1.04369456488092,0.697447826158481,0.198332165721164,-1.22211241915227,0.484432009887051,-0.0973696284894493,0.224411449309556,0.631029560442052,0.308054127317035,-0.87222502329117,0.2427756940607,0.220851760094738,0.0291251506585102,-0.190474970611077,0.180598273873329
23.02,-0.410387401543974,-0.0999375517323521,0.912005566803517,-0.181847201802474,-0.0662975215286363,-0.0578307131787327,-1.00419554927121,0.0986879642121035,-0.0569246019643935,-1.25770114753564,0.62739230424892,0.177803149440059,-1.16416872359544,0.429311604493052,-0.0676938093639264,-0.0568223100054686,0.637930480134056,0.26520272427747,-0.8572988924403,0.24422221189926,0.208273389163409,-0.0495336352985573,-0.250659636103301,0.180598273873329
23.025,-0.423047089599207,-0.106106575892206,0.904496976221155,-0.221751993193036,-0.0629141448093987,-0.0605322963572312,-0.970971905526895,0.0229335667023265,-0.0530924209634498,-1.30296201330684,0.565072493644104,0.166065349790193,-1.13022683707749,0.341382818708772,-0.0219260389791793,-0.39098566878267,0.634999729787764,0.212259924182188,-0.851340522132475,0.245011494311972,0.190127328511476,-0.107392769006638,-0.287027484013867,0.176110254631323
23.03,-0.425805055191334,-0.111668967874881,0.9124873803219,-0.246842135614528,-0.0928261060356947,-0.0578885103832305,-0.958339930538937,-0.0212180935668859,-0.06237392752804,-1.238049731019,0.552376166837867,0.168696720718311,-1.08027273942408,0.230143862354301,0.0352131790110513,-0.790529721428251,0.625856563426501,0.202157848875416,-0.849586161717171,0.244400354309018,0.185810129028703,-0.150706752017442,-0.273045027211534,0.173903715997759
23.035,-0.407757287266388,-0.119712961472455,0.90565859702844,-0.255258307748821,-0.0969094882071211,-0.0719493746103591,-0.956327809903554,-0.0379081786040501,-0.0781105265165103,-1.09207879818251,0.536892179110158,0.175367081207538,-1.03580284186115,0.152427252698988,0.0595821242474763,-1.09612633182762,0.642631197642149,0.23867566821923,-0.846824848613117,0.245989894131786,0.181083431063509,-0.19021026047169,-0.239621698254034,0.169603019952774
23.04,-0.401840237723541,-0.122567820499184,0.901537313425556,-0.255884921326866,-0.0986784696578979,-0.0862121086490707,-0.974967738485342,-0.0327557108975098,-0.082174202848447,-0.932812684301677,0.548643760326874,0.198631819610898,-1.00746979788254,0.0542832088677675,0.0878002226561893,-1.29644349812377,0.701176468628249,0.292006005422389,-0.851910837631358,0.246554223329546,0.186330185486665,-0.217379633307279,-0.177888976798565,0.177792327072525
23.045,-0.397534601961048,-0.127605046062172,0.910780172962124,-0.234042798376231,-0.0890486217702602,-0.095798459835584,-0.999951817476538,-0.0181366044071637,-0.0813566099486896,-0.760915809696271,0.534112398482845,0.212422557802572,-0.995184481884307,0.00284564403884085,0.0986374033968196,-1.39269133745512,0.759514791742839,0.326383957024727,-0.853132867317158,0.249554731457367,0.197245599553259,-0.220041000167361,-0.150615800135365,0.192689533115439
23.05,-0.411153487178533,-0.132794413528296,0.913852533381744,-0.185452652752266,-0.0734096552706778,-0.103178036992818,-1.03028457451907,-0.00751133368247358,-0.0656534353737024,-0.513236298535181,0.507698613451464,0.227384651835526,-0.985498494559555,-0.0395404333032509,0.112594958585886,-1.37344086669373,0.814443654937185,0.34743884316282,-0.852431419252435,0.249173068919334,0.214812275109271,-0.227949074143267,-0.135618758437254,0.224004744336137
23.055,-0.409380793317124,-0.129786687261315,0.913581670932995,-0.147838018759126,-0.0631757764706532,-0.0936856418848038,-1.03565657984487,-0.0038673693393465,-0.0561793947158713,-0.360033784997706,0.477970638430117,0.230236712368341,-0.988827661122076,-0.0716814975431593,0.11600406764408,-1.29915584721957,0.855550752929427,0.335909001937975,-0.864053395938924,0.247595490748888,0.232600732685003,-0.231246717737384,-0.14444514646417,0.255602993873508
23.06,-0.40453134188553,-0.119684213603083,0.913632342379968,-0.11162746664759,-0.0388836606192777,-0.0902340673646563,-1.03541880104283,0.0188229822416946,-0.0452189647478822,-0.157086569137694,0.457052324860695,0.219496486740854,-0.990691424313549,-0.0885373157466736,0.112158211442285,-1.0982866333008,0.880202711781282,0.295681054619055,-0.882175799851917,0.237037066082303,0.257763084463771,-0.241603329777718,-0.175980783311422,0.291735557736245
23.065,-0.392329686512165,-0.111766416954411,0.912155245902421,-0.100590322883923,-0.0308383052197459,-0.0932258559138373,-1.03519643919742,0.0525602167228053,-0.0438180426367972,-0.0521828175253416,0.466162398979658,0.219294559809634,-0.993882431619269,-0.0941320098664039,0.104824517463589,-0.891889427281143,0.903699819281753,0.242300665180953,-0.915403397063109,0.214664184824354,0.27218688983895,-0.238041300183394,-0.227883869300521,0.323899399316262
23.07,-0.403804530823561,-0.127059776508036,0.916783558195507,-0.0844534209180984,-0.0241550952196121,-0.101236834088509,-1.03237642031196,0.08776407016195,-0.0525014700758571,-0.0184293099138748,0.452508020983383,0.200907089373824,-1.00640885918996,-0.0793738634942661,0.102618681840321,-0.623749141883438,0.916439434504308,0.179566603296692,-0.934808522544108,0.190166291912448,0.296793957254416,-0.227781451751036,-0.307307941011005,0.349264101156404
23.075,-0.403257210890689,-0.124525291057762,0.911117610634443,-0.0755542862109106,-0.0201330510465478,-0.101999525572735,-1.03106654105529,0.120949388583145,-0.0679577322743201,-0.0406568617337514,0.436230225467967,0.18102894346771,-1.01173086921942,-0.055928788128534,0.0956014041772922,-0.434745904396002,0.901477369509993,0.131135999778824,-0.971283139370623,0.162056721361125,0.315715412059272,-0.231829777359962,-0.390331536029346,0.366481683431215
23.08,-0.406876028827143,-0.110506651393749,0.908029709663069,-0.0787672676921155,-0.0265590088611047,-0.0968738887594581,-1.02910170247055,0.149146580928915,-0.0758688213400523,-0.138284572032166,0.43309896116203,0.161770973339215,-1.01326886705313,-0.0171197362963014,0.0869740029332561,-0.253977601731741,0.8872393723347,0.076168774365207,-1.00506915767014,0.143436974602805,0.329022928626674,-0.239044656094767,-0.457405182540748,0.381298586868092
23.085,-0.407429445957189,-0.102323180130674,0.910993317827998,-0.0929642273157456,-0.0198684202064223,-0.0973507240414619,-1.02117932505736,0.154933102523893,-0.0686942714248358,-0.227045473415146,0.41035653635523,0.132795240904799,-1.01649389935823,0.0211550348303433,0.081579992263176,-0.147618505615544,0.880155245855302,0.0392480357866583,-1.0430202038885,0.115493291607755,0.338930589203153,-0.234327549532026,-0.524853651925951,0.389401918464373
23.09,-0.399837656922036,-0.104240558172287,0.901487744410495,-0.119124159515881,-0.0304721862884284,-0.0996898054673314,-0.999267779870467,0.134394423594589,-0.0636089918116337,-0.321187726806782,0.399922118969792,0.112736157366036,-1.01511791576408,0.0484569844998623,0.0888991613708192,-0.108391142613956,0.871314490026902,0.00913917407477112,-1.0645282399825,0.094595945442583,0.336402156296024,-0.21203125387987,-0.54483650556212,0.382888273740625
23.095,-0.398696249762162,-0.108901792309112,0.903123304885741,-0.147143117096334,-0.0167400042222703,-0.111129099138578,-0.98559758230013,0.0951213971107639,-0.057148298721263,-0.400527913297317,0.394446483293726,0.109678430089403,-1.01057084785236,0.0658857133066815,0.0958042388746902,-0.114695583856318,0.83932436974893,-0.000720702888220312,-1.08449137643408,0.0736048707437237,0.323443687730098,-0.188875347854806,-0.558725268606569,0.356306121590201
23.1,-0.401771196257329,-0.110556341892385,0.899746977063978,-0.176803862105012,-0.015603244304657,-0.12729620958679,-0.989188591800569,0.0693904214098913,-0.0531723317698071,-0.436435032582447,0.388147395272197,0.118630814131966,-1.00250866431952,0.06061822552049,0.105014666955742,-0.156000848657998,0.816309673169909,0.010941968216082,-1.09318860776373,0.046185167937274,0.313241066493828,-0.180668582572093,-0.541286003530804,0.319883510185429
23.105,-0.403114844030118,-0.111361952213532,0.903160154179514,-0.208225521590885,-0.00815700559352074,-0.134291702154169,-0.988925967802134,0.0432638183214121,-0.0560119779426635,-0.431235004050357,0.374833027663869,0.134006440639496,-0.994939006227294,0.0522954355620909,0.118054422797843,-0.193764604537835,0.795581603019813,0.0335765907797336,-1.08558343543446,0.0218996589348955,0.288135875119335,-0.13897106280452,-0.501244873928843,0.245216737418689
23.11,-0.403320640520726,-0.11678463817679,0.90544017992167,-0.236092298207617,-0.00512298712816523,-0.142230100343028,-1.00364821285116,0.0271947690870187,-0.0565566513604901,-0.399593514755263,0.363008772678311,0.138366239462015,-0.987291843277463,0.0304103800945399,0.113377241347669,-0.205469333202483,0.781388359775491,0.0471864697671476,-1.07449115797724,0.00904195622652014,0.266014817264073,-0.10927406551677,-0.479724743561353,0.175788973335417
23.115,-0.403741058410956,-0.127650117986945,0.907956267788261,-0.248721372312926,-0.00137550128553667,-0.149450990854679,-1.01367492917131,0.0274867062803825,-0.061107440278209,-0.335036211821072,0.350043962792623,0.147305156792502,-0.990167758034801,0.0212285170701595,0.11360722401453,-0.165595969785404,0.790746450248803,0.0535948263229363,-1.06256249885321,0.0086175562414244,0.253809742092058,-0.0799022734489737,-0.449004089683424,0.0954834602071734
23.12,-0.409056188358139,-0.134240205673514,0.909046430774913,-0.243038908731291,0.00318679241027549,-0.146258610989386,-1.02571759108399,0.043169049743758,-0.0794641446591585,-0.242552684223274,0.325835026777236,0.14622338116169,-0.990319332695854,0.0278561583547083,0.0979868175812246,-0.114451598359061,0.809417938096652,0.0707181013478751,-1.04738638854896,0.0240158761182173,0.236481397588338,-0.0494925190431564,-0.415046117935471,-0.00265326785463845
23.125,-0.411715819934007,-0.129895665019726,0.908945401802714,-0.227109641435541,0.00362731386308024,-0.141271389764082,-1.03004096324047,0.0544038104215432,-0.0952064651451596,-0.15458081992903,0.302815171335738,0.145801784287841,-1.01061170879523,0.040776190306961,0.0884466701134531,-0.0657609045931636,0.825851238414866,0.0920382099038017,-1.03960969605836,0.0451455793638621,0.221752281177155,-0.0449107939221236,-0.400183546555775,-0.0697388877099887
23.13,-0.409608508320479,-0.136089938743075,0.906690317024448,-0.20783665446052,0.0167781992793484,-0.140110030770302,-1.02339328157845,0.0737254714840515,-0.0880851555748711,-0.102137964804004,0.294336610512824,0.136328216221919,-1.019329946435,0.0528553040696621,0.0683783695289379,-0.0458117485770958,0.853449387914544,0.12905550523412,-1.02981620136592,0.0668378057301075,0.210700378865309,-0.0669384211649151,-0.361967127796321,-0.114271640672179
23.135,-0.408593555981985,-0.136875092793654,0.907964350900515,-0.182307883866467,0.00836727904338259,-0.129549944041594,-1.01633915350292,0.0883282586346177,-0.0809906548773442,-0.0844166883861974,0.284488045514922,0.119462215307947,-1.02840622401725,0.0666596176536334,0.0566019838617548,-0.0533274663979599,0.869504427687236,0.175597640406386,-1.02393303166747,0.0919329870361606,0.204947919289021,-0.104523351556534,-0.307846723120496,-0.14010862789834
23.14,-0.404119342820453,-0.134903102626847,0.907753543331664,-0.161884426530742,0.00322639842877866,-0.123488324454639,-1.01183530680321,0.106994995946807,-0.0852546416528129,-0.0628995773918436,0.271324747293569,0.104863879813817,-1.02655110510808,0.0684229706002497,0.0515721530051995,-0.0590222096261427,0.87214097234172,0.215354180648587,-1.01147147835859,0.108474765750405,0.209224505490086,-0.145762943161146,-0.236519921072105,-0.141483814189
23.145,-0.406018262791251,-0.136107321027413,0.907094937316601,-0.139021961842331,0.0129890545773525,-0.119037735568484,-1.00347981526519,0.110339522300983,-0.0897464989463324,-0.0569081353506933,0.264727604472249,0.0888243620615804,-1.02423256320548,0.0588160040633017,0.0554159969552603,-0.0997913521578743,0.858356533912493,0.239762050972667,-1.00225246229419,0.122175416446489,0.213649951968428,-0.182821363925525,-0.157459286734141,-0.127509352212588
23.15,-0.404044588971211,-0.136096781147073,0.90131921347278,-0.122427085190501,0.000420765850570799,-0.114937337455187,-1.00122796277474,0.112141966540187,-0.0837974770445025,-0.0658822601387305,0.248080518810764,0.0645463672138779,-1.00780033230904,0.0457640483389572,0.0547853039022904,-0.121954590128501,0.843209814481605,0.247267529414733,-0.981619273297974,0.137482116242575,0.224271374510313,-0.225641080067975,-0.0649726702756921,-0.0976255267458594
23.155,-0.394916756783167,-0.124275409559619,0.901235979031603,-0.125565301199082,0.0106421888194539,-0.122020549786967,-1.00182176422308,0.107397949710196,-0.0676348437802034,-0.0829918940933003,0.241348103875764,0.0581356792062364,-0.997390925084012,0.0244294441092141,0.0536803281779968,-0.110531826926303,0.82851143346987,0.23796240577134,-0.966408534985849,0.151065122211357,0.236443936840426,-0.252672803444208,0.000120393500438395,-0.0683288413012106
23.16,-0.395193141912828,-0.129398351820037,0.900019891145035,-0.135708912336019,0.0181129384980687,-0.122275878097009,-0.997237700197052,0.104164141337326,-0.0659367967566779,-0.123105588431606,0.238582169440829,0.0491029871612687,-0.979647936936288,0.0018082742890432,0.0639066803545705,-0.0572883953778388,0.811734143061703,0.216603901689874,-0.952458236730989,0.154487812538861,0.252570380872698,-0.281676242233941,0.0427907387202955,-0.0321703105028539
23.165,-0.396890392192882,-0.135333707789501,0.905057730541567,-0.137989703254941,0.0176070543323327,-0.135223254561424,-0.992688877276736,0.0897494966679582,-0.0706897932330485,-0.135411499958049,0.225542720460177,0.0461779542658736,-0.968698763783791,-0.0216488408802935,0.073181327112693,-0.0047995877851527,0.794483603707987,0.18555908706257,-0.94128462008132,0.15755806031944,0.264959135053786,-0.315762794700657,0.0660459534182872,0.0128444505625129
23.17,-0.397864341253587,-0.131866345750038,0.900238077867482,-0.151010566953982,0.0185147629610408,-0.135223254561424,-0.987152774315805,0.0863115306293259,-0.0837382175638519,-0.136876012755859,0.205599192904008,0.0513045945328916,-0.963736017634897,-0.0337136679269375,0.0721979258945699,0.0992287960026251,0.774476181696403,0.165893605449778,-0.927399009760478,0.157403085781453,0.280321827371898,-0.347268638626771,0.074145996210093,0.0637664246869775
23.175,-0.399244782984424,-0.140072333329424,0.897841995631491,-0.15774461017261,0.00690312390462994,-0.137793291543107,-0.993216807736598,0.0650982527068716,-0.0814878831772514,-0.148394263107204,0.186207255888149,0.0556368248286474,-0.963463248103077,-0.0469241586150856,0.0715414319441256,0.249913154900936,0.766592342758452,0.142414057914694,-0.921964517966957,0.163149940126573,0.295695803978499,-0.376368675048543,0.0661930702036483,0.115384700541927
23.18,-0.403825801548205,-0.140108069412111,0.903609862814746,-0.162534686531365,-0.00146395128974189,-0.142951259734943,-0.997850149685218,0.055352631382744,-0.0725744973936883,-0.154623251468005,0.173191625565228,0.048521367429558,-0.974447133929946,-0.0432159393672195,0.075286428047307,0.405480944434713,0.758707888625676,0.125525312115476,-0.917692908455121,0.174152094775911,0.3068238335135,-0.414583576967824,0.0503384383715076,0.178617305206302
23.185,-0.394375300348118,-0.138055135929647,0.902190162544283,-0.174250536589403,-0.000428830598616798,-0.137740081390718,-1.00342306052868,0.0524868535624441,-0.0630988834487268,-0.14494166259442,0.154675651617046,0.043946121764631,-0.9952331061088,-0.0335926617919846,0.0763452501574903,0.478321120445591,0.749252600781022,0.118938470024212,-0.917577201100484,0.166295920741514,0.323186620339151,-0.448375728608427,0.0496113801803385,0.232791099078235
23.19,-0.39382492857755,-0.140857899878461,0.905074461617299,-0.18263104557991,0.0188026390095336,-0.138843290220683,-1.00482440127648,0.0611570963459458,-0.0543078174174123,-0.132784779450475,0.157745505538491,0.0470159880279778,-1.02108756983079,-0.0203788193997374,0.0740919923379982,0.58357973979877,0.726488406397876,0.111698493230981,-0.918610036177987,0.163282232889123,0.333526434700191,-0.471661565199511,0.0375576876879848,0.293054059738911
23.195,-0.387238815043651,-0.14155893531118,0.902497646531493,-0.18263104557991,0.00404734704779781,-0.130284735094074,-1.00817255432169,0.072159276222144,-0.0521368060136904,-0.130869212158768,0.151098160343037,0.0384279291306927,-1.03919883282697,-0.00139277554668005,0.0659655942868666,0.653838740863704,0.718555766703852,0.106115586154913,-0.917862393289858,0.151541097872284,0.344252793651674,-0.484505927695391,0.0351596103866728,0.35231583890955
23.2,-0.391851054283668,-0.143417669543649,0.905478284163524,-0.181674426213347,-0.00317887178947825,-0.134854458045306,-1.0012048725519,0.080845705477837,-0.0543188530011525,-0.118665906997751,0.156061994833204,0.0368332364247105,-1.0513555335762,0.0232238784596386,0.0611587168420083,1.39150311152941,0.707478684310554,0.0192384519784296,-0.917275288419266,0.139251546200213,0.346694127290221,-0.489183739840908,0.0315982757208093,0.389312066874522
23.205,-0.396770990651006,-0.13715039478732,0.901917883672147,-0.182499553560551,-0.00129354598361932,-0.137841965001937,-0.99837950162128,0.0865274341919773,-0.0625927573626085,-0.100649774997289,0.161602704287856,0.032605804502964,-1.06077772288443,0.048475984415947,0.060221354856369,0.746601725790767,0.693302331490504,0.0467849410431685,-0.921573664656884,0.137141564180392,0.356028129322201,-0.483042538137372,0.0269372428568282,0.420263846003254
23.21,-0.390356622983035,-0.142130606352178,0.903940385333142,-0.177956718698482,-0.00869799354740124,-0.141544181600552,-0.997453673567256,0.0863966551770922,-0.0660207963015458,-0.0804991709473193,0.164385778428346,0.0308118343165905,-1.06470546644897,0.0716958561004438,0.0677966712662263,0.734450254598993,0.67502986666146,-0.00691873354536857,-0.919216371262989,0.119783972330652,0.354141778727231,-0.492050677537918,0.0378714029179911,0.440754105427263
23.215,-0.393628060413389,-0.151822902150629,0.903436672815971,-0.166709635885006,-0.0113166598189625,-0.138227469724736,-0.996806739113035,0.0754727998152627,-0.0559724838734863,-0.0527842322340734,0.172518180011074,0.0237783159417042,-1.05624804508999,0.090893434474468,0.0724395727707846,0.693653297345693,0.658318515330442,-0.0507871577089196,-0.923101334174711,0.106882092647713,0.354973008116408,-0.486269684142729,0.0359016718702387,0.451762487358667
23.22,-0.394177276556408,-0.150996740873612,0.902588417594313,-0.155598697048154,-0.0104063423847201,-0.139576712259786,-0.998961755612954,0.0654884928392001,-0.0589037021399174,-0.0206781121637564,0.176344670686195,0.0225926253875714,-1.04554958133069,0.112511303791035,0.0790684310449691,0.576480885545277,0.657660920631309,-0.101985376849057,-0.924106553368752,0.0857008343314745,0.355640249199499,-0.474062521255182,0.0210844088996968,0.449123699676502
23.225,-0.402080285508713,-0.155780167577647,0.90551390906904,-0.140526475831308,-0.00443790738710232,-0.135166559998589,-0.998670500177448,0.058795651297727,-0.0686219198287302,0.0323420605810591,0.178230132641568,0.0209426380919432,-1.03495216465851,0.132820914361648,0.087526471742468,0.51149949533892,0.629893783004076,-0.122176546134454,-0.932983298575673,0.0742838010044442,0.35374375465502,-0.463080451998556,0.00614084968975432,0.435520510667688
23.23,-0.397555358769297,-0.155979763876536,0.899318495569209,-0.127127384586725,-0.00304180968864806,-0.133301916754696,-0.99548548409071,0.0602230125613353,-0.0750895193584188,0.0725267025845597,0.169351002281726,0.00795324565615684,-1.02545905314113,0.149517261951179,0.089610627658875,0.369914059213132,0.632900232254909,-0.154712002382647,-0.93468511971302,0.0649023577075563,0.349282906501242,-0.452975185613909,-0.0255985481360704,0.410407923811927
23.235,-0.400998899125661,-0.149535806937948,0.901492736890016,-0.123419480058142,-0.00501568747917761,-0.136118503144958,-0.993481739142513,0.0674662229209541,-0.0800128919336819,0.108625109620227,0.173521310246844,0.00384508771811033,-1.01790465260187,0.151789348229002,0.0854565944704279,0.232030224983664,0.636867625268579,-0.183356797091992,-0.932269720970284,0.0534720599926129,0.3417820811101,-0.442066423290238,-0.0433095697370306,0.372056503221898
23.24,-0.400532525745427,-0.147034848633038,0.899604497710531,-0.120120363612949,-0.00990327759587963,-0.134306024283139,-0.989773806741464,0.0673265684849263,-0.0774908477556618,0.133653121963465,0.179253933815385,0.00132989706283292,-1.0062652860463,0.149296168540944,0.0785788350135408,0.106243877926702,0.640614926815033,-0.207668062932165,-0.932995646108806,0.0433449019059324,0.337597923626731,-0.416396338971739,-0.0592804402828558,0.32682567634681
23.245,-0.402298619493463,-0.144050892960273,0.899002771340341,-0.120441844960428,-0.0119967717032002,-0.134177403361015,-0.993905562096708,0.0773462550014499,-0.0714035002910528,0.145309258511275,0.179573845460899,-0.000311230055969152,-1.00171583523953,0.136898285090559,0.0766811497791166,-0.00905758553592717,0.632817510446668,-0.229553838550875,-0.933580527954779,0.0410037136741996,0.335583717497109,-0.387354254472444,-0.0650982597653574,0.27539410965498
23.25,-0.404162659212722,-0.152219136227471,0.898486970012604,-0.121724819206996,-0.0145507664427522,-0.13731891298459,-0.990508374427337,0.0798890234689596,-0.0710300482519725,0.146667588104894,0.172297239081543,-0.00131080664910559,-0.999172288986871,0.121858634750143,0.0713342277136087,-0.120800128017905,0.627176284790039,-0.243194275138893,-0.932266623094634,0.0357906922979166,0.328350063060497,-0.346392705639632,-0.0780855476881264,0.20610154046625
23.255,-0.402557446732356,-0.153318386277929,0.901060988565808,-0.128337377771387,-0.0160678170916292,-0.139083364268109,-0.990597588608042,0.0924546251359756,-0.0783941695232107,0.140423204478208,0.167339321426648,-0.0105834007440305,-1.00395319094522,0.112761199441158,0.0769862984767265,-0.197767435911973,0.621558722530667,-0.254644460687744,-0.931322155555043,0.0373099443301223,0.321165328430831,-0.317873686558218,-0.0937849783174453,0.149167420965979
23.26,-0.401498283819062,-0.152791782620469,0.898782215337144,-0.128410795071292,-0.0192539529460158,-0.136459322128943,-0.989725203927089,0.0964052690580914,-0.0749536923794405,0.120815377028461,0.162123681011331,-0.0138185899704695,-1.01035165796131,0.100654241960033,0.095510693812341,-0.291550574060713,0.606270040784234,-0.259731701133099,-0.920792891779917,0.0431769208246159,0.324169072892505,-0.28006551448887,-0.116811023177173,0.0771512321415339
23.265,-0.405197769006629,-0.154844173591241,0.898015838683985,-0.128765471001866,-0.0195458355443964,-0.136444941163063,-0.987360834698811,0.101360840838711,-0.0735758345121211,0.0895504117032856,0.164169619004824,-0.0223704520612955,-1.01986978660719,0.0758235632851086,0.118585919644537,-0.356621199543271,0.588025177892556,-0.266313402850814,-0.918645982806777,0.0486651726722604,0.323731242919666,-0.253733373890191,-0.138608464351041,0.0318113292052302
23.27,-0.399009340718402,-0.157669547585081,0.895606032956195,-0.126081732159924,-0.0253767967224121,-0.134688146514052,-0.991759719778821,0.0935946720488586,-0.0675701298943808,0.0650885638974947,0.16677676840577,-0.0267232843266772,-1.02397040076853,0.0615211832813597,0.131514439209987,-0.414797433305785,0.570253307896276,-0.263349347998946,-0.920995806379033,0.0502809897626517,0.325102274484649,-0.207010741386986,-0.184434424314906,-0.0413077603611024
23.275,-0.397874253895163,-0.161907427810037,0.899470746755582,-0.123869114178757,-0.0173231142677203,-0.131007614464112,-0.989147076297908,0.0884852818174308,-0.0625501323670729,0.0182093283200815,0.173621816180725,-0.0411218368153774,-1.02373249577846,0.0386127811439983,0.132848032797648,-0.453994695165034,0.552668642107496,-0.266678720712662,-0.931725976488717,0.0524439650326727,0.332975187472136,-0.172437064409138,-0.220284940895534,-0.0915448442852354
23.28,-0.393504078950502,-0.167265290665083,0.902456086703951,-0.115034901518038,-0.0203828409085539,-0.127691615829076,-0.995538744494327,0.0782568602221737,-0.0598667419779867,-0.0100183859039316,0.181206092145784,-0.0404529411324583,-1.02233201256494,0.0131741504194344,0.124900643441431,-0.481189910283192,0.538862068285187,-0.265674374874675,-0.943210418768076,0.0606154321665009,0.346230776654921,-0.11368914035294,-0.289902731010542,-0.148642902683722
23.285,-0.39477660509568,-0.173531297370273,0.904710960293957,-0.107600265048606,-0.00659078664100953,-0.124143432958699,-1.00117177462773,0.0602469526757112,-0.058691945915093,-0.0163356383823487,0.18310446567189,-0.0456388874408697,-1.00751816079681,-0.00343685643127958,0.108603057085928,-0.522882626814922,0.538038065700275,-0.27451297670896,-0.95554912270609,0.0716790349288297,0.353860196384474,-0.0806107550593914,-0.353515892639827,-0.181767009848883
23.29,-0.394442959398414,-0.169369973093994,0.897206295143738,-0.0915593031901018,-0.0275055103266684,-0.11926723188738,-1.00749996067885,0.0486695325441446,-0.0561139481865531,-0.0243197705090758,0.203452417204978,-0.0431207661127466,-0.989863219853731,-0.0213070426724261,0.108064573437187,-0.556690565933675,0.52326956335989,-0.280952725160051,-0.961971837903621,0.0762605083521246,0.365656283084523,-0.051482909007189,-0.405830433010306,-0.20543290077778
23.295,-0.392686152435434,-0.174531438919504,0.899501190248092,-0.0810277056234365,-0.0285070338327536,-0.111374874029242,-1.00387719023915,0.0371458650008025,-0.0588274224766212,-0.0039642398191828,0.214483846438356,-0.0404768773603119,-0.976432599391645,-0.0339137792042765,0.120027955789893,-0.551283814875281,0.508312811032434,-0.280789006786975,-0.965101747865408,0.084581027395151,0.370362999275256,-0.0365758413720568,-0.458008054388751,-0.214481441215218
23.3,-0.392221725649467,-0.17541256026138,0.901376144651492,-0.066751455837938,-0.0293043515769695,-0.108870927606911,-1.00275524281296,0.0276679061355481,-0.062872126884713,0.0158381712464559,0.214153415668168,-0.0487429728741692,-0.961663467428054,-0.0484955435114321,0.136389445939027,-0.512492833974717,0.475083581567356,-0.271376919765441,-0.965354901519004,0.0838717050505193,0.373834981359608,-0.0207441937283687,-0.494664704677077,-0.219700464721205
23.305,-0.395996865552374,-0.168502932292927,0.898725398235824,-0.0574811362696368,-0.0326472880951367,-0.0937453151893171,-1.00581031845171,0.0281348996282915,-0.0620039409883264,0.0469424606343873,0.231297343969345,-0.041184029010649,-0.961516101417781,-0.079611234119622,0.155913431841748,-0.48119929708447,0.469118499336735,-0.26045759277354,-0.958237864995658,0.0870570139047103,0.367828695238745,0.0113954752247276,-0.510691435701135,-0.204458813652903
23.31,-0.39407347975548,-0.167337962717238,0.902892918421531,-0.0448661539132885,-0.0307663405362065,-0.093110009961192,-1.0007790973008,0.0316261262769199,-0.0586091367787709,0.0886585920262801,0.234618905419579,-0.0510930422160249,-0.969255088118369,-0.106673883309296,0.163254166699246,-0.428777074834495,0.47812956571579,-0.239156225316422,-0.95200680042862,0.0891173005907656,0.360233844959592,0.0463729168447311,-0.514724510943007,-0.192001982015492
23.315,-0.394879319037514,-0.161684445594658,0.904048131700807,-0.0356096134230268,-0.0256392417728572,-0.0860767511806503,-0.996039924957306,0.0370579858797991,-0.0568398028208095,0.119882904354988,0.254041298084967,-0.0477540877996875,-0.981214797227349,-0.118841137994826,0.151419954583987,-0.332140184378428,0.490893264811635,-0.209148064468327,-0.944410330918876,0.0859740056849525,0.354345236942872,0.0264949272486126,-0.209342906627212,-0.174099134391534
23.32,-0.394287974239479,-0.162430375397286,0.902343550661719,-0.0294352068635354,-0.0248850082932227,-0.0858636816917175,-0.992340300907139,0.0446183812396005,-0.0589859822495169,0.135736390125035,0.28081214637911,-0.0399452558264099,-0.986882638279265,-0.122012011705731,0.142999738844508,-0.224446421880839,0.516289853172314,-0.176618839488768,-0.93343077301809,0.0885616470774397,0.344546213625331,0.131618034949687,-0.398896127530374,-0.158983197489139
23.325,-0.391972223523892,-0.163666414573234,0.906841932625759,-0.0258875551178691,-0.0191766737963052,-0.0848130178181847,-0.992691639456005,0.0566804647651659,-0.0677999277083942,0.148945457250496,0.286905899128241,-0.0392634074183889,-0.984148241434076,-0.121055467960118,0.130187657553049,-0.104778848144652,0.518348959631886,-0.135601273925211,-0.922172209846709,0.0775376785782061,0.329502111734992,0.175409707854943,-0.450519241150203,-0.162355762897649
23.33,-0.400492653232724,-0.161572861857844,0.902575989840976,-0.0164805799722672,-0.0171745547209786,-0.0751834288409921,-0.990928865860481,0.0567108386037961,-0.0683147523668593,0.172464657595976,0.295812785823612,-0.0398132348571834,-0.984945581430982,-0.102833997611793,0.125660745262938,0.0452896045532209,0.514104691298149,-0.0940041101639942,-0.913520916320843,0.0742928128099649,0.321969394425367,0.222552947625521,-0.41906682876429,-0.176923723435201
23.335,-0.399114621460086,-0.152355273555738,0.902736425237126,-0.0178056100182188,-0.0180466324090958,-0.0683825589288145,-0.98954888888782,0.0620757992993325,-0.0686165584640751,0.181753185156254,0.300539090903726,-0.0444894596350786,-0.979904935499951,-0.0809373014585259,0.126077485296292,0.163854486596234,0.506040855453778,-0.0558457534048274,-0.899616843250729,0.0690424359256767,0.312384169119218,0.314592039432381,-0.374729208852759,-0.203435470060345
23.34,-0.39938733134597,-0.151887754248093,0.907175439814637,-0.0179534093991267,-0.0102821511504312,-0.0675277811377551,-0.9879533854235,0.0692669722124661,-0.0704677694199622,0.170759524945704,0.32959745643642,-0.0455991424211576,-0.975027756963482,-0.0628823826921075,0.122080005667156,0.285145513140664,0.50701948357228,-0.0147168556649571,-0.889761896822289,0.0711620509826877,0.309329760045498,0.401293241839624,-0.335716033809414,-0.245623348315982
23.345,-0.398049987674086,-0.147968328713482,0.907423803628322,-0.0266105190399496,0.0114265846614018,-0.0665707690372726,-0.983308874850183,0.0745719479680273,-0.0725767885627175,0.170823531037921,0.326417957593064,-0.0505394307718852,-0.969217273755505,-0.033772772431377,0.128208710583773,0.362116239042121,0.495983721027426,0.0228700663707758,-0.880710633580108,0.0783079408167438,0.314870190504147,0.464625403017179,-0.291143432961107,-0.284574503956368
23.35,-0.395979823011597,-0.15195055293154,0.904929583400219,-0.0335843004286289,-0.00915599716531333,-0.0615828105389768,-0.986284136017014,0.0815658305407318,-0.0740521345459311,0.164917708208366,0.345443768211362,-0.0523913345459258,-0.976513649769589,-0.0207771483558838,0.125545638018548,0.407965097980047,0.487340165877917,0.0566930887601177,-0.869337002849181,0.0855865148989142,0.323820957279498,0.56107645379962,-0.234712099738239,-0.311946989328732
23.355,-0.401276501968895,-0.158390669683994,0.904514050776784,-0.0355787532905805,-0.00627862033707836,-0.0613647001176042,-0.983491535514415,0.0846376026860951,-0.0750817744398171,0.148671515541722,0.354536070892756,-0.0588688878392028,-0.983497160065334,-0.00662768635781052,0.113101152898887,0.458644069834179,0.475716012595875,0.0807208992966713,-0.850942894806162,0.0876653577120451,0.336375337589995,0.635903089434728,-0.187103090529353,-0.32982827952098
23.36,-0.403867539693935,-0.155737970804577,0.91026329367458,-0.0382031620189801,-0.000792902451652086,-0.0581064870598781,-0.982738084620312,0.0915615387919158,-0.0794978837495282,0.12601488456895,0.36896952323543,-0.0646165437589237,-0.992843232716519,0.0154206436227246,0.10717936039839,0.522858355971488,0.461165622848562,0.106080697291752,-0.830475228036372,0.0895130310794321,0.345390916851913,0.705154802709174,-0.152209588363648,-0.33696337122859
23.365,-0.39759557179465,-0.154633476408606,0.913451792927547,-0.0409812181185021,0.00280561378726539,-0.0472278688604467,-0.980186031196538,0.101321647775645,-0.0789844511192315,0.0992243467831513,0.378332904566336,-0.070535226201328,-0.992039419319481,0.0379189261703251,0.109918970427192,0.604701036867011,0.442700995152556,0.128878387273659,-0.812795653930361,0.0823720231180527,0.35233614018255,0.767702120539053,-0.133062039875688,-0.339925762323536
23.37,-0.388653148110174,-0.149479142481169,0.902910147957719,-0.0481062172772777,0.00981849544483813,-0.044159291183032,-0.990706461107507,0.100333005510235,-0.0742840750284316,0.0581794998991318,0.396646060971998,-0.0836460623585547,-0.994117414151118,0.0566869046751306,0.0879204167288561,0.658522532738304,0.421192735591644,0.145771229180736,-0.797631380001574,0.0680411368705021,0.360388188473497,0.816475327132495,-0.12783516481049,-0.341449915734376
23.375,-0.387046412623787,-0.158663889861174,0.900102438825043,-0.0569317677861322,0.0131403980694667,-0.0436637941583903,-0.999178396438139,0.0885574212193602,-0.0764145487615734,0.00695935154695177,0.40935589529182,-0.08962195692595,-0.992934576040794,0.0555172845148806,0.0672589632894948,0.692517039397963,0.416742295717297,0.15296764533699,-0.795008703375635,0.0461752585557175,0.363509982645007,0.853062433120847,-0.166141820334925,-0.347887598960814
23.38,-0.394417860987834,-0.162385165765731,0.902441187871169,-0.0592398904263973,0.0175355817257314,-0.0429087767810151,-0.999140543822975,0.0775866561420748,-0.0845274149557714,-0.0258827850187455,0.408897124312185,-0.0978596443499292,-0.996325900969075,0.0498834915810424,0.0525370587924899,0.694148585488525,0.413611206183853,0.16022004490754,-0.800529953385909,0.0364986292077679,0.365574751621519,0.863380277664072,-0.199919618924051,-0.357085848249467
23.385,-0.400611190906666,-0.162993442483586,0.892968042101271,-0.0555387032581579,0.0163052064183544,-0.0374515881193887,-0.996687517409998,0.0689264243540292,-0.100121337511287,-0.0481295877645184,0.410288507025156,-0.106667369604111,-1.00713875942595,0.0384024488325249,0.0546952324638162,0.660102574121574,0.418164601689549,0.158912204481214,-0.815415231601985,0.0311352970754793,0.362170166757548,0.866739796786241,-0.249979088266433,-0.367519440710849
23.39,-0.403542675281074,-0.174559743828417,0.903969081259583,-0.0527347676817959,0.0161925803843275,-0.0340003169089694,-0.987819346883249,0.0588965107554055,-0.10921166449659,-0.0598666965961456,0.425203087470742,-0.10838576936744,-1.01603720320205,0.0141064939596458,0.0555052618387598,0.645836102707541,0.394994870769562,0.163655835085771,-0.839089726265532,0.0218205861732216,0.352005872043113,0.867843195883152,-0.28324720878089,-0.378863858034941
23.395,-0.396904501403319,-0.174270063089515,0.902830387052013,-0.0457276958251719,0.00901453308147077,-0.0277141332626343,-0.98928357923077,0.0468357241110989,-0.112490001474827,-0.0501473083086728,0.428212825347239,-0.115367676214984,-1.01634713916758,-0.00331744893793555,0.0512565221146542,0.62487845414263,0.377493803179318,0.155102725788541,-0.870768886854248,0.0206690895967184,0.347337690651417,0.856607698560626,-0.286365114251701,-0.386204073508364
23.4,-0.388179071931059,-0.170695018267665,0.908466518420084,-0.0347334789773761,0.0111060661350763,-0.0238810745737041,-0.991808718332429,0.0439241491729712,-0.10539566699761,-0.0248137868853685,0.439526987056177,-0.114710712480562,-1.02334098306298,-0.0205633710422,0.0453745094005184,0.607488416782654,0.366158747074374,0.15034418383033,-0.899685820395091,0.0143488791868204,0.344898726373715,0.841588041727818,-0.267873866633255,-0.388910562968587
23.405,-0.381390645716181,-0.160368482309665,0.905996294760819,-0.0346225503966658,0.0201194160961391,-0.0239389809301763,-1.00520391225646,0.0487626643007051,-0.0968561901389647,0.00148507489994776,0.447413210606982,-0.122363314098351,-1.01357710225125,-0.022188086624769,0.0176275253148291,0.621243207379092,0.382586974860888,0.142927666577787,-0.926135575952627,0.0210579986934634,0.336733326974631,0.827675408651299,-0.234621507451825,-0.384223501703531
23.41,-0.38947314618644,-0.160739593469063,0.907460697181381,-0.0283470629491948,0.0292489967086457,-0.0189821193403098,-1.01100034041724,0.0596174321090422,-0.104671068292908,0.0365297095543593,0.445454503259822,-0.119966225664892,-1.0143862085196,-0.00924517441272234,-0.00786616282096212,0.643824490201722,0.400084027642265,0.128111613211485,-0.95784255640786,0.0179930677326089,0.340480053776038,0.817204676702298,-0.192716996591166,-0.374470487951142
23.415,-0.389611758650041,-0.167324210817287,0.905339086926357,-0.025486340812979,0.0310304163997201,-0.0174866770923641,-1.00832519751529,0.0690326961020063,-0.123195269938158,0.0667029995269903,0.435408523457195,-0.128684613419541,-1.01090829917363,0.00929395758401783,-0.0303011481006799,0.709358200611172,0.419406253861562,0.114951863873551,-0.982820070494815,0.0174665943847591,0.346727910120023,0.815665601849306,-0.170043092876434,-0.369955261122377
23.42,-0.385632707271039,-0.157108982987626,0.902116514000959,-0.0266685294510982,0.0313593525090442,-0.0258304307703928,-1.00568224104271,0.0764722441133185,-0.138817605003535,0.0945973122224646,0.425788779190319,-0.141382095310629,-1.01175521416409,0.0274678835477308,-0.0526368151622884,0.766910046554052,0.434652211463156,0.108812550169777,-1.00804083558292,0.017709819856639,0.349445791354132,0.819246634054115,-0.16552924717663,-0.371005756883976
23.425,-0.373797586524789,-0.149540898023904,0.910936694173993,-0.0312466724249403,0.0298109781807026,-0.0302632814678232,-1.00314006254843,0.0658908272251649,-0.142536801566828,0.124967055475123,0.426262987230489,-0.144413541400003,-1.01511377594117,0.0407689772201113,-0.078271169232661,0.808703443339858,0.444990691104016,0.0860098497228026,-1.03736382269643,0.0166270363897622,0.35779547620617,0.83868372284814,-0.188353318051997,-0.382823716607985
23.43,-0.373603777555391,-0.152716604962524,0.904462243330345,-0.0360492180323373,0.0358947594534099,-0.0343615644425551,-0.989325484295952,0.0567524845739957,-0.138342851910406,0.167357251709661,0.419535223570697,-0.139919100744925,-1.00361544317006,0.0549507848885069,-0.105933485643982,0.824524952111709,0.463644822320242,0.0578339483677188,-1.05631292191874,0.0181805301691183,0.355614451100873,0.846085715991722,-0.221841041806498,-0.403340165221904
23.435,-0.382376786241106,-0.157274235185631,0.905082774501732,-0.0441266790397496,0.0380460052711112,-0.0420269047829063,-0.981934178295886,0.0452298030641605,-0.136740512671917,0.206551137983267,0.408686293922704,-0.137464028607426,-1.00198559967637,0.0583284156802542,-0.128735803234054,0.814324017891085,0.48987268819487,0.0222782828070145,-1.07522035823881,0.0223940412643153,0.352299022660402,0.861403978273211,-0.274535482956295,-0.426010462558928
23.44,-0.386879325735702,-0.16311612323964,0.905813872569888,-0.0487062632644967,0.0582330764328173,-0.0477228685820893,-1.0078180195317,0.0400751846770406,-0.159247633629957,0.230192536830611,0.38325681638737,-0.137695202151967,-1.00646222424979,0.0622029415152194,-0.148286463479256,0.776439224707117,0.519426313997924,-0.0179195265812226,-1.0864929884289,0.0300450031259209,0.348049617210171,0.874629155984524,-0.333563825443403,-0.44838852937222
23.445,-0.392377695389088,-0.155932843393682,0.901722171319998,-0.0494124290963332,0.0433076073128384,-0.0460395477712154,-1.01231930060442,0.0359356116136565,-0.1802635759622,0.255126298093307,0.349929644322238,-0.144475930887055,-1.02158862950051,0.063730774170103,-0.174417429153388,0.704299388954335,0.540792846028161,-0.0748378191457598,-1.10160752919985,0.038098159092555,0.347095883885285,0.874204667620908,-0.378631491870485,-0.462115660631772
23.45,-0.391822070276833,-0.156768925992959,0.902181468140919,-0.0509701892993846,0.049487264104768,-0.0497871820831825,-1.00888425465719,0.0191371094270732,-0.195596281459642,0.29987005011052,0.348373418169296,-0.14296624863776,-1.02755575966838,0.0555054159163091,-0.197411379190819,0.687677518498483,0.544944875886121,-0.116374476242494,-1.10553073636921,0.0466820961071266,0.338435046401155,0.862893117476767,-0.418282199557137,-0.465200386475087
23.455,-0.389166174229841,-0.162864456338058,0.899526840338165,-0.0573677931726866,0.0523194739219866,-0.0575269782084721,-1.00967366945311,0.0191357579697109,-0.18863606320812,0.313660584164763,0.332769559437172,-0.138742684812552,-1.03229075687838,0.0580087712170405,-0.216738128209467,0.623408171925838,0.545497589272223,-0.164584328400559,-1.11192587850871,0.0547081575593071,0.327137573447044,0.85079273916066,-0.446722555128957,-0.472907735224663
23.46,-0.390013097286731,-0.169152819193384,0.899710035644446,-0.0587313766579754,0.0569356579781959,-0.0596828555362837,-1.01352373184338,0.0267961292683258,-0.190505209508724,0.321323071504551,0.312106045029466,-0.136969619143052,-1.02981445476719,0.0577999788086666,-0.227823216507993,0.536133860234826,0.545536800703388,-0.212611999304926,-1.1046903874885,0.0573862149691045,0.325815344753456,0.832417919282273,-0.451806022804862,-0.476473744434304
23.465,-0.401798883587696,-0.176538047783061,0.896668315392806,-0.0558395360857168,0.0620518294144779,-0.0568230100115542,-1.01201195569576,0.0247837889159347,-0.192780851372465,0.3350546268763,0.281415352280556,-0.129816780859772,-1.0213766000505,0.0482835099727153,-0.242501698241354,0.430121943610069,0.537300350720914,-0.235192967797635,-1.09804645582699,0.0628196600239868,0.325644801218932,0.812503324084735,-0.464429014262334,-0.479630146296727
23.47,-0.393804106717292,-0.17113259009873,0.894473119873185,-0.0586629408079872,0.0715404657747152,-0.0534903931692534,-1.01274683923087,0.0251615006172545,-0.199581806604973,0.339120465013557,0.255939033127461,-0.126929238806909,-1.01854024545007,0.0297264854771655,-0.254707593278431,0.299038451090434,0.545588279229171,-0.257064313757028,-1.08774434968485,0.0669541071963838,0.322877834043344,0.791794876887369,-0.454612026308089,-0.485225260257721
23.475,-0.392570403913473,-0.175043812523339,0.895848549602244,-0.0513370282496553,0.053880720021112,-0.0596308145029731,-1.00622082886399,0.036023916500289,-0.195030907569964,0.322209599298734,0.237286432481756,-0.119251762264054,-1.01424875124448,0.0151129439258634,-0.260133214399937,0.197747900664441,0.554466290739365,-0.26849205639679,-1.07385207461051,0.0675399067419231,0.332397616313533,0.776061475455989,-0.438853389452126,-0.488720609096076
23.48,-0.39567192161495,-0.180710490165904,0.897393364665775,-0.0490525760309372,0.057304249441015,-0.0533501471018801,-1.00652751331466,0.0457297465392928,-0.194258663482605,0.29420645938062,0.208644966394405,-0.113553928074961,-1.00042363435074,0.00566988801295396,-0.266295836172307,0.104000013613477,0.546901159180356,-0.272787183523178,-1.05180557329539,0.0750103153735746,0.332797477968936,0.757351513763033,-0.411990519179753,-0.498357773805436
23.485,-0.401185573306268,-0.183742635651362,0.895954173312238,-0.0411347544791607,0.049322796094601,-0.0521039653002757,-1.00227119351292,0.0504439382636499,-0.194586901238677,0.267572771026328,0.190829207242498,-0.10433389325314,-1.00404113363818,-0.00253210921693223,-0.263516681042189,0.0364901607657769,0.545838492446942,-0.272708739739066,-1.01604440481324,0.0698456894915424,0.342220482620092,0.72601118027825,-0.383864318072122,-0.505961573723368
23.49,-0.399687926567061,-0.180483182745676,0.894052957015473,-0.0430754910505397,0.0507438053100581,-0.0489526020038417,-0.995375621246571,0.0466880148468593,-0.201173905910866,0.20572148624275,0.158947259210619,-0.105988997971781,-0.998452140798873,-0.0135987089769879,-0.253521573771834,-0.0106149769697559,0.533362147848833,-0.268284883560283,-0.990101076117043,0.0700169764018303,0.344240587529751,0.703341236052082,-0.373664261377916,-0.521793974058792
23.495,-0.398297781025462,-0.184188635525976,0.890021808278384,-0.0304446115547669,0.0405377427375483,-0.041678164845134,-0.996377224512122,0.0462244891461128,-0.203328451471173,0.154962838899904,0.140186746036406,-0.104874005908413,-0.997776997605954,-0.0251717360518564,-0.253349021231662,-0.0575941154249003,0.526196732697747,-0.257199665063195,-0.960125215849183,0.0693960222990905,0.345458238105904,0.66084817106567,-0.358505545664369,-0.529833829518425
23.5,-0.396963083418497,-0.186053172086875,0.8883683961419,-0.0238704081600475,0.0374421655359602,-0.0389656542981777,-0.997130890248576,0.0441271487715393,-0.202251509484543,0.0887208111750554,0.120962829137878,-0.102467725455407,-0.996293415868452,-0.033383037717602,-0.239512481844511,-0.0785099623249383,0.518510799324503,-0.241368165806088,-0.92698519156758,0.0706338229557638,0.344204808605718,0.615140281185638,-0.350607484318701,-0.539197154893489
23.505,-0.399351109703768,-0.180401444329069,0.892656047020206,-0.018731583532118,0.0308596289403393,-0.0348519130313627,-0.997493209979626,0.0367239963985235,-0.197512472102767,0.0254059389740844,0.109656910112689,-0.0949609241102339,-0.996838454922017,-0.0451558972621497,-0.233936727729092,-0.101748871559024,0.498712575243747,-0.22870832703903,-0.90276207004525,0.0629525123596276,0.340972434108274,0.579464153316982,-0.359467431011608,-0.550384537115139
23.51,-0.39752471037144,-0.178481099942904,0.888947044052074,-0.0106317127981038,0.0286111835055834,-0.0304956730764416,-0.994994556495071,0.0348797781710605,-0.192922567304612,-0.00574881386972555,0.0733049127008491,-0.103254670652507,-0.997793513017416,-0.0688341465005304,-0.226814589677225,-0.10260001343401,0.48057296872139,-0.202850539680126,-0.878913593068204,0.0557587835854164,0.338330492589517,0.540519583224084,-0.34934505099458,-0.55787903550994
23.515,-0.405987853044236,-0.180311702101545,0.888485969902694,-0.00491837079808408,0.0159852637654426,-0.0317706222094449,-0.994688089627643,0.0261395170535133,-0.193015062120203,-0.0309771237291047,0.0535011787975956,-0.099227527372489,-0.993369979279525,-0.0874676096892783,-0.223112283839305,-0.0866679093935534,0.472957524498163,-0.166621520856856,-0.850388540535062,0.0434913493181258,0.338770134945675,0.498930349089239,-0.327887999380722,-0.564635396003723
23.52,-0.397750491453006,-0.181767105481914,0.892305032269428,-0.00548532977700233,0.0166089218877172,-0.0366464810217081,-0.992152859748403,0.0197868044619448,-0.188119985844952,-0.0580926082445984,0.0397393826203671,-0.094221082253109,-0.994772817403209,-0.110345393422786,-0.213175388492861,-0.0541904504881395,0.459152210973846,-0.133553679399758,-0.83337744260513,0.0371905410861597,0.34608134007259,0.470985527419211,-0.305511455308842,-0.558570269687056
23.525,-0.398571058591062,-0.179301427841712,0.890650293894478,-0.000436924727949585,0.00646807609389569,-0.0290570461510173,-0.987242892077462,0.0117774366942102,-0.179719739193106,-0.0626185448058076,0.0197899480446398,-0.0855901034741043,-0.994429896651637,-0.124551002047837,-0.197378150094487,-0.0145650731681856,0.450967921908054,-0.102913186506895,-0.815905158671883,0.0326141943319177,0.351039434561372,0.433518936390152,-0.259236262680821,-0.541394804252135
23.53,-0.393587745217263,-0.182392463289208,0.886676330186429,0.00557804431424026,0.00754083418432209,-0.030988636667545,-0.987213667952411,0.00846639057415143,-0.180149000953157,-0.0668171671953976,0.0131031217011714,-0.0760981955730236,-0.993669438930119,-0.137228760110041,-0.179372593117826,0.0418194151667685,0.421773156187518,-0.0760516489572129,-0.804037363787198,0.0271819407048017,0.353543422296427,0.399333000424438,-0.228909216031943,-0.519398038947991
23.535,-0.396153468749911,-0.184394433348093,0.888798335396724,0.0143693969839317,-0.00709420848152603,-0.0258431366643158,-0.985000062858287,-0.000342582041856715,-0.178787774830194,-0.0513000358378065,1.20525751202828e-05,-0.0686985856365306,-0.989295322730912,-0.145355339144299,-0.167994227233927,0.0952419497009025,0.40385510054811,-0.0569409302362327,-0.801199051901416,0.01829916478397,0.364603318979522,0.361930893430665,-0.197519599581832,-0.492753163206802
23.54,-0.399533918959138,-0.179591690988175,0.89102920671677,0.0256907150671572,-0.0110459438637941,-0.0271970733840331,-0.981237126215198,-0.0116489990555413,-0.173602439910498,-0.00890911179602038,-0.0122842809083027,-0.0617272208917805,-0.982074397509895,-0.150022388499399,-0.16159813670987,0.157725718642408,0.391174180771623,-0.0433391936060948,-0.794226650769767,0.0127613553804047,0.376729013046924,0.323180977812166,-0.16421295925049,-0.456444164952894
23.545,-0.396345955865566,-0.180214044251086,0.894740564685602,0.031369939988856,-0.0132620725895365,-0.0279185664568539,-0.978884216954571,-0.0173341256615005,-0.163547581010981,0.0455764476783397,-0.0122936897856263,-0.0524982243982788,-0.98169019579501,-0.148803495878698,-0.151079833028322,0.214033500288924,0.380067125082849,-0.0246201954710916,-0.794997166535177,0.00306696713700426,0.380340967497604,0.294479112999664,-0.156027364380456,-0.419299950201548
23.55,-0.394958900557507,-0.182154918854788,0.89564191651554,0.0410639006510081,-0.0187511003475415,-0.0366494397558945,-0.979915819881118,-0.0207112809068693,-0.163033936374656,0.0937002298156486,-0.025350753939768,-0.0447025247982194,-0.986016745261633,-0.141131150815752,-0.142249503876424,0.265329352999987,0.354132561666717,-0.0216279878439092,-0.802477414715687,0.00409783481451077,0.397485321891252,0.249641411704739,-0.134148185107368,-0.379361379565176
23.555,-0.393568523069298,-0.187325096694503,0.889701173779139,0.0514739331417357,-0.0228732136035226,-0.0411527715623379,-0.97475301348417,-0.0205469295007418,-0.163150852852663,0.158343886258451,-0.0350320748984814,-0.0397141620735473,-0.98483499148095,-0.127382014033939,-0.131445372212364,0.30387593158204,0.334934438659554,-0.0205740188857656,-0.776767114573931,-0.00478322588763069,0.399256581947073,0.205663622740687,-0.107335506277292,-0.334596207012344
23.56,-0.399559332928311,-0.185214810191279,0.891194165606196,0.0640355294458251,-0.0304037558357134,-0.0382554210071766,-0.974966078184749,-0.0220789594683023,-0.16199045187041,0.211309469675812,-0.0350320748984814,-0.0355636103935708,-0.991962954356246,-0.108690025360321,-0.123871425042764,0.331638614690908,0.31081007737896,-0.0281391571103964,-0.817217178085739,-0.0101492301474613,0.411046846996688,0.176210568684219,-0.0907961587303259,-0.297891882804184
23.565,-0.396081020137585,-0.188238411167791,0.898462070419465,0.0731314684412126,-0.0315388172761233,-0.037594772180798,-0.979459612913238,-0.00998893640534096,-0.159453230690031,0.259279306189531,-0.0370949385942837,-0.0316366393184451,-0.996750517695739,-0.0864518429994986,-0.113192454207255,0.356499748997697,0.287073114112274,-0.0360459028369979,-0.835292123391933,-0.0128289534746788,0.411952648900124,0.138106328164695,-0.0598015204058243,-0.264770241893429
23.57,-0.396681725750255,-0.177522778465076,0.893799535379415,0.0845613137587228,-0.0323595234465594,-0.0385413176184658,-0.980202168653618,-0.00904219167832382,-0.153704802100399,0.318015547790808,-0.0283591962881945,-0.0220132320624691,-1.00460463731659,-0.0692467102285115,-0.105344170506053,0.376981441242848,0.257108805786238,-0.0432825967614887,-0.847297778507792,-0.0194338206442851,0.41556098699016,0.112465167060835,-0.0322537972626129,-0.236976224783209
23.575,-0.39820140995533,-0.180301218390351,0.897553224409358,0.0951292834701519,-0.0328158853456969,-0.0357096030317543,-0.984088266726792,0.000802406667545929,-0.145257853122032,0.367993752952191,-0.0301153259996532,-0.0265518705014033,-1.00570194307853,-0.0489585892073606,-0.091627394983117,0.388847185085014,0.23376983000486,-0.0544648499060254,-0.860012988004571,-0.0218239634125598,0.420710941186775,0.0790500245936008,-0.0129904309873642,-0.212461215212885
23.58,-0.393060347921932,-0.172116442160206,0.897586401484837,0.108313630543212,-0.0329582974669594,-0.0343252733206288,-0.986331250397579,0.013468288488938,-0.142753191338645,0.405645793092117,-0.0262077476628618,-0.0211175034549781,-1.00971776422805,-0.0366269187073835,-0.0797493323307231,0.384301557029684,0.214025480734051,-0.0565472617745399,-0.872836538232806,-0.0283247081298646,0.428378354323779,0.0617648340750422,-0.00282762366117765,-0.207900583744049
23.585,-0.391445227671489,-0.164100665385875,0.902380321774102,0.111840563141502,-0.0351935651439442,-0.0374012541999434,-0.99031145537564,0.025250902138321,-0.140714358499616,0.415441429789245,-0.0226083125654818,-0.013887529297272,-1.0156954022701,-0.0242377252002724,-0.0818908137013253,0.375922777323515,0.205598283841506,-0.058616947066137,-0.88300334152298,-0.0326928120744063,0.42390254919856,0.0497355411243224,-0.0142397657036781,-0.216883198268428
23.59,-0.393315902569368,-0.163068142781566,0.90226127946088,0.113695764414008,-0.0377255109380402,-0.0350442975759506,-0.995573148538405,0.0406730337753178,-0.143918303757368,0.414794577450104,-0.0173504526335014,-0.0168398785696282,-1.025080910627,-0.00805411452152819,-0.0808090072215525,0.372895718787265,0.202928983060443,-0.0571859247725727,-0.89665353721072,-0.0393232781814345,0.418249700307453,0.0406512747422374,-0.0150398407473989,-0.227739826118809
23.595,-0.396486784421752,-0.159031527691997,0.903716137110764,0.113548760202544,-0.036155717362318,-0.0375958542658168,-0.999177636806807,0.0498107708814675,-0.141310943886075,0.419045207081237,-0.0209426638240626,-0.0297082711838978,-1.02697644407398,-0.000705810238675903,-0.0705149340215243,0.364380215482286,0.194793387347202,-0.0604561111717297,-0.905797914264507,-0.0474281399547966,0.415311908511335,0.0399305312841372,-0.0201908169114951,-0.245797063227625
23.6,-0.39134847721994,-0.154912978312671,0.903334941746353,0.10889196484003,-0.0285798916092864,-0.0370256976384203,-1.00131958058468,0.0532994426286914,-0.137986064817655,0.393930869064917,-0.000179727039338887,-0.0203208900398434,-1.01966425133896,0.00526995569004778,-0.0662777637038467,0.346886799879168,0.186991667133998,-0.0547391812372442,-0.924126161971332,-0.0440747559322347,0.411534687029804,0.0502180738023177,-0.02995820424182,-0.272985517002231
23.605,-0.38983835101909,-0.155390878744185,0.905859550034268,0.101972719423074,-0.0275137317517493,-0.038760458970416,-0.998559901211358,0.0622651653830713,-0.128745648191202,0.36227139464966,0.00368925169928114,-0.0261846926626633,-1.01131695531742,0.0137973512260923,-0.0597391097007583,0.336917512572309,0.19391700183877,-0.0552276893015931,-0.933963142722334,-0.0406602594221046,0.399698531245327,0.0537049764525006,-0.0334569068065801,-0.301177531500134
23.61,-0.379093771312862,-0.15393138145119,0.902086855700151,0.0959377039902651,-0.0177103704363756,-0.0395836212504736,-1.00007149317137,0.0566527175438166,-0.128563530409636,0.327926573188241,0.000105488124856579,-0.0302720985305272,-1.01322618180383,0.0158680810022456,-0.0592372168284333,0.329275946058369,0.221840022748828,-0.0575544525329582,-0.941739511502984,-0.0361963409368196,0.394973152523998,0.0721332917160784,-0.0321081866312978,-0.325401380603215
23.615,-0.374742822693695,-0.147791760804493,0.909084493727756,0.0810690562369078,-0.00545783342682413,-0.0354227397963717,-1.00580703455859,0.0543497045993899,-0.122719113908303,0.288151357628966,0.00995926210613725,-0.0332515648806899,-1.00646982433599,0.017296446260713,-0.0654505841146891,0.310872500767717,0.250809794200209,-0.0685594603176757,-0.95265967212568,-0.0311821947364187,0.390728849789987,0.102498852354595,-0.0362302660942078,-0.346002426851802
23.62,-0.376810058134746,-0.15070268163103,0.908113726707519,0.0711782848810845,-0.000942900776863098,-0.0421425406980735,-1.00751165004116,0.054729819602487,-0.118484618618572,0.255269383658584,0.0157642425504281,-0.0292512021724948,-1.00759383790705,0.0157585487551956,-0.0774160058508815,0.303734859825872,0.271094158954455,-0.0761574394979788,-0.956876259732387,-0.0235368328021241,0.38193101662122,0.125317823029032,-0.0251766345781114,-0.351626915733244
23.625,-0.37525425572575,-0.146802350397386,0.908843777542319,0.0627072290618484,0.000545587090920227,-0.0387093834578991,-1.0065917075936,0.0532351206226818,-0.123394320439024,0.217643198216236,0.00273135350581105,-0.0407504185590342,-1.00980417541264,0.0164625864113001,-0.0820954294054117,0.297061352579133,0.29141385357159,-0.0873271639204056,-0.965029642610368,-0.0238195879774519,0.37893586992883,0.155436112567477,-0.0223295519450586,-0.349996957775307
23.63,-0.378223535912128,-0.14973059855575,0.907320672682769,0.0534818037349255,0.0089446724653955,-0.0410468844921641,-1.00623864736729,0.0498556594121596,-0.132511719391196,0.191675443142292,-0.000637117025955086,-0.0419175624847412,-1.01213339129383,0.00292553518607865,-0.0921261896761676,0.317397490494575,0.319880898914568,-0.0936280768592228,-0.96990790932927,-0.009693801662808,0.364191269704555,0.193595962291911,0.00373450570531174,-0.337924495907203
23.635,-0.381677348777418,-0.150944711266121,0.901672918611782,0.0413975135609245,0.0112130812257423,-0.0466199155375309,-1.00175109065961,0.0393403646838536,-0.139595796939255,0.171461915658579,0.00333629180355531,-0.0359736850448896,-1.00736647730288,-0.00585162978533599,-0.0892734190400498,0.309990166035992,0.341595695781715,-0.104637207639229,-0.96999835762385,-0.00247838914702743,0.357674295155688,0.223346170530871,0.0225900767930511,-0.322557382673398
23.64,-0.384631076924805,-0.156212167285626,0.902134597067341,0.0375488869280277,0.00721198228915268,-0.0460395477712154,-1.00036529049071,0.0254407894031523,-0.1369791955438,0.166321322752041,0.00894892774522305,-0.0376416634579256,-1.00073476195158,-0.0132588189248847,-0.0973735477563971,0.290214323172199,0.346696142939961,-0.11967028555018,-0.970277531573609,0.00832061589468744,0.355371393299014,0.251172198307842,0.0522725203957336,-0.287215360020703
23.645,-0.387295214332302,-0.16149343235854,0.898973653632916,0.0311237838748574,0.0148973990861058,-0.0424161884304405,-0.996689797506397,0.0180917986690032,-0.141940115846377,0.168590173125267,-0.00321611707541834,-0.0405920660118073,-0.995258565285813,-0.0213897304736542,-0.102375863915927,0.265013915755642,0.361456615831497,-0.137941227736626,-0.96998778248198,0.011628376062408,0.353308629721044,0.271903008768539,0.0772786275914934,-0.248594573956669
23.65,-0.39080291512132,-0.163460418616517,0.900552611039422,0.0296093850618752,0.0127141466494756,-0.043261732600012,-0.993573415566652,0.00870337391366634,-0.147422285881132,0.169970003659028,-0.00170136481660141,-0.0379075226946427,-0.989795198191848,-0.0207525635805821,-0.109509356021955,0.242633537775255,0.369506565640564,-0.151995114323508,-0.966274327959244,0.0158509438873547,0.353313933951048,0.294599543578797,0.115610340900423,-0.210175036377088
23.655,-0.385969303651572,-0.164902188259536,0.901318851557271,0.0307023129669513,0.0133526710879984,-0.0364338778910358,-0.989041692162317,0.00625145390183643,-0.153915068920369,0.175489324554386,-0.00082462839782238,-0.0356892000684523,-0.984660636410201,-0.0250683999722724,-0.115712052218763,0.222373649851972,0.362082011695384,-0.165606029509329,-0.957934329591207,0.015369893813596,0.35693470116099,0.302449524741666,0.160386403917993,-0.153624021975528
23.66,-0.381301570292118,-0.167488774131374,0.897068774107575,0.03238720074296,0.0122723049192699,-0.0352677264542309,-0.994818897335101,0.00356537958843103,-0.147336356605375,0.181073201965627,0.00310653754034738,-0.03262181520234,-0.985955513133277,-0.0348819974449411,-0.123812405295754,0.205985611016503,0.344288690068223,-0.177435751131959,-0.947237008563981,0.00912219768942977,0.358608256105858,0.296314359022403,0.209462177136904,-0.102503801244953
23.665,-0.382711576000232,-0.165881040964347,0.900568017204383,0.03238720074296,0.0112740397453308,-0.0325253836456746,-0.999767304486183,0.00212273347757337,-0.133746740904517,0.183314195342366,0.00477429968100685,-0.02384691892163,-0.987772491256597,-0.0438246062549051,-0.130245530276508,0.18910137653576,0.339188129284804,-0.185181164945709,-0.933631791658737,0.00496210236258527,0.348434349900503,0.271242599206912,0.241985366953998,-0.0509453126808793
23.67,-0.377747217256442,-0.170295241209976,0.906086097427855,0.0348040123397727,0.010238263797893,-0.0284312270685522,-0.995164694498928,0.00506644805315081,-0.141229368404293,0.181585711600945,-0.00737620077023774,-0.0281181114157803,-0.991591315915714,-0.0490573155966427,-0.139547888362229,0.184086626921751,0.324367322447286,-0.192817593690031,-0.923404325179352,-0.0037988859107887,0.351545529103977,0.235734083091825,0.284198827708156,-0.0128910231143054
23.675,-0.386118119862827,-0.17179778733266,0.905782578381762,0.042252729186836,0.0141772933596626,-0.0233922142041608,-1.00573620741485,0.00585030970710321,-0.146063192809216,0.175375043178172,-0.0217037059442894,-0.0259044220355727,-0.994286189747266,-0.0527804114765004,-0.152164719981939,0.175046579917952,0.317571063301466,-0.198075217425012,-0.918520693204454,-0.0166927514091499,0.348755996564307,0.20034809665451,0.316708381643879,0.0129480439167243
23.68,-0.393170162520882,-0.166913518304493,0.902930476172197,0.0510667443520969,0.0179048270823226,-0.0180246703109147,-1.00273812345786,0.00795568356855865,-0.157535710300315,0.167064419321765,-0.0286858989576187,-0.0248138401657343,-0.998019755807142,-0.0583564973401631,-0.157357181671364,0.169487971576646,0.308003467582205,-0.201075773579334,-0.912999624934407,-0.0251145008396217,0.34731896517634,0.16329985234301,0.355835492005386,0.0352672239065373
23.685,-0.398448288289049,-0.166242631942534,0.903317149550574,0.054536832937046,0.0265725868646328,-0.0118321031332016,-1.00278670147051,0.0124442426619092,-0.173172158433625,0.166146785020828,-0.0265451908881459,-0.0197971077958756,-1.00011323618812,-0.0608197832518959,-0.161674283151318,0.159648462285799,0.284159159884158,-0.195730252519999,-0.914416035707467,-0.0267862288258429,0.345737600471168,0.13464963538343,0.402699667318294,0.03979074203703
23.69,-0.39708430231193,-0.168345391817226,0.900784895423201,0.0587253562972606,0.0123522892861245,-0.0101256792782245,-1.0054084602393,0.0111121339376142,-0.171464480608754,0.163612404425361,-0.0280639627778709,-0.0167595640164256,-1.00026616404092,-0.0598982903884052,-0.162143331964625,0.13613269035319,0.252364377221916,-0.193825650469032,-0.908227634713874,-0.0268829809086931,0.347524933277424,0.117626679825976,0.429498635809117,0.0372412646683548
23.695,-0.394253859299488,-0.167268363912919,0.899343912834467,0.0611343133540475,0.0133676192800862,-0.00766804598744373,-1.00530410693874,0.0149980310603435,-0.17030033057405,0.15297921509348,-0.0315611466885949,-0.0163590554769533,-0.99984238802872,-0.0571500572706349,-0.165318419568421,0.11895287343054,0.236854854307462,-0.188725543732507,-0.911104431545662,-0.0261029411662676,0.350115130644467,0.106736686352942,0.472455419909746,0.0353736964994024
23.7,-0.398733349633855,-0.165070350744399,0.894854703870877,0.0655705529561348,0.0154511681144085,-0.00359468621292982,-1.00537428061167,0.0129554078939,-0.168498287733545,0.136346415145364,-0.0377170399126889,-0.0145536800609009,-0.998099652925888,-0.0521348111329676,-0.175246759928016,0.114666998386383,0.229552207004454,-0.183030084038451,-0.913116823464045,-0.0243575981008733,0.356088856882468,0.102096312230616,0.511537325309005,0.0266535207241792
23.705,-0.39537590005759,-0.163757252514363,0.900054730490127,0.0679395513353445,0.0159760092768523,0.000508046544136555,-1.00255041250868,0.0180965022031651,-0.169595298158352,0.129279641417226,-0.0419336736572375,-0.0111588931973167,-0.9909695698221,-0.0372104957021138,-0.18316807772254,0.123390454648004,0.214892496229931,-0.179079235111364,-0.916656518793301,-0.0238335489294462,0.361948556742149,0.10535791516304,0.538916641719841,0.020447681252425
23.71,-0.400963806117741,-0.161561574023985,0.896812879180261,0.0688977160551762,0.0135172464398872,0.00180671804966944,-0.997171193420086,0.0182511926551761,-0.173862004307231,0.122567891628032,-0.0534915295694275,-0.00625990730458796,-0.990801893666965,-0.0280486699749314,-0.179893277759056,0.108669443983733,0.20424763521902,-0.166221928680015,-0.918054736332985,-0.0185873178902403,0.376861395712198,0.106567974115871,0.562791745103509,0.0177211857632185
23.715,-0.399619536722036,-0.15860304195422,0.895398745582832,0.0673497873538903,0.0122071439039367,0.00311682083381528,-0.992699163072712,0.0219702653250543,-0.171658033004532,0.118900996749966,-0.0637878028414055,-0.0109540954883125,-0.9840266360185,-0.0140755156915126,-0.176069128040021,0.0966427670400187,0.189592067399002,-0.156876793015938,-0.921157891430526,-0.0166954323237321,0.38765320876356,0.111174104182816,0.578254733853971,0.0144478157162666
23.72,-0.398023987786632,-0.158019768011465,0.897427576822336,0.0699941769248138,0.00404996359922268,0.00458103895267955,-0.983966078738322,0.0235163728320366,-0.169467085426724,0.110515940757865,-0.0712138378850216,-0.00971711079262613,-0.975283258828099,-0.013058826405085,-0.180615429615461,0.0665256732479574,0.187914404446295,-0.154282808303833,-0.927368035001819,-0.0127574769836329,0.402725138031571,0.115725904246007,0.584808753812174,0.0144478157162666
23.725,-0.39214076623557,-0.155515332901493,0.897508658596117,0.0547005826587066,0.0194223035626238,-0.00299772017347201,-0.981162426600021,0.0202032179311254,-0.164051806422509,0.0966103837561443,-0.0633314134025244,-0.00292352183876774,-0.975281033752502,-0.00650770950526287,-0.182936323989365,0.056315705801824,0.184848651137537,-0.1519136737437,-0.928987158654187,-0.00584971908861321,0.417140418704081,0.119147061629958,0.582471918522411,0.0143606975002952
23.73,-0.401836359017087,-0.154759584698338,0.896000938257108,0.0648102573141507,0.00101895520303898,0.00658962069472849,-0.987918439816457,0.0194818566003748,-0.16176236297363,0.0982746864206357,-0.0714123444363655,-0.00526672787964344,-0.973126982535471,-0.00451511486508329,-0.171644013491898,0.0128328317989162,0.184794830097484,-0.153061121702194,-0.930499136021171,-0.00669394439112388,0.423581957430564,0.104763132076524,0.569977362294422,0.0117070360685697
23.735,-0.392322265231752,-0.152998547971067,0.898853121334956,0.0620588144248849,-0.0103451723975974,0.00497458940583045,-0.986720114197239,0.0211432545014274,-0.159473006960955,0.0892685077894704,-0.0776014316795197,-0.00526672787964344,-0.976313451456744,0.000313297973248677,-0.166556622879323,-0.0343896268248831,0.188732296527111,-0.151012110567105,-0.934711705799802,-0.00170813267224672,0.425064192320514,0.0938454243009867,0.563097110188596,0.00764228890486429
23.74,-0.393725067984743,-0.154956371519776,0.898135004784188,0.057094994678896,0.000130977078781848,0.00417601283681691,-0.987547368260707,0.0252557821875427,-0.154650610363355,0.0723944577145776,-0.0811718678118823,-0.00332543769174026,-0.975984145259555,0.00246573035218746,-0.164472857324272,-0.0905208070204349,0.200756318992324,-0.153376625890701,-0.934574910480868,0.00135874176138461,0.425124246269464,0.0795962715780674,0.549492808627889,0.0141821215323687
23.745,-0.397418709430689,-0.151845613749896,0.901089995630986,0.0531161941264876,-0.011579837861573,0.000504280970653422,-0.996479113753365,0.0268371714906906,-0.152260216716143,0.0645954653545635,-0.0827283869212066,-0.00292379049463954,-0.979203340940292,0.00158347623839006,-0.155421160546981,-0.123339803674147,0.215238623966117,-0.154206265575539,-0.932565052634547,0.00661593742377202,0.418657092763669,0.0652753382440733,0.522047929605659,0.0196041462157454
23.75,-0.398402927093382,-0.15120684486168,0.898434224780041,0.0516035013003014,4.95344093852478e-05,0.0033883022291327,-0.994933587201846,0.0293902868691887,-0.15070314203337,0.059036162613927,-0.0852631193629662,-0.00492591194232902,-0.98078948990076,-0.00271460054398292,-0.145973067514742,-0.164628702690444,0.230860102734861,-0.15379562285643,-0.931751281724779,0.0113795377508405,0.407362869643952,0.0478475994938063,0.503904820471039,0.0264456078343078
23.755,-0.394279745290264,-0.155045730918973,0.898840484256556,0.0481158057437874,0.00207297856643476,0.00225573962429653,-0.994100426876243,0.0227460448606231,-0.155720469560073,0.057712833448425,-0.0967105162425341,-0.008667299403475,-0.98790590976757,-0.0092363982554228,-0.141694067054321,-0.206049844454668,0.240795676244888,-0.156875623182955,-0.928647031153671,0.0122546061349481,0.397337337086875,0.0320344704576311,0.500274370887532,0.0431108199097918
23.76,-0.389864458507378,-0.155306264701662,0.899484974680676,0.046787277173942,-0.00138383292965247,0.00282823108136654,-1.00102493850487,0.0205581370381239,-0.153040676950807,0.0455382513743229,-0.0888755851207169,-0.00676834221418716,-1.00004511446886,-0.0184077472452725,-0.139062617318966,-0.240660604616758,0.258176401596464,-0.151976762213681,-0.932053638029014,0.0058242115356917,0.381022752198313,0.0374853617108124,0.49727345734483,0.0529083553825351
23.765,-0.396529240189128,-0.153495640523907,0.902858241451468,0.0456889606841756,0.000233159983533557,-0.00314336309737627,-1.00100096510315,0.0219277038754748,-0.145021668688386,0.0239750867002773,-0.085292225641762,0.000671068181524677,-1.00163411779538,-0.0276275566759047,-0.131033791670455,-0.29182740514537,0.277934260599692,-0.155667087867668,-0.929895617241781,0.00289706823504204,0.377640692412276,0.0476693431940328,0.496809651198685,0.0600316187985303
23.77,-0.390265202856252,-0.160208935764154,0.900302433238398,0.0418148377673657,-0.00198066024239239,0.0014225999289268,-0.999738583374006,0.0131435557503486,-0.138512125417835,0.0153675067503968,-0.0866541131958664,-0.00282333977520466,-0.99644502559068,-0.0472376427598819,-0.135854707756417,-0.326057943900353,0.281741749313118,-0.158329566428776,-0.932118178239742,-0.00394197511743903,0.370983403226717,0.0656813732543024,0.505681548849458,0.0609649048253466
