Header,foot_Accel_X,foot_Accel_Y,foot_Accel_Z,foot_Gyro_X,foot_Gyro_Y,foot_Gyro_Z,shank_Accel_X,shank_Accel_Y,shank_Accel_Z,shank_Gyro_X,shank_Gyro_Y,shank_Gyro_Z,thigh_Accel_X,thigh_Accel_Y,thigh_Accel_Z,thigh_Gyro_X,thigh_Gyro_Y,thigh_Gyro_Z,trunk_Accel_X,trunk_Accel_Y,trunk_Accel_Z,trunk_Gyro_X,trunk_Gyro_Y,trunk_Gyro_Z
80.69,-0.430146763259342,-0.232566801277111,0.917005337138332,-0.00459988270704114,1.42720058025638,0.5362486377583,-1.08632479160091,-0.0514314309849544,-0.313672663283947,-0.160135760151223,1.41098741873311,-0.671611701857272,-0.999288487579278,0.0714705588934818,-0.254194751494601,0.25744764051068,0.771601069035342,-0.450090500347714,-1.01148922389035,0.139620602113493,0.589374178798222,0.0852169214307399,0.154421942877424,-0.197417208388077
80.695,-0.424430125850569,-0.216779355078543,0.934189097846148,0.00378859487788325,1.5014424768352,0.587166706314803,-1.09237360002705,-0.0350929024564737,-0.31316078995819,-0.19414279222655,1.44654272908457,-0.693220894622678,-1.01269157443453,0.0862435408402604,-0.2555627227909,0.227902743018425,0.770329295912744,-0.487767319684094,-1.01982902333412,0.143613719116819,0.607929193413035,0.0593826883315563,0.0872989080050377,-0.182419768046685
80.7,-0.424626395911902,-0.200644320939733,0.929785205655319,0.00248160772655312,1.5985677389672,0.626815467891334,-1.11227497327386,-0.0194927938041569,-0.319796336894153,-0.225622982573033,1.45932593454639,-0.737118976604201,-1.02748387979832,0.105147270729006,-0.248668551131858,0.198389574825986,0.767771760934013,-0.518318561712922,-1.01477088422194,0.135541199939962,0.620179530247,0.0308123011524903,0.0312430381083598,-0.16919543663582
80.705,-0.427739872851711,-0.17482459192491,0.937742013882076,-0.0148494615256865,1.71623716964288,0.674092915395712,-1.11994004338695,-0.00493313991495817,-0.314939233986466,-0.245367657376501,1.46877253802473,-0.767496913434699,-1.04126890133551,0.123355039647758,-0.247606064738839,0.165965536270223,0.762041554259102,-0.547240176258912,-1.01824687161582,0.124832528759524,0.638166803538011,-0.0159473082139274,-0.037461774606444,-0.157703869193111
80.71,-0.428492797480994,-0.171167395627948,0.932866291449942,-0.03316656207539,1.81793954236336,0.702956430213387,-1.09802602970853,0.0127276864775935,-0.313698807305037,-0.260760990092711,1.48916544476338,-0.802317429005102,-1.06024695636941,0.1296831350408,-0.243304666956778,0.164869318707437,0.73462553358669,-0.565542503092436,-1.01909268217555,0.113244282483978,0.647031747034617,-0.0632756568936009,-0.0873496135599131,-0.151934185864606
80.715,-0.428491342449198,-0.149942658690676,0.930504942759631,-0.048496192799607,1.92375223185573,0.721680001208493,-1.13537983412676,0.0246401856602312,-0.313749532072146,-0.258224595531058,1.51052946514913,-0.821363403871485,-1.07548972556095,0.133872936167127,-0.230461162470784,0.150022874966817,0.713645844453401,-0.583960915392792,-1.02439695088141,0.0973739403405004,0.654610683949324,-0.11658993450969,-0.143837306350155,-0.171660325756546
80.72,-0.44449140908006,-0.124884346691889,0.932367090768466,-0.0954175020551709,2.06551854502993,0.744467169860651,-1.15410923261368,0.0340384710177483,-0.304575316559496,-0.232534262785379,1.53036513316949,-0.848152538587245,-1.08314079123381,0.139049224122943,-0.21393953688149,0.160395425622226,0.677671356135765,-0.608372648890891,-1.02118745677441,0.0915687681458985,0.671103655155859,-0.144892201028125,-0.190325242970327,-0.197451463820703
80.725,-0.450949644907457,-0.125460331871574,0.916649717041898,-0.137736059762491,2.18646984711284,0.744871748015288,-1.15494860090638,0.0384891651129947,-0.302959087232424,-0.209242654371456,1.54450346337092,-0.867952725199454,-1.08566711032554,0.142517091155983,-0.192522524212456,0.169645238721241,0.633686939045361,-0.623824280813908,-1.019866701386,0.0880922480873588,0.676271826328569,-0.182790160432527,-0.234073836248,-0.230092870379018
80.73,-0.45615086261955,-0.10514167984716,0.918742689760285,-0.202345306579728,2.28945057260333,0.737121193003929,-1.15434696652713,0.0349367552566613,-0.294297376167065,-0.152519053834578,1.57114131813676,-0.883848834203894,-1.08767152339576,0.140449234119272,-0.164185863155622,0.184051180987521,0.590187212515771,-0.642514349157709,-1.01222708946737,0.0923576639526338,0.674761834410933,-0.212824633047733,-0.275425217040642,-0.253452352710665
80.735,-0.470893081220826,-0.0803841059544187,0.919417051750214,-0.280762160953861,2.42698786920575,0.7292214368592,-1.15697037653713,0.0246141789621741,-0.289532272041291,-0.0924160353849106,1.59354489132244,-0.899736234023683,-1.08555359971355,0.143380828179395,-0.13543160122847,0.200425983842915,0.551771689812179,-0.651732790132404,-1.00503248853473,0.0977682139202853,0.673885010735397,-0.2433917401782,-0.328127002428238,-0.277428973398624
80.74,-0.484218249671009,-0.108445843700267,0.907797349859957,-0.394086911725614,2.54455939829337,0.718636575446513,-1.1564223584328,0.0101238225914491,-0.283497067846043,-0.0280845625888716,1.6233535288325,-0.911794645281085,-1.09420696844738,0.145105770901946,-0.104918282349579,0.224151622118468,0.499340280168716,-0.662804040682158,-0.986381805429934,0.103981131896729,0.674706099218849,-0.277218774343854,-0.377690290188284,-0.295344898237071
80.745,-0.493194979831576,-0.121392509004453,0.90555304529005,-0.498739404342847,2.69921965958502,0.686758643436683,-1.15086157478509,-0.00418933005717236,-0.269600345700561,0.0420916189495899,1.65942274977758,-0.934859689166154,-1.09603808877909,0.142905263720895,-0.0608862954444028,0.255364430339221,0.432822585547653,-0.664269671641892,-0.970783786962774,0.100695847521592,0.668879087218533,-0.294049380284514,-0.417536104616976,-0.303959006572948
80.75,-0.497386718216369,-0.139345185898302,0.905469205176465,-0.557147263977413,2.84430499255362,0.65887449641924,-1.15435346573467,-0.0120757748346183,-0.246930925077963,0.106849592732935,1.69529102487701,-0.951744846242279,-1.09235109316247,0.131545203406689,-0.020652218706555,0.293870072784254,0.359885235746517,-0.655806312720947,-0.95381573266291,0.100456040492121,0.680290001275938,-0.305094581116238,-0.456575387809763,-0.304451305400333
80.755,-0.497929227207858,-0.163970806654654,0.925703258699217,-0.584905750373684,3.03344976450481,0.627090167642708,-1.17366840847805,-0.0315228563696428,-0.224756187214509,0.16407528169804,1.73901579904293,-0.973146959252812,-1.0849598070298,0.125570722727056,0.0272376007801788,0.343439364271923,0.274535242725465,-0.644563960445963,-0.936305891905008,0.0926073326753501,0.69707250286722,-0.30133360977209,-0.470609020188899,-0.303011273494093
80.76,-0.519649558143208,-0.170191738557353,0.950858486637815,-0.603687341644774,3.23504059544702,0.6120888921069,-1.21264758075149,-0.0506967115817697,-0.227747605446278,0.21402507426573,1.76574540367254,-1.01008111671176,-1.07263638444673,0.129847993205419,0.0752862835492569,0.435924372308745,0.116914132016575,-0.621440989330579,-0.938319851750872,0.0672193575284761,0.672545036306291,-0.292808881535253,-0.497428723318546,-0.277935024749364
80.765,-0.501995027106782,-0.101232291494872,0.984250902890499,-0.720637400799111,3.46482405266245,0.646176639519915,-1.26366142923224,0.0160877159989082,-0.207610818873006,0.32262169273964,1.80075770295208,-1.07752032678321,-1.09188499013262,0.155842630876133,0.0682115357468185,0.523004740213807,0.00566704174636504,-0.610026541239463,-0.961354544771355,0.0480292083959173,0.618172729554882,-0.273350660243408,-0.555533994078956,-0.22290269440325
80.77,-0.470699261110539,-0.0639878580320939,0.949097163751231,-0.878704515483819,3.71440628010871,0.681742432447138,-1.33466435068996,0.0871737516239334,-0.207417511422218,0.377387697538763,1.85797463597578,-1.18564809353942,-1.19157924745286,0.191748987577842,0.0486886240475916,0.604942544122455,-0.0236868280055502,-0.598986799417957,-1.00121904151675,0.0169076905791751,0.563837840937187,-0.266509840648825,-0.672115649562491,-0.140219102513498
80.775,-0.520024001005425,-0.0779724280065862,0.927359482175867,-0.916259823716404,4.03439997924275,0.631393762519079,-1.44348218877183,0.0903440616422389,-0.232441308125649,0.313210332728738,1.89499322423746,-1.24719861843483,-1.34523672201168,0.178304057826914,0.0453393042612897,0.60588157179956,0.00748456193849364,-0.568331467019289,-1.15506761105972,-0.0306303549544538,0.514996274046597,-0.279914074580757,-0.791733679645726,-0.0623523177139799
80.78,-0.549276399369221,-0.0615504331121873,0.928377131010982,-0.903261284455667,4.31245268650535,0.537189507188122,-1.5170555255499,0.0512205888581997,-0.193296218425374,0.222018156430069,1.89959324177461,-1.26819524404149,-1.45932408713113,0.118321474425198,0.0678809868310815,0.571670106939024,-0.0381667232506779,-0.496547226792394,-1.27788007000093,-0.0569477717701624,0.492016548702208,-0.277598374811139,-0.855503643460478,-0.0193497004918737
80.785,-0.548074213664722,-0.077610026084168,0.925495462600562,-0.944155146209432,4.58964701390968,0.446675935550895,-1.52579434684176,0.00806555595588415,-0.100095813213822,0.0680271668231549,1.91833797224867,-1.25901252365406,-1.47349374663667,0.0022039214348594,0.123307193328429,0.475444000058727,-0.259897475524189,-0.400626188917779,-1.38943233292132,-0.012650635426639,0.502104630580335,-0.139839178290189,-0.700448376421353,-0.0416491974762455
80.79,-0.550816215586393,-0.101114064576127,0.925782444997234,-1.04104016377072,4.9325992707362,0.407652933048408,-1.49128090852082,-0.0273291374210718,-0.0534404198915866,0.0676124087075579,1.93746824727012,-1.25512056735923,-1.40957832630937,-0.119666965419503,0.206365426785171,0.444524526596069,-0.546245653720519,-0.377331148493279,-1.39720551644081,0.111198640394263,0.493089208969057,-0.0628813630494346,-0.421495693019043,-0.182907874650253
80.795,-0.560544061515625,-0.117020373526144,0.931866914153428,-1.12057294383648,5.31183287278617,0.402823111538795,-1.46075881970013,-0.0742159241863546,-0.00396981934280935,0.22375555596358,1.97182721139592,-1.25696258203188,-1.36600970299011,-0.204224399528068,0.316123294778533,0.472049951155261,-0.850109495188574,-0.436973369099584,-1.30270419053994,0.212561257377344,0.460082920566999,-0.0755327761351527,-0.106634167541353,-0.239262380291062
80.8,-0.567562919568579,-0.112114830325602,0.925355556300642,-1.15125190010016,5.68878851639044,0.398718210969779,-1.45747549135956,-0.107792124259902,0.0299659500645091,0.345272097617332,2.0247919445886,-1.27326962130401,-1.35382648119865,-0.274461099562762,0.498485528245887,0.568595910984856,-1.24017004552102,-0.542927512482608,-1.18710673954156,0.245551049732138,0.410752771506852,-0.214276798940735,0.0806551917075956,-0.192953335192808
80.805,-0.567112575580238,-0.080036070848435,0.922387099370018,-1.22002524816148,6.09590934795269,0.374688274257011,-1.47719135524075,-0.11115721082365,0.0934538693072639,0.440556890752728,2.0979622076618,-1.29995300759078,-1.33624697690023,-0.281496656675535,0.516188140130584,0.613500232065297,-1.66626378098049,-0.682417716096074,-1.07026280965656,0.20949716274622,0.346514805152656,-0.466565099330347,0.000162131205128896,-0.0704753703425385
80.81,-0.566286882062031,-0.0395188300399144,0.893996356833983,-1.27539474316982,6.5437118440535,0.375227431231544,-1.50043911708062,-0.0800763709060315,0.175562614597268,0.547788279942271,2.16340230843157,-1.33853925800076,-1.29422657084957,-0.252867484500216,0.459447730106895,0.645562449218612,-1.76168784704306,-0.8040376665067,-1.03371694096706,0.182736079065508,0.279216173662353,-0.623828151150948,-0.222324702291897,0.0261304848737847
80.815,-0.616389595795178,-0.120769587029155,0.852982859050166,-1.39116307946774,6.99348985100273,0.348018495470424,-1.52966545447858,-0.0383169644273742,0.193474245489971,0.635594265770487,2.1980446417177,-1.37623422333899,-1.29475415602457,-0.207480161091167,0.419652130223552,0.660370788341375,-1.71226673793412,-0.93017104648443,-1.09258781927797,0.163893779376766,0.197571281200397,-0.681938687182053,-0.519478015645761,0.126316958155743
80.82,-0.676154641466997,-0.00353032334438668,0.998678707522776,-1.47084001172631,7.59478109374141,0.298027534024244,-1.58093609190751,0.0137666318333642,0.2154500868399,0.759225068548077,2.22155721132526,-1.40262460585315,-1.35156819852597,-0.158231312380006,0.428315159917395,0.653188732180693,-1.64241830537879,-0.975505678903681,-1.21122191067727,0.142792431295429,0.148485925414934,-0.632162193282782,-0.699133174839424,0.195145665314621
80.825,-0.582060363673389,0.143175796862665,1.02976151818764,-1.65568894921658,8.1471349218978,0.257415007591955,-1.63682029288122,0.0676722175592023,0.363131320894069,0.994380117214867,2.26911458667991,-1.40795937179009,-1.42889669382615,-0.141840441598405,0.512547797856682,0.442153825893785,-1.71742152279319,-0.931002582699019,-1.31765571271251,0.111613840185923,0.144029232158817,-0.561663014642176,-0.720131690728859,0.236309123141764
80.83,-0.510595022671224,0.192259797189496,1.0127029877523,-2.02734836116779,8.68038187487333,0.227678609650871,-1.66505560178448,0.150737176086103,0.455087223872763,1.07375761646964,2.29283388318874,-1.37234746228487,-1.43592975996925,-0.152034298420828,0.577021366842289,0.0410410877648587,-1.88041518293028,-0.826063935905795,-1.38022899950051,0.0729889969102073,0.162442425332262,-0.545735654816295,-0.571685148393716,0.249543591439835
80.835,-0.506124450382394,0.165209368029381,0.952292273703409,-2.33917545374388,9.17803960433221,0.191293088739704,-1.65481410885497,0.214124790810972,0.523664290830147,1.20109988249043,2.24544544021193,-1.3150440789265,-1.37355328371685,-0.177377686625356,0.586656247439796,-0.328620893238859,-1.97453107796315,-0.720750664048188,-1.36385046166858,0.0535801152245224,0.180252663864827,-0.572496454725087,-0.323045452038715,0.233071806443551
80.84,-0.458446898135954,0.151417421639198,0.920394253160772,-2.54612989556323,9.89740398953456,0.159847354462861,-1.60329851452878,0.247247603142581,0.556986782709567,1.35496076494851,2.15846796179998,-1.27872109600522,-1.3137366497282,-0.174886959536445,0.504204304733089,-0.341581638367962,-1.96228794393852,-0.65938452496506,-1.2834463166829,0.0653018430872103,0.20520798615398,-0.624403045874462,-0.0640864943489296,0.208464422788678
80.845,-0.358330822164301,0.254610315297264,0.770988360863333,-2.77603996519963,10.3556416186034,0.109229651663077,-1.54164297791162,0.338490585854789,0.568329455589745,1.53271969193734,2.06976183258591,-1.2707446869728,-1.25460871196786,-0.126440936096933,0.371902771822864,-0.0216291024070005,-1.86175003116139,-0.62313760422531,-1.18452811710544,0.0751669256248964,0.24248316982251,-0.678829548871017,0.146243482309944,0.217272970589737
80.85,-0.351013071306007,0.48211675753396,0.257491805292599,-3.61740360232761,10.8872894638186,-0.0772016267047478,-1.4869047897506,0.457853041314131,0.548382997383992,1.66934576358593,1.98123591032502,-1.27678582928211,-1.22390716490336,-0.0490324273565802,0.261526788221147,0.319809454042599,-1.80248052793279,-0.610582117733752,-1.04067170136386,0.0712106808390696,0.18191673733431,-0.722071216826536,0.193448305130005,0.275142965712069
80.855,-1.02034226718551,0.184340094317548,0.267180721540972,-4.80980424448791,11.4499707101179,-0.312716733988602,-1.40603257929856,0.536840450967631,0.353115803191084,1.65473810658577,1.85458489942948,-1.28753495387048,-1.19330102891309,0.0631469697259834,0.127159251652221,0.739447710279016,-1.76755443549716,-0.577408201228848,-0.959093614691722,0.0509990294544828,0.155434274042996,-0.707333862882029,0.134478790904643,0.363244923227395
80.86,-2.03272094019179,-0.645829518951079,1.18178820856855,-4.93867929037711,11.598919105213,-0.451122731027077,-1.28978498651232,0.48943377929937,-0.044389500744206,1.3986085963285,1.67111433580057,-1.33446431012479,-1.1596227155609,0.158379341211067,0.00422102964882999,0.930658789424433,-1.7677543068669,-0.539903507684034,-0.882532058963376,-0.00559527314343576,0.102461092264649,-0.644871043706942,0.00267223195326752,0.507081754051692
80.865,-2.57311159450874,-0.769001269366635,1.60155225004267,-3.57589568573846,10.6277937697747,-0.411454776762189,-1.12339427728847,0.373812480760165,-0.567596097616481,1.06206540218667,1.62060840765592,-1.38564746709319,-1.12346057934795,0.248021912101033,-0.161968915801056,1.11448414215642,-1.76996162556656,-0.442147986273486,-0.851307293885197,-0.074325105328548,0.0571746568866184,-0.591016897228859,-0.0806100698367969,0.619983466818534
80.87,-2.67041326728621,-0.0514643369063753,1.36358052287474,-2.15441469901547,9.09599839904178,-0.31396184270267,-1.05951518105578,0.345976092529082,-0.921470818924855,0.546584801847964,1.74613149908224,-1.37117479000523,-1.11601972579642,0.291865745638352,-0.271170395789944,1.15689621864023,-1.77023461972631,-0.341805066710515,-0.824361887891419,-0.169223410334506,0.0133518076898652,-0.545740069887773,-0.115558977677175,0.721320368173246
80.875,-2.59680624226238,0.626628031990547,1.04731845463865,-1.81462517542432,7.98885244589916,-0.247534791126173,-1.0844955660735,0.330693250154234,-1.11204031166757,-0.0518141805198012,2.10338572928029,-1.32168267178945,-1.17289766455901,0.298186660059745,-0.371498905552869,1.10067114744745,-1.80556633700073,-0.189140846808828,-0.806508953408372,-0.264838000880085,-0.0113682107926219,-0.538967644104918,-0.0914238879052786,0.762563066926765
80.88,-2.50925149941,0.684328395913385,0.784157402996115,-2.44193802207321,6.76735967400004,-0.418034923529267,-1.16618960837962,0.322554127203495,-1.03379553874619,-0.254186763150852,2.47729192649609,-1.3122264374268,-1.25320534682765,0.275154846056387,-0.422446644823003,0.980096795783122,-1.88761904100499,-0.0330259116237678,-0.79565220492584,-0.339828656409805,-0.022221639894714,-0.546695889553529,-0.0335583674341771,0.727454208286793
80.885,-2.43609789780692,0.479839940868502,0.816540144081314,-3.15326771699262,6.02926201579985,-0.704381142723355,-1.26191154104246,0.404342178081873,-0.810210298252532,-0.267348556116091,2.70582452809682,-1.3569170121849,-1.36460182117968,0.22232811540784,-0.45036635682402,0.76005093811134,-2.00363281459811,0.134319466258033,-0.797440970133141,-0.388961550503437,-0.00892675613009117,-0.561161088594434,0.0543902662372887,0.612730204881413
80.89,-2.10606207751081,0.226013001122872,1.25669439946838,-3.77293778985843,5.21713080341014,-0.931497587940159,-1.33529222009914,0.582678751315224,-0.586169053335162,-0.337959895023298,2.77971430720863,-1.37178862522426,-1.47598014903304,0.113749468745157,-0.46053417857755,0.453881518343533,-2.13856870132419,0.293907727434092,-0.795931557646389,-0.396708243656574,0.0125990306633128,-0.529024427743832,0.132263478063138,0.428118936638214
80.895,-1.6712389313425,-0.0220769655542725,1.49973385512342,-4.06019463461675,4.43239752083174,-0.941276710237657,-1.38121826652501,0.743820840983623,-0.461750947947506,-0.407336141750484,2.68276622344202,-1.31389478938833,-1.54235987288194,0.00855777468898117,-0.477591983458901,0.207379694385337,-2.26218272309395,0.402278079307195,-0.798761371637907,-0.363539617229196,0.0441106191697172,-0.450964911111049,0.178232693979933,0.241927942152146
80.9,-0.995162203629406,-0.618587630655719,0.886463641012886,-4.0295350233338,4.52291771455668,-1.05016242551674,-1.37290571518241,0.80998239240383,-0.456322713953667,-0.543661181135622,2.53912364161346,-1.10208318526893,-1.5531471740262,-0.0992154726203581,-0.511026376915471,0.0281429407347622,-2.3944719510465,0.493005531189096,-0.816385825468437,-0.292578827661894,0.0874903198735617,-0.312191094935223,0.200742638342403,0.0376736162413633
80.905,-1.63920885537295,-0.629825212481574,1.76250160861132,-3.2886556848072,4.74912910425788,-1.24196633116648,-1.23464882778051,0.746749187248544,-0.63518593171988,-0.836337708323342,2.34562002935082,-0.793946876665887,-1.52932437862512,-0.157303298772585,-0.531083334938618,-0.076581832714535,-2.46547663798519,0.541057542670255,-0.82538382238219,-0.238892841477369,0.118619850969254,-0.174045265408428,0.216359433509617,-0.0613436161522334
80.91,-2.45421320750463,0.458956915416232,2.54926252776542,-2.01901414588231,3.45017268278129,-0.778505197993923,-1.09399160290595,0.537379208831044,-0.981312177417011,-1.29217201740585,2.2233969875015,-0.65782172881075,-1.47601162770686,-0.173677613169485,-0.529626524410199,-0.21880851097892,-2.51079932557528,0.582026434832335,-0.831616664906324,-0.196260386409694,0.146076357982135,-0.0598728953602434,0.232427921743212,-0.108550014945918
80.915,-2.40739144117639,0.588641212498149,3.28700030002534,-1.7246177318197,1.71046039590755,0.0697630521057996,-0.997471689356952,0.116669734420114,-1.23294878219394,-2.14815731020342,1.91836124672719,-0.697197368600218,-1.42890715944687,-0.142055108229194,-0.521108084927122,-0.426611938743063,-2.54624644551433,0.617488829023111,-0.820445658914688,-0.186106453198881,0.166406281101423,0.0473781034954554,0.256134252626015,-0.0921901890366536
80.92,-1.94522768029419,-0.463838092307643,2.96700087354734,-2.39132683488172,-0.103382562914273,-0.249903596240957,-0.972398774830999,-0.142918220084258,-1.0491847880903,-2.58079636264574,1.73106426914577,-0.813358982618215,-1.40286768929332,-0.0770828737392861,-0.563297915956971,-0.711375713930956,-2.56825785035447,0.649985329327221,-0.857293899346839,-0.160311384691405,0.181388727390697,0.122112887440353,0.278909887118276,-0.0721170399711675
80.925,-1.59211148493087,-0.379943278640891,2.62557071460688,-1.82224163496476,-1.50233816694306,-1.00171834329564,-0.969711515365913,-0.15059822819145,-0.705153337944083,-2.23804423964872,1.61013450072255,-0.803514234201716,-1.38248117714141,0.021818191997872,-0.603540729731442,-1.08358099087957,-2.60611878678504,0.687015523597567,-0.873272432961145,-0.154430212343551,0.192309369883853,0.117951562977406,0.259990024380466,-0.0858685207358402
80.93,-1.18849899690271,0.155841342763518,2.23982850547547,-1.0937253837676,-2.69019321874956,-0.85815853016521,-0.97152831241558,-0.01829855996932,-0.342115164098587,-1.64956262420718,1.35157673034954,-0.640247683781101,-1.38249951816777,0.0690518870390383,-0.621413490734674,-1.42593349332024,-2.67853624531847,0.697765298694582,-0.895935664944158,-0.159744076915546,0.205807071278271,0.124901840108795,0.237941799919025,-0.102322362753794
80.935,-0.878099014248657,0.366171709346538,1.79466050738924,-0.726086489488654,-3.48553163171254,-0.542036854583877,-0.954810037817106,0.0500224163724374,-0.0553396625045946,-1.29881937407241,1.01516975909228,-0.491419824100942,-1.37966262619035,0.0762306990190449,-0.634485572708789,-1.83157762735872,-2.79652020830971,0.691136833931167,-0.923949596139416,-0.157946258137188,0.231067148769235,0.163083856603459,0.197181415114811,-0.159635174876706
80.94,-0.49118735702422,0.518011194606049,1.25791009426573,-0.687812494274815,-4.07320204346439,-0.11272260784453,-0.915983797532016,0.029313662377744,0.0723975484192897,-0.987896348162618,0.644764460808227,-0.388038899414102,-1.37013554145487,0.0728250468260398,-0.639804034950508,-2.0651701767192,-2.90011193602002,0.672905203890546,-0.964879019399854,-0.135433838497395,0.253980175977287,0.198703275888373,0.152177585701202,-0.213627615258736
80.945,-0.242031085540113,0.555511384176178,0.995368552003443,-1.06044594368766,-4.24979964232946,0.0419855273497774,-0.816906618272987,0.0308819654801602,0.0896386347468885,-0.909145934392585,0.50173257083084,-0.369391513654875,-1.37175527832762,0.0631176323142787,-0.635006253615561,-2.16564562530509,-2.97753587250858,0.673261529409998,-1.00564340915224,-0.0950807254183099,0.281731243377934,0.201402846941898,0.125578847093957,-0.234748260212851
80.95,-0.0814101269894004,0.406143057643374,0.849941528288462,-1.5153879197037,-4.33579406232906,0.108643863222487,-0.743536013423695,0.102662472330834,0.0942291355104881,-0.95609729225434,0.382119286678933,-0.338104582944395,-1.3688098156317,0.0352718731264582,-0.634236556526397,-2.20984765101064,-3.0539005055134,0.655999160562077,-1.04671308949116,-0.0420815261421535,0.313619027094306,0.137147377959034,0.109703005191978,-0.220603176486168
80.955,-3.91701252360445e-05,0.163527772886723,0.729507420438268,-1.66722452815421,-4.33550938213758,0.158554397312538,-0.650374702446054,0.1444566117998,0.0810499374652318,-1.01262412967486,0.15733398635615,-0.26221965942122,-1.34953096772456,-0.00493052584088105,-0.62387984022214,-2.21139750187553,-3.10057786789735,0.62215401206791,-1.07750295777183,0.00517437761325466,0.334680032603663,0.0430881493493106,0.1056691855732,-0.167570086492682
80.96,0.00785543952367843,0.00578146248356057,0.672376253666415,-1.49097256229274,-4.25294041463409,0.227743002340296,-0.585236450660925,0.119406762439102,0.0238872778600027,-0.943386169130377,-0.0484835623720808,-0.18336903151648,-1.34203957570021,-0.027347609145233,-0.606051503967219,-2.20992484627053,-3.11192573089694,0.596470330337659,-1.10718548213493,0.0411642815112188,0.338942191731397,-0.065552267961329,0.121374012274262,-0.0895750882866831
80.965,-0.034900965530753,-0.0857865872755242,0.664885874382572,-1.05555837361307,-4.13482177994979,0.336440985962954,-0.561922303403911,0.106753625842622,-0.0419318997727569,-0.874974837418439,-0.25194119042219,-0.121544111715575,-1.32026068882789,-0.0432566901543302,-0.581587804176411,-2.1800111162282,-3.09644905656622,0.587327749221295,-1.13228103194712,0.0579235125403767,0.32898631230553,-0.182576865623425,0.153544029729827,0.0144716946993342
80.97,-0.0857085988838244,-0.120211810502932,0.691836935795649,-0.703161385628748,-4.07427876290601,0.398129705331693,-0.540897302339195,0.0962489795616259,-0.102590805214907,-0.860274363251141,-0.487770271933118,-0.0870254319459164,-1.29159584209346,-0.042005519199625,-0.552851724892094,-2.12391989060032,-3.06757349057668,0.586262314813561,-1.13681072020998,0.0695871017041267,0.307201763275314,-0.2529342849498,0.183384035884888,0.0982117696792792
80.975,-0.151470840413279,-0.134499687596638,0.720423861257393,-0.426155247301376,-4.043623281202,0.392803900477963,-0.530800412595283,0.0878872443899111,-0.128853261561442,-0.790658066972862,-0.705567442030105,-0.061323896568907,-1.26586295227173,-0.0460888277094685,-0.523338786238831,-2.03727602188101,-3.03219031756893,0.599600176519794,-1.12277265462024,0.0782345340860305,0.278855584152258,-0.306626095522319,0.232633155753227,0.198375495371861
80.98,-0.23448318440632,-0.127104270573257,0.76597246107843,-0.236726231343081,-4.09178228118113,0.303783502335079,-0.528724666809947,0.0860543413246214,-0.158219880958251,-0.663224406157271,-0.987476156637323,-0.0358798747805491,-1.24324789689387,-0.0427916219893756,-0.490425081611823,-1.87610728183341,-3.01194311389331,0.627922424721358,-1.09884604030396,0.0798426169274633,0.259067160725134,-0.321131041438243,0.274811726377757,0.267037868221048
80.985,-0.258929477530622,-0.131314419391948,0.797121775382358,-0.200458396632675,-4.19261022117392,0.196954880618912,-0.535299667287174,0.0775792218714718,-0.169037724878003,-0.645708831932416,-1.21525100505309,-0.012517741095889,-1.21778094216066,-0.0536769707340756,-0.453019631482904,-1.75255937635345,-3.00858640670776,0.653335115948278,-1.06907926459385,0.0783162599099738,0.236804933995053,-0.316726049191527,0.313098035498883,0.327472705218109
80.99,-0.258448706061282,-0.163190841911314,0.815055162004128,-0.216590424570474,-4.33030864845693,0.0571679950742259,-0.551342708334568,0.102577185695154,-0.175579303295954,-0.658540423605989,-1.42313481929273,0.010411274824087,-1.18556794871737,-0.0672969856503276,-0.426214013902794,-1.5870014085888,-3.00431760270861,0.688859086799229,-1.03308410699012,0.0725619465628885,0.228863731340415,-0.284582666472621,0.339941639743235,0.379780758134125
80.995,-0.247036274330456,-0.214873093960075,0.818481457865694,-0.226142109099183,-4.48011503358561,-0.0882677129159404,-0.554488131812678,0.127584379636444,-0.174022331957385,-0.66537918954556,-1.65503391965163,0.0588503707750301,-1.16056747040043,-0.0763188189980685,-0.420508649192292,-1.43115333807257,-2.98591052003641,0.724632163614564,-0.995670893270754,0.0527136762119064,0.221820388704493,-0.243774937737136,0.345307629236615,0.426360137131559
81,-0.243696777644542,-0.258250769918253,0.80576566836634,-0.195991524687246,-4.60909023724422,-0.221593472608007,-0.566433617608326,0.127174023947751,-0.176424881284356,-0.709699377213316,-1.83080887146657,0.109232483797118,-1.13714781955383,-0.0847151236243475,-0.423482681590731,-1.32717894517221,-2.9443908720692,0.756500661189562,-0.969048622068901,0.0413732399157932,0.225048119666063,-0.206875308426394,0.327409764698625,0.467654016963042
81.005,-0.243693537557188,-0.30622945533522,0.804442502717268,-0.101179758026634,-4.75617707552938,-0.391655928423352,-0.591233055587071,0.110519888580504,-0.18017866955918,-0.778534575852947,-2.00798499514623,0.178754034182721,-1.10841948836106,-0.0947923972752721,-0.436074988946962,-1.15404021850098,-2.85653164532846,0.803192859928544,-0.935826785021091,0.0154017975557054,0.23534623218831,-0.167965327373491,0.303959018953009,0.514505241859908
81.01,-0.232376580227191,-0.329470998638062,0.79843239829334,-0.00450611155695091,-4.87252959000352,-0.527759448569645,-0.615273939810055,0.0693988771927766,-0.168206534816722,-0.873580253757374,-2.21999929449265,0.233489592338638,-1.09157378186024,-0.104987561183684,-0.45069509756974,-1.0294094010244,-2.76775375926429,0.842804778991799,-0.91742659020696,0.00230535315299675,0.249037206075425,-0.148294117095091,0.271583149906985,0.548187039908205
81.015,-0.231061152116274,-0.337650000995655,0.786225957101426,0.11391755220455,-4.98775348296713,-0.662495142299411,-0.632491059815189,0.0306510409638876,-0.158050302316386,-0.924492317303715,-2.40111740707407,0.263061401626927,-1.06992941188892,-0.110917308611847,-0.463913595619528,-0.865265120148652,-2.65219262939834,0.889845698829517,-0.899925902578387,-0.0161814265449758,0.254924535932161,-0.14320009426838,0.215680258829642,0.581953341602565
81.02,-0.25202722678241,-0.346720194116679,0.766138169454321,0.252624113821183,-5.09009168624186,-0.802268034132675,-0.630386585978714,-0.00611855103146688,-0.158586012412566,-0.90033990336265,-2.64834288826066,0.289734007879744,-1.05271959737457,-0.113774252504557,-0.480981874447765,-0.739261577720326,-2.53989441788723,0.927179427737758,-0.896069598820541,-0.0355567272308897,0.272321292394559,-0.140585903837425,0.173230261489291,0.592788423752722
81.025,-0.260836403461073,-0.321942926721614,0.752502098920888,0.409135462344172,-5.20798492741285,-0.978945172010526,-0.630854797086956,-0.0301148948974092,-0.153271797840366,-0.821118266974622,-2.81411062672598,0.328597617459122,-1.03984334460402,-0.108689086318843,-0.484305078440217,-0.621262756644178,-2.43730849977836,0.948080929779475,-0.894611707732364,-0.0537789509999996,0.277369290751469,-0.130349649242631,0.134909556029533,0.597616586124156
81.03,-0.283375104725213,-0.294304846394201,0.733036681806732,0.525230391124941,-5.28203154139572,-1.12006533040955,-0.623240692981324,-0.0707903106587376,-0.140727527399381,-0.674017277938546,-2.98467275681454,0.385514705857849,-1.02246147057261,-0.10120119349315,-0.49127905259703,-0.521052422061086,-2.33920036887691,0.966374757632407,-0.89138874526273,-0.0631120811385347,0.277149794443626,-0.125542342662811,0.108628578322809,0.594134374785345
81.035,-0.290105176195436,-0.254678211956363,0.720400893869445,0.6181868703756,-5.32395161267862,-1.24163828917942,-0.638724432576616,-0.0734781417959692,-0.146427996211676,-0.558419097500115,-3.16142924279863,0.418779677454788,-1.00948942625469,-0.0846668217927232,-0.495702445998987,-0.0827676763956808,-2.2775260695278,0.978205500368972,-0.884522261400789,-0.0702420973796449,0.279755525502338,-0.133776247849406,0.103042908012867,0.573590571979676
81.04,-0.289140817261047,-0.216551643600883,0.710597973172492,0.664286298028691,-5.35620315136384,-1.32959973384455,-0.658128222230603,-0.0767278491850997,-0.136064858137473,-0.434277426616711,-3.33474421169361,0.445130533251272,-0.978785761009311,-0.128754279234201,-0.506368599838487,-0.405563148511557,-2.22192979175829,0.978122119035313,-0.880376704403996,-0.0732792358562867,0.279424436975943,-0.134929576638504,0.116066904687825,0.555357110127919
81.045,-0.294958272126897,-0.167731670100385,0.702036182082282,0.689806393899797,-5.3695113758027,-1.38237864026873,-0.667631597080337,-0.0825652920391889,-0.123190693694401,-0.333458724854074,-3.50200894559816,0.484219216017656,-0.959524548908495,-0.0624997471024863,-0.502415627341873,-0.403331488370895,-2.19243713951133,0.972822827018833,-0.875942339110083,-0.0782759489636604,0.277425900497084,-0.14383141385338,0.138362989134674,0.524471310624633
81.05,-0.314891266627171,-0.144686091221108,0.718325312130087,0.691971127690778,-5.36721236193495,-1.39110430392803,-0.677120692687688,-0.0997500489444174,-0.102817702677128,-0.241046034642599,-3.68861099760578,0.518537924377814,-0.928910302250752,-0.051890137372972,-0.497096243733169,-0.415455220254576,-2.17008873709267,0.955009725304425,-0.874239484451858,-0.0824750490975031,0.278990622559026,-0.158669821361076,0.16688465269678,0.496905623130834
81.055,-0.346844972315981,-0.140896873151382,0.759595113402455,0.695765121450542,-5.35978224261697,-1.38819665164748,-0.691503474008427,-0.114646121474943,-0.110838057864989,-0.154816354241322,-3.83140657504561,0.548942141365995,-0.891495457800011,-0.0422658595420956,-0.492297777588324,-0.454828372547613,-2.14453960963776,0.930470480076342,-0.878837326748157,-0.084804052085314,0.278768845342736,-0.182648716763917,0.201989715152109,0.46733938736424
81.06,-0.380758640326483,-0.149807408205198,0.807328453310941,0.704806834019986,-5.36439352597946,-1.36470627242923,-0.709509352051983,-0.140818252744328,-0.135400201789526,-0.00599443026280628,-4.01511877696062,0.58412313428785,-0.847325192941621,-0.0394857802899625,-0.480651972711966,-0.483005375840783,-2.11458379776452,0.912534184765559,-0.877750222510895,-0.0857710451949511,0.284578516998489,-0.201460256382753,0.254250831643497,0.442566490610567
81.065,-0.441369804090946,-0.1678314512309,0.865670283125242,0.755987276037636,-5.40205795110603,-1.31118541358755,-0.734768110081932,-0.160164727628553,-0.150429485819846,0.116883791389668,-4.14627727087072,0.625425795885753,-0.809130236985446,-0.0399531462853929,-0.47449709257555,-0.528962619786363,-2.07657781220463,0.878016049062302,-0.874114899742363,-0.0857935760054687,0.287639610703189,-0.238626243305499,0.317461475941502,0.400618740869792
81.07,-0.492327905115019,-0.187012176938656,0.905228885643912,0.826607707309631,-5.4365942811328,-1.26347734828325,-0.783177797143342,-0.178534794353225,-0.181904911455965,0.276780849180529,-4.28240971956616,0.676308753468832,-0.762547660869612,-0.0411798432103232,-0.461734831260437,-0.584632806374547,-2.0340569324991,0.840163531173336,-0.870606268558595,-0.0816667875394321,0.291815473227923,-0.279182637474338,0.383768730613679,0.367488224554355
81.075,-0.56079785223823,-0.20190214455252,0.943891175495665,0.92793551996189,-5.48992861344681,-1.21188328400119,-0.820656122791155,-0.187876839023932,-0.215400361099181,0.411664599013584,-4.41153533181405,0.71125728483033,-0.730576963262286,-0.0454974103465316,-0.45059501407706,-0.647211635563454,-1.9791568585798,0.799647209373903,-0.861085991319822,-0.0824214116797504,0.295854251715628,-0.30349316721159,0.437759172201152,0.343006639177013
81.08,-0.610264689839667,-0.217192243533431,0.973981607593397,1.02520148205431,-5.5421757685603,-1.16542782487266,-0.870428202686002,-0.16920732305288,-0.266145108863572,0.613258475243864,-4.57846686785013,0.766135226989833,-0.693853603896663,-0.0317063480468829,-0.446886291036544,-0.722479125992979,-1.91960528997167,0.751807961943396,-0.859335483808769,-0.0816409555240968,0.30253762614329,-0.326957319261339,0.504051519191433,0.314527264560797
81.085,-0.662549533777112,-0.22551525077971,0.99204029504985,1.1396439339416,-5.59199007161617,-1.14132981831834,-0.908307102396478,-0.149999941184299,-0.290996114122149,0.80504967316267,-4.72815645927587,0.843501353896143,-0.664472007781166,-0.0252317541394215,-0.441016884663107,-0.804612220248451,-1.85969232446255,0.711022952208322,-0.854648639663984,-0.0773551192962887,0.309405332273256,-0.354231427117001,0.549286528207103,0.293607372218475
81.09,-0.707487873484649,-0.205068498464272,0.988638954985795,1.26779276715337,-5.63886776516792,-1.11417323093366,-0.92005246558821,-0.109896555774053,-0.301854463382313,0.919280694568126,-4.83598350514736,0.915803276199168,-0.640145209853481,-0.0146368022643586,-0.441346880829465,-0.924715398786606,-1.79364802424266,0.662060450221801,-0.846752122080768,-0.0758035095145485,0.321861610471747,-0.377125711735847,0.582065821266717,0.275220274638858
81.095,-0.74734117655474,-0.152423592390228,0.973395203286943,1.35344674343448,-5.65668239494743,-1.09561982251768,-0.931365834979084,-0.0517819911024905,-0.307333188388485,0.996617520221583,-4.93644825367797,1.03299013149384,-0.618560455381772,-0.00365816392223782,-0.446772237690137,-1.04413930879613,-1.72472252209717,0.610511069839092,-0.836255135845046,-0.0680254151353043,0.32466874775678,-0.387655020636911,0.60435838127774,0.257328204268477
81.1,-0.789588862657461,-0.0767444489990436,0.970109105110182,1.39243647736936,-5.6582429634499,-1.06883702115556,-0.935073281652658,0.00777645456929372,-0.314749094013107,1.00583565436632,-5.00867574120555,1.11015511594138,-0.599643953679606,0.00221748986587835,-0.461715949609797,-1.16440830488656,-1.651903857789,0.56405282891008,-0.836066164324023,-0.061682496659541,0.333911246648071,-0.39239975982468,0.595501404606693,0.23209061269204
81.105,-0.858165848032129,0.00631109392112529,0.96261547069752,1.35695638568052,-5.64427203855944,-1.01304435086702,-0.937500975254888,0.0647721975832737,-0.318621480030187,0.933027739928645,-5.07877730243591,1.22699859494125,-0.58101592222801,0.00307174691739249,-0.471118624595553,-1.28587266460744,-1.55430223969338,0.493580585837756,-0.829563516038601,-0.0516618116266144,0.335706053147014,-0.371847643500007,0.589860545534862,0.219184088654388
81.11,-0.894559542554491,0.0726942870241775,0.974688982800405,1.28338763887076,-5.62210936208918,-0.940912322126123,-0.948540906332568,0.0922922427484126,-0.33121893404788,0.801548737272408,-5.12756923800176,1.30583869034119,-0.571760416175662,-0.0056175317140122,-0.484237049272435,-1.38001560539373,-1.46747954325374,0.433425405082269,-0.829603507257037,-0.0360595022484664,0.334854244544253,-0.335265909966563,0.566878961998679,0.213584020733833
81.115,-0.929836850225789,0.137571255272746,1.00927016386458,1.17090984761308,-5.59935883778638,-0.805973453282998,-0.958899277624675,0.121353492509297,-0.348649125059304,0.557934837528826,-5.17674565919402,1.38933556097331,-0.55851706717752,-0.0158611156887736,-0.488878413223577,-1.45812223646941,-1.36582749188185,0.370611207107151,-0.834188753218386,-0.0233140057618046,0.337762898201867,-0.32315727786514,0.544397639195096,0.216695814204625
81.12,-0.956936534774634,0.180847576433738,1.03623863711224,1.08157580785683,-5.57940097238175,-0.657057889605162,-0.981020608303746,0.133507141508581,-0.357063435591888,0.30464292349867,-5.20949129965666,1.43470896177836,-0.546769207470148,-0.0225804466680375,-0.497171400654184,-1.53107569722008,-1.22230191213663,0.289171649116384,-0.836063241363093,-0.00973033408209811,0.336917507594463,-0.329565316438675,0.528376492245397,0.241661142912644
81.125,-0.941682338961002,0.212156185314349,1.04806058566498,0.996236242054274,-5.53861264318539,-0.532375917701933,-1.02903399367746,0.150853818852382,-0.364249932001492,-0.0306320512853915,-5.23633004046117,1.47378101415355,-0.529516186933683,-0.0303891721400505,-0.511014718734518,-1.58515233919421,-1.11893223198772,0.232949292770008,-0.825056083033897,-0.00908703215601903,0.331586334421827,-0.333363151128376,0.517575068639196,0.277132673781704
81.13,-0.914843746030861,0.232835084388537,1.06495283575843,0.918616544681771,-5.46673742847369,-0.318144936799775,-1.10170884025717,0.177088205574689,-0.356231325657553,-0.41965529719725,-5.29035352922824,1.50164844661633,-0.508404034053394,-0.0456099062832472,-0.515646770883242,-1.63933015071733,-0.97361071384575,0.173661678648997,-0.825877390062048,-0.00215734129518978,0.325839936350313,-0.341273188848615,0.537354273396992,0.325978670872825
81.135,-0.904309126143675,0.249622344396387,1.08957977797056,0.858785967135899,-5.38210606790387,0.0795225690249207,-1.17316310369794,0.183344641648308,-0.336965567413202,-0.729747014154921,-5.34750677955864,1.52296252635757,-0.487516411173146,-0.0605650684903814,-0.526907622558608,-1.69345098881628,-0.822741394766838,0.115496223911009,-0.820326589324881,0.00130545995299521,0.315736218755142,-0.36347323451536,0.575350375427425,0.377358241545937
81.14,-0.918052965792475,0.242343225441262,1.14253676984628,0.825520187756608,-5.30278090295597,0.334587116588307,-1.26464066700943,0.172611594070323,-0.337025777244157,-1.11955682273484,-5.44086674189726,1.56010487301971,-0.470417302926882,-0.0757938133623807,-0.52888966803606,-1.72558035236744,-0.69109885571299,0.0721461751568666,-0.819851555176125,0.00617359305986349,0.309403599343225,-0.381209810173166,0.61249055471378,0.421939759706337
81.145,-0.96726771567604,0.226538852354448,1.23579861256056,0.809583210223164,-5.20483052662006,0.645989842435815,-1.32369068955844,0.15615504863959,-0.346037671508369,-1.4103107667451,-5.52049216422586,1.58737981660773,-0.449753329692302,-0.102517545432027,-0.534956450800541,-1.7616247856343,-0.518866742830036,0.00897233457042567,-0.818509803385946,0.00804794369702086,0.308012885428656,-0.399602400866957,0.633752732372793,0.460566574140296
81.15,-1.02896389335424,0.211079263397454,1.32864399567392,0.837239344496515,-5.1623690970164,0.903082511074298,-1.37140081133414,0.135353292458683,-0.365913221859236,-1.70360038920019,-5.59502956882687,1.62924809874892,-0.433537657515023,-0.124865521209777,-0.532659693351411,-1.77132118299896,-0.380095870443968,-0.04114292737169,-0.811740157046583,0.00262206628175383,0.299120515625165,-0.454214189618864,0.627149879932404,0.498043578932178
81.155,-1.13302612890442,0.242854124145332,1.44446858687022,0.887112997991439,-5.13093174779295,1.22128643302187,-1.42167046567079,0.109520923276263,-0.410683461368171,-2.04504802958359,-5.66098358048119,1.6623281709741,-0.432604512273308,-0.17548721359338,-0.515023212009575,-1.77080390227456,-0.235444309807934,-0.10811988849433,-0.816448168666426,-0.0107030803833727,0.296903153903644,-0.434826134702897,0.621968407994026,0.538806579681665
81.16,-1.23450312176943,0.33144392380046,1.51618725227503,0.880099299196988,-5.10931642317481,1.49889812586887,-1.4758743552442,0.089579329094496,-0.453672707914351,-2.33731977289765,-5.71388814557704,1.68870026485574,-0.434737584965172,-0.219494973651791,-0.491930705726435,-1.74792829656262,-0.131902790770939,-0.159862120879193,-0.829276798270805,-0.00816592048477361,0.296437208420327,-0.407292529562869,0.584751999909788,0.554546919819655
81.165,-1.32459496799874,0.402459850962805,1.55883730326311,0.769435098900512,-5.12382870559875,1.77235791281072,-1.54301198506285,0.0907556970153966,-0.494635076093372,-2.60946843493091,-5.77873742999244,1.70846810674103,-0.439559395987606,-0.268749843789589,-0.468747204781186,-1.71581432187531,-0.0453684512884207,-0.21360966318105,-0.841952305591365,-0.0143768879837425,0.28718549271297,-0.436282376345888,0.538749030322593,0.56300697537735
81.17,-1.3993479428457,0.435274535743853,1.55912080516581,0.581254710583464,-5.13897064869127,2.12972859136505,-1.62609404432134,0.0860371727391455,-0.515533469749262,-2.854884600438,-5.84425613976785,1.73474331462475,-0.445197129255087,-0.307202311010743,-0.441290948548528,-1.67315248826753,0.00718694709107651,-0.264056893601944,-0.854192255352527,-0.0342922644123978,0.285391818337755,-0.455633480646169,0.496068455543816,0.575466016915722
81.175,-1.45804424813613,0.441756511455421,1.53709744178813,0.403265449642474,-5.12411655137319,2.50255401219706,-1.69886068163132,0.0777872364676004,-0.522001470368847,-3.05209061066591,-5.89154443912655,1.74053478240967,-0.446556060289115,-0.346618981592227,-0.406091666654071,-1.64825764780261,0.0315758575769137,-0.303691268407016,-0.859636863157437,-0.0455473443227102,0.287959001961546,-0.471035913910879,0.470826828935886,0.573983907699585
81.18,-1.51517025908293,0.433909778702732,1.51734467575223,0.260811020862463,-5.10576314421962,2.8647281918647,-1.77635782388094,0.0759063546302866,-0.544316685764225,-3.29065802136809,-5.94200697238139,1.72627693248026,-0.434284308704498,-0.378063562808394,-0.368473199501186,-1.62550913608692,0.0269023055679441,-0.347249373237087,-0.877925490288034,-0.0505279533675786,0.290298976803261,-0.486616180109701,0.468803491634061,0.577293561837288
81.185,-1.6117680381389,0.4320205058691,1.49344158021132,0.142197774195756,-5.01742693082856,3.29410771624233,-1.817852466175,0.0839753335312383,-0.570427791941802,-3.4730415189444,-5.95532212356812,1.70122801734935,-0.444148169358572,-0.389764206983867,-0.344414100674491,-1.61377232276243,0.0228298842697198,-0.37051327169815,-0.889562522680647,-0.052299993182049,0.300350077128572,-0.513204590763029,0.479715956917482,0.571952784529935
81.19,-1.70057934836678,0.448169662861262,1.46263548913711,0.0636954170866614,-4.9365759643498,3.63433280241623,-1.85700712380415,0.104677171736103,-0.604231448796163,-3.65296486112331,-5.98744597397979,1.63781026288174,-0.459249755272082,-0.391585252106437,-0.302738382955948,-1.58542716302578,0.0284993005842311,-0.403415082990703,-0.902190103653197,-0.051995570903515,0.310160383050344,-0.530437391460489,0.484272894171877,0.565045239125451
81.195,-1.83212212486262,0.451913558507604,1.46579569188054,-0.0380673989062756,-4.84768831166513,3.9705888449345,-1.89430877145161,0.139659424212416,-0.652424375157587,-3.84489779042892,-5.98380246570955,1.56809593200152,-0.489370217313598,-0.385620892903189,-0.260711033730799,-1.54960079893024,0.0383457574528996,-0.429242676122154,-0.91655305432435,-0.0630745048175954,0.317558240135139,-0.531994454616512,0.476031936651265,0.546418982590205
81.2,-2.06048547598192,0.359337271539136,1.47559522454611,-0.186115358070451,-4.80785540431451,4.36924491734292,-1.92132322488458,0.164497219938388,-0.719005120527705,-4.02361397667337,-5.98614534247734,1.49550072579801,-0.538790423119868,-0.363527304505255,-0.184311387028335,-1.50496130446847,0.0330942298395441,-0.463386246153676,-0.926684995066019,-0.0698898288335913,0.324819558898462,-0.534518575741096,0.469900120893831,0.527909763766041
81.205,-2.25827249072442,0.119163365796725,1.46060147981315,-0.238157293739303,-4.84498493080201,4.66795942201897,-1.94089043186118,0.160174423521052,-0.837068329277399,-4.3102675926775,-5.97890923156564,1.38738621056157,-0.623504394169384,-0.320366177919443,-0.097325248797987,-1.45601277392056,-0.0297091605724137,-0.477625141605952,-0.923315994460458,-0.079631975270088,0.335184122543979,-0.549685858641676,0.47405955520499,0.497894061104961
81.21,-2.38481268403938,-0.243034886470971,1.41135713972419,-0.0823623327341684,-4.95877749093782,5.01427032224065,-1.94725630996961,0.149323020416104,-0.940811210418529,-4.56146422410113,-5.92713510173303,1.25975127864757,-0.736822824550707,-0.243386008209222,0.0168246235342627,-1.39639683490849,-0.174202176809554,-0.475678912900733,-0.936250705226905,-0.083623875064814,0.340726120988879,-0.559501470289138,0.472745318830896,0.464848221552156
81.215,-2.38047496579602,-0.418311335090928,1.37379173795912,0.331923401386183,-5.03070620800026,5.26816631351425,-1.95895906761279,0.119897562168572,-1.03255234084327,-4.73166206291091,-5.81438703806677,1.06028273594435,-0.852946807274346,-0.156442444948473,0.124116937766938,-1.40116622521421,-0.375855131835884,-0.459833642559551,-0.943922567950215,-0.0804746613489867,0.347732536218749,-0.558022201061249,0.473885753589103,0.431614761266581
81.22,-2.42462763506325,-0.346247032901882,1.30146107067646,0.7917100571888,-5.05717131724966,5.34680278863102,-1.9664261349089,0.0937543293160452,-1.08279800754195,-4.78140289620361,-5.71427380583718,0.883367483754348,-1.04263270454501,-0.0362949235014612,0.243066933189301,-1.49011649247813,-0.718294947288888,-0.400715657405615,-0.952919211062166,-0.0732797324291771,0.355215763894826,-0.567999468853963,0.468838579152578,0.397058619181787
81.225,-2.54471070113561,-0.236550418053092,1.10475839188631,1.14182830136601,-5.03126718126094,5.30731082434769,-1.9206688249199,0.0598931800757847,-1.13101167559838,-4.78109178293238,-5.55495786372383,0.693819939763972,-1.16038673950611,0.038743486685143,0.330682212473952,-1.6298847216755,-1.0255099796317,-0.313962953771781,-0.958595177774483,-0.0619136276954336,0.373030049448467,-0.587195666543148,0.460092084520898,0.356983835953899
81.23,-2.62577261804902,-0.194286555463421,0.905155139945117,1.21552184282624,-4.93633922185855,5.1972999737315,-1.84954752123966,0.0389130401899956,-1.17777962688259,-4.78684004026975,-5.40976152124847,0.543056877797286,-1.32408269558923,0.139798138149893,0.478246316739828,-1.97935899050424,-1.35350629643492,-0.170448537191271,-0.959089617478686,-0.0545798946820131,0.384322218876456,-0.618296068141287,0.446814724058441,0.330418359909013
81.235,-2.71064249360753,-0.240973591592508,0.700169806127724,1.11258640079283,-4.78943704203545,5.01279684282051,-1.74271975183917,-0.00234564749665551,-1.29171620217191,-4.73943212486986,-5.22474731598223,0.451563554666666,-1.44809067265829,0.220415057714937,0.61876437175083,-2.34489163677634,-1.59368092018932,-0.0389436970709615,-0.958625394166556,-0.0426711964408803,0.385264773487308,-0.660336217012039,0.43405083143927,0.316135077212211
81.24,-2.84834119616154,-0.514159569694253,0.375460606429029,1.14383366062519,-4.6152352135158,4.66534558381379,-1.63330265827693,-0.0625570355594257,-1.42633172749701,-4.49836979372622,-4.93045528087039,0.419445573320332,-1.55550886965534,0.281005933155392,0.79323597372953,-3.08162031160948,-1.81694699658811,0.16763951595188,-0.961263440513054,-0.0271024973046823,0.383914023546897,-0.698882330176818,0.410961377883115,0.323419490147157
81.245,-3.01706489222701,-0.687228446613935,0.0542107895006396,1.44679718696233,-4.4072205187682,4.31139137698754,-1.51440743407978,-0.203732660085917,-1.55514769329916,-3.91392550819715,-4.65747279384403,0.450483799440173,-1.57434579541358,0.264202523678163,0.912147774374265,-3.73643055718089,-1.89226487434656,0.337192035118034,-0.956158180777701,-0.0143900460702245,0.388663091790564,-0.740474908605022,0.393961836494048,0.327870820272125
81.25,-3.24084713050578,-0.748446874954176,-0.275834337169332,1.92525159220791,-4.19612873420896,3.80949162561668,-1.28174422345778,-0.341044619271163,-1.68736655933631,-3.06787523636114,-4.18738775527867,0.559954205027569,-1.55961811001928,0.16731114813203,1.1256764451742,-4.34600486495907,-1.82502857645593,0.538682693913309,-0.958871558804737,0.00358039435906182,0.379599710732934,-0.800913811734857,0.364859602801987,0.350329210206572
81.255,-3.63367644541089,-0.654135525629467,-0.755064091368024,2.5037385357549,-3.92319830201325,3.08679926287421,-0.990448486784939,-0.401779372553034,-1.81401645861785,-2.27488891843492,-3.69529547089652,0.726026600741268,-1.54528546870068,0.0131844323179827,1.43310312478345,-4.75158691238354,-1.63140991553272,0.697877172298763,-0.95767430433658,0.0179221925300291,0.372999253732851,-0.854881208053407,0.338983450711774,0.372250820814563
81.26,-4.02753985226162,-0.472692220248807,-1.2558457743087,2.78217912226348,-3.64542947681877,2.44749067839831,-0.572034672798842,-0.386393921488089,-2.01205014290389,-1.07274331764826,-2.91024761744905,0.970786702206878,-1.54361382189574,-0.14247285902224,1.8737361097033,-5.00047102141001,-1.28910059194234,0.759437027171202,-0.959225353966087,0.0239444993999544,0.357895316402762,-0.903922416884254,0.329741140140612,0.395535719903218
81.265,-4.14323261443596,-0.278891268086223,-1.76369290932087,2.51326567314738,-3.34061393294048,1.84248029085611,-0.337569142946065,-0.280631692250674,-2.14664827101624,-0.0202774134836434,-2.14049809956185,1.0831902220692,-1.60043379438114,-0.215039146298409,2.07815063092343,-5.04246327375029,-1.0435864216658,0.606596463927247,-0.969511583086448,0.0274152012280275,0.336849750400964,-0.980929915035879,0.324580220755711,0.41963979763113
81.27,-3.88340646705755,-0.187502313623903,-2.29070673345862,1.67338172137032,-2.84279957899907,1.26186880980057,-0.265639586416467,-0.0994422173569805,-2.08831268627839,0.884138432533878,-1.05722817128101,1.04430983160905,-1.42283797522873,-0.129700363700793,2.08370109253901,-4.85632335842068,-0.840794685587931,0.226449197322722,-0.972204337939783,0.0147313812909185,0.315822568153032,-1.08994123755604,0.323210176817988,0.430461448665364
81.275,-3.27583427971736,-0.188993582475891,-2.60373298293488,0.74145729368086,-2.21079600246108,0.831099363556901,-0.388975831539033,0.0270626066220313,-1.85374277744078,1.2627086356736,0.0267146108430419,0.832366385817026,-1.38851610632587,0.0465928426802456,1.8441726663828,-4.607196191428,-0.493535945332741,-0.137495129832985,-0.957179319625597,-0.0105956517860821,0.301678560199251,-1.14862750047273,0.343505215335949,0.478822479147412
81.28,-2.5640190123637,-0.25009887617802,-2.6487446372444,-0.183321402087088,-1.32832989433617,0.454024068620095,-0.609694141903552,0.0740298502377544,-1.54682682977162,1.17931696657863,0.820335694393367,0.532788634233418,-1.36003747793627,0.00924794589593816,1.42581174019549,-4.36009936098843,-0.148916193959585,-0.307515590473819,-0.956179453547662,-0.0531386101705212,0.285030942896319,-1.1748375948033,0.39007094779418,0.498594818138519
81.285,-1.85554466926172,-0.290511266650963,-2.3640616101166,-0.953667179399464,0.154108606309278,-0.0379034744808361,-0.806646514078175,0.0723231547578498,-1.21651328892577,0.870521947806853,1.35821071018828,0.160319735918919,-1.40903835309508,-0.187104009364986,1.26009838877184,-3.80817372971282,-0.124174410247073,-0.416136944662976,-0.959671524940667,-0.0849309353479099,0.276849509806697,-1.23369952864881,0.424345235157135,0.502746263299463
81.29,-1.58028335921442,-0.291918307119684,-1.93436225139058,-1.29148188890499,1.41080238806541,-0.480762719543643,-0.88266652531156,0.0501170356486198,-1.03068989398861,0.6874299415718,1.61327535449363,-0.0537350390000235,-1.34968150426586,-0.484322575017724,1.07161008300631,-3.18882196757247,-0.550561861790346,-0.505614828103359,-0.956086528468235,-0.125759173559768,0.277629594973535,-1.2979864343624,0.460617294722659,0.507248792838626
81.295,-1.48610339223331,-0.276806453803962,-1.31376183107477,-1.47592928798671,2.69410900277704,-0.956196771329794,-0.920025299753987,0.0217477820498648,-0.967428334965707,0.474933976024137,1.8770736878782,-0.19555571112235,-1.25332096497313,-0.75914901679594,0.801667063649657,-2.5945825771481,-1.1576556706648,-0.586428174087559,-0.954156736705292,-0.165937204254678,0.285506043448224,-1.34873804418889,0.466439058345267,0.511308918107763
81.3,-1.48253192079537,-0.26240974261295,-0.81362745907585,-1.48567892415089,3.49346822102257,-1.23918273162591,-0.950823252651791,-0.0245747182252457,-0.96260463479741,0.338555664983834,2.04853564351962,-0.225564960064849,-1.06058782596161,-0.891951282931976,0.513204260981425,-2.18447241173213,-1.51389909920343,-0.640270285678005,-0.97363587065801,-0.197530368383121,0.291154162638997,-1.38358369901905,0.431963390327207,0.497235486428472
81.305,-1.51820390018723,-0.2135803230148,-0.305911377348984,-1.36593092331868,4.01394743489844,-1.37375378827472,-0.998006017755723,-0.0445823450549649,-0.940424749052018,0.24546135957297,2.2385157822261,-0.202367465252272,-0.80328222662132,-0.975798660754075,0.216624651240042,-1.72867893075036,-1.47241865889426,-0.607098433348182,-1.00027225838476,-0.213537422143939,0.310305572290289,-1.40174926276942,0.364860934103184,0.453032629300516
81.31,-1.59742250361109,-0.155610836602157,0.160162512059476,-1.1366924573111,4.32224848543416,-1.39634715292378,-1.0082907008185,-0.0644334374144825,-0.939958187349527,0.214138450418755,2.37733727170302,-0.135737237138835,-0.673462739910599,-0.981726432172409,0.075252465550897,-1.10476504392264,-1.11718542454474,-0.481708659671591,-1.03693455492698,-0.222297521591561,0.322750439706369,-1.38702208264769,0.306194226216409,0.376516526063212
81.315,-1.68021955781518,-0.0431002069895589,0.573479648333581,-0.662683861682145,4.32754051692077,-1.24532634697066,-0.991124601809673,-0.112510851546575,-0.961039246830529,0.160048915095931,2.55987513964658,-0.02274727932653,-0.643533137092493,-0.953726943639398,-0.010524237357507,-0.260393705876476,-0.0899700251582546,-0.328883267222094,-1.06829035174369,-0.225405201677895,0.339255062250544,-1.33653504411189,0.277453238742778,0.274166141751903
81.32,-1.71966621525391,0.178112387529417,0.861697063956102,-0.160717079269761,4.05679967464406,-1.00371231359765,-0.964221827689632,-0.130848911989344,-0.964317479019405,0.174074412938975,2.71096910281829,0.0886382993872567,-0.606759490569998,-0.906707444130844,-0.0676682722295163,0.378800224734632,-0.299549390931773,-0.216019020774184,-1.07605408303164,-0.216690890956646,0.351069455759594,-1.28317575024748,0.279556041442032,0.190471379931418
81.325,-1.7039057016766,0.538259197618182,1.02651692144458,0.118084400142886,3.67770952317903,-0.770309687903631,-0.948375567028488,-0.119398934989045,-0.89022876920031,0.239530218113428,2.83740090659819,0.167613927660198,-0.621148105405472,-0.875107802712995,-0.0933952673968543,1.21715122764474,0.0409268685966134,-0.156155376724638,-1.08130979674866,-0.174195398044935,0.363899289454713,-1.22645800188807,0.288469436265615,0.126537289889069
81.33,-1.52227888595431,0.800073597670347,1.06389952594999,-0.0288182261052105,3.27599081474184,-0.431197210465744,-0.955236351250942,-0.0807368243584482,-0.728074191891186,0.309969893843434,2.89715879286796,0.179191704747142,-0.611382088755888,-0.788570996460408,-0.0840156608054628,1.81658324454195,0.246787994128057,-0.234187211781171,-1.06574108756984,-0.134329917036627,0.374187006511109,-1.20461841671433,0.277768235338915,0.106489806020654
81.335,-1.20771057968799,0.947035117139584,1.06648675561996,-0.56438961938539,2.89857874043066,0.129169178046224,-0.951348489009212,-0.0292472237569206,-0.443546556710826,0.341582435161838,2.88032536725751,0.149286572083038,-0.874032242110263,-0.705239330906393,0.865481382109578,2.2872754324834,-0.318090290895171,-0.380346736432707,-1.04867154503372,-0.10435984794012,0.3871510255949,-1.18349641556393,0.254128877684659,0.102409824728966
81.34,-0.675943761974416,0.98519865019249,1.170806820324,-1.20966785743317,2.70146816443233,0.72386921060407,-1.00774419016195,-0.0851060641837749,0.153044315320695,0.400502788605985,2.7335211739102,0.0822050172231588,-1.03316235643551,-0.526600077027877,1.06269477202245,2.73816303583412,-1.47060636996248,-0.44884960447213,-1.04600959205316,-0.0522288584367637,0.405861325862123,-1.1509537867595,0.207891914440429,0.144457935303368
81.345,0.465816634750282,0.897253857281879,1.38844481064719,-1.94246307819743,2.69508617165229,1.53654482690627,-1.22485892875257,-0.0898868128906461,1.0753358833109,0.379837275879285,2.45733172058633,0.0490115363338323,-0.35590787977419,-0.336900901489066,-0.0617354594844552,3.1724983348307,-1.53772955435917,-0.191991913192523,-1.03998153795087,-0.0123870013256527,0.434543733645889,-1.14639682193396,0.136960306390888,0.206543898955219
81.35,2.23676470516197,0.535628634016766,1.63527580482375,-2.60412936277578,3.05458302487158,2.54012792893577,-1.67351395136647,-0.0881538203490284,2.51150551267235,0.589896983130661,1.82382110785406,0.00286500875103582,0.298839849779271,-0.33905070114459,-0.999272582459073,2.60219444465744,0.729351133982607,-0.301170214185646,-1.05444576675806,0.0280662269913804,0.463579009410708,-1.17597479090682,0.0448513232203537,0.315175018293853
81.355,3.5638354439853,0.159414629706299,1.88256925430933,-3.02988700988952,4.00978118963346,3.16444587881608,-2.15693866053517,-0.402837297134516,2.9548917998055,0.243628650810621,0.943685254831732,-0.0402678045609443,0.603041251553319,-0.109379353334707,-1.33628614845129,1.76105959868514,3.41454261162988,-0.502842423215164,-1.08078210469716,0.0623548563359946,0.488538399079837,-1.20966675531646,-0.0721847527803712,0.430340489596106
81.36,2.24903477578717,-0.0804781717545607,1.96077723033614,-3.25628780418374,5.51922295792925,3.27470991845215,-2.20472042288254,-0.364817150575486,1.49477853678482,-1.55863952899492,1.15997650938249,0.137060912672434,0.267772579624978,0.0975908205203233,-1.16882518077178,1.74114095068238,4.02843065550299,-0.212009977031258,-1.11243713047099,0.0991275051506213,0.495380162258307,-1.21510033587178,-0.175708966682567,0.528793218088739
81.365,-0.101402497279681,-1.24963469592198,2.15778460268902,-3.53338025967598,6.25336478588649,3.28244596373494,-1.57681889992015,0.108423941464811,0.31580686449884,-2.3841491790016,1.43318090445988,0.535989182335236,-0.712682565827646,0.18943028294449,-0.877352575683044,2.71920566136799,2.52823980213947,0.222087810078334,-1.17438446803404,0.12996154954102,0.489127375709812,-1.17404368029707,-0.279115352534533,0.58214327197508
81.37,-3.94549403525649,-4.58729102976252,4.00032406366506,-2.80298687906295,4.82402979204771,2.43562047070095,-0.863138583511677,0.432843709991573,-0.343904815828434,-3.07851167063278,1.78709575335462,0.683548624774787,-1.61077377095362,0.326361831279544,-0.487645405288688,3.53723292209959,0.836614220841761,0.522150513385913,-1.26881098503731,0.151733970421668,0.464570979368594,-1.04460426557078,-0.38956404637629,0.544552098783298
81.375,-4.39215465041536,-5.95572670358291,3.33297031896558,2.11950398727309,0.610888081788838,0.432671072437484,-0.911224975119144,0.860882170723065,-1.20260067080812,-3.90540847528945,2.01798139588864,0.0116608166579441,-2.47115219434007,0.588445451338435,0.0453218202805244,3.96175463255062,-0.672479377236477,1.06405908839647,-1.36872486921784,0.174428797690803,0.441453115596991,-0.825854982651122,-0.445685931716284,0.416672952557799
81.38,-3.59209517457425,-1.17162384881473,0.0760214605620949,4.32653680556275,-0.775569546713378,-2.93218973300295,-1.40376637395997,1.39132343616473,-2.31772915394334,-3.51182527930686,2.08346547410695,-0.630166508204245,-3.10254861321384,1.00160342037344,0.544675759610522,3.51873025355251,-2.30419546904514,1.96674141310178,-1.46558143733663,0.231169937231052,0.431610938235655,-0.593452384912816,-0.47220094860353,0.272866970697418
81.385,-3.33366368822072,2.25185584736998,0.0420018933548883,2.40817247062461,-0.648631272491189,-2.71837429257746,-1.38073805024247,0.850341006472286,-2.43296673491487,-3.13758860468102,2.34204452047825,-0.570931339990859,-2.73804607706646,1.04524208548777,0.624167039101617,1.54648076076082,-2.66176848377373,2.4468612021497,-1.48788299206413,0.234149574650663,0.40642344365748,-0.539440230183577,-0.445027601169331,0.173255923799441
81.39,-2.117889699322,3.53995110929019,0.29684564755814,0.179942667387077,-0.350296719893518,-1.11397018050655,-1.41135819803729,-0.112443336230657,-1.85479135572579,-3.70200100551352,2.39994666824331,-0.375611334203141,-1.75502757428689,0.767337326718616,0.502890207353666,-1.76102331735105,-1.49262092808615,2.58519320451192,-1.47886775777299,0.202605362373602,0.350140881706662,-0.513467966194235,-0.367285458423781,0.0993685379389972
81.395,-0.225671409908549,2.24883106738746,0.653169636795462,-1.46782587384027,-0.245795126424779,0.633284673743732,-1.6782434515165,-0.640970298733725,-0.816572111468245,-4.29025351677559,2.44870529709828,-0.117235998471711,-0.908449088850963,0.618607331626441,0.246022622438526,-4.37511579345215,0.328880181590304,2.50115821830361,-1.44182757065815,0.197309655989045,0.249672316027537,-0.545995599230558,-0.18335747398482,0.0762648329704365
81.4,-0.245739275902073,-1.19306742650501,1.16550506691851,-3.58910299555117,-0.448584260967398,0.0254330474308043,-1.86259922004529,-0.835414100552666,0.199278087470026,-4.45449546021115,2.43893404576552,0.243901628766406,-0.639282733604712,0.155828952697044,-0.156151330020333,-5.28412034258221,1.639673786058,2.45045639488943,-1.40127201838362,0.197458679545702,0.145492451093008,-0.671129315884038,-0.0145821562350186,0.11040628385055
81.405,-0.577093331071556,-2.61676296510941,1.31022578426911,-2.90203154413177,-0.635213669888763,-0.754094077256725,-1.8294789660741,-0.837502023107845,0.550109271708964,-4.47880637506323,2.04093165549902,0.321449447786958,-0.872815261347284,-0.935737857722276,-0.481463792459315,-4.91025913484642,2.27319996370388,2.93368625564753,-1.32719644526494,0.176240690022762,0.055320956862604,-0.826559098546501,0.104009947952,0.170188866138851
81.41,-0.475521840583901,-1.12659261607543,0.945202336281218,-0.61560324658321,-0.351511509610683,-0.663110713659289,-1.25737304733402,-0.660522042893353,0.132438644123352,-4.12630403429084,1.60548231674322,0.367801370818971,-1.27062419642262,-1.09043674039515,-0.616054905584238,-3.90740565339335,2.08978903994188,3.34359909872298,-1.25080308267258,0.17557293875895,-0.0248347264789777,-0.974487480766915,0.144978613506953,0.234448986608793
81.415,-0.586660833512089,0.294882783695831,0.844856843612967,-5.84520619710018e-06,-0.0737901924108301,-0.224895525920158,-0.946735352856063,-0.747742992395867,-0.381910368132648,-3.60529255358097,1.72879356376398,0.533808470409066,-1.47224050498687,-0.859729952351932,-0.566903488242196,-2.40650013816346,1.36804463391411,3.16622209534638,-1.19063214486355,0.195034905318703,-0.0618688048515444,-1.08337930067094,0.123686072205708,0.275556173258409
81.42,-0.601168318538632,0.289830804680419,0.897802091219957,-0.283914376999866,-0.0472982676727935,0.135606397771255,-0.724536189482676,-0.87402200386782,-0.489318913426668,-2.70778896898858,2.11086788159807,0.564063903038742,-1.37606919291177,-0.748403678534828,-0.450507548956232,-1.31517787338816,0.972548531460074,2.54086363518753,-1.14843860477463,0.175801010512998,-0.083874747196788,-1.12924197711445,0.0849703600040787,0.290301684000512
81.425,-0.527000086682651,-0.424936003308221,0.92170984566755,-0.504921614079135,-0.0647411786326607,0.0526141712500484,-0.684692194804225,-0.8338904567459,-0.246960382928618,-1.81363810525936,2.25635081667938,0.48604311603594,-1.07985585038155,-0.762473551212217,-0.372566072391185,-0.61568084699358,1.10963369210351,1.73717750752614,-1.13266605312376,0.106227253675301,-0.069746763461789,-1.04863781380822,-0.00693999573934313,0.185241434084241
81.43,-0.488968176602803,-0.598416233331693,0.937904910663447,-0.305207099640331,-0.122656948592539,0.0209207319946535,-0.702297641970432,-0.653889992388229,-0.0524707030100216,-0.953138658494364,2.1119814124658,0.414868124886164,-0.702070534039953,-0.719878965540352,-0.287986251390875,-0.0947268240999875,1.44823369884177,0.997069077688512,-1.13195290560787,0.0643178024638885,-0.0612551220264305,-0.878001627922638,-0.0824517805322214,0.00436602939709636
81.435,-0.407659959385862,-0.227476002951479,0.904229996255027,0.00477732067969878,-0.135329306125641,0.154562961080821,-0.707177168518557,-0.449421622738529,-0.0576935598960546,-0.236321316570014,1.81619174906714,0.445397745838611,-0.438702951406886,-0.588913385903283,-0.18095363537334,0.297421811675458,1.68662986643606,0.600375798976513,-1.12613870634639,0.0823007328781669,-0.0678149269045601,-0.672186781088839,-0.0884235915448105,-0.197314664718159
81.44,-0.415079807551127,-0.103367774678069,0.913332611011351,0.0635181602896849,-0.139363702536447,0.201278582745023,-0.709664690087517,-0.278845189739831,-0.1131467251709,0.280169701991799,1.55115152601965,0.557530947500845,-0.392223600612182,-0.357440118417754,-0.123335565161546,0.851050627422866,1.79542971300921,0.299184435287707,-1.11716647796711,0.129014876698696,-0.0815368656309271,-0.56757153906543,-0.0191081707894715,-0.239559382904459
81.445,-0.438232959325322,-0.0927208780341167,0.911503634648172,0.0498134735719687,-0.144320771141262,0.177051041771991,-0.816725912410792,-0.13961524962707,-0.17573634272411,0.81053446249885,1.42625978872609,0.652585287944101,-0.47555321369079,-0.19930547499292,-0.141001351829149,1.19295073826454,1.77330370415707,0.109097374297097,-1.06818440300116,0.246947441108356,-0.0867587006268732,-0.549873135539973,0.180183161500495,-0.196922728171777
81.45,-0.407710624370384,-0.038152394871859,0.90827495122053,0.0592852258017325,-0.128075559569042,0.141324061236092,-0.944590933050505,0.0379906737005195,-0.213286426966114,1.13010577281197,1.42043396122382,0.695831383972643,-0.669023734918032,0.0321891422625123,-0.232400194878734,1.86871183038161,1.68315479125307,-0.120700036297657,-1.01049354130094,0.300036287785464,-0.0784758125113116,-0.66595881902917,0.343747162201274,-0.0047739455893803
81.455,-0.382347014749447,-0.0205629583078067,0.913062130078854,0.0853810443445187,-0.0951942049545577,0.114530207162602,-1.02880613217343,0.209954011926394,-0.175756417141835,1.37726007490361,1.41429602367332,0.676888404285847,-0.781038285701299,0.166322987635276,-0.287169423117024,1.96099759050309,1.57185514785022,-0.320212986388278,-0.95318432631916,0.26376942128834,-0.0482330134902798,-0.839532745717045,0.448367012901006,0.335104869443745
81.46,-0.363525963557975,-0.0493611788950698,0.911271424106045,0.120883765269038,-0.0509795224479279,0.0607884219447653,-1.11326717758081,0.406289167760954,-0.0946262799451762,1.43879598634032,1.36326771925429,0.618532933520136,-0.868393574733556,0.368008817866135,-0.298761892925515,1.60176903603487,1.33823027658249,-0.536494930850422,-0.924126463596488,0.178772655444517,-0.0151322078229051,-0.931596135570067,0.459731096779017,0.455502854137412
81.465,-0.362708396645074,-0.03678918778935,0.907904911698698,0.0907094126250717,-0.056619523799927,0.00441168620814127,-1.15804238815749,0.498209687071424,-0.109230098004184,1.30873176675292,1.30088051655269,0.519178149539661,-0.947558533173616,0.568963658083196,-0.261196113653663,1.28983520553007,1.04776369210455,-0.502403686865522,-0.906049995100047,0.094008399969068,0.00935260285127731,-0.953849554734906,0.42188998671865,0.445266114166534
81.47,-0.400527408785927,-0.0361595066696031,0.901251384709461,-0.0103925989985644,-0.114027719115271,-0.06840573467301,-1.15488410969503,0.544519119240662,-0.156587272828026,0.990252114548703,1.25839291980954,0.382538109472224,-1.06847625816693,0.80577293744965,-0.210176390098769,0.638148881436667,0.833320894234932,-0.201020090693703,-0.890618850440815,0.0202460668814701,0.0371883537187607,-0.927478688596577,0.36800913365535,0.334973929335593
81.475,-0.402472972497798,-0.0656647233923157,0.911012529588213,-0.100378501977333,-0.161959134561705,-0.11971132429572,-1.13310088287766,0.525812677491573,-0.173525874032429,0.586242791391868,1.25037461159815,0.266568769921621,-1.13408468009006,0.953312165711389,-0.152535939469102,0.057257674749088,0.674746310865285,0.263002294659442,-0.862219778934492,-0.0123953202884488,0.0590309493403953,-0.889548937354481,0.311280970397768,0.18405746061848
81.48,-0.378184289743153,-0.0870961310964832,0.921681725609714,-0.152388794610266,-0.1938401621849,-0.150040169055738,-1.12111743092772,0.462604044005104,-0.157009449508885,0.146600594485202,1.25711456189929,0.204390926909576,-1.1427234597247,0.900694557352966,-0.105024709989407,-0.497762264662763,0.610514878357416,0.476929231808193,-0.834381368383592,0.00148030920832068,0.0731977271971866,-0.893944415585665,0.230849756706341,0.0344797278212644
81.485,-0.390117078569873,-0.0953315476041207,0.915902876977933,-0.190723821639097,-0.174544729319904,-0.167593870617338,-1.08367811577067,0.322191232986779,-0.115801944375612,-0.366902645570138,1.23231554019327,0.179501378440952,-1.10625368410378,0.757894289597057,-0.041094476595988,-0.974514454703337,0.644630320727945,0.243620002721962,-0.812692490911411,0.0252948259297833,0.0892365962727031,-0.938432572640682,0.105152692595258,-0.129880489269353
81.49,-0.400659011172478,-0.110681896374768,0.910059450962481,-0.250902938859697,-0.128981284787046,-0.18060860459194,-1.03349322549225,0.156109199472622,-0.0822703329272407,-0.631916464206351,1.20773283598177,0.195473275452311,-1.09648955580397,0.664327622343693,0.0164065447080674,-1.35931698455361,0.741784534704858,0.0820880163317343,-0.815681408289436,0.0439566633264404,0.0820806873556834,-0.966245748499071,-0.0230247447482358,-0.252387670156984
81.495,-0.41223473267357,-0.15325306874921,0.905671403910523,-0.290441990461275,-0.112856173415743,-0.176006667646022,-1.0244243464911,0.0130401940769559,-0.0607847481288681,-0.806014322761945,1.19643592834473,0.259987243550125,-1.1225651927511,0.475264075002054,0.0406935940344504,-1.66136700456509,0.683160323132933,-0.0364270355308602,-0.83053041450553,0.0502393947917988,0.0723188715138494,-0.939727681224499,-0.151902611242575,-0.392186970272825
81.5,-0.424302145203417,-0.17827485383185,0.903449458640444,-0.308718239791085,-0.09821477812686,-0.151568961320734,-1.02619168159321,-0.014483358032157,-0.0584129389715122,-0.914625934755505,1.14144253091517,0.273664078286909,-1.14811951924737,0.301472504094808,0.024415954015426,-1.84630382977999,0.526976945308539,-0.202063737605328,-0.865456568783727,0.0832539327111944,0.0397953742575232,-0.878670626652608,-0.202317379352814,-0.477320832693898
81.505,-0.41814958021871,-0.151840415745908,0.904525086591146,-0.321196580830702,-0.116885945852951,-0.134737391205426,-1.01960863736858,0.0297690641458093,-0.093151543113347,-0.998420952645896,1.08249594582655,0.274849861531077,-1.09991423106267,0.161172023461433,0.013662941987166,-2.10865732862663,0.481582528901333,-0.344940486147874,-0.894938197977612,0.1410745501141,0.0191788479643214,-0.837373135884231,-0.171393021319702,-0.482067843941702
81.51,-0.410501791172725,-0.144701464835752,0.904037098766821,-0.343961105272505,-0.123481763437319,-0.141824265952739,-0.998245563492836,0.0674834331737508,-0.139296129153822,-1.05020500726416,1.00266388438904,0.260627975806579,-1.02498756645337,0.0477747424751941,0.0184839459011755,-2.447707917785,0.602326004688951,-0.426553335702264,-0.91366592729972,0.196824264558114,0.0115813582972771,-0.866947200420679,-0.086003085298357,-0.399262213085136
81.515,-0.417349267966794,-0.163955982466275,0.902295421541183,-0.35496612539377,-0.131740382815264,-0.14224814963469,-0.982732448283832,0.0738313931042954,-0.170517009766284,-1.06444662261799,0.941862726524575,0.252382514138928,-0.97745737460004,-0.0179607206920578,0.0343661595242491,-2.73518474013055,0.785088882092575,-0.429109485450721,-0.916775403850523,0.204841294116232,0.0187160705672252,-0.905569255758631,-0.0063276696683917,-0.305281598828641
81.52,-0.407989099659573,-0.184896491750423,0.909223237685807,-0.326429979713158,-0.142131891284512,-0.136128402225006,-0.975859873178405,0.0459866640582092,-0.166472259954589,-0.971086847441169,0.894677400588989,0.252431897796372,-0.959785883972154,-0.109571502161497,0.037963124908197,-2.85555665385059,0.913962541363764,-0.388561602244658,-0.911681910483121,0.185832991363185,0.0351620839217928,-0.857127708573813,0.034158351621417,-0.250694384497331
81.525,-0.392529841377983,-0.170734428354584,0.917639131417926,-0.280234093337463,-0.126493973741228,-0.126961020129893,-0.978450216619398,0.0262583657398934,-0.132617338752916,-0.848120948416771,0.891634457697307,0.247105075822044,-0.960234309937268,-0.180377485336863,0.0302861155163998,-2.6550602620399,0.902112600396238,-0.327072137896171,-0.91671165622818,0.184203172699974,0.0591645791869004,-0.710757537309094,0.067293216230515,-0.191242937019444
81.53,-0.37927058769228,-0.152948360416799,0.918400035530337,-0.234485131869845,-0.0979997042518183,-0.118508031217381,-0.985265770899474,0.00820043074632467,-0.0864927550466378,-0.642327901411908,0.866057256097345,0.214292207609271,-0.948417425223341,-0.245459904904894,0.0255014711573332,-2.19682105057831,0.891228281720039,-0.245445459714163,-0.925418874551406,0.19472180527946,0.0771282593943537,-0.601394383309878,0.0651535138580616,-0.133929036416748
81.535,-0.38996119698793,-0.154449449417119,0.913611287503021,-0.204337219147794,-0.0805945335395498,-0.120577194595297,-0.993138514630868,-0.00016510414575479,-0.0674546569844543,-0.506837911580756,0.850696444511414,0.181190465979732,-0.926858366466153,-0.292934537498859,0.0484369678855772,-1.62655171423655,0.936660750841512,-0.162034595844943,-0.952353192895762,0.197304376676178,0.104443841856976,-0.49819690922682,0.0229012769718685,-0.0712819760849168
81.54,-0.392803538647518,-0.149788577903869,0.910521857299558,-0.173308756695378,-0.0713809550763017,-0.116687721061749,-1.000710145092,0.00855165526538157,-0.0894350203197833,-0.323568594358159,0.833272954155134,0.133869175365324,-0.91174352058064,-0.286394150493661,0.0662721180637684,-1.09622286853869,1.01671002824721,-0.0642827408337814,-0.995079579983974,0.192356356860783,0.122993875408089,-0.383007186463689,-0.063430387998728,0.0164769708221939
81.545,-0.397126438246164,-0.140415246069237,0.912575796437527,-0.159959095196971,-0.0648117404875975,-0.111188424467497,-1.00968674267223,0.0372134453760583,-0.118337617423383,-0.187348086833911,0.832273266553884,0.110178517669433,-0.910719608831727,-0.239589844968625,0.0813425713870279,-0.610155004035923,1.07579869729728,0.0653922250944243,-1.03423473171066,0.189457229742298,0.130872483005949,-0.309935972581638,-0.121705255423955,0.0926329230581189
81.55,-0.397103221579602,-0.140000401960789,0.908699633310068,-0.159505117274509,-0.0617688049757882,-0.110480473135879,-1.02676062025937,0.0798499534366789,-0.145840816638358,-0.0791174233140668,0.834788591876095,0.0820777198552236,-0.916354775547798,-0.168666742808608,0.0822532453932774,-0.166187899234539,1.08942176403624,0.207318979866663,-1.06450911332185,0.176623077381262,0.134754641274863,-0.279752810827173,-0.139629118263083,0.189610612287329
81.555,-0.396021992965443,-0.144060767357059,0.907469546005432,-0.159673222756644,-0.0641663980806668,-0.109617896909125,-1.03810501205135,0.114465479016915,-0.163115140007949,-0.0558263555080269,0.827940519368353,0.0600864767706299,-0.937345674302872,-0.111174020297389,0.0764298853438168,0.122705873523627,1.06593609481133,0.302934483698523,-1.07935713175193,0.162547807538112,0.135115558703763,-0.291729473258,-0.124155606732238,0.269151462170589
81.56,-0.393897288033636,-0.141233005409119,0.906472388344802,-0.167033400089967,-0.0630461879772333,-0.104884020417102,-1.04490213206467,0.104478706388566,-0.16427004431045,-0.102902384512825,0.820621700634531,0.0579749554104992,-0.968925823636923,-0.0628168119389699,0.0796901910518864,0.423815012568774,1.03466375505096,0.395270478746827,-1.07882808405593,0.136100826452227,0.140287031779469,-0.356001163589968,-0.0871367816552455,0.348454441002035
81.565,-0.394705679682644,-0.15419805754966,0.906276474853429,-0.177750293209768,-0.0571408569812775,-0.108689851721299,-1.03356111105611,0.0689740998253224,-0.143162811162847,-0.175089983220697,0.827601611857572,0.078928688075135,-0.990852548101957,-0.0433567302413527,0.060777543194723,0.640835121068763,1.0331484798638,0.434082747921766,-1.07279619489362,0.106319894473083,0.145009892123211,-0.415945711639638,-0.0708583096819002,0.3810363757271
81.57,-0.391022325272682,-0.147193540945386,0.905282700064526,-0.194481403942169,-0.0365478089898983,-0.103459194302559,-1.02587492201565,0.0317917328238537,-0.138704084714705,-0.176283962050584,0.825723794684925,0.105733644838003,-1.00920496863908,-0.0375834802752941,0.0427719367972296,0.870559798333239,1.05794084880951,0.468411148904522,-1.04751253040816,0.0750782799051157,0.159182924774588,-0.461954773526895,-0.0976512086149827,0.36707109107424
81.575,-0.398136937268028,-0.150603549750282,0.900172053550478,-0.211319905946791,-0.043028493171686,-0.108409228070415,-1.02362155102231,-0.0028042576416911,-0.151422141953815,-0.125690566974505,0.82024498224887,0.135174112312616,-1.02396819210877,-0.0381564722585317,0.0197938377252929,1.08722494030808,1.08874678726802,0.477138490492508,-1.02247043676633,0.0436898056001824,0.164472988986753,-0.4687068805588,-0.154120930504129,0.301038156235956
81.58,-0.393795078567355,-0.15710808873169,0.90347261300572,-0.226230213138934,-0.0424805134534836,-0.113412725788549,-1.00340288479667,-0.0195850022446367,-0.152977224380267,-0.0295511646972073,0.780212594893227,0.151872708625736,-1.02753160441127,-0.0365694729963862,0.0113432771061372,1.26069044833964,1.1140560088291,0.464832316129752,-1.00459601762985,0.0257373226751356,0.163523164283924,-0.436035366809373,-0.21723153589667,0.20752593219904
81.585,-0.386386054516755,-0.168846143642234,0.908394279172959,-0.24542067812932,-0.0457729425282745,-0.118726962351876,-0.994585739041724,-0.0125504432390488,-0.160817531024198,0.049173929072309,0.763060083619998,0.165575093276749,-1.0148717204455,-0.0295491488544364,-0.00288421799878966,1.44403835710745,1.12974917526047,0.440225992252421,-0.992226738015913,0.0285475066300205,0.15316256177084,-0.39087453789252,-0.258890996192861,0.082090037938563
81.59,-0.392764277576442,-0.178037650979884,0.907324188211008,-0.249552877632515,-0.0616200212009657,-0.118934179675186,-0.989310512284916,0.00273576188366052,-0.158880765591929,0.124251866213219,0.737427597153933,0.173789610790624,-1.00246884238972,-0.00103208340876025,-0.0209355587416569,1.54569828126715,1.16262873141588,0.400913375171998,-0.98099057260856,0.0332531746964351,0.136486833504503,-0.35940325662282,-0.265228228328262,-0.0303735940249741
81.595,-0.391805364649562,-0.172192922402327,0.91094520214624,-0.244459358891876,-0.0486595102110543,-0.111780819178449,-0.988241906008352,0.0288665300555949,-0.161266530259677,0.184059227347801,0.714346630798471,0.169338276123536,-0.994208750898847,0.0268402935200716,-0.0401951458465344,1.61744695257499,1.20490478318187,0.358156526225704,-0.973728614461458,0.0420743480843681,0.126232203669603,-0.357476387801583,-0.226718948943096,-0.10499809929615
81.6,-0.390584049368251,-0.168020199471556,0.90300280923927,-0.241577477205454,-0.0377770573997257,-0.106757636894303,-0.985932156354923,0.0439298009749962,-0.174359880310852,0.234847318442759,0.681816912013615,0.143137279360494,-1.00329545065831,0.0628865964095644,-0.0567046964238506,1.63957507870757,1.25182202115367,0.304552474628506,-0.960414791801969,0.0744472645117522,0.12125532101284,-0.401531814808406,-0.136039652338806,-0.170624755551805
81.605,-0.394278278402621,-0.169177222538024,0.90023962663619,-0.221253205311769,-0.0405299647269076,-0.0994296810834321,-0.98990941822986,0.0692850102997492,-0.184078021475412,0.237197040215042,0.674213930371154,0.129782869818557,-1.0112513456542,0.0978359254503463,-0.0676081604832315,1.60828165020735,1.27420192949915,0.259229227886174,-0.956189627145133,0.100422542857737,0.129816595514484,-0.46843328998606,-0.0466993378370939,-0.191262565832238
81.61,-0.390451056958759,-0.170936559217255,0.900228057530324,-0.205036954371584,-0.0368101196924562,-0.101246171398262,-0.989784217506488,0.0890426585284226,-0.192470367484505,0.227356918189282,0.662000702514679,0.114168663027606,-1.01640799168265,0.125575877579418,-0.082110212575599,1.50166121522381,1.28040473744821,0.205811648018388,-0.943972486929446,0.130927578780849,0.145751291195971,-0.565593593327594,0.0473312968082959,-0.184652412765273
81.615,-0.392849517629335,-0.171104701702527,0.899938824161192,-0.18554100356107,-0.0322127624504989,-0.107375984517717,-0.985100577451409,0.108193840855612,-0.199936226391538,0.196850311887769,0.646784367565181,0.0972343144059358,-1.00505556345228,0.137369633817573,-0.0986431440213026,1.35629589926863,1.27326923912229,0.158775438349101,-0.928010288031147,0.157285831041632,0.169845886700976,-0.674598406456899,0.120597253854717,-0.155560378425328
81.62,-0.394841503310794,-0.171718967534171,0.899370291294733,-0.168773565139084,-0.0400371253490448,-0.110894068379478,-0.986098458087831,0.102883514656511,-0.203003803472278,0.175166439736906,0.635010198635254,0.0843656160538982,-0.989475376777189,0.146273809259103,-0.108647726253009,1.18626706601744,1.25806802041598,0.12046807934974,-0.915759615724145,0.168313952334736,0.193979135954768,-0.736859689884081,0.138923187989862,-0.121460767684355
81.625,-0.38880929428325,-0.172446705134852,0.900330070170641,-0.156090652059755,-0.0392975283642703,-0.114711948140444,-0.991630737617204,0.0920666120044722,-0.206108010645552,0.136879949854924,0.600520174686639,0.0714827364706205,-0.961024353223013,0.148857130284156,-0.100403184946879,1.00052659688196,1.21118695522548,0.0904663263126378,-0.904573050161837,0.174536733786398,0.215004058797579,-0.755173052997668,0.141259210928508,-0.0903133045300355
81.63,-0.388271993157661,-0.173145663046732,0.903183797984807,-0.151670046361863,-0.0427880622126031,-0.116820949137773,-0.994124777307537,0.0695764780383628,-0.203842037542216,0.101368708502646,0.570900107069022,0.062291502223334,-0.942077639151236,0.150244490798261,-0.0941794564586383,0.886291494748232,1.16718973651844,0.08540218251341,-0.895675509680433,0.178059005156528,0.225901303381689,-0.753471866416466,0.120422026046257,-0.059851915476427
81.635,-0.391765061496867,-0.165211910069389,0.906116429379601,-0.148688524690851,-0.042497682821665,-0.108858678443487,-0.999417315709721,0.0633279221695268,-0.198445559403968,0.0891385724537924,0.557684321409941,0.0535691989543902,-0.936446070929829,0.14137044634613,-0.0816342410858488,0.795962201099072,1.1146814613646,0.0827259123325348,-0.890647536373991,0.176875079408041,0.23285678221426,-0.727291073727532,0.0894901565957915,-0.0433283400982563
81.64,-0.393572999669203,-0.16079043457031,0.903108787293921,-0.143813259565608,-0.0474067832200976,-0.113153767296274,-0.996268834057977,0.0662678146940821,-0.204701073369559,0.0810481392509786,0.543942869438798,0.0444027773373279,-0.941471576228244,0.132445615429983,-0.0818223939810652,0.739904249204026,1.08244249556682,0.0803411983476194,-0.895869644872867,0.172620965221241,0.235208511289392,-0.671409025330543,0.0416188103723592,-0.0297530886484342
81.645,-0.387078620812511,-0.175163753497284,0.903047891307922,-0.1530851930773,-0.050582029422836,-0.113446744985221,-0.998059710718135,0.0692145222863128,-0.202657556697326,0.084168377756951,0.519786612097319,0.0409035453307346,-0.966951980431272,0.130689248410016,-0.0789473538228986,0.698711140938883,1.0600881323327,0.0595693655507569,-0.908951802943422,0.170518934208304,0.240545784159324,-0.619168219903788,0.00424421980439449,-0.0176694147816054
81.65,-0.383347713060755,-0.168747027725077,0.897832922131792,-0.163022794369598,-0.0519542306732317,-0.123867022488582,-0.995869531940747,0.0759087968679557,-0.198155687946001,0.0730187965274303,0.508604603017584,0.050529780639292,-0.994406819223207,0.116907866835791,-0.08524197156952,0.648001704890263,1.04153644162465,0.0222438335739275,-0.924241421018779,0.166908923609747,0.249493777831827,-0.573989076276396,-0.0387478560492916,-0.0100470268224122
81.655,-0.384343802866644,-0.177061125078005,0.90155589277925,-0.174106454460957,-0.0456405510315544,-0.12863701150522,-0.992242535640654,0.0720344787312497,-0.193120485160688,0.0439521293272354,0.488789358431269,0.0531493047998341,-1.0185787623059,0.109619036273553,-0.0855755757636636,0.58148054109105,1.02461990927486,-0.0319763189138565,-0.943126220711961,0.159131584991133,0.261208623734719,-0.522251326797087,-0.0919260244207362,0.00588395456376156
81.66,-0.38291678273707,-0.180501631964025,0.905155544563322,-0.173069609027969,-0.0595577286185607,-0.129220842071523,-0.995113440444624,0.068883167982385,-0.193148459255111,0.00337841968570258,0.477972166977556,0.0608122530364424,-1.04481772477189,0.110746277779121,-0.0875948771999455,0.515755348970233,1.01389587671429,-0.0848050716171367,-0.955012406656158,0.154570918647327,0.266625195508501,-0.494957261389732,-0.122317765740812,0.0252643178512455
81.665,-0.379777506784222,-0.182075709515412,0.898804764306518,-0.187103896444235,-0.0587352834281076,-0.129901439766327,-0.991955632120385,0.0628414138351779,-0.189061597060195,-0.0455905353096715,0.473699764559534,0.0627608728949796,-1.05920990126087,0.122829339962384,-0.0977484545493204,0.413783160406221,1.00425615607806,-0.155254811777924,-0.951031083695471,0.140425149503488,0.275560072662977,-0.482536745794149,-0.130356097311233,0.0457480051968407
81.67,-0.3814700384832,-0.191821372588141,0.900604515486708,-0.198619922930229,-0.0549343205016931,-0.119898644122368,-0.998716683915071,0.053422825791948,-0.196394364351262,-0.0978700869829008,0.464012687002567,0.0605477031556139,-1.06795405434667,0.129848052468194,-0.10302586389433,0.327100027498399,1.0110004022739,-0.208870946048167,-0.948091816481169,0.127296477977003,0.278597981470542,-0.474708797905356,-0.130554345769031,0.0630619938047106
81.675,-0.382132652515784,-0.200424698012265,0.89961117350611,-0.194841125286933,-0.0510323792695999,-0.114447593376768,-1.00753180386059,0.0365072268488894,-0.207181803438959,-0.131241938629141,0.446712571670754,0.0514574606488706,-1.06644933723518,0.139946579426468,-0.0983159800598437,0.22736412991189,1.02427521833178,-0.251819657054982,-0.949819417985572,0.109786924601794,0.287074796661158,-0.479976066787355,-0.13324624038277,0.0687044907265691
81.68,-0.386140187647512,-0.195761442616312,0.905068414898647,-0.185006989771076,-0.0499455655933457,-0.103054533290773,-1.00811268566249,0.0322448319654878,-0.21581669915867,-0.147636424393398,0.441881339950207,0.0364349926089349,-1.06485318016302,0.149266748602731,-0.0865737715933717,0.129163286621126,1.04198450838196,-0.272437087176903,-0.944166016865851,0.105152661066675,0.288455149800074,-0.501106667625349,-0.140529607332091,0.0660984698345676
81.685,-0.38190873310015,-0.19208077832255,0.90206545891777,-0.179003261282861,-0.0541192587373012,-0.091652595138532,-1.00353886564526,0.0537822869996196,-0.207533761722719,-0.148827932752016,0.434406961612612,0.0206113339188492,-1.05009666506794,0.14812918645612,-0.0749875649817464,-0.00905584202204598,1.05516670611787,-0.282152258447584,-0.935047137441473,0.0910559097187954,0.28462755774363,-0.513097153422849,-0.178832220999262,0.0499756950086617
81.69,-0.381882241922551,-0.18267329937042,0.902746433744205,-0.165956090943399,-0.0563479324741993,-0.0868410011230627,-0.997224844763957,0.0827565913259117,-0.196791417615783,-0.169332268370602,0.438445371069431,0.00965035054847339,-1.02889459951381,0.146222049027568,-0.0768804160967979,-0.17221442186302,1.07955455849321,-0.280236658091876,-0.926642051974498,0.082802917983507,0.278767699710619,-0.540522704713826,-0.215196048553955,0.0209520727877405
81.695,-0.378902941676646,-0.175122227894636,0.90148895416698,-0.162325891823098,-0.0636062183627097,-0.0932219758159887,-0.99539863653114,0.104797951866915,-0.197903903361028,-0.179592773318291,0.434986179147296,0.00495060243441385,-0.997127976172866,0.142819666682882,-0.0739788851995375,-0.374426127951408,1.09594307231272,-0.282791402865362,-0.930634791209914,0.0832788263593635,0.264320626403702,-0.574460489771504,-0.234603321753191,-0.00882068585012378
81.7,-0.381463043602274,-0.175997858130245,0.899798546067482,-0.155753761529922,-0.0739941293004011,-0.096402241923531,-0.985471233926945,0.108106162316387,-0.199502428295582,-0.183555741985706,0.425646063449138,0.0119362933157447,-0.984839876001749,0.131892686170819,-0.0698478374442314,-0.510807780678402,1.09826331747066,-0.286225825548172,-0.927014682695844,0.0774451953041861,0.264940874531433,-0.605092098451302,-0.263542737913623,-0.0439907318331935
81.705,-0.382584370755083,-0.177910669413629,0.895216075691303,-0.155390236624787,-0.0637141176266367,-0.11115288352101,-0.97950984063734,0.0978867407374509,-0.184511583011407,-0.196124686602866,0.426965951518926,0.014753445508607,-0.981356926973308,0.12000023068821,-0.0617466897139157,-0.70691179114683,1.08259688086904,-0.290626773719903,-0.935959872549962,0.0846393029719597,0.257903600884893,-0.634296304886535,-0.302304683291829,-0.0785379929815974
81.71,-0.37610134687088,-0.185080275300772,0.902003474958008,-0.151840582238837,-0.0719252379004139,-0.111338186568066,-0.971122388485371,0.0780074833466426,-0.180211702256825,-0.194896064186401,0.428030367083166,0.0137418787463858,-0.991462056301485,0.109539904649536,-0.0435985705269245,-0.826696301235413,1.05633095129766,-0.298243736407555,-0.93990042774627,0.0931702307114826,0.26379313730945,-0.658858499696451,-0.333007377597935,-0.101800720165023
81.715,-0.366184199367446,-0.197617833145772,0.903219064710268,-0.150623826985985,-0.069108726375096,-0.113724976183749,-0.971900230703601,0.053119672714736,-0.179440006566999,-0.201476901852358,0.426937535825686,0.0103207889053116,-1.01432032565606,0.107750842948115,-0.0381840496141548,-0.946813522855664,1.00192353307441,-0.303317259378269,-0.938046987521874,0.105007178216256,0.272448142083998,-0.676022575651488,-0.376863951341366,-0.109781542413608
81.72,-0.369528143673172,-0.201616219185712,0.901743221953166,-0.157807086098443,-0.0624827077118641,-0.107890896386199,-0.981849566259153,0.0293546860358305,-0.162042263963808,-0.2083674209017,0.428290439185812,-0.00846086807963559,-1.02176811790541,0.114149279369042,-0.0640570514757538,-1.07818325430679,0.94665603008593,-0.314527680013549,-0.93909427700579,0.101823876557605,0.287685391723523,-0.68030836409623,-0.414090593915004,-0.106671593274615
81.725,-0.373669365227719,-0.187847620613071,0.899285663671075,-0.150498920505631,-0.0772046252799559,-0.0961134841936447,-0.978834698556335,0.0352544522554824,-0.166950905432749,-0.221708072650058,0.43363218803556,-0.0237034091336091,-1.00637870826908,0.126507110126755,-0.0743533768743302,-1.21389739911006,0.925682194369685,-0.313935822059497,-0.938701004611849,0.104486170291335,0.296857628094701,-0.680156582353465,-0.4548545052877,-0.0900236221965661
81.73,-0.374706098101916,-0.193228647541349,0.902561279333102,-0.149645283818245,-0.0827661058816366,-0.0862699798959783,-0.988847149836739,0.0568438683647439,-0.183823733750596,-0.237187757576195,0.435320317745209,-0.040871213240845,-0.993703269732097,0.131503761755808,-0.058785946043848,-1.31928569361308,0.9212677334255,-0.302655634049553,-0.936099405458242,0.0940512483352749,0.31876892886005,-0.672078103696938,-0.505538186124417,-0.0693827948002507
81.735,-0.37803590026073,-0.195380558377721,0.900548807964022,-0.156401294308166,-0.0684537126232656,-0.0889943501280763,-0.986237026532435,0.07585225066787,-0.193014785511056,-0.234546313216404,0.431401810856706,-0.0568426792192862,-0.98338246361264,0.115773832397752,-0.0446374797206555,-1.38319944769786,0.909119425407108,-0.291413474540731,-0.929316333119952,0.0844216553577559,0.334594070549043,-0.647620386005862,-0.562155655078678,-0.0555988893667922
81.74,-0.369699577005799,-0.189517660374516,0.908300045119376,-0.159700545084233,-0.0793191554382673,-0.0916178576502019,-0.983997993710863,0.104234877133576,-0.199071209800671,-0.251647648006308,0.445393024621684,-0.0581735356875739,-0.989026252264953,0.0934226225308842,-0.0449056194716371,-1.44603851299258,0.889539768915453,-0.27929676398733,-0.929243414163406,0.0715613043075648,0.345425604541285,-0.629656618059019,-0.631079444756472,-0.0465213467120565
81.745,-0.365858938316148,-0.188963488883472,0.904866855225577,-0.167107916401274,-0.0822236126209463,-0.101733612477301,-0.989802190167786,0.125256830036545,-0.200900044504022,-0.274227856501217,0.451134203412686,-0.0627545081794353,-1.00176741347509,0.0552294906907881,-0.0540167649751307,-1.44475487632085,0.882970713690101,-0.287387896451781,-0.940461189597642,0.047973914152878,0.349511558794134,-0.592886990406531,-0.735032264643443,-0.047072708774705
81.75,-0.36805990537927,-0.187417966207962,0.901592491576571,-0.16930798990348,-0.0839274627284936,-0.107471057856651,-0.995337142632472,0.116650481952275,-0.205887702398396,-0.284795080621735,0.450929141717976,-0.0629595749797167,-1.0140641331564,0.0248290002607522,-0.0659415836497775,-1.41492778594209,0.87005209401182,-0.298305416802656,-0.94820480547591,0.0322868533226213,0.350372274907075,-0.559992415016532,-0.80762668196688,-0.0539052146693083
81.755,-0.367990780390371,-0.197040187235685,0.904703442764094,-0.166466018304159,-0.0819957854790559,-0.114737436487665,-1.00127308395376,0.0871057537338705,-0.208670217354238,-0.283885978722126,0.447761872186387,-0.0561559139455819,-1.01480494596913,-0.0140166841589971,-0.0688953022847028,-1.36730947678191,0.858253203204263,-0.311105477020664,-0.957594482360095,0.0139744703512038,0.338922861794807,-0.502857903065188,-0.8939956603823,-0.0771271049818594
81.76,-0.366880469779639,-0.20640596291509,0.90833095070763,-0.170252497356456,-0.0815747380256653,-0.12059523708365,-1.00610831597141,0.0363363565649772,-0.211352485331282,-0.281203922710638,0.448877919780947,-0.0499340975372247,-1.01729340333589,-0.0573163394664838,-0.0748864720189187,-1.32445291097268,0.864356043198379,-0.314410300184624,-0.976333140212419,0.0024243017986849,0.315671800408676,-0.441491730258075,-0.932550644436943,-0.104851722304203
81.765,-0.364482248510396,-0.229463393862756,0.904592888063496,-0.160090802118456,-0.0819259752463222,-0.119325966986042,-1.00209797488938,-0.0116703836492778,-0.221267145181285,-0.246371567149915,0.447433656214663,-0.0421122513291711,-1.00552186345723,-0.095610294960568,-0.0820812518197456,-1.25090667066966,0.87587319608078,-0.315546482801437,-0.980811544705202,-0.00984878489849221,0.296462738065368,-0.376821672722056,-0.921828877649823,-0.13558658704731
81.77,-0.370598481288612,-0.221308667752242,0.908197329834931,-0.145104928234219,-0.0789047095612959,-0.110638263570454,-0.99911906733917,-0.0254937038749192,-0.22364134822879,-0.185552473651341,0.447093218838383,-0.0487016837029994,-0.999877309317193,-0.12916094883607,-0.0897692138234871,-1.10578430849872,0.912235241210997,-0.307843037945108,-0.98535535724367,-0.00833338541062713,0.278758950258517,-0.293391912728845,-0.883298801165614,-0.168854881707695
81.775,-0.370227587232746,-0.214685953662037,0.909797860937771,-0.134279552139062,-0.072546038507541,-0.108345970511436,-0.998895400408906,-0.0179968822525828,-0.229664922069391,-0.117754085008761,0.456642913842037,-0.0562411336878697,-0.98765533224573,-0.154127574881854,-0.0969596274343346,-0.944766953558276,0.959040133862314,-0.291874419138189,-0.986052027508959,-0.00628971109347876,0.266152137994184,-0.218483460709723,-0.810660267026755,-0.201745950795575
81.78,-0.375449731482662,-0.227409772770814,0.906899160597651,-0.13106070540714,-0.0689042667981867,-0.10461609831047,-0.997054996672579,-0.00341822617648993,-0.23453299763136,-0.0721239076677761,0.451052138633855,-0.0616148700264325,-0.97994715377077,-0.177086109888255,-0.099755880571238,-0.705470921920216,1.01916390237295,-0.258078289669026,-0.991697912320915,0.00956508044470031,0.254492888932067,-0.145828636944864,-0.737000382588621,-0.214577264197984
81.785,-0.374710884289698,-0.219218219521697,0.908556844483307,-0.124193846181051,-0.0615523460855034,-0.101219951108114,-0.989089206322821,0.0116184655034438,-0.241434309206854,-0.0235564699247985,0.450674495130991,-0.0619925251780766,-0.962978805730343,-0.178765912287696,-0.101889816166966,-0.514337272974928,1.07069819563615,-0.223078433049521,-0.98423768182703,0.0254192641606945,0.257982160154741,-0.0693240375271905,-0.651634320892791,-0.218851609089716
81.79,-0.371700470086556,-0.214047018008266,0.90688272844352,-0.113730348204687,-0.0585483191371143,-0.0968006020964291,-0.989152951256333,0.0293082818386712,-0.237010496636064,0.0194970848552743,0.454867422580719,-0.0584818868743084,-0.947893706759632,-0.177556071002943,-0.103377539068016,-0.349460870047698,1.12125100862829,-0.192993884387543,-0.968897909855954,0.0332526345557056,0.262854235379007,-0.00867641031935052,-0.581395614045154,-0.205647895040805
81.795,-0.375278726968274,-0.208787773115608,0.908149987467832,-0.108362599714057,-0.055664230015423,-0.0934836500076668,-0.982169606062056,0.0505924908768452,-0.239769604913979,0.0538680189834381,0.45387286078972,-0.06399412594857,-0.941581209710394,-0.160905562616169,-0.108272168419934,-0.140991740261506,1.17661878545977,-0.155930422125444,-0.956255155564115,0.0412373866488781,0.264605850645171,0.0572697643823027,-0.524552971896718,-0.170522064843961
81.8,-0.371391055581082,-0.208630567826796,0.906420648021846,-0.10794285983961,-0.0448689646806096,-0.0939053907342075,-0.983981602851889,0.0629505774442915,-0.23606738812233,0.0752214337037023,0.456270889523801,-0.068443972883323,-0.936019457252854,-0.134164699645426,-0.115456282463067,0.0308093658334591,1.23271580275128,-0.128433284647766,-0.947875901360238,0.0462527418133954,0.278734084453201,0.109832776770442,-0.470114245720982,-0.135469800260754
81.805,-0.369475342137977,-0.201355362576794,0.908851555679058,-0.105180628416832,-0.041857132752602,-0.0978343861123959,-0.985882554808582,0.0837801866355,-0.239274844995676,0.0873266835216529,0.4656934416243,-0.0711124554750447,-0.942200817861093,-0.0948102439751814,-0.117923009848309,0.189714528423777,1.26969514547941,-0.10627060547869,-0.945637033437858,0.0398407262670095,0.291637625001655,0.165991568750896,-0.410484682348315,-0.0862525459546964
81.81,-0.372290544801211,-0.19727077566336,0.909791830703659,-0.106885984539986,-0.0342752394208839,-0.0934742244445491,-0.987892982070231,0.0915036635584544,-0.240490590887503,0.0899442905161918,0.448376820395699,-0.0912427803899705,-0.953530753867722,-0.0503981691918889,-0.120668811442134,0.333557274514412,1.31534005565717,-0.0889637331442748,-0.940363135960864,0.0352952235201473,0.308226053479035,0.203113289538622,-0.356558561394135,-0.0489086094224952
81.815,-0.370592287623619,-0.204157862203453,0.902700547855914,-0.113749438634354,-0.0246218083805052,-0.0941837351982396,-0.992161573452002,0.0950776568125738,-0.243495218373759,0.0718101859521085,0.450975736956745,-0.104401395617567,-0.96218664687702,-0.00893791473784691,-0.113605956801749,0.45276537672855,1.34657367642849,-0.0858679339289665,-0.935124199072428,0.0421052486276746,0.333428545313926,0.229209350887294,-0.300794425390652,-0.0100007442092317
81.82,-0.366802926139208,-0.190766626881876,0.888180013172475,-0.114216148853302,-0.0197256089214843,-0.102580467683402,-0.986105912318527,0.101846574681179,-0.240135005694735,0.0703620420539539,0.440535473714659,-0.121820275822844,-0.967039506407006,0.0215241791350282,-0.100150578996652,0.52023421666895,1.37937251222987,-0.0828433864157594,-0.929947532435109,0.0470057266476427,0.346330425368454,0.24364970638103,-0.263025261658146,0.00990128104992565
81.825,-0.368666700190049,-0.202642391371896,0.901815168446125,-0.114582389950089,-0.0290418714284897,-0.109567664563656,-0.989274459764322,0.0964848597844379,-0.226323156529997,0.063143185949268,0.443950083541131,-0.132470491767505,-0.983629849709298,0.0481415608393332,-0.0863637688706103,0.567504738812611,1.39154855238437,-0.0960461736276161,-0.91963873830583,0.0556472466525809,0.361310405006414,0.247113605424512,-0.235327338412908,0.0292646525788322
81.83,-0.367786152305527,-0.20204044905396,0.901404691666095,-0.116745835298445,-0.0283878754951985,-0.11349166808263,-0.99033902634893,0.0874475945228737,-0.219108737865014,0.0723771951857115,0.442772047115735,-0.14154645124742,-0.988993076930276,0.0692808869832684,-0.0727061040471964,0.59180037618849,1.39320118371446,-0.11185978323804,-0.907179198328787,0.0690715890314039,0.375735786486989,0.246682053556117,-0.230087253790031,0.0502249897539576
81.835,-0.36849898082425,-0.210484834793232,0.897698478109298,-0.111031903022616,-0.0219493335376583,-0.117876311542418,-0.98400663351188,0.0769674095294878,-0.2112604601717,0.0944856523013259,0.440902718660196,-0.147045623614443,-0.994202733092305,0.0850057499519225,-0.0471454927182267,0.594998400515006,1.3691896613043,-0.117015510077481,-0.905467632704116,0.0834804236574881,0.389844490802923,0.230204038496677,-0.234219316582257,0.0718253657586879
81.84,-0.36644395515298,-0.197002262877492,0.904970384098133,-0.114610103889379,-0.0229075705382739,-0.124687615250053,-0.975466739538386,0.0692146887505926,-0.194765945568062,0.152991840153792,0.452406653003778,-0.15683211844302,-0.998497524826218,0.10400073493363,-0.0773338749145017,0.576586371268449,1.33547699988482,-0.11743148528646,-0.902609506618821,0.0947883246993057,0.39598928397963,0.203098511615668,-0.248306111247367,0.0963742510392047
81.845,-0.360532401087391,-0.203158924252015,0.906079882121266,-0.119323490826669,-0.00909325387535248,-0.133520807236969,-0.977677145573312,0.0694089903538885,-0.201017388940024,0.186975656456365,0.473036779163055,-0.159884641009512,-0.994163481270456,0.114057745134952,-0.00736888181038413,0.55491710354327,1.30364074134523,-0.11113058691919,-0.901980509543509,0.100240049183327,0.397496872215723,0.157168125192379,-0.277206882088174,0.126193272864371
81.85,-0.363215821378797,-0.209458581827212,0.905078872960089,-0.108929373974059,-0.0251767973872296,-0.133901560841614,-0.973555133901631,0.0698738723628133,-0.193204191492587,0.234159821732451,0.490826585324797,-0.1674414839497,-0.996190186125874,0.123841206450128,0.0119630342536538,0.524287297267238,1.25321363259974,-0.0973884610471793,-0.901502705794153,0.101804511174717,0.394993329537842,0.11997754881964,-0.30859515691441,0.146618183527658
81.855,-0.364156713720374,-0.213143570954,0.901773591798962,-0.103467139145776,-0.0112279806292584,-0.135706214530884,-0.970008855542375,0.0670140286701444,-0.186437616088397,0.293311156528202,0.518052968100278,-0.179069065563367,-0.997464406963221,0.128466162937735,0.0286001760001666,0.492078492167354,1.19040172065649,-0.0820525487620782,-0.905422632337149,0.0982965561382053,0.391748833851404,0.0913794436615506,-0.333641862018724,0.159879187175565
81.86,-0.365279716897579,-0.217455918082043,0.90860182242413,-0.0858076117189855,-0.0156806322000392,-0.136174083293248,-0.967367412348385,0.0617262011636639,-0.179811623527955,0.321319705845568,0.536999537791645,-0.183064758882814,-1.00509868147306,0.128602616149652,0.053763219755583,0.464507113817711,1.12912451636162,-0.0685816710537725,-0.910354936911243,0.0977961819565162,0.382864850948916,0.0618514089744212,-0.343302547854112,0.158868772703491
81.865,-0.359949547970009,-0.222879022589708,0.908157127329441,-0.0720862018719237,-0.0137892201527505,-0.12895742949287,-0.972479753230152,0.0585288077459255,-0.173014678958934,0.353453755080976,0.57263043623492,-0.198392811340279,-1.014210716196,0.12390289140714,0.0772462987657765,0.431606130413336,1.05474076469538,-0.0651160726656556,-0.906848466850296,0.0918816144762346,0.381901769996826,0.0536305033126901,-0.346513629703258,0.144255483705703
81.87,-0.36241990579671,-0.222652865801812,0.912749370677019,-0.0524081575730398,0.00257628627991346,-0.128908131549201,-0.976742038184765,0.0510783885681482,-0.169246249909155,0.385824918132217,0.610648406252267,-0.212983468294558,-1.02301191462728,0.120932553775211,0.104699218737863,0.398224263824596,0.959466607008876,-0.0633632143571321,-0.899700352537221,0.0945041613400858,0.378876153141953,0.0542696125695424,-0.33976361003248,0.113727224676824
81.875,-0.357552494253257,-0.23546612587427,0.911109235387695,-0.0231600816242148,0.0134506295391768,-0.11011997894791,-0.975951578441232,0.0468985996263237,-0.164768640537322,0.407376854877842,0.653672359429089,-0.224839028620852,-1.03072277542607,0.117948760556152,0.124789489817511,0.365399100544545,0.887139969782479,-0.0730952691182334,-0.893554962035453,0.0974803567572002,0.369435968709858,0.0625282366047361,-0.321210403949806,0.0790395792969332
81.88,-0.355301482273492,-0.243680506660531,0.913126801236661,0.00742888014964208,0.0213265050339649,-0.0921501717841682,-0.975598379080899,0.0350553644514754,-0.163746585162031,0.430899602783898,0.699284811496676,-0.247967123171571,-1.03317959595706,0.11373579456901,0.147600579342027,0.321138883699884,0.810789020824074,-0.0878714560590685,-0.889173944653834,0.107213921266432,0.368525558643504,0.0752326333412526,-0.304783435815586,0.0437537091003114
81.885,-0.361518350051793,-0.245184102826478,0.908447838411716,0.0442291219206785,0.038078715187429,-0.0734853724486894,-0.972184709858158,0.0305854847137055,-0.17056872573515,0.456957800855761,0.730817291290044,-0.267199424965703,-1.04124393671459,0.110854988539963,0.170951414245316,0.29880728475544,0.760999024242422,-0.104528924745402,-0.883180894450309,0.10529455094016,0.361574615711243,0.0918907524091484,-0.272348470562356,0.0093898843653615
81.89,-0.369112931783775,-0.24058544939467,0.913205936423167,0.08703939576582,0.0565764721451378,-0.0466628181348457,-0.971325602052295,0.0217218267003145,-0.168811064554641,0.496545161711542,0.778069725597986,-0.285983841491477,-1.04231635956551,0.111694584200526,0.198308123205652,0.273734984896837,0.692607973192143,-0.124672722069726,-0.883665234206956,0.109313345346308,0.355457822765314,0.0988132373564821,-0.247952385826372,-0.0237739990254032
81.895,-0.366265202106657,-0.244871280458171,0.920939206444165,0.113754616762923,0.0723610287079481,-0.0213584508451239,-0.974891805329887,0.015561335023719,-0.165382080029653,0.529434612938657,0.839602370413062,-0.307417154167677,-1.03666333853979,0.105316723548296,0.220225793260627,0.250763136733772,0.637576464009335,-0.141996599931096,-0.884759440546348,0.11019117956891,0.346540469165025,0.127922933092901,-0.215878498180088,-0.0604540499701878
81.9,-0.362663358801772,-0.232695557935471,0.916873949592544,0.155477186099879,0.10190430388406,0.0051019703500786,-0.973911598814933,0.0204281089374543,-0.148107466457591,0.55119903628705,0.891828302701502,-0.32236780430098,-1.03158860966725,0.094074746826548,0.238073173024213,0.237351259422835,0.581993418100714,-0.163642548149562,-0.875364151155949,0.12298915250433,0.339932904835043,0.157168558244612,-0.18314389391712,-0.0995027576123527
81.905,-0.374625895187277,-0.22622396623643,0.909457099083545,0.175946908649171,0.132335978613058,0.0282407812848923,-0.966823969437867,0.0163714379832194,-0.141972140536185,0.574460333599021,0.951899188356251,-0.333797826024735,-1.024887717661,0.0883963371815207,0.267752905531031,0.235477014290233,0.539572443094119,-0.17738481368413,-0.860267766754723,0.127768516029442,0.338214660637285,0.211831952023588,-0.145708155418311,-0.131408461211895
81.91,-0.400197258905127,-0.229332677210208,0.897164769235901,0.182377675993127,0.15626784523341,0.0467079602437917,-0.96108900290565,0.0207286326876961,-0.139536503201003,0.581920626458963,1.00835639912789,-0.347857293047033,-1.02664987795045,0.0802374408901216,0.295019222671347,0.252756596307625,0.481418692248995,-0.190786352773738,-0.840681940138874,0.137707600323932,0.339110846276973,0.275435922564494,-0.129442537430983,-0.153419053081017
81.915,-0.47470643736228,-0.232352433813412,0.868501109272392,0.186822675557492,0.186988593717555,0.0813091975919353,-0.962531504258838,0.0278383892103102,-0.163665705648932,0.573313198925678,1.09827244966233,-0.374926969346682,-1.03190939871847,0.0671731375592462,0.31302076993183,0.276638923098852,0.413634673660899,-0.197428118787251,-0.822070519195864,0.144349731600889,0.341141413972277,0.325246826025688,-0.133618608382365,-0.158399465198296
81.92,-0.491223211635076,-0.303038446153224,0.919849114578461,0.209530643047166,0.212609527516101,0.11278073489666,-0.968676393301432,0.0254622314488212,-0.218811525485487,0.564706843528075,1.15856841803575,-0.397720354514807,-1.02954883675602,0.0687142131711919,0.352427575602757,0.303282106533997,0.33067517176566,-0.201831647571246,-0.811404350969928,0.146529234396592,0.358364450370274,0.385587800684324,-0.149527499136278,-0.163256589457736
81.925,-0.26226459135693,-0.234568866083625,0.990059268976528,0.258142570981718,0.233461685132753,0.113509158227556,-0.965749122367466,0.0402353679759974,-0.163948533709762,0.568546462093318,1.28326122294064,-0.451285164383296,-1.03378603214963,0.0815683796828106,0.376028122732562,0.347948917427661,0.239631387828191,-0.197467647245066,-0.798312105975863,0.147339879664948,0.372127340962123,0.424495845024328,-0.182340715145366,-0.163781762627492
81.93,-0.253987899048462,-0.125113465775918,0.975377756444047,0.218545535940744,0.329797766681336,0.114575689565747,-1.01063482046349,0.100577764473688,-0.0599562197925075,0.523498046011968,1.38106663906351,-0.483850095157322,-1.03073617879596,0.0991059680057202,0.357762141496515,0.388713895785557,0.153077282175494,-0.1860822019057,-0.794585925831744,0.130753153592032,0.394713623773689,0.457212212918399,-0.231006241878161,-0.144239275275296
81.935,-0.328089560705596,-0.168610245880049,1.00762431995924,0.138046031569922,0.433065846512595,0.113027559914877,-1.08266083649916,0.152507793281423,-0.0132225561407452,0.425639134195667,1.45454946919014,-0.514656633068214,-1.01875245078001,0.131404255024014,0.323214548894547,0.445854323734881,0.124039219954618,-0.186464405500856,-0.803154424810473,0.112983249253261,0.412714656778833,0.471112821316783,-0.302726565696305,-0.120509048849934
81.94,-0.265589327113212,-0.182904766335828,1.03199612907414,0.0888565389615081,0.590113239984208,0.131594993643355,-1.13030714199716,0.174586387791585,-0.0333257704799907,0.432845531142214,1.4835608102194,-0.551557728450384,-1.04012274421226,0.167494635043636,0.342033687602597,0.540191553375781,0.107750182811697,-0.181160092353821,-0.831441711119586,0.0925970222926208,0.412442528463162,0.469177686222596,-0.381768735181089,-0.0888881149954732
81.945,-0.291091317264064,-0.161501418943857,1.04468646526112,0.0598671230714646,0.720534765218755,0.173032726114735,-1.19670624125168,0.216193326778119,-0.107804034064219,0.470273990120633,1.56597136134137,-0.614245614234619,-1.13653478741492,0.248731829678116,0.393482368472283,0.730224215412133,0.0412633265701257,-0.176690999979415,-0.892472021778146,0.0556010254293257,0.403351829281402,0.460687643090764,-0.523874558368646,-0.0287835933245873
81.95,-0.305609533812103,-0.157877598428537,1.06857183406783,0.0147845557967526,0.992603978558074,0.207508855223677,-1.32822557948781,0.234205053324664,-0.194329802138452,0.431860195131997,1.69939078697286,-0.71276252855696,-1.29269313208345,0.340358058253199,0.445986812453076,0.96437212737012,-0.1148372329586,-0.157935578554837,-1.00065184079708,0.0175110168762079,0.3959646638789,0.434356503549966,-0.651852405554004,0.0179849072386118
81.955,-0.256547134498468,-0.175728543419648,1.09200588725477,-0.0102507673321145,1.20585689886365,0.227242205237773,-1.45229287589797,0.201224570178275,-0.210468093889778,0.326310723138827,1.8121600822897,-0.793918244498748,-1.44318396518376,0.398083819016998,0.484233297125261,1.0827801209044,-0.303504052961295,-0.135422484257104,-1.13005994618947,-0.0138399644703713,0.39468834062293,0.418061961968146,-0.784213296450746,0.0598495540389588
81.96,-0.242478787916374,-0.135254510547924,1.11114764653109,0.0188887600385001,1.51459174015595,0.233239080646588,-1.5773726806007,0.138338305990878,-0.146783455153819,0.198867724557259,1.92902647075537,-0.871500887264215,-1.59989174289404,0.422250475597884,0.517253009272002,1.08252070045358,-0.60303799791792,-0.102551732112873,-1.30535110911536,-0.0228569716815111,0.406790939567753,0.408616209750004,-0.881501465187807,0.0798950590776535
81.965,-0.261479276684282,-0.101214908006093,1.13064371488308,-0.0246987011587667,1.78530432841329,0.254541603364298,-1.63731663280331,0.110951462375329,-0.105302064482241,0.165452728560275,2.00922409685816,-0.89093378313321,-1.63935504964435,0.392487390508239,0.506923865369664,0.966859502660994,-0.809351452491746,-0.0833948538105306,-1.40296706534746,-0.0291148879130921,0.40846565312688,0.398152616150963,-0.829491129854504,0.0627750313934313
81.97,-0.255072960654247,-0.107558199272666,1.14331751922635,-0.0974775864596839,2.10987212017809,0.267195850252838,-1.64847514623145,0.11783340040805,-0.105257242448344,0.225494970505244,2.05927463942078,-0.889352467618885,-1.61657288710548,0.299054350095407,0.488738646212533,0.780318355934373,-0.951464013134974,-0.104084134788227,-1.51836587327006,-0.0135807224397181,0.400470366870313,0.398774253905345,-0.637008345322218,0.00861424168980868
81.975,-0.273460845532354,-0.120585757488594,1.13693674772523,-0.175462706661103,2.4356892959201,0.276723666406579,-1.63730219349439,0.0418273894901759,-0.134742780668357,0.321047718946553,2.11529702538164,-0.875076545790059,-1.55689638615629,0.166186420842132,0.465589292161591,0.551915588525243,-1.02267148166451,-0.16234482203396,-1.52660894354368,0.00276444772887938,0.369919680214528,0.408022656967228,-0.404752985056023,-0.049685130973094
81.98,-0.287393671317522,-0.115338889317088,1.15630832247297,-0.24151686601831,2.72502740609889,0.282232579930304,-1.62693020161108,-0.0148210016847422,-0.153640471426818,0.392067142610827,2.19054360226566,-0.850185875249944,-1.47296346847338,0.0186266094560076,0.424504355631995,0.283076109963311,-1.03410918234169,-0.245852392929068,-1.52563964169624,0.0208586184784795,0.319259322517449,0.394809347812392,-0.320524662650936,-0.108592891461948
81.985,-0.285536559991357,-0.12784687952283,1.12173408809762,-0.368297517439969,3.08407571360975,0.265766690174137,-1.59062894360189,-0.0401179882297157,-0.132899621155383,0.510440280210486,2.2725231093595,-0.833727361462296,-1.39253486528902,-0.133039017898498,0.386446995924606,-0.0101256422624144,-1.0261612077658,-0.352108610367735,-1.48454892866744,0.0496011660736713,0.260536987586916,0.347412800241295,-0.413906494638487,-0.147764815055118
81.99,-0.309968155247429,-0.134592881730149,1.12595307318695,-0.495204450031457,3.34928262910876,0.240244994329329,-1.55965453284553,-0.0551842063557909,-0.10565453120568,0.657791465234588,2.36987660008213,-0.794168475829425,-1.32351651711483,-0.259438211436671,0.376029953023377,-0.283572353499043,-1.08919426439922,-0.451942969926089,-1.41516525495038,0.0576292328653193,0.185598147779375,0.276252434026838,-0.616963340724585,-0.204522205582178
81.995,-0.317804915452351,-0.14131777091787,1.12863871026916,-0.658896447686125,3.61228143481451,0.216897540785783,-1.53795196817415,-0.0673546111694827,-0.0888035009815283,0.792659063891805,2.43308996103485,-0.764560990870854,-1.27791783298504,-0.324867959449836,0.370425576133983,-0.424558694279356,-1.16977962802215,-0.499415810517996,-1.3483748219427,0.0407356888169751,0.11541847104371,0.217722378420959,-0.764893806210233,-0.256997049312541
82,-0.319420830447986,-0.164235820692662,1.13037853563974,-0.863086710519124,3.94900519006561,0.189873379714467,-1.52457229826106,-0.0818427701886619,-0.092927151158358,0.934398290702218,2.51339894724368,-0.744831834620873,-1.25419672226966,-0.37488922565451,0.369563096614316,-0.505957612255036,-1.23642150216039,-0.535961362397995,-1.29257684849751,0.0203339198277622,0.0318457738691434,0.16044982400073,-0.850751343806238,-0.32704545840078
82.005,-0.328082110136198,-0.154291200991586,1.12111174901973,-1.03064949402926,4.2204410697316,0.185859201663273,-1.51669946409218,-0.0841691830205411,-0.104103389353979,1.02590606712454,2.56547478151974,-0.753638241641209,-1.2611877579264,-0.377489553684704,0.31529050750413,-0.518958666971955,-1.27134168398859,-0.539927931266349,-1.26625136155,0.00564238549732043,-0.00394223131358594,0.112592380677569,-0.820839824242894,-0.348529742862116
82.01,-0.338936631560138,-0.158068492140535,1.11324485688666,-1.18510601171631,4.52279598996646,0.18144841878109,-1.51655242474559,-0.0820741826640166,-0.115856135372312,1.09791123280422,2.61890863388274,-0.776166544206425,-1.29475558629772,-0.34868208579343,0.222146636120256,-0.361291745354037,-1.26703888081964,-0.517596848533464,-1.24711225197049,-0.00766858618826342,-0.0238546727378348,0.0284658944879452,-0.701924391169673,-0.345624368731995
82.015,-0.357342484893357,-0.17965640779647,1.07970311263062,-1.29571526184517,4.82838530470823,0.196644503575086,-1.50910783199357,-0.0791136892116657,-0.130123534463521,1.14784490358027,2.64875870591001,-0.805747340689054,-1.33349200919908,-0.313432996230115,0.0887911121275943,-0.0777652410092873,-1.23891759040804,-0.474101744877904,-1.22362547526322,-0.0184146124469548,-0.0156396261943281,-0.0497792136445241,-0.531433810837595,-0.318987429798539
