Header,foot_Accel_X,foot_Accel_Y,foot_Accel_Z,foot_Gyro_X,foot_Gyro_Y,foot_Gyro_Z,shank_Accel_X,shank_Accel_Y,shank_Accel_Z,shank_Gyro_X,shank_Gyro_Y,shank_Gyro_Z,thigh_Accel_X,thigh_Accel_Y,thigh_Accel_Z,thigh_Gyro_X,thigh_Gyro_Y,thigh_Gyro_Z,trunk_Accel_X,trunk_Accel_Y,trunk_Accel_Z,trunk_Gyro_X,trunk_Gyro_Y,trunk_Gyro_Z
0,-5.16975398854663,-6.2506812419586,2.79780634505551,0.0410045241986225,0.00186061595251237,-0.00355330770114882,-3.72279015327376,-8.30578369038625,11.990380989545,0.0382806697863538,-0.0256618131608142,0.0253043968180213,2.63264716692765,3.67275329338028,-2.6813793522042,0.039981051161908,0.020029928097513,0.009605987504127,-6.94062654623826,-0.848930520856179,-7.06485937567857,0.0725263394175854,-0.0105028394542687,-0.0281084018877046
0.005,-5.16511348172742,-6.24422867808511,2.79586155320271,0.0417083449396106,0.00152695780233694,-0.00370456432048462,-3.7201005598306,-8.29752224672427,11.9785271875049,0.039074772529679,-0.0262774688555531,0.0256720847391666,2.62910134223125,3.66904833150585,-2.67894133399278,0.0408181661623277,0.0202770084137495,0.00972392203118024,-6.93476424201435,-0.848121188311389,-7.05768984034984,0.073987657438403,-0.0110775802019809,-0.0282148258078185
0.01,-5.16047297490832,-6.23777611421156,2.79391676134992,0.0429111953190096,0.000762198536323911,-0.00401012075571982,-3.71741096638766,-8.28926080306232,11.9666733854647,0.0405003855104256,-0.0274304903536891,0.0262759295415251,2.62555551753485,3.6653433696314,-2.6765033157813,0.0423263631867981,0.020652759329097,0.00991907910279899,-6.92890193779022,-0.847311855766598,-7.05052030502122,0.0766076531734461,-0.0122582460657258,-0.0281929479568234
0.015,-5.15583246808922,-6.23132355033806,2.79197196949735,0.0437063705375742,-0.000199436905565639,-0.00433649108266568,-3.71472137294472,-8.28099935940034,11.9548195834245,0.0416060883787267,-0.0284299426106774,0.0266121390276674,2.62200969283822,3.66163840775695,-2.67406529756988,0.0435062517652079,0.0207930005402373,0.0100437130457036,-6.9230396335663,-0.846502523221801,-7.04335076969249,0.0786142151134181,-0.0135172264223285,-0.0277085769419193
0.02,-5.15119196127011,-6.22487098646457,2.79002717764433,0.0441037699548543,-0.00137486744996759,-0.00470708996656863,-3.71203177950156,-8.27273791573836,11.9429657813843,0.0423975772345841,-0.0292767219064302,0.0266984533303939,2.61846386814182,3.65793344588252,-2.67162727935846,0.0443634226946216,0.0207148699405576,0.0101307544585489,-6.91717732934239,-0.845693190677018,-7.03618123436388,0.0799902721221526,-0.0148397103563289,-0.0267683527852318
0.025,-5.14655145445101,-6.21841842259107,2.78808238579154,0.0441179201436065,-0.00277574472031481,-0.00514836975534272,-3.70934218605862,-8.2644764720764,11.9311119793441,0.0428840182911221,-0.0299707568010721,0.0265565389646751,2.61491804344541,3.65422848400806,-2.66918926114701,0.0449067891154304,0.0204396457546956,0.0102167701096176,-6.91131502511826,-0.844883858132221,-7.02901169903521,0.0807178285781772,-0.0161976093643488,-0.0253898169982693
0.03,-5.1419109476318,-6.21196585871758,2.78613759393897,0.0437665029663704,-0.00438404418690023,-0.00567087696743437,-3.70665259261546,-8.25621502841442,11.919258177304,0.0430690587670629,-0.0305132414706878,0.0262119807796675,2.61137221874878,3.65052352213362,-2.66675124293562,0.0451398163143418,0.019991938556994,0.0103399850188427,-6.90545272089435,-0.844074525587438,-7.02184216370654,0.0807925013460588,-0.0175517730676632,-0.0236167654816159
0.035,-5.13727044081281,-6.20551329484408,2.78419280208595,0.0430689308314186,-0.00615230507291198,-0.00626867201162337,-3.70396299917252,-8.24795358475245,11.9074043752638,0.042949923288815,-0.0309062017570868,0.0256928742474881,2.60782639405238,3.64681856025918,-2.6643132247242,0.0450595997512676,0.0193983903198224,0.0105388021540901,-6.89959041667043,-0.84326519304264,-7.01467262837787,0.0802229353780089,-0.0188519833671993,-0.0215167480135631
0.04,-5.1326299339936,-6.19906073097059,2.78224801023316,0.0420463558546331,-0.00802496854127773,-0.00693305416834122,-3.70127340572958,-8.23969214109049,11.8955505732236,0.0425256363649137,-0.0311526635687127,0.0250270015797354,2.60428056935598,3.64311359838473,-2.66187520651275,0.0446651071751146,0.0186851604976294,0.0108481685209931,-6.8937281124463,-0.84245586049785,-7.00750309304919,0.0790253313046984,-0.020038659170624,-0.0191618488392732
0.045,-5.12798942717438,-6.19260816709709,2.78030321838037,0.0407204555662574,-0.00993593339637269,-0.00764729724761996,-3.69858381228642,-8.23143069742851,11.8836967711834,0.0417949696053359,-0.0312586267241309,0.0242405518559565,2.60073474465958,3.63940863651028,-2.65943718830133,0.0439553170094788,0.0178761699537414,0.0112956783676962,-6.88786580822239,-0.84164652795306,-7.00033355772052,0.0772321786638348,-0.0210489867408809,-0.0166263622952931
0.05,-5.1233489203554,-6.1861556032236,2.7783584265278,0.0391129565191782,-0.0118120371216409,-0.00838787237184732,-3.69589421884348,-8.22316925376654,11.8718429691432,0.0407571656469218,-0.0312329151266955,0.0233571692791753,2.59718891996317,3.63570367463583,-2.65699917008988,0.0429299390736965,0.0169922401161797,0.0119007419670833,-6.88200350399825,-0.84083719540827,-6.99316402239185,0.0748915044471039,-0.0218189902250106,-0.0139848558948222
0.055,-5.11870841353618,-6.1797030393501,2.77641363467478,0.0372463903886639,-0.0135911642253206,-0.00913637523789394,-3.69320462540031,-8.21490781010456,11.859989167103,0.0394187670873943,-0.0310860982773814,0.0223965909800751,2.59364309526654,3.6319987127614,-2.65456115187845,0.041596145802748,0.0160502476284208,0.0126746710298884,-6.87614119977434,-0.840027862863479,-6.98599448706318,0.0720582718575557,-0.0222874675491644,-0.0113005336531617
0.06,-5.11406790671708,-6.17325047547655,2.77446884282199,0.035143562697449,-0.0152212312751521,-0.0098742826738669,-3.69051503195737,-8.2066463664426,11.8481353650629,0.0377910813917249,-0.0308312777866896,0.0213745525487802,2.59009727057014,3.62829375088695,-2.652123133667,0.0399661159548663,0.0150627782914386,0.0136190503216667,-6.87027889555043,-0.839218530318689,-6.97882495173457,0.0687991585142096,-0.0224069367754218,-0.00862387678560145
0.065,-5.10942739989798,-6.16679791160306,2.77252405096942,0.0328296172506328,-0.0166648857878418,-0.0105857172273072,-3.68782543851466,-8.19838492278062,11.8362815630227,0.0358932821845208,-0.030483575097752,0.0203034916022583,2.58655144587374,3.62458878901251,-2.64968511545561,0.0380600718676335,0.0140390409105978,0.0147257636450826,-6.86441659132629,-0.838409197773892,-6.97165541640584,0.0651887213044606,-0.0221421795302031,-0.00599374209413786
0.07,-5.10478689307877,-6.1603453477295,2.77057925911663,0.0303373797847436,-0.0179221959433232,-0.011279079062979,-3.6851358450715,-8.19012347911865,11.8244277609825,0.0337673555480427,-0.0300576148003548,0.0191928828762735,2.58300562117711,3.62088382713806,-2.64724709724419,0.0359209521929309,0.0129862761338851,0.0159801234795211,-6.85855428710238,-0.837599865229102,-6.96448588107717,0.0612907558491913,-0.0214586284575764,-0.00343206304865666
0.075,-5.10014638625967,-6.15389278385601,2.76863446726384,0.0277069430258442,-0.0190252336188828,-0.0119834595700938,-3.68244625162856,-8.18186203545667,11.8125739589423,0.0314755582662241,-0.0295660656380988,0.0180494767174504,2.57945979648071,3.61717886526363,-2.64480907903274,0.0336117534682977,0.0119102423117295,0.0173626624711634,-6.85269198287824,-0.836790532684311,-6.95731634574855,0.0571560367408143,-0.0203302092266977,-0.00094674141012131
0.08,-5.09550587944057,-6.14744021998251,2.76668967541104,0.0249785152137936,-0.0200037258727503,-0.0127166720061895,-3.67975665818562,-8.17360059179471,11.8007201569021,0.0290771079472262,-0.0290191147256933,0.0168781203813224,2.5759139717843,3.61347390338918,-2.64237106082132,0.0311922521160613,0.0108153482717545,0.0188481974759951,-6.84682967865433,-0.835981200139521,-6.95014681041988,0.0528353122791908,-0.0187619855824315,0.00145714129190086
0.085,-5.09086537262147,-6.14098765610902,2.76474488355825,0.0221877423045229,-0.0208668089230813,-0.0134678903413989,-3.67706706474246,-8.16533914813273,11.7888663548619,0.0266133010192415,-0.0284239955952646,0.0156833346378567,2.57236814708767,3.60976894151472,-2.63993304260987,0.0287041159922606,0.00970578381463287,0.0204058561663767,-6.84096737443019,-0.835171867594731,-6.94297727509121,0.0483839391882609,-0.0167981536955129,0.00377196658867565
0.09,-5.08622486580225,-6.13453509223552,2.76280009170534,0.0193658002275194,-0.0216082090714427,-0.0142045171952902,-3.67437747129952,-8.15707770447077,11.7770125528218,0.0241089208047382,-0.0277856938897108,0.0144709633948849,2.56882232239127,3.60606397964028,-2.63749502439842,0.0261723440173626,0.0085870019868966,0.022000754613494,-6.83510507020628,-0.834362535049934,-6.93580773976254,0.0438592694554393,-0.0145141849998903,0.0059887654157801
0.095,-5.08158435898315,-6.12808252836203,2.76085529985278,0.0165425844011785,-0.0222186226568263,-0.0148847260744127,-3.67168787785636,-8.1488162608088,11.7651587507816,0.0215811377613778,-0.0271092520910652,0.013249129922183,2.56527649769487,3.60235901776583,-2.63505700618703,0.0236143164103692,0.00746641981451369,0.0235941818531568,-6.82924276598214,-0.833553202505151,-6.92863820443387,0.0393187783109425,-0.0120075888593266,0.00809643644598933
0.1,-5.07694385216405,-6.12162996448853,2.75891050799987,0.013752445019768,-0.0226987906267547,-0.0154684547229907,-3.66899828441342,-8.14055481714681,11.7533049487414,0.0190520103269517,-0.0264022717938745,0.0120284523170921,2.56173067299824,3.59865405589139,-2.63261898797558,0.021052460194019,0.00635347892649589,0.0251433627510294,-6.82338046175823,-0.832743869960353,-6.9214686691052,0.034816405630214,-0.00938907044665541,0.0100788743765538
0.105,-5.07230334534484,-6.11517740061498,2.75696571614708,0.0110352890101811,-0.0230606963077353,-0.0159234287425274,-3.66630869097048,-8.13229337348484,11.7414511467012,0.0165529653928037,-0.0256763877071673,0.0108217814746221,2.55818484830183,3.59494909401694,-2.63018096976413,0.018518844474448,0.00525920345989061,0.026604534948152,-6.8175181575341,-0.83193453741557,-6.91429913377652,0.0304001364386849,-0.00677087719330259,0.0119164030084698
0.11,-5.06766283852585,-6.10872483674149,2.75502092429429,0.00843003026481305,-0.0233131922921498,-0.0162227338529317,-3.66361909752732,-8.12403192982288,11.729597344661,0.0141155030687845,-0.0249462694571587,0.00964341495576919,2.55463902360543,3.59124413214249,-2.62774295155273,0.0160458493021562,0.00419533981414468,0.0279379934368085,-6.81165585331019,-0.831125204870773,-6.90712959844791,0.0261140627503204,-0.00425743837473867,0.0135903849470356
0.115,-5.06302233170663,-6.10227227286799,2.75307613244161,0.00596806390780014,-0.0234493335371017,-0.0163394409847545,-3.66092950408438,-8.1157704861609,11.7177435426208,0.011760849744202,-0.0242247120676901,0.00850731009904357,2.5510931989088,3.58753917026806,-2.62530493334128,0.0136554684170712,0.00317337480344756,0.0291127942298394,-6.80579354908605,-0.830315872325983,-6.89996006311918,0.0219973327887086,-0.00194562866667297,0.0150866454751292
0.12,-5.05838182488742,-6.0958197089945,2.75113134058881,0.00367045170265379,-0.0234473768375933,-0.0162480114875003,-3.65823991064121,-8.10750904249893,11.7058897405807,0.0094980656155607,-0.0235186505407842,0.00742475613509088,2.5475473742124,3.58383420839361,-2.62286691512986,0.0113571210464113,0.00220310615303589,0.0301104191020585,-6.79993124486214,-0.829506539781192,-6.89279052779051,0.0180794416082196,7.6103268039477e-05,0.0164007278765932
0.125,-5.05374131806843,-6.089367145121,2.74918654873613,0.00155094813099759,-0.0232837037616055,-0.0159306026420886,-3.65555031719828,-8.09924759883697,11.6940359385405,0.00733174035617105,-0.0228326640099149,0.00640406228752521,2.54400154951577,3.58012924651918,-2.62042889691841,0.00915562313540775,0.00129180123797996,0.0309218466903071,-6.794068940638,-0.828697207236402,-6.8856209924619,0.0143819255946727,0.00173617898571868,0.0175389914899044
0.13,-5.04910081124922,-6.08291458124751,2.74724175688323,-0.00037661994252852,-0.0229461550537683,-0.0153754935897591,-3.65286072375534,-8.09098615517499,11.6821821365003,0.00527043935897104,-0.0221746141272679,0.00545280150585162,2.54045572481937,3.57642428464473,-2.61799087870699,0.00706004955666976,0.000445385192685675,0.0315392014345091,-6.78820663641409,-0.827887874691612,-6.87845145713317,0.010923809075208,0.00298507380660649,0.0185066250421496
0.135,-5.04446030443012,-6.07646201737401,2.74529696503055,-0.002102354601142,-0.0224359036841418,-0.0145735310911626,-3.6501711303124,-8.08272471151302,11.6703283344601,0.0033187441712538,-0.0215540704824895,0.00457856792174489,2.53690990012296,3.57271932277028,-2.61555286049557,0.00507565939507164,-0.000330733902463439,0.0319599773327344,-6.78234433219018,-0.827078542146815,-6.87128192180455,0.00771999464750458,0.00381617532239266,0.019301582521454
0.14,-5.03981979761102,-6.07000945350052,2.74335217317764,-0.00363535093149543,-0.0217615751310946,-0.0135253656501772,-3.64748153686946,-8.07446326785104,11.6584745324199,0.00146031172461687,-0.0209763683596353,0.0037869666902428,2.53336407542633,3.56901436089584,-2.61311484228415,0.00318654157231702,-0.00103284203128459,0.0322040771070639,-6.77648202796604,-0.826269209602025,-6.86411238647588,0.00477624853369322,0.00430198375810764,0.0199264473456473
0.145,-5.0351792907918,-6.06355688962702,2.74140738132496,-0.00500369958067739,-0.0209347920457725,-0.0122459756177978,-3.6447919434263,-8.06620182418908,11.6466207303797,-0.000340111903170837,-0.0204398622558668,0.00308077487968058,2.52981825072993,3.56530939902139,-2.61067682407273,0.00135739747703689,-0.00165903722718489,0.0323149280196023,-6.77061972374213,-0.825459877057241,-6.85694285114721,0.00208966728136088,0.00457831395472667,0.0203928822206494
0.15,-5.0305387839727,-6.05710432575347,2.73946258947217,-0.00623641360413911,-0.0199678163385216,-0.010757004902538,-3.64210234998336,-8.0579403805271,11.6347669283396,-0.00211619735537541,-0.0199367669822218,0.0024611592335328,2.52627242603353,3.56160443714694,-2.60823880586128,-0.000445989771679392,-0.00220753741239144,0.0323394282747466,-6.76475741951799,-0.824650544512444,-6.84977331581854,-0.00034717114938801,0.00477110402603309,0.0207098836113278
0.155,-5.0258982771536,-6.05065176187998,2.73751779761938,-0.00735094361325365,-0.0188718309082682,-0.00908007976046235,-3.63941275654042,-8.04967893686513,11.6229131262994,-0.00388567947526898,-0.0194550342682804,0.00192804661470962,2.5227266013369,3.55789947527251,-2.60580078764986,-0.00224230310388129,-0.00267626099463656,0.0323116995058301,-6.75889511529408,-0.823841211967654,-6.84260378048987,-0.00254401098517103,0.00494567410293469,0.0208786352393137
0.16,-5.0212577703345,-6.04419919800642,2.73557300576658,-0.00835343957012399,-0.0176597056323471,-0.00724012134908894,-3.63672316309726,-8.04141749320316,11.6110593242592,-0.00564799324413897,-0.0189816886785564,0.00147945465007871,2.5191807766405,3.55419451339804,-2.60336276943843,-0.00403204325825055,-0.00306415938930518,0.0322498180475387,-6.75303281106994,-0.823031879422864,-6.83543424516125,-0.00451392455663632,0.0051095492498547,0.0209014290946479
0.165,-5.01661726351529,-6.03774663413293,2.73362821391379,-0.0092425147000784,-0.0163600684196139,-0.00527952587080738,-3.63403356965432,-8.03315604954118,11.599205522219,-0.00738260739497159,-0.0185095126698063,0.00111184562950036,2.51563495194409,3.55048955152361,-2.60092475122698,-0.00579530541639604,-0.0033723408212436,0.0321570809718184,-6.74717050684603,-0.822222546878066,-6.82826470983252,-0.00627637241994155,0.00524726458021475,0.0207939345129245
0.17,-5.01197675669619,-6.03129407025943,2.731683422061,-0.0100120043444504,-0.0150317849385406,-0.00327113407635926,-3.63134397621116,-8.02489460587921,11.5873517201788,-0.00904767357720618,-0.0180426174548742,0.0008214416847631,2.51208912724746,3.54678458964916,-2.59848673301553,-0.00748997869606045,-0.00360401826071195,0.0320240047495299,-6.74130820262189,-0.821413214333283,-6.82109517450385,-0.00785925459341336,0.00535515776203786,0.0205895848317655
0.175,-5.00733624987708,-6.02484150638594,2.7297386302082,-0.0106522780308263,-0.0137518471137704,-0.001305530070005,-3.62865438276822,-8.01663316221725,11.5754979181387,-0.0105885339462913,-0.0175910270579444,0.000604699249735687,2.50854330255106,3.54307962777472,-2.59604871480414,-0.00906069000909995,-0.00376310851729368,0.03183192820169,-6.73544589839798,-0.820603881788486,-6.81392563917524,-0.00929450226857862,0.00543383652880963,0.0203243253667192
0.18,-5.00269574305798,-6.01838894251244,2.72779383835541,-0.0111509067649693,-0.0125856175010326,0.000538436722088205,-3.62596478932528,-8.00837171855527,11.5636441160985,-0.011952351087537,-0.0171591201331493,0.000457739131379363,2.50499747785466,3.53937466590028,-2.59361069659269,-0.01045435515458,-0.00385265153851631,0.0315572514251866,-6.72958359417385,-0.819794549243696,-6.80675610384651,-0.010610237231931,0.00545121098390547,0.0200136926117068
0.185,-4.99805523623888,-6.01193637863895,2.72584904650273,-0.011495530068991,-0.0115814264038102,0.00219910705034852,-3.62327519588212,-8.00011027489329,11.5517903140583,-0.0130936715525694,-0.0167457399933687,0.000375880156709316,2.50145165315803,3.53566970402584,-2.59117267838127,-0.011625706010327,-0.003875473464159,0.0311736479113103,-6.72372128994994,-0.818985216698906,-6.7995865685179,-0.011831801736805,0.0053434870047907,0.0196575721127109
0.19,-4.99341472941967,-6.00548381476546,2.72390425464994,-0.0116781647382938,-0.010788402575241,0.00361415452643491,-3.62058560243918,-7.99184883123132,11.5399365120181,-0.0139708195516659,-0.0163541565502377,0.000353506681086327,2.49790582846163,3.53196474215139,-2.58873466016985,-0.0125328487421232,-0.00383645818038737,0.0306522266006771,-6.7178589857258,-0.818175884154115,-6.79241703318922,-0.0129894441330228,0.00505241056305597,0.0192665395043474
0.195,-4.98877422260057,-5.99903125089196,2.72195946279714,-0.0116972176551793,-0.010255479646737,0.00472088416274697,-3.61789600899624,-7.98358738756934,11.5280827099779,-0.0145483347579105,-0.0159926308194252,0.000383784114580256,2.49436000376522,3.52825978027694,-2.5862966419584,-0.0131396412274288,-0.00374303144060081,0.0299637470434479,-6.71199668150189,-0.817366551609325,-6.7852474978605,-0.014116671452817,0.00453100220181531,0.0188668469765207
0.2,-4.98413371578147,-5.99257868701847,2.72001467094435,-0.0115582112099013,-0.0100079369659017,0.00547920823548187,-3.61520641555308,-7.97532594390738,11.5162289079377,-0.014808381897074,-0.0156652110484412,0.000457905494449118,2.49081417906859,3.52455481840251,-2.58385862374698,-0.0134278335863377,-0.00360417366606366,0.0290839187908641,-6.70613437727775,-0.816557219064535,-6.77807796253188,-0.0152395524956181,0.00371507530290424,0.0184853665003458
0.205,-4.97949320896225,-5.98612612314497,2.71806987909156,-0.0112740699402374,-0.0100393479392209,0.00588115361595109,-3.61251682211014,-7.96706450024541,11.5043751058976,-0.0147550463959659,-0.0153693142174991,0.000564686530453279,2.48726835437219,3.52084985652806,-2.58142060553553,-0.0134015492139545,-0.00343039568343713,0.0279974149122445,-6.70027207305384,-0.815747886519738,-6.77090842720321,-0.0163703554429593,0.00252204764342347,0.0181436990139197
0.21,-4.97485270214327,-5.97967355927142,2.71612508723877,-0.0108636746389761,-0.0103283649699781,0.00593362600926213,-3.6098272286672,-7.95880305658343,11.4925213038574,-0.0144054383542115,-0.0151011337548916,0.000691708054599661,2.48372252967579,3.5171448946536,-2.57898258732413,-0.0130779786952029,-0.00323355297021109,0.02670367736846,-6.6944097688297,-0.814938553974955,-6.76373889187454,-0.0175100122252167,0.000902524823746061,0.0178589891763553
0.215,-4.97021219532405,-5.97322099539792,2.71418029538597,-0.0103506535394527,-0.0108527504418924,0.00563961910626955,-3.60713763522426,-7.95054161292146,11.4806675018172,-0.0137820146265284,-0.0148577737963643,0.000827261160219469,2.48017670497939,3.51343993277916,-2.57654456911268,-0.0124795762381675,-0.00302517825960915,0.0252262574021882,-6.68854746460579,-0.814129221430157,-6.75656935654587,-0.0186539919217718,-0.00110349493702797,0.0176411338328402
0.22,-4.96557168850484,-5.96676843152443,2.71223550353329,-0.00976188762252428,-0.0115867649975374,0.005002715296037,-3.60444804178132,-7.9422801692595,11.468813699777,-0.0129138987781622,-0.0146358496035515,0.000961625899617026,2.47663088028298,3.50973497090472,-2.57410655090126,-0.0116355113275611,-0.00281495730270004,0.0236104133772891,-6.68268516038188,-0.813319888885367,-6.7493998212172,-0.0197927409333926,-0.00337748625444413,0.0174892246262216
0.225,-4.96093118168585,-5.96031586765093,2.7102907116805,-0.00912413161800869,-0.0124927542126368,0.00404652996925828,-3.60175844833816,-7.93401872559753,11.4569598977368,-0.0118403268234511,-0.0144316201589229,0.00108741103015919,2.47308505558635,3.50603000903027,-2.57166853268981,-0.010585094077336,-0.00261053886089765,0.021905877056011,-6.67682285615774,-0.812510556340577,-6.74223028588852,-0.020906709137745,-0.00579014101281938,0.0173902971899685
0.23,-4.95629067486664,-5.95386330377744,2.70834591982771,-0.00846259220629237,-0.0135175679645863,0.00282349490482851,-3.59906885489522,-7.92575728193555,11.4451060956966,-0.0106115696273641,-0.0142417485276118,0.00119907405928223,2.46953923088995,3.50232504715582,-2.56923051447839,-0.00937862146541054,-0.00241820549049357,0.0201535519228328,-6.67096055193383,-0.811701223795779,-6.73506075055985,-0.0219682772551007,-0.00824774707291012,0.0173245915319871
0.235,-4.95165016804754,-5.94741073990394,2.70640112797491,-0.00780341427765468,-0.0145930858590999,0.00141165126945741,-3.59637926145206,-7.91749583827358,11.4332522936565,-0.00929026966472616,-0.0140629114004873,0.00129205515889721,2.46599340619355,3.49862008528139,-2.56679249626697,-0.00807872929378077,-0.00224367411284318,0.0183831715170732,-6.66509824770969,-0.810891891250996,-6.72789121523124,-0.0229520185248856,-0.0106936071043977,0.0172733331107345
0.24,-4.94700966122844,-5.94095817603045,2.70445633612223,-0.00717434221898548,-0.0156402831123914,-9.00647958387906e-05,-3.59368966800912,-7.90923439461162,11.4213984916163,-0.007950369382693,-0.0138921421763478,0.00136275120056367,2.46244758149692,3.49491512340694,-2.56435447805552,-0.0067592942155119,-0.00209216835042746,0.0166156224207464,-6.65923594348578,-0.810082558706203,-6.72072167990257,-0.0238372815192107,-0.013095474266376,0.0172167140630624
0.245,-4.94236915440933,-5.93450561215695,2.70251154426933,-0.00660059311405518,-0.0165805810263661,-0.00157675495540895,-3.59100007456618,-7.90097295094962,11.4095446895761,-0.00666579011050457,-0.0137282016643895,0.00140902895521242,2.45890175680051,3.49121016153249,-2.56191645984413,-0.00549404448382401,-0.00196786644314378,0.0148669965271753,-6.65337363926164,-0.809273226161416,-6.71355214457384,-0.0246044829392205,-0.0154383494154465,0.0171302917641448
0.25,-4.93772864759012,-5.9280530482834,2.70056675241665,-0.00610284109482051,-0.0173459716421974,-0.00295704409444595,-3.58831048112302,-7.89271150728767,11.3976908875359,-0.00549972610665386,-0.0135707120815507,0.00142978089478739,2.45535593210411,3.48750519965806,-2.55947844163268,-0.00434596076084543,-0.00187379324811044,0.0131526435933949,-6.64751133503773,-0.808463893616622,-6.70638260924522,-0.0252405466192307,-0.0177214440764357,0.016991674490351
0.255,-4.93308814077102,-5.92160048440991,2.69862196056374,-0.00569937330951945,-0.0178795072326659,-0.00415458513498179,-3.58562088768008,-7.88445006362569,11.3858370854957,-0.00450696169418227,-0.0134185134649086,0.00142452970881152,2.45181010740748,3.4838002377836,-2.55704042342123,-0.00336971872966924,-0.00181191237406617,0.0114881077019991,-6.6416490308136,-0.807654561071828,-6.69921307391655,-0.0257443548725753,-0.0199508156471367,0.0167833088832671
0.26,-4.92844763395192,-5.91514792053641,2.69667716871106,-0.00540555427155724,-0.0181407099896915,-0.00510881300579906,-3.58293129423691,-7.87618861996371,11.3739832834556,-0.00373297013929605,-0.0132714902605161,0.00139395014541738,2.44826428271108,3.48009527590915,-2.55460240520981,-0.00261064314368334,-0.00178300832515761,0.00988579082943255,-6.63578672658969,-0.806845228527038,-6.69204353858788,-0.0261264473084343,-0.0221301727812598,0.0164910631431753
0.265,-4.9238071271327,-5.90869535666286,2.69473237685827,-0.00523064193291136,-0.0181198521996626,-0.00579380017660095,-3.58024170079398,-7.86792717630175,11.3621294814154,-0.00320139611489601,-0.0131329898797421,0.00133967216056304,2.44471845801468,3.47639031403472,-2.55216438699838,-0.00209202845303863,-0.0017870216999125,0.00835177809267381,-6.62992442236555,-0.806035895982244,-6.68487400325921,-0.0264135972067331,-0.0242590926396937,0.0161129861747073
0.27,-4.91916662031372,-5.90224279278937,2.69278758500548,-0.0051776016793631,-0.0178367790299942,-0.00622464370983764,-3.57755210735104,-7.85966573263978,11.3502756793752,-0.00291051735051072,-0.0130075597228312,0.0012630025829551,2.44117263331805,3.47268535216027,-2.54972636878693,-0.00181178841677845,-0.00182366267418497,0.00688978979666319,-6.62406211814164,-0.805226563437454,-6.6777044679306,-0.0266465301626145,-0.0263362877332809,0.0156642507914006
0.275,-4.9145261134945,-5.89579022891587,2.69084279315268,-0.00524546008211817,-0.0173234311473335,-0.00643978326066391,-3.57486251390787,-7.8514042889778,11.338421877335,-0.00284349601383609,-0.0128964259445064,0.00116395185691269,2.43762680862164,3.46898039028582,-2.54728835057551,-0.00175304054647388,-0.00189266250275099,0.00550871515767123,-6.6181998139175,-0.804417230892664,-6.67053493260187,-0.0268646010258116,-0.0283613770240114,0.015168819996145
0.28,-4.90988560667529,-5.88933766504238,2.68889800129989,-0.00543019279675597,-0.0166195093649352,-0.00648990000002044,-3.57217292046516,-7.84314284531584,11.3265680752948,-0.00297408159701278,-0.0127976292006745,0.00104134815643725,2.43408098392524,3.46527542841139,-2.54485033236409,-0.00188977817853953,-0.0019938765218882,0.00422148975298633,-6.61233750969359,-0.80360789834787,-6.6633653972732,-0.0270993221787724,-0.0303338597314563,0.0146552547742891
0.285,-4.9052450998563,-5.88288510116888,2.6869532094471,-0.00572442492768277,-0.0157812886940003,-0.00643727873208606,-3.569483327022,-7.83488140165386,11.3147142732546,-0.0032665129901196,-0.012709686414531,0.000893691924738936,2.43053515922861,3.46157046653693,-2.54241231415264,-0.00218647354795063,-0.00212727800963073,0.00303793396787826,-6.60647520546945,-0.802798565803084,-6.65619586194458,-0.027379365857627,-0.0322478234767535,0.0141592315216753
0.29,-4.90060459303709,-5.87643253729539,2.6850084175943,-0.00611957763467244,-0.0148738561174493,-0.00633902349241253,-3.56679373357906,-7.82661995799188,11.3028604712145,-0.00368601649208735,-0.0126305082241787,0.000719839573519131,2.42698933453221,3.45786550466249,-2.53997429594125,-0.00260863825442091,-0.00229238725410897,0.00196807096850126,-6.60061290124554,-0.80198923325829,-6.64902632661585,-0.027725855780182,-0.0340784824314905,0.0137160194122698
0.295,-4.89596408621799,-5.86997997342189,2.68306362574151,-0.00660886875246968,-0.0139497653741427,-0.00622191978902577,-3.56410414013612,-7.81835851432992,11.2910066691743,-0.00421402263862795,-0.0125531446120852,0.000519254653853538,2.42344350983581,3.45416054278805,-2.5375362777298,-0.00313834917400992,-0.00248755863140256,0.00103150511282112,-6.59475059702163,-0.801179900713503,-6.64185679128721,-0.0281396677613258,-0.0357722734241537,0.0133456367743198
0.3,-4.89132357939889,-5.8635274095484,2.68111883388883,-0.0071844563179017,-0.0130482968406156,-0.00608970659509517,-3.56141454669296,-7.81009707066795,11.2791528671341,-0.00484108850980735,-0.0124692398178724,0.000292517291307416,2.41989768513918,3.4504555809136,-2.53509825951838,-0.00376691132601385,-0.00271003883613935,0.000248134067678863,-6.58888829279749,-0.800370568168709,-6.63468725595857,-0.0286051529701554,-0.0372682302613557,0.013053065288859
0.305,-4.88668307257967,-5.8570748456749,2.67917404203604,-0.00783086196608289,-0.0122129529720882,-0.00595349090512836,-3.55872495325002,-7.80183562700597,11.2672990650939,-0.00554472926637995,-0.0123777997000382,4.21549034065119e-05,2.41635186044277,3.44675061903916,-2.53266024130693,-0.00447203841331296,-0.0029564199115366,-0.000383014708223122,-6.58302598857358,-0.799561235623916,-6.6275177206299,-0.0291072025554627,-0.0385354282792395,0.0128415283123105
0.31,-4.88204256576057,-5.85062228180141,2.67722925018313,-0.00852537657710255,-0.0114904013635415,-0.00582886276067661,-3.55603535980708,-7.79357418334401,11.2554452630537,-0.00629120453012667,-0.0122843489558553,-0.000227467063390965,2.41280603574614,3.44304565716472,-2.53022222309551,-0.00521970265880343,-0.0032226083824831,-0.000879210298297297,-6.57716368434944,-0.798751903079129,-6.62034818530122,-0.0296306223407347,-0.0395681767231893,0.0127119396273233
0.315,-4.87740205894147,-5.84416971792785,2.67528445833045,-0.00924473208135092,-0.0109086726212144,-0.00570561100034247,-3.55334576636392,-7.78531273968204,11.2435914610136,-0.00705753641180452,-0.0121899696150895,-0.000511693113910383,2.40926021104974,3.43934069529027,-2.52778420488409,-0.00598698183246648,-0.0035035662308885,-0.00124413814604806,-6.57130138012553,-0.797942570534335,-6.61317864997255,-0.030142200496066,-0.040343177587405,0.0126482169614259
0.32,-4.87276155212237,-5.83771715405436,2.67333966647766,-0.00996691474914168,-0.0104663866461264,-0.00555283628841945,-3.55065617292098,-7.77705129602006,11.2317376589734,-0.00783180452106116,-0.0120851176470587,-0.000807064197341301,2.40571438635334,3.43563573341582,-2.52534618667264,-0.00676285936228135,-0.00379336374193098,-0.00145440865094592,-6.56543907590139,-0.797133237989549,-6.60600911464391,-0.0305906917692327,-0.0408082416860747,0.012615772486328
0.325,-4.86812104530316,-5.83126459018087,2.67139487462487,-0.0106681658164569,-0.010143304987225,-0.00535617821769851,-3.54796657947782,-7.76878985235808,11.2198838569332,-0.00859310944885805,-0.0119558093810907,-0.00111102831214065,2.40216856165671,3.43193077154139,-2.52290816846121,-0.0075277414465134,-0.00408563843733145,-0.00147996837248359,-6.55957677167748,-0.796323905444755,-6.59883957931521,-0.0309320535834848,-0.0409195208601845,0.0125767261488302
0.33,-4.86348053848405,-5.82481202630737,2.66945008277207,-0.011324135081337,-0.00991362622020821,-0.00512814442918214,-3.54527698603488,-7.76052840869612,11.208030054893,-0.00930806498520934,-0.011794065601553,-0.00142054728248562,2.39862273696031,3.42822580966693,-2.52047015024979,-0.00824909364151937,-0.00437449272822985,-0.00131204990768096,-6.55371446745335,-0.795514572899961,-6.59167004398654,-0.0311472108282082,-0.0406782092915934,0.012499412930665
0.335,-4.85884003166495,-5.81835946243388,2.66750529091939,-0.0119155767408513,-0.00974650348908788,-0.00488702786996044,-3.54258739259194,-7.75226696503415,11.1961762528528,-0.00994652846443742,-0.011599624453444,-0.00173214097230737,2.3950769122639,3.42452084779248,-2.51803213203834,-0.00889696510964545,-0.00465545000370965,-0.000966741995778326,-6.54785216322944,-0.794705240355174,-6.5845005086579,-0.0312351511753101,-0.0401321945459526,0.0123555037899581
0.34,-4.85419952484585,-5.81190689856032,2.66556049906649,-0.0124324310676045,-0.00960118546726139,-0.00464145813481487,-3.53989779914878,-7.74400552137217,11.1843224508126,-0.0104931576579876,-0.0113736790215006,-0.00204347563508401,2.39153108756727,3.42081588591805,-2.51559411382692,-0.00945601144487093,-0.00492596756334506,-0.000467085840903472,-6.5419898590053,-0.793895907810381,-6.5773309733292,-0.0312000620424335,-0.0393486581511541,0.0121170548211599
0.345,-4.84955901802675,-5.80545433468683,2.66361570721381,-0.0128744513184948,-0.00943081804749024,-0.00439061817568858,-3.53720820570584,-7.73574407771019,11.1724686487725,-0.0109478788648913,-0.0111158014496743,-0.00235440444525931,2.38798526287087,3.4171109240436,-2.5131560956155,-0.00992620706928096,-0.00518577191850753,0.000169716165550905,-6.53612755478139,-0.793086575265583,-6.57016143800055,-0.0310489154990302,-0.0383850402365391,0.0117593931099264
0.35,-4.84491851120754,-5.79900177081333,2.66167091536101,-0.013250638680226,-0.00919258156698339,-0.00413143317160829,-3.53451861226267,-7.72748263404822,11.1606148467323,-0.0113215710872934,-0.0108258299143351,-0.0026672849872941,2.38443943817447,3.41340596216915,-2.51071807740408,-0.0103183794971965,-0.00543745685499038,0.000930488495910251,-6.53026525055725,-0.792277242720797,-6.56299190267191,-0.0307956570387239,-0.0372817105935625,0.0112665685177647
0.355,-4.84027800438832,-5.79254920693978,2.65972612350822,-0.0135781211920872,-0.00885600273598236,-0.00386742740967312,-3.53182901881996,-7.71922119038625,11.1487610446921,-0.0116306863258834,-0.0105057093753434,-0.00298693202351135,2.38089361347784,3.4097010002947,-2.50828005919263,-0.0106486927601168,-0.00568667815534543,0.00179926579456583,-6.52440294633334,-0.791467910176006,-6.55582236734318,-0.0304641565574428,-0.0360726712957799,0.0106367323579905
0.36,-4.83563749756934,-5.78609664306629,2.65778133165543,-0.0138797487207573,-0.00840810605252497,-0.00361520507131813,-3.52913942537702,-7.71095974672428,11.1369072426519,-0.0118921982983333,-0.0101598052802906,-0.00331975935019335,2.37734778878144,3.40599603842027,-2.50584204098121,-0.0109336000112145,-0.00594122100798654,0.00275334372449155,-6.5185406421092,-0.790658577631213,-6.54865283201454,-0.0300872999597611,-0.0347962011014544,0.00988632359447707
0.365,-4.83099699075012,-5.77964407919279,2.65583653980275,-0.014181234420595,-0.00785455661229322,-0.00340234949888194,-3.52644983193386,-7.70269830306232,11.1250534406117,-0.0121216700796962,-0.00979470664086293,-0.00367270989579347,2.37380196408503,3.40229107654582,-2.50340402276979,-0.0111879504239546,-0.00620984888111739,0.00376444249003446,-6.51267833788529,-0.789849245086423,-6.5414832966859,-0.0297008124638817,-0.0334947800023304,0.0090487648839864
0.37,-4.82635648393114,-5.7731915153193,2.65389174794984,-0.0145088130055996,-0.00721312544502689,-0.00324874080107656,-3.52376023849092,-7.69443685940034,11.1131996385715,-0.0123384092440154,-0.00941913918425303,-0.00405236850700684,2.3702561393884,3.39858611467137,-2.50096600455834,-0.0114301454854768,-0.00650159387728415,0.00480609154094262,-6.50681603366115,-0.789039912541632,-6.53431376135725,-0.0293297949131511,-0.0321987501065887,0.00816177527359584
0.375,-4.82171597711192,-5.7667389514458,2.65194695609716,-0.01488847565617,-0.00650057586040968,-0.00313768656923037,-3.52107064504776,-7.68617541573836,11.1013458365314,-0.0125770374551473,-0.00904273232861449,-0.00446409087102277,2.366710314692,3.39488115279693,-2.49852798634691,-0.0116937836299068,-0.00682501906556792,0.00586408543507521,-6.50095372943724,-0.788230579996842,-6.52714422602855,-0.0289753846151537,-0.0309012916547397,0.0072495877415727
0.38,-4.81707547029271,-5.76028638757231,2.65000216424437,-0.0153458231325831,-0.00572589263410347,-0.00300991542656914,-3.51838105160482,-7.6779139720764,11.0894920344912,-0.0128903961591012,-0.00867344596675599,-0.00491183860850826,2.3631644899956,3.39117619092248,-2.49608996813549,-0.0120307777780706,-0.00718757010655004,0.00694140240707566,-6.49509142521333,-0.787421247452048,-6.51997469069988,-0.0286152484789578,-0.0295511234595882,0.00631837349544686
0.385,-4.81243496347372,-5.75383382369881,2.64805737239158,-0.0159027149264434,-0.00490115810516847,-0.00280814465562644,-3.51569145816188,-7.66965252841443,11.077638232451,-0.0133267758589827,-0.00831510816770739,-0.00539921438834125,2.35961866529919,3.38747122904803,-2.49365194992407,-0.0124888657822653,-0.0075952498346572,0.00805294597156078,-6.48922912098919,-0.786611914907258,-6.51280515537124,-0.0282216579521147,-0.0280806575126586,0.00537341198722091
0.39,-4.80779445665451,-5.74738125982532,2.64611258053878,-0.0165733156373568,-0.00405822723564086,-0.00253299151706092,-3.51300186471872,-7.66139108475245,11.0657844304108,-0.0139014955553684,-0.00796621247103158,-0.00593054198210292,2.35607284060279,3.3837662671736,-2.49121393171262,-0.0130833841063066,-0.00805243045116256,0.00921506056307271,-6.48336681676528,-0.785802582362468,-6.50563562004254,-0.0277841206401248,-0.0264461775133338,0.00444111184362807
0.395,-4.80315394983541,-5.74092869595182,2.64416778868599,-0.0173646286837419,-0.00325047513387262,-0.00223646499495159,-3.51031227127578,-7.65312964109047,11.0539306283706,-0.0146006558091142,-0.00762278380020418,-0.00650978204760814,2.35252701590616,3.38006130529915,-2.48877591350117,-0.0138007793751394,-0.00856157417852535,0.0104400736435241,-6.47750451254115,-0.784993249817678,-6.4984660847139,-0.0273110306263664,-0.0246336288320956,0.00356841083430815
0.4,-4.7985134430163,-5.73447613207833,2.6422229968332,-0.01827880567516,-0.00254032962132629,-0.00196397537275185,-3.50762267783261,-7.64486819742851,11.0420768263305,-0.0154088503745556,-0.00728402067431638,-0.00713775034820501,2.34898119120976,3.37635634342472,-2.48633789528978,-0.0146257766013309,-0.0091227456519435,0.0117396015366754,-6.47164220831723,-0.784183917272887,-6.49129654938525,-0.0268078596978769,-0.0226295817201782,0.00280136849000389
0.405,-4.7938729361972,-5.72802356820478,2.6402782049804,-0.0193132699570696,-0.00198663025150551,-0.0017242223765782,-3.50493308438968,-7.63660675376653,11.0302230242903,-0.0163221906669407,-0.00695325283301106,-0.00781099007521931,2.34543536651336,3.37265138155026,-2.48389987707833,-0.0155542897626059,-0.00973317263174678,0.0131298567604607,-6.4657799040931,-0.783374584728094,-6.48412701405653,-0.0262613968113809,-0.0204038150949715,0.00217045658241218
0.41,-4.78923242937799,-5.72157100433134,2.63833341312761,-0.0204586023599634,-0.00163626529775216,-0.00151725016126869,-3.50224349094674,-7.62834531010456,11.0183692222501,-0.0173340264916302,-0.00663178805313452,-0.00852330917204531,2.34188954181673,3.36894641967581,-2.48146185886691,-0.0165796976358322,-0.0103868606340913,0.014633612798463,-6.45991759986919,-0.782565252183304,-6.47695747872788,-0.0256449633894689,-0.0179252521847674,0.00169238360654874
0.415,-4.78459192255889,-5.71511844045779,2.63638862127493,-0.0216980811342589,-0.00151822634144012,-0.00137372540787224,-3.49955389750357,-7.6200838664426,11.0065154202099,-0.0184181751111487,-0.00631231669803626,-0.0092676732853027,2.33834371712032,3.36524145780137,-2.47902384065546,-0.0176766700449143,-0.0110743706470349,0.0162776776551051,-6.45405529564505,-0.781755919638513,-6.46978794339921,-0.0249346539385599,-0.0151887514490939,0.00137743831263409
0.42,-4.77995141573979,-5.70866587658429,2.63444382942214,-0.0230106979684862,-0.00164452918563279,-0.00134891019549413,-3.49686430406064,-7.61182242278062,10.9946616181697,-0.0195349046749845,-0.00598119604064355,-0.010036207963732,2.33479789242392,3.36153649592693,-2.47658582244404,-0.0188069343478649,-0.011783545192395,0.018084836713852,-6.44819299142114,-0.780946587093723,-6.46261840807057,-0.0241187383538883,-0.0122216297004543,0.00123165646687916
0.425,-4.77531090892057,-5.7022133127108,2.63249903756923,-0.0243716362224199,-0.00201927547431838,-0.00148386748000147,-3.4941747106177,-7.60356097911865,10.9828078161296,-0.0206461337816975,-0.00562888213257258,-0.010818873490854,2.33125206772729,3.35783153405248,-2.47414780423262,-0.0199335476217735,-0.0125011058602234,0.020064733388684,-6.442330687197,-0.780137254548933,-6.4554488727419,-0.0231888338411689,-0.00906907675990385,0.00125230847710469
0.43,-4.77067040210159,-5.69576074883724,2.63055424571655,-0.025749019122456,-0.00264328512772178,-0.00178128244166327,-3.49148511717476,-7.59529953545669,10.9709540140894,-0.0217194537698607,-0.00525674841326198,-0.0116032237464761,2.32770624303089,3.35412657217805,-2.47170978602119,-0.0210243239759014,-0.0132141086694829,0.0222102353833376,-6.43646838297309,-0.779327922004136,-6.44827933741323,-0.0221259664452768,-0.00578341183654596,0.0014232430575649
0.435,-4.76602989528237,-5.68930818496375,2.62860945386376,-0.0271035137220849,-0.0035085665459253,-0.00220651143795418,-3.48879552373182,-7.58703809179471,10.9591002120492,-0.0227259084794765,-0.00487577242187167,-0.0123759714923251,2.32416041833449,3.35042161030358,-2.46927176780974,-0.0220497087140202,-0.0139111002805091,0.0244984980241859,-6.43060607874895,-0.778518589459345,-6.44110980208455,-0.0208994308679367,-0.00242477680575455,0.00171682158316764
0.44,-4.76138938846316,-5.68285562109025,2.62666466201097,-0.0283935636915056,-0.0045913488357236,-0.00270841525073249,-3.48610593028866,-7.57877664813273,10.947246410009,-0.0236371333824817,-0.00450184198630381,-0.0131256618697644,2.32061459363786,3.34671664842915,-2.46683374959832,-0.022980286686834,-0.0145835641377983,0.0268939873157274,-6.42474377452504,-0.777709256914555,-6.43394026675588,-0.0194785498150017,0.00093944206111816,0.00210633400689415
0.445,-4.75674888164417,-5.67640305721676,2.62471987015817,-0.0295821558905341,-0.00584739946563269,-0.00324313315648016,-3.48341633684572,-7.57051520447077,10.9353926079688,-0.0244236451186278,-0.00415193999410109,-0.0138448879246517,2.31706876894145,3.3430116865547,-2.4643957313869,-0.0237853700739108,-0.0152271597955853,0.0293509650473426,-6.4188814703009,-0.776899924369765,-6.42677073142724,-0.0178475420883854,0.00423659898584397,0.00258048285468505
0.45,-4.75210837482496,-5.66995049334326,2.62277507830549,-0.0306375730000642,-0.00721244309442331,-0.00377451514044382,-3.48072674340278,-7.56225376080879,10.9235388059286,-0.025056026266437,-0.00384505943917083,-0.0145297138942047,2.31352294424505,3.33930672468026,-2.46195771317545,-0.0244341089919947,-0.0158414165788855,0.0318123232787425,-6.41301916607699,-0.776090591824975,-6.41960119609857,-0.0160095449772274,0.00738642413186152,0.00314222573317351
0.455,-4.74746786800574,-5.66349792946977,2.62083028645259,-0.0315333798627072,-0.00860895590740479,-0.00426469632175453,-3.47803714995962,-7.55399231714682,10.9116850038885,-0.0255099817683443,-0.00360269175291161,-0.0151782724061339,2.30997711954842,3.33560176280581,-2.45951969496403,-0.0249005065866153,-0.0164286531364867,0.0342140163786259,-6.40715686185308,-0.775281259280181,-6.41243166076987,-0.0139797318644532,0.0103099563670236,0.00379796733517504
0.46,-4.74282736118676,-5.65704536559628,2.61888549459991,-0.032258804012725,-0.00994454363334316,-0.00467427070339855,-3.47534755651668,-7.54573087348484,10.8998312018483,-0.0257809976431216,-0.00344049373236575,-0.0157919855417819,2.30643129485202,3.33189680093136,-2.45708167675261,-0.0251787154175682,-0.0169937507319069,0.0365010276055542,-6.40129455762894,-0.774471926735391,-6.40526212544123,-0.0117844572223099,0.0129500152259192,0.00455403694253066
0.465,-4.73818685436754,-5.65059280172272,2.61694070274712,-0.0328247721854509,-0.0110987949918496,-0.00495207354672013,-3.47265796307352,-7.53746942982288,10.8879773998081,-0.0258975147879624,-0.00336381657678361,-0.016375543301324,2.30288547015562,3.32819183905693,-2.45464365854119,-0.0252965470035982,-0.0175435246727037,0.0386308542672957,-6.39543225340503,-0.773662594190601,-6.39809259011255,-0.00946735246989688,0.0152646866014649,0.00541053328812897
0.47,-4.73354634754844,-5.64414023784923,2.61499591089432,-0.0332529945451505,-0.0119243407628759,-0.00501552067215983,-3.46996836963058,-7.5292079861609,10.8761235977679,-0.0259156222650408,-0.00337828245607459,-0.016932803035688,2.29933964545899,3.32448687718248,-2.45220564032974,-0.0253093445112642,-0.0180849330625923,0.0405556851967539,-6.3895699491809,-0.77285326164581,-6.39092305478391,-0.00708937690628605,0.0172007564624823,0.00634714426722314
0.475,-4.72890584072934,-5.63768767397573,2.61305111904153,-0.0335722740870669,-0.0122746407933374,-0.00475603740717025,-3.46727877618764,-7.52094654249893,10.8642697957277,-0.0259123885584693,-0.00349627552246522,-0.0174650226279913,2.29579382076258,3.32078191530803,-2.44976762211829,-0.0252928082336316,-0.018624590211617,0.0422212693598553,-6.38370764495698,-0.772043929101017,-6.38375351945524,-0.00472147604988516,0.0187130299844415,0.00732137245615246
0.48,-4.72426533391024,-5.63123511010224,2.61110632718885,-0.0338316634735158,-0.0120291852781178,-0.00406598803403162,-3.46458918274448,-7.51268509883695,10.8524159936875,-0.025992124865656,-0.00372788643615493,-0.0179740043304495,2.29224799606595,3.31707695343358,-2.44732960390689,-0.0253499620354639,-0.0191699387512733,0.0435926516897269,-6.37784534073285,-0.77123459655623,-6.37658398412657,-0.00243681579738335,0.0198190913735395,0.00828085830776218
0.485,-4.71962482709102,-5.62478254622874,2.60916153533594,-0.0341011683253629,-0.0110797745368615,-0.00285159767629285,-3.46189958930154,-7.50442365517499,10.8405621916474,-0.0262816828660724,-0.00407416034341499,-0.0184640350308976,2.28870217136955,3.31337199155915,-2.44489158569544,-0.0256070212984832,-0.019729413164852,0.0446640990833491,-6.37198303650894,-0.770425264011436,-6.3694144487979,-0.000306247099985081,0.0205977874207972,0.00916696433259186
0.49,-4.71498432027192,-5.61832998235525,2.60721674348326,-0.0344545896950705,-0.00929752509239395,-0.00102589619646648,-3.45920999585837,-7.49616221151301,10.8287083896072,-0.026909681926714,-0.00453157567165637,-0.0189408991068061,2.28515634667315,3.3096670296847,-2.44245356748399,-0.0261923338220236,-0.0203118119430691,0.0454419398922534,-6.3661207322848,-0.769615931466646,-6.36224491346923,0.00160440515803073,0.0211330676345016,0.00990874312573315
0.495,-4.71034381345282,-5.61187741848175,2.60527195163047,-0.0349631539835419,-0.00653936506826726,0.00150068826973964,-3.45652040241544,-7.48790076785104,10.816854587567,-0.0280004017516818,-0.0050980483807069,-0.0194118428779746,2.28161052197652,3.30596206781026,-2.4400155492726,-0.0272297873615,-0.0209274359271259,0.0459323910597666,-6.36025842806089,-0.768806598921856,-6.35507537814055,0.00323770666064731,0.0214989680081851,0.0104292954527981
0.5,-4.70570330663361,-5.60542485460826,2.60332715977756,-0.0357028563781704,-0.00268793869260576,0.00482265570729786,-3.45383080897273,-7.47963932418907,10.8050007855268,-0.0296837406862735,-0.00577478081475555,-0.0198865150011314,2.27806469728012,3.30225710593581,-2.43757753106115,-0.0288485646619417,-0.021589744265222,0.0461442204061132,-6.35439612383675,-0.767997266377062,-6.34790584281191,0.00454811166220315,0.0217917982308519,0.0106626911887391
0.505,-4.70106279981462,-5.59897229073476,2.60138236792488,-0.0367515976920583,0.0023414205945022,0.00903169924076105,-3.45114121552956,-7.4713778805271,10.7931469834866,-0.0320898097323232,-0.00656427129416592,-0.0203758883769324,2.27451887258371,3.29855214406136,-2.43513951284973,-0.0311779410926938,-0.0223136912553204,0.0460907102998423,-6.34853381961284,-0.767187933832272,-6.34073630748321,0.00550286023390516,0.0221266438859632,0.010555658844211
0.51,-4.69642229299541,-5.59251972686127,2.59943757607209,-0.0381736365688327,0.00862916186711098,0.0142016934112305,-3.44845162208662,-7.46311643686514,10.7812931814465,-0.0353247184464853,-0.00746678112595618,-0.0208898196597539,2.27097304788708,3.29484718218691,-2.43270149463828,-0.034323486180785,-0.0231118221627803,0.0457859845990618,-6.3426715153887,-0.766378601287478,-6.33356677215457,0.00608120684899418,0.0225917542798463,0.0100560491227195
0.515,-4.69178178617631,-5.58606716298766,2.5974927842193,-0.0400092494495931,0.0162554769867787,0.0203751438980844,-3.44576202864346,-7.45485499320316,10.7694393794063,-0.0394518262275689,-0.00847953654697842,-0.0214364548619479,2.26742722319068,3.29114222031248,-2.43026347642689,-0.038348453266954,-0.023992987611938,0.0452426007322963,-6.33680921116479,-0.765569268742688,-6.3263972368259,0.00627699618770586,0.0232296969747437,0.00911744125874122
0.52,-4.68714127935721,-5.57961459911417,2.59554799236662,-0.0422739819002119,0.0252688624425468,0.0275550669759039,-3.44307243520052,-7.44659354954119,10.7575855773661,-0.0444864111572222,-0.00959860506424017,-0.0220232016850565,2.26388139849428,3.28743725843803,-2.42782545821544,-0.0432682931318273,-0.024963619160142,0.0444732243417648,-6.33094690694065,-0.764759936197898,-6.31922770149723,0.00610384274223819,0.0240569459085693,0.00772059097118355
0.525,-4.68250077253799,-5.57316203524067,2.59360320051371,-0.0449591508048316,0.0356567335337869,0.0357015049099675,-3.44038284175758,-7.43833210587923,10.7457317753259,-0.0503957777754838,-0.0108188189040744,-0.0226562172012223,2.26033557379765,3.28373229656358,-2.42538744000399,-0.0490507698266428,-0.0260272798002937,0.0434937933217615,-6.32508460271674,-0.763950603653104,-6.31205816616858,0.0055958831502616,0.0250776517129412,0.00588441689772902
0.53,-4.677860265719,-5.56670947136718,2.59165840866103,-0.0480300322939709,0.0473310605880667,0.0447294162875387,-3.43769324831442,-7.43007066221725,10.7338779732857,-0.057099132690347,-0.0121314172899019,-0.0233378600543394,2.25678974910124,3.28002733468914,-2.42294942179259,-0.0556160602763738,-0.0271816965018828,0.0423257358254897,-6.3192222984926,-0.763141271108314,-6.30488863083988,0.00480290815468761,0.0262800491101388,0.00366028260479093
0.535,-4.67321975889979,-5.56025690749368,2.58971361680824,-0.0514243398321957,0.0601203004101464,0.0545051157972888,-3.43500365487148,-7.42180921855527,10.7220241712455,-0.0644671126144313,-0.0135226971221097,-0.0240640061842894,2.25324392440484,3.2763223728147,-2.42051140358114,-0.062836422756371,-0.0284158642741387,0.0409963227384952,-6.31335999426869,-0.762331938563523,-6.29771909551121,0.00378289555867588,0.0276359828279113,0.00112407093768954
0.54,-4.66857925208058,-5.55380434362019,2.58776882495533,-0.0550536476379727,0.0737664155486648,0.0648441220208508,-3.43231406142831,-7.41354777489329,10.7101703692054,-0.072324816743804,-0.014973077179483,-0.0248222939791395,2.24969809970821,3.27261741094026,-2.41807338536972,-0.0705393119228711,-0.0297082354660422,0.0395381379998696,-6.30749769004478,-0.761522606018733,-6.29054956018257,0.00259189487585679,0.0291072139856972,-0.00162860137491367
0.545,-4.66393874526159,-5.54735177974669,2.58582403310265,-0.0588044102302392,0.0879246306819725,0.075509123126618,-3.42962446798538,-7.40528633123132,10.6983165671652,-0.0804540845224336,-0.0164555462625251,-0.0255907407683498,2.24615227501181,3.26891244906581,-2.41563536715827,-0.0785097918817204,-0.0310250857287905,0.0379883022137651,-6.30163538582065,-0.760713273473939,-6.2833800248539,0.00127494543497666,0.0306443697461019,-0.00448869267930107
0.55,-4.65929823844237,-5.5408992158732,2.58387924124986,-0.0625363914314447,0.102163847976015,0.0862056768305101,-3.42693487454244,-7.39702488756936,10.686462765125,-0.0885906474705173,-0.0179363126633346,-0.0263365654428616,2.24260645031541,3.26520748719136,-2.41319734894685,-0.0864876572871464,-0.0323194096323103,0.0363858206185553,-6.29577308159674,-0.759903940929149,-6.27621048952525,-0.000137557031970821,0.0321812768938736,-0.00734261935297119
0.555,-4.65465773162327,-5.5344466519997,2.58193444939707,-0.0660855862455803,0.115981664447756,0.0965858163024132,-3.42424528109927,-7.38876344390738,10.6746089630848,-0.0964281546190266,-0.019379139913685,-0.0270164585298305,2.239060625619,3.26150252531693,-2.41075933073543,-0.0941710805742459,-0.0335322517361253,0.0347688849897923,-6.2899107773726,-0.759094608384359,-6.26904095419656,-0.00162831014090138,0.0336463625603771,-0.0100797451738528
0.56,-4.65001722480417,-5.52799408812615,2.57998965754427,-0.0692745976405828,0.128840560190388,0.106264357353825,-3.42155568765634,-7.38050200024541,10.6627551610446,-0.103635178452584,-0.0207479851065388,-0.0275793055982842,2.2355148009226,3.25779756344248,-2.40832131252398,-0.101233313586872,-0.0345964061134135,0.0331785001678778,-6.28404847314869,-0.758285275839569,-6.26187141886791,-0.0031863355175548,0.0349837819979653,-0.0125966564726058
0.565,-4.64537671798496,-5.52154152425271,2.5780448656916,-0.0719245453108684,0.140204287701507,0.114840461358747,-3.4188660942134,-7.37224055658345,10.6509013590044,-0.109875957783456,-0.0220027491936524,-0.0279709642584152,2.23196897622597,3.25409260156802,-2.40588329431256,-0.107343676427803,-0.0354406388538759,0.0316650959479455,-6.27818616892455,-0.757475943294779,-6.25470188353924,-0.00480152431415493,0.0361506019311946,-0.0147992553346476
0.57,-4.64073621116586,-5.51508896037916,2.5761000738388,-0.0738657976543917,0.149564849849533,0.121923776433101,-3.41617650077046,-7.36397911292147,10.6390475569643,-0.114831151617467,-0.0230959474410099,-0.0281391495872694,2.22842315152957,3.25038763969359,-2.40344527610114,-0.112188482315324,-0.0359942162175672,0.0302857769070743,-6.27232386470064,-0.756666610749985,-6.24753234821057,-0.00646631990420548,0.0370979505108854,-0.0166045723108009
0.575,-4.6360957043467,-5.50863639650566,2.57415528198601,-0.0749475235495516,0.156469597988355,0.127161680151131,-3.41348690732752,-7.35571766925949,10.6271937549241,-0.11821700754388,-0.0239781836120121,-0.0280366924192748,2.22487732683317,3.24668267781914,-2.40100725788972,-0.115489654436886,-0.0361918229513912,0.0290937906839027,-6.2664615604765,-0.755857278205195,-6.24036281288193,-0.00817721612289231,0.0377694743849802,-0.0179435516210726
0.58,-4.63145519752766,-5.50218383263217,2.57221049013322,-0.0750441582863376,0.160542064824639,0.130256075526503,-3.41079731388436,-7.34745622559753,10.6153399528839,-0.119797239643131,-0.0246052668862066,-0.0276233550433099,2.22133150213654,3.24297771594469,-2.39856923967827,-0.117015946216549,-0.0359772735787314,0.0281322034802349,-6.26059925625259,-0.755047945660404,-6.23319327755323,-0.00993261986294847,0.0381118881782282,-0.018763173636557
0.585,-4.6268146907085,-5.49573126875868,2.57026569828042,-0.0740588176504985,0.1614895870244,0.130970386076547,-3.40810772044142,-7.33919478193555,10.6034861508437,-0.11938869416164,-0.0249402743012663,-0.0268670469437294,2.21778567744013,3.23927275407024,-2.39613122146685,-0.116588395245779,-0.0353053439486048,0.0274332803663826,-6.25473695202845,-0.754238613115614,-6.22602374222456,-0.0117312563320814,0.0380787267693257,-0.0190265008975417
0.59,-4.62217418388929,-5.48927870488518,2.56832090642763,-0.0719259437122337,0.159107500016501,0.129135118568113,-3.40541812699848,-7.33093333827357,10.5916323488035,-0.11686585676194,-0.0249533463997904,-0.0257451357670359,2.21423985274373,3.23556779219581,-2.3936932032554,-0.114084806131262,-0.0341431763976106,0.0270183330593783,-6.24887464780454,-0.753429280570824,-6.21885420689591,-0.0135708090737835,0.0376294234361454,-0.0187119314955999
0.595,-4.61753367707024,-5.48282614101169,2.56637611457484,-0.0686145425020614,0.153287315771309,0.124655054998473,-3.40272853355532,-7.32267189461162,10.5797785467634,-0.112166154105004,-0.0246223913361592,-0.024246198263847,2.2106940280471,3.23186283032136,-2.391255185044,-0.109444938135985,-0.0324723686250694,0.0268966429933302,-6.2430123435804,-0.752619948026027,-6.21168467156724,-0.015445292442428,0.0367294159225799,-0.0178131458946502
0.6,-4.61289317025108,-5.47637357713813,2.56443132272204,-0.0641324636815904,0.144028788770759,0.117519490815778,-3.40003894011238,-7.31441045094964,10.5679247447232,-0.105297542814342,-0.0239351257179822,-0.0223717795607158,2.2071482033507,3.22815786844691,-2.38881716683255,-0.102677855405096,-0.0302914587377714,0.0270645057128923,-6.23715003935649,-0.751810615481237,-6.20451513623857,-0.0173425663379859,0.035350965869502,-0.0163399122556361
0.605,-4.60825266343193,-5.4699210132647,2.56248653086936,-0.0585315923309072,0.13145437661302,0.107815352221754,-3.39734934666922,-7.30614900728766,10.556070942683,-0.0963486377043155,-0.0228920671268542,-0.0201377421593648,2.2036023786543,3.22445290657247,-2.38637914862113,-0.093871730271218,-0.0276183065125366,0.0275046130643207,-6.23128773513236,-0.751001282936446,-6.1973456009099,-0.019243760087118,0.0334747951281689,-0.0143195470195192
0.61,-4.60361215661283,-5.46346844939114,2.56054173901657,-0.0519120852487039,0.115822590245185,0.0957383195403492,-3.39465975322628,-7.29788756362569,10.5442171406428,-0.0854974383926171,-0.0215097941799115,-0.0175748509193362,2.20005655395767,3.22074794469803,-2.38394113040971,-0.0832022378819278,-0.0244917403655408,0.0281858139830602,-6.22542543090844,-0.750191950391656,-6.19017606558123,-0.0211247758378393,0.0310941297627933,-0.0117986834010898
0.615,-4.59897164979373,-5.45701588551765,2.55859694716366,-0.0444224694781769,0.0975327085335541,0.081594479379869,-3.39197015978334,-7.28962611996371,10.5323633386026,-0.0730123068986264,-0.0198229162204391,-0.0147280689020183,2.19651072926126,3.21704298282359,-2.38150311219826,-0.0709333584945539,-0.0209714009122189,0.0290640713196944,-6.21956312668453,-0.749382617846866,-6.18300653025258,-0.022958881159512,0.028220267252096,-0.0088441106664515
0.62,-4.59433114297457,-5.4505633216441,2.55665215531099,-0.0362540329039223,0.0771068335594398,0.0657854376292982,-3.38928056634018,-7.28136467630175,10.5205095365624,-0.0592406175760967,-0.0178820726904483,-0.0116549287478404,2.19296490456486,3.21333802094912,-2.37906509398684,-0.0574062513306787,-0.0171353756659184,0.0300840309155432,-6.21370082246062,-0.748573285302072,-6.17583699492391,-0.0247203263167288,0.0248817944517268,-0.00554108056490796
0.625,-4.58969063615547,-5.4441107577706,2.55470736345819,-0.027629239227423,0.0551440541560131,0.0487747670458055,-3.38659097289724,-7.27310323263978,10.5086557345223,-0.044583545539724,-0.015747602663828,-0.00842345002318715,2.18941907986823,3.20963305907469,-2.37662707577539,-0.043014699182522,-0.0130759495541518,0.0311810444407758,-6.20783851823671,-0.747763952757282,-6.16866745959524,-0.0263903966049094,0.0211163377861558,-0.00198914876947729
0.63,-4.58505012933631,-5.43765819389711,2.5527625716054,-0.0187841644846136,0.032280821705881,0.0310500072389485,-3.38390137945407,-7.2648417889778,10.4968019324821,-0.0294619761894969,-0.0134841812726255,-0.00510887555292729,2.18587325517183,3.20592809720024,-2.37418905756397,-0.028171648732956,-0.00889412353644789,0.032288789631348,-6.20197621401257,-0.746954620212492,-6.16149792426657,-0.0279637057580325,0.0169789143159398,0.00170158666128053
0.635,-4.58040962251715,-5.43120563002361,2.55081777975272,-0.00995231366209896,0.00918829349486593,0.013106586937537,-3.38121178601114,-7.25658034531583,10.4849481304419,-0.0142922546518519,-0.0111598040162077,-0.00178993479202607,2.18232743047542,3.2022231353258,-2.37175103935255,-0.013285202438703,-0.00469492416960514,0.0333512654099824,-6.19611390978866,-0.746145287667701,-6.1543283889379,-0.0294484421272953,0.0125688514159136,0.00541308498568766
0.64,-4.57576911569805,-5.42475306615012,2.54887298789981,-0.00136174690655993,-0.0134257798427734,-0.00454148933465589,-3.3785221925682,-7.24831890165386,10.4730943284017,0.0005118434188788,-0.00884516164034875,0.00145270855737677,2.17878160577879,3.19851817345136,-2.3693130211411,0.00123931425082471,-0.000585681603810699,0.0343239836653243,-6.19025160556453,-0.745335955122908,-6.14715885360923,-0.0308608906432648,0.00802724013039837,0.00902427074297366
0.645,-4.57112860887895,-5.41830050227662,2.54692819604713,0.00675533484201281,-0.0348334166072174,-0.0213415636872455,-3.37583259912526,-7.2400574579919,10.4612405263615,0.0145184123511882,-0.0066140352341231,0.00453642619369326,2.17523578108239,3.19481321157691,-2.36687500292967,0.0149787262850328,0.00332338148204134,0.0351584541368222,-6.18438930134062,-0.744526622578118,-6.13998931828058,-0.0322165144652959,0.00349510287734078,0.0124146038062507
0.65,-4.56648810205979,-5.41184793840313,2.54498340419434,0.0141540115153208,-0.0542979998382739,-0.036688219174727,-3.37314300568232,-7.23179601432992,10.4493867243213,0.0272600768869049,-0.0045485552963655,0.00737814150380636,2.17168995638576,3.19110824970247,-2.36443698471825,0.0274751251244643,0.00691906555505486,0.0357852600380508,-6.17852699711648,-0.743717290033327,-6.13281978295188,-0.0335173317332189,-0.000918193887777814,0.0154606116834381
0.655,-4.56184759524069,-5.40539537452963,2.54303861234143,0.0205815543463251,-0.0710974592861254,-0.0499459780054375,-3.37045341223916,-7.22353457066795,10.4375329222812,0.0382472406249618,-0.00273881122440395,0.00989658050554808,2.16814413168936,3.18740328782802,-2.3619989665068,0.0382489835471349,0.0100879892819669,0.0361152245922473,-6.17266469289257,-0.742907957488537,-6.12565024762324,-0.0347528126882916,-0.00513258909022386,0.0180387920624968
0.66,-4.55720708842153,-5.39894281065608,2.54109382048875,0.0257983832729204,-0.0845818619933768,-0.0605250198172918,-3.36776381879622,-7.21527312700597,10.425679120241,0.0470211907725998,-0.00126789573627315,0.0120136629732442,2.16459830699296,3.18369832595359,-2.35956094829538,0.0468507785671548,0.0127229495621321,0.0360611383089794,-6.16680238866843,-0.742098624943747,-6.11848071229457,-0.0359232651563705,-0.00907998625592227,0.0200445711651132
0.665,-4.55256658160243,-5.39249024678264,2.53914902863596,0.0296042442340177,-0.0942273304313177,-0.0679582343365791,-3.36507422535328,-7.20701168334401,10.4138253182008,0.0532127235434459,-0.000197169120151876,0.0136580921275801,2.16105248229633,3.17999336407912,-2.35712293008396,0.052918136193691,0.0147314080752144,0.0355593679050415,-6.16094008444452,-0.741289292398953,-6.1113111769659,-0.037052636103394,-0.0126955865507717,0.0214075134437663
0.67,-4.54792607478328,-5.38603768290909,2.53720423678317,0.0318574809531132,-0.0996639849007827,-0.0719339070064346,-3.36238463191012,-7.19875023968203,10.4019715161606,0.0565733727846172,0.000436020513625327,0.0147726422530861,2.15750665759992,3.17628840220468,-2.35468491187254,0.0562067187307008,0.0160438357053855,0.0345756538049763,-6.15507778022038,-0.740479959854163,-6.10414164163726,-0.0381742481418484,-0.0159228417734875,0.0220906645045687
0.675,-4.54328556796418,-5.3795851190356,2.53525944493049,0.0324856699918858,-0.100698690460197,-0.0723033536100135,-3.35969503846718,-7.19048879602005,10.3901177141204,0.0569861915505473,0.00061680454251868,0.015321256917536,2.15396083290352,3.17258344033024,-2.35224689366112,0.0566010855889884,0.0166203410560025,0.0331029876780584,-6.14921547599647,-0.739670627309373,-6.09697210630858,-0.0393167082118722,-0.0187205327913002,0.0220871622795012
0.68,-4.53864506114508,-5.3731325551621,2.5333146530777,0.0314901280952636,-0.0973334306479088,-0.0690852137201036,-3.35700544502424,-7.1822273523581,10.3782639120803,0.0544696063381744,0.000353592646584221,0.0152928448591602,2.15041500820689,3.1688784784558,-2.34980887544967,0.054118501791516,0.0164543789016828,0.0311607634979862,-6.14335317177233,-0.738861294764579,-6.08980257097988,-0.0405028405239826,-0.0210657462531444,0.0214202261558774
0.685,-4.53400455432592,-5.36667999128861,2.5313698612249,0.0289451133577123,-0.0897661222909692,-0.0624619228268602,-3.35431585158108,-7.17396590869612,10.3664101100401,0.0491743658819174,-0.000322388375544033,0.0147019584933856,2.14686918351049,3.16517351658136,-2.34737085723825,0.0489060021907892,0.0155729472541836,0.0287938919960078,-6.13749086754842,-0.738051962219789,-6.08263303565124,-0.0417517519577115,-0.0229551250529549,0.0201412924786479
0.69,-4.52936404750676,-5.36022742741505,2.52942506937211,0.0249905447997822,-0.0783668527272981,-0.0527564601716752,-3.35162625813814,-7.16570446503414,10.3545563079999,0.0413666411670995,-0.00136158296049706,0.0135877348827646,2.14332335881409,3.16146855470691,-2.34493283902682,0.0412239984573483,0.0140338453361419,0.0260688222232004,-6.13162856332428,-0.737242629674995,-6.07546350032257,-0.0430761858140897,-0.0244038325323687,0.018323931228545
0.695,-4.52472354068766,-5.35377486354162,2.52748027751932,0.0198182895512861,-0.0636292664125407,-0.0403875167569269,-3.34893666469497,-7.15744302137217,10.3427025059597,0.0313952773458165,-0.00270594717495318,0.0120128058016333,2.13977753411746,3.15776359283245,-2.34249482081538,0.0314145218633,0.0119213423012102,0.023065808281966,-6.12576625910037,-0.736433297130205,-6.0682939649939,-0.0444697477867131,-0.0254385376074448,0.0160538513303998
0.7,-4.5200830338685,-5.34732229966812,2.52553548566652,0.0136616869565543,-0.046136000172913,-0.0258443064918093,-3.34624707125204,-7.14918157771019,10.3308487039195,0.0196707336918304,-0.0042992673317074,0.0100627007379297,2.13623170942105,3.15405863095802,-2.34005680260395,0.0198811232352272,0.00934263831826076,0.019872201561915,-6.11990395487646,-0.735623964585415,-6.06112442966526,-0.0458920411259514,-0.026087417356894,0.0134202915957902
0.705,-4.5154425270494,-5.34086973579463,2.52359069381373,0.00679567060057507,-0.0265742080443174,-0.00971197125102267,-3.3435574778091,-7.14092013404822,10.3189949018793,0.00667686330638864,-0.00608795462864084,0.00784428351585165,2.13268588472465,3.15035366908357,-2.33761878439253,0.0071006842537107,0.00642652122474526,0.0165832671139481,-6.11404165065233,-0.734814632040624,-6.05395489433656,-0.0472691253096454,-0.0263774309706047,0.0105160000043325
0.71,-4.51080202023024,-5.33441717192107,2.52164590196094,-0.0004621913544991,-0.00576550818481063,0.00729831306195307,-3.34086788436593,-7.13265869038626,10.3071410998392,-0.00701434083281082,-0.00801065199218762,0.0054816456937808,2.12914006002802,3.14664870720912,-2.33518076618108,-0.00636275056691003,0.00332223831772503,0.0133073347068333,-6.10817934642841,-0.734005299495831,-6.04678535900791,-0.0485170635787339,-0.0263469249357617,0.00744545258655196
0.715,-4.50616151341109,-5.32796460804758,2.51970111010814,-0.00775619633779458,0.0153335503111272,0.0243582590582945,-3.338178290923,-7.12439724672429,10.295287297799,-0.0207489067675949,-0.00998750303367515,0.0031099898325592,2.12559423533162,3.14294374533469,-2.33274274796966,-0.0198650060751344,0.000195996830294284,0.0101641188747298,-6.10231704220428,-0.73319596695104,-6.03961582367924,-0.0495806316859122,-0.026067504834678,0.00433431111626739
0.72,-4.50152100659199,-5.32151204417403,2.51775631825546,-0.0147024062536534,0.0356605553207343,0.0405650806614848,-3.33548869748006,-7.11613580306231,10.2834334957588,-0.0338143571824093,-0.0119209441406299,0.000868937004775818,2.12204841063522,3.13923878346024,-2.33030472975821,-0.0327051081218402,-0.00277611991691812,0.00727562574376581,-6.09645473798037,-0.73238663440625,-6.03244628835057,-0.0504518768131485,-0.0256495699619553,0.00133053377585377
0.725,-4.49688049977289,-5.31505948030053,2.51581152640256,-0.0209111686409899,0.0541006339337447,0.0550048214544549,-3.33279910403712,-7.10787435940034,10.2715796937186,-0.045485338826036,-0.0137060992835113,-0.00110493230463761,2.11850258593881,3.1355338215858,-2.32786671154682,-0.0441698899630042,-0.00541873573617423,0.00476035063445411,-6.09059243375623,-0.73157730186146,-6.02527675302193,-0.0511470288648929,-0.0252186539832755,-0.0014060526075103
0.73,-4.49223999295373,-5.30860691642704,2.51386673454977,-0.026018190620118,0.0695643384541479,0.0668189640933242,-3.33010951059418,-7.09961291573836,10.2597258916784,-0.0550810625556004,-0.01524286787876,-0.00268599536852068,2.11495676124241,3.13182885971135,-2.32542869333537,-0.0535902136121611,-0.00756894555310776,0.00272849720412271,-6.08473012953232,-0.73076796931667,-6.01810721769323,-0.0516803149950805,-0.0248864096209315,-0.00371727208670555
0.735,-4.48759948613457,-5.30215435255354,2.51192194269709,-0.0297108222007875,0.0810706663010991,0.0752583398549353,-3.32741991715102,-7.09135147207638,10.2478720896382,-0.0620120996247181,-0.01644415247665,-0.00376746466783636,2.11141093654578,3.12812389783691,-2.32299067512392,-0.0603868844367301,-0.00908697253989562,0.00127363136389171,-6.07886782530818,-0.72995863677188,-6.01093768236458,-0.0520654778591127,-0.0247398289360103,-0.00545543857276829
0.74,-4.48295897931547,-5.29570178868005,2.50997715084429,-0.0317488707782196,0.0878182409113436,0.07972897121745,-3.32473032370808,-7.08309002841443,10.2360182875981,-0.065818043302717,-0.0172372596390682,-0.00426945802509987,2.10786511184938,3.12441893596245,-2.32055265691253,-0.064107999751443,-0.0098653479007989,0.000469277977700383,-6.07300552108427,-0.729149304227082,-6.00376814703591,-0.0523218792883768,-0.0248444171508866,-0.00649025512790532
0.745,-4.47831847249631,-5.28924922480655,2.5080323589915,-0.031977830512344,0.0892628320842199,0.0798393441175539,-3.32204073026492,-7.07482858475245,10.2241644855579,-0.0661978496163066,-0.0175701337267211,-0.0041435116234355,2.10431928715298,3.12071397408801,-2.31811463870108,-0.0644585927071005,-0.00983567332914071,0.000364416300955935,-6.06714321686013,-0.728339971682296,-5.99659861170724,-0.0524683691734143,-0.0252467136882448,-0.00672065319043597
0.75,-4.47367796567721,-5.28279666093306,2.50608756713882,-0.0303297893721653,0.085182554916072,0.0754336199939891,-3.31935113682198,-7.06656714109047,10.2123106835177,-0.0630216511385803,-0.0174243416625343,-0.00337183236765376,2.10077346245635,3.11700901221357,-2.31567662048965,-0.061311262907012,-0.00897142684744945,0.000972386296141858,-6.06128091263622,-0.727530639137505,-5.98942907637857,-0.0525183778091115,-0.0259722762132782,-0.00608740236295066
0.755,-4.46903745885811,-5.27634409705956,2.50414277528591,-0.0268217185924435,0.0756678129571272,0.0665910986506686,-3.31666154337904,-7.05830569742851,10.2004568814775,-0.0563291438765694,-0.0168132441054407,-0.00196686603772783,2.09722763775994,3.11330405033912,-2.3132386022782,-0.0547046483083478,-0.00728740931279693,0.00227171680435167,-6.05541860841208,-0.726721306592715,-5.9822595410499,-0.052482824188471,-0.0270239683165888,-0.00457490489107883
0.76,-4.46439695203895,-5.26989153318607,2.50219798343323,-0.0215572994028814,0.0610484946936187,0.053600516389838,-3.31397194993588,-7.05004425376654,10.1886030794373,-0.0463249553339153,-0.0157654371861681,2.76300494008348e-05,2.09368181306354,3.10959908846469,-2.31080058406678,-0.0448401126499132,-0.00483720831988889,0.00422146599095057,-6.04955630418817,-0.725911974047921,-5.97509000572126,-0.0523732241185749,-0.0283803534452737,-0.00220356930583235
0.765,-4.4597564452198,-5.26343896931257,2.50025319158033,-0.0147259629667823,0.0418354472793442,0.0369310024596734,-3.31128235649294,-7.04178281010456,10.1767492773971,-0.0333698091677877,-0.0143143452858015,0.0025380045481752,2.09013598836691,3.10589412659024,-2.30836256585536,-0.0320737669145534,-0.00170945961324416,0.00677311670240079,-6.04369399996403,-0.725102641503128,-5.96792047039258,-0.0521999301794938,-0.029993389804905,0.000975935130616752
0.77,-4.4551159384007,-5.25698640543902,2.49830839972765,-0.00659730567358562,0.0187123681826751,0.0172144647608342,-3.30859276304977,-7.03352136644259,10.164895475357,-0.0179693426044497,-0.0125008838784141,0.00546483212719818,2.08659016367051,3.10218916471578,-2.30592454764394,-0.0169051036086471,0.00197570425336278,0.00987053634155439,-6.03783169574012,-0.724293308958337,-5.96075093506391,-0.0519695607633991,-0.0317877388878785,0.0048811817631654
0.775,-4.45047543158154,-5.25053384156553,2.49636360787486,0.00248926110254776,-0.00744195473783819,-0.00476561611174757,-3.30590316960684,-7.02525992278062,10.1530416733168,-0.000758304451257202,-0.0103862259859517,0.00868879115515495,2.0830443389741,3.09848420284135,-2.30348652943252,3.97748960636888e-05,0.00606986039112069,0.0134375570688986,-6.03196939151621,-0.723483976413547,-5.95358139973524,-0.0516908845823888,-0.0336601188119922,0.0093911706347089
0.78,-4.44583492476244,-5.24408127769203,2.49441881602206,0.0121386065287386,-0.0355374277132781,-0.0280855620439145,-3.3032135761639,-7.01699847911864,10.1411878712766,0.0175198392266847,-0.0080653818311732,0.0120772399273976,2.07949851427747,3.0947792409669,-2.30104851122107,0.018029532190921,0.0104002668337576,0.0173644983739393,-6.02610708729208,-0.722674643868757,-5.94641186440657,-0.0513780394791604,-0.0354771868166003,0.014340040756252
0.785,-4.44119441794334,-5.23762871381854,2.49247402416927,0.0219125933481037,-0.0642994482759358,-0.051695575159341,-3.30052398272073,-7.00873703545668,10.1293340692364,0.0360311250326633,-0.00566595924119306,0.0154885537605631,2.07595268958107,3.09107427909247,-2.29861049300965,0.0362455469323786,0.0147751317674695,0.0215141431262565,-6.02024478306816,-0.721865311323963,-5.9392423290779,-0.0510287507865611,-0.0370764813184654,0.0195194477090002
0.79,-4.43655391112418,-5.23117614994504,2.49052923231648,0.031348263198299,-0.0923593683166324,-0.0744746500285862,-3.29783438927802,-7.00047559179471,10.1174802671962,0.0538894173668896,-0.0033288770654825,0.0187754134565006,2.07240686488467,3.08736931721801,-2.2961724747982,0.0538183622870546,0.0189926636396873,0.0257449146046118,-6.01438247884403,-0.721055978779173,-5.93207279374926,-0.0506054444343426,-0.0382822005111194,0.0246946916697835
0.795,-4.43191340430502,-5.22472358607149,2.4885844404638,0.0399921978565224,-0.118387313359995,-0.0953472661421369,-3.29514479583509,-6.99221414813273,10.1056264651561,0.0702359908912103,-0.00118575232965222,0.0217921522913741,2.06886104018804,3.08366435534356,-2.29373445658675,0.0699049241575328,0.0228560075847129,0.0299267119753325,-6.00852017462012,-0.720246646234383,-5.92490325842058,-0.0500635738865751,-0.0389357866485696,0.0296305520350614
0.8,-4.42727289748592,-5.218271022198,2.48663964861089,0.0474428725511507,-0.141218054922503,-0.113399397031839,-3.29245520239192,-6.98395270447075,10.0937726631159,0.0843277378788067,0.000652782444890986,0.024406584492016,2.06531521549164,3.07995939346912,-2.29129643837535,0.0837753094120491,0.0261902067709502,0.0339417868299302,-6.00265787039598,-0.719437313689593,-5.91773372309191,-0.0493938371824357,-0.038918394520909,0.0341151453569685
0.805,-4.42263239066682,-5.2118184583245,2.48469485675821,0.0533860212708293,-0.159934612410939,-0.127938655582219,-3.28976560894898,-6.9756912608088,10.0819188610757,0.0955963230566565,0.00209874544026018,0.0265118421352819,2.06176939079523,3.07625443159468,-2.2888584201639,0.0948713818428995,0.0288559194079879,0.0376847791526429,-5.99679556617207,-0.718627981144799,-5.91056418776324,-0.0486220617679438,-0.0381557127457074,0.0379738944616826
0.81,-4.41799188384766,-5.20536589445101,2.48275006490542,0.0576172990390128,-0.173912778174541,-0.138517185988925,-3.28707601550582,-6.96742981714682,10.0700650590355,0.10367908307158,0.00308813587641662,0.0280347565823639,2.0582235660986,3.07254946972024,-2.28642040195248,0.102837398525776,0.030758715126583,0.041068502570203,-5.99093326194793,-0.717818648600012,-5.9033946524346,-0.047782259256637,-0.0366189006093307,0.0410767333625451
0.815,-4.4133513770285,-5.19891333057751,2.48080527305262,0.0600514065818273,-0.18284282171748,-0.144941602230543,-3.28438642206288,-6.95916837348484,10.0582112569953,0.108430095065344,0.00358501110383953,0.0289400380493213,2.0546777414022,3.0688445078458,-2.28398238374106,0.107530709980097,0.0318541672913525,0.0440293531868537,-5.98507095772402,-0.717009316055218,-5.89622511710593,-0.04690193934697,-0.0343274918893962,0.0433433532880074
0.82,-4.4087108702094,-5.19246076670396,2.47886048119983,0.0607185435300927,-0.186727897259262,-0.147265786227765,-3.28169682861994,-6.95090692982288,10.0463574549551,0.109911385697081,0.00358436667052663,0.029230695136606,2.05113191670557,3.06513954597133,-2.28154436552964,0.10901284149941,0.0321483262054265,0.0465284518810574,-5.97920865349988,-0.716199983510428,-5.88905558177723,-0.0460026065849523,-0.0313501197789544,0.0447453445220862
0.825,-4.4040703633903,-5.18600820283046,2.47691568934704,0.0597509635423776,-0.185855660434686,-0.145763196674782,-3.27900723517678,-6.9426454861609,10.034503652915,0.10836673373036,0.0031116592372463,0.028945170375219,2.04758609200917,3.0614345840969,-2.27910634731819,0.107523557358032,0.0316936960243539,0.0485493883653973,-5.97334634927597,-0.715390650965634,-5.88188604644859,-0.0451045820447021,-0.0278011044113048,0.045303342622792
0.83,-4.39942985657115,-5.17955563895697,2.47497089749425,0.0573631506563135,-0.180748182033634,-0.14088526384705,-3.27631764173384,-6.93438404249893,10.0226498508748,0.104184757126325,0.00221910664216155,0.0281518317840435,2.04404026731277,3.05772962222245,-2.27666832910677,0.103444536552331,0.0305816363345999,0.0500934330171038,-5.96748404505183,-0.714581318420844,-5.87471651111991,-0.0442317078146734,-0.0238329896301879,0.0450795832936837
0.835,-4.39478934975205,-5.17310307508347,2.47302610564157,0.053828819673278,-0.172098897019994,-0.133214380861392,-3.27362804829067,-6.92612259883697,10.0107960488346,0.0978580308270043,0.000979547888233035,0.0269416005379532,2.04049444261625,3.05402466034801,-2.27423031089532,0.097259291560748,0.0289323738718003,0.0511733822780054,-5.96162174082792,-0.713771985876054,-5.86754697579124,-0.0434145674481938,-0.0196264055022454,0.0441677239910859
0.84,-4.39014884293289,-5.16665051120998,2.47108131378866,0.0494566828675131,-0.160706709154559,-0.123416442140557,-3.27093845484774,-6.91786115517499,9.99894224679442,0.0899417285347054,-0.000520038323969447,0.025419310252423,2.03694861791973,3.05031969847357,-2.27179229268393,0.0895126188908937,0.0268838129718177,0.0518080954082805,-5.95575943660378,-0.712962653331264,-5.8603774404626,-0.04269307900663,-0.0153786393821397,0.0426830188858387
0.845,-4.38550833611373,-5.16019794733648,2.46913652193598,0.0445654555715025,-0.14740534697995,-0.112184666919947,-3.2682488614048,-6.90959971151301,9.98708844475423,0.0810079525183899,-0.00218588935769925,0.0236951887078503,2.03340279322322,3.04661473659912,-2.26935427447248,0.0807657889440152,0.0245802937513234,0.0520159123459457,-5.94989713237987,-0.712153320786474,-5.85320790513393,-0.0421145712161441,-0.0112926864447489,0.0407513817947835
0.85,-4.38086782929463,-5.15374538346299,2.46719173008319,0.0394590594551839,-0.132983987184693,-0.100167519419619,-3.26555926796163,-6.90133826785105,9.97523464271405,0.0715933261184063,-0.00392887179699586,0.0218781112610636,2.02985696852681,3.04290977472468,-2.26691625626103,0.0715453136372531,0.0221621217547973,0.0518033690228076,-5.94403482815574,-0.71134398824168,-5.84603836980523,-0.041721947222707,-0.00756627315697687,0.0384937385338947
0.855,-4.37622732247553,-5.1472928195895,2.46524693823039,0.0344081497476897,-0.118137314446579,-0.0879172192331076,-3.2628696745187,-6.89307682418908,9.96338084067387,0.0621620753282793,-0.00567621415539161,0.0200699469366815,2.02631114383041,3.03920481285023,-2.26447823804963,0.0623071403616754,0.0197565940384771,0.051155966465587,-5.93817252393183,-0.71053465569689,-5.83886883447659,-0.0415465780725936,-0.0043727375968772,0.0360158054544671
0.86,-4.37158681565637,-5.140840255716,2.4633021463776,0.0296434438037016,-0.10347257255568,-0.0758948391847246,-3.26018008107553,-6.8848153805271,9.95152703863369,0.0531056723756438,-0.00737597778202712,0.0183596842039979,2.0227653191339,3.0354998509758,-2.26204021983818,0.053436661381313,0.0174714185597159,0.0500404141288846,-5.93231021970792,-0.709725323152096,-5.83169929914791,-0.0416181682937824,-0.00183896353276514,0.0334133851916025
0.865,-4.36694630883727,-5.13438769184245,2.46135735452492,0.0253536371961066,-0.0895178708856731,-0.0644946836171207,-3.25749048763282,-6.87655393686512,9.93967323659351,0.0447545381260462,-0.00899389030283226,0.0168177710417828,2.01921949443749,3.03179488910133,-2.25960220162673,0.045260098194762,0.0153903645385874,0.0484152115317415,-5.92644791548378,-0.708915990607306,-5.82452976381927,-0.0419739118000042,-4.49556709261351e-05,0.0307819616281673
0.87,-4.36230580201811,-5.12793512796895,2.45941256267201,0.0216765687582981,-0.07668801131803,-0.0540342847749882,-3.25480089418988,-6.86829249320316,9.92781943455332,0.0373657907530384,-0.010507305589979,0.0154914565797901,2.01567366974098,3.02808992722689,-2.25716418341531,0.0380317703169994,0.0135699470183195,0.0462395560409149,-5.92058561125987,-0.708106658062515,-5.8173602284906,-0.0426533196473141,0.000950677560421845,0.0282158093587162
0.875,-4.35766529519896,-5.1214825640954,2.45746777081933,0.018685227922135,-0.0652413919583853,-0.0447086587525693,-3.25211130074672,-6.86003104954118,9.91596563251314,0.0310883490818733,-0.0119027926463632,0.0144024670498415,2.01212784504446,3.02438496535245,-2.25472616520389,0.0318990874751023,0.0120370256923786,0.0434728743840953,-5.91472330703573,-0.707297325517722,-5.8101906931619,-0.0436795917716585,0.00107627134958767,0.0257939615005238
0.88,-4.35302478837986,-5.11503000022191,2.45552297896643,0.0163795414189483,-0.055263685922758,-0.0365540662290359,-3.24942170730378,-6.85176960587921,9.90411183047296,0.0259376425809157,-0.0131775351412916,0.0135472744955883,2.00858202034794,3.02068000347801,-2.25228814699247,0.0268774227957237,0.0107883034202385,0.0400718407368169,-5.90886100281182,-0.706487992972932,-5.80302115783326,-0.0450347925637515,0.000215284102638034,0.0235671775695992
0.885,-4.34838428156075,-5.10857743634841,2.45357818711375,0.0146923478538511,-0.0466844398997424,-0.0294666234671529,-3.24673211386062,-6.84350816221723,9.89225802843278,0.0218089973250587,-0.0143377415360425,0.0128988414191404,2.00503619565154,3.01697504160357,-2.24985012878102,0.0228632832083845,0.00979283444121925,0.0360034545843799,-5.90299869858768,-0.705678660428141,-5.79585162250459,-0.0466532710002441,-0.0017881681416737,0.0215621831139793
0.89,-4.3437437747416,-5.10212487247492,2.45163339526096,0.0135115803984321,-0.0393183219376833,-0.0232679388817507,-3.24404252041768,-6.83524671855527,9.8804042263926,0.0185282902767569,-0.0153950856262311,0.0124112296994438,2.00149037095503,3.01327007972912,-2.2474121105696,0.019684457379382,0.0089985791483912,0.0312789254043318,-5.89713639436377,-0.704869327883351,-5.78868208717591,-0.0484511459424878,-0.00503362724438176,0.01979445632045
0.895,-4.33910326792244,-5.09567230860142,2.44968860340816,0.0127054366955201,-0.0329083938113816,-0.017763268711614,-3.24135292697474,-6.8269852748933,9.86855042435241,0.0159016885052276,-0.0163651353567742,0.0120266209787685,1.99794454625851,3.00956511785466,-2.24497409235818,0.0171494209955587,0.00834075959527006,0.0259856666952171,-5.89127409013963,-0.704059995338561,-5.78151255184727,-0.0503645423848386,-0.00943559078994876,0.0182737982309789
0.9,-4.33446276110334,-5.08921974472793,2.44774381155537,0.0121309967533616,-0.027155371950183,-0.0127497997126638,-3.23866333353158,-6.81872383123132,9.85669662231223,0.0137251504861817,-0.0172676586487903,0.0116806337640856,1.99439872156211,3.00586015598023,-2.24253607414673,0.0150568183215193,0.00774715218361065,0.020283539133103,-5.88541178591572,-0.703250662793771,-5.77434301651857,-0.0523445835986389,-0.014715246769359,0.0170009599879306
0.905,-4.32982225428418,-5.08276718085443,2.44579901970258,0.011630387672076,-0.0217419995768909,-0.00800297423624613,-3.23597374008864,-6.81046238756936,9.84484282027204,0.011770213501069,-0.0181265820988051,0.0113055582372455,1.99085289686559,3.00215519410578,-2.24009805593531,0.0131812999718478,0.00714087000305277,0.0143690730801922,-5.87954948169158,-0.702441330248977,-5.76717348118993,-0.0543216749916571,-0.0205147203966602,0.0159636923870696
0.91,-4.32518174746508,-5.07631461698094,2.4438542278499,0.0110285793228524,-0.0163560783948692,-0.00328256129014783,-3.23328414664559,-6.80220094390738,9.83298901823186,0.0097788346228281,-0.0189644712338755,0.0108334643874586,1.98730707216907,2.99845023223133,-2.23766003772388,0.0112679343790429,0.00644446851780477,0.0084482824177643,-5.87368717746767,-0.701631997704183,-5.76000394586126,-0.0561946283148199,-0.0264831275842993,0.0151397943112308
0.915,-4.32054124064598,-5.06986205310739,2.44190943599699,0.0101340885477176,-0.0107056584918051,0.00165594545040646,-3.23059455320254,-6.7939395002454,9.82113521619168,0.00746323334610149,-0.0197954983482929,0.0102001903988487,1.98376124747267,2.99474527035689,-2.23522201951246,0.00903147496556057,0.00558534990780013,0.00272921827010013,-5.86782487324353,-0.700822665159397,-5.75283441053259,-0.0578381383899896,-0.0322808463755719,0.0144993387596559
0.92,-4.31590073382682,-5.06340948923395,2.43996464414431,0.00874880509934761,-0.00454240216627369,0.00703654559456452,-3.22790495975948,-6.78567805658344,9.8092814141515,0.00452216186696751,-0.0206267483803177,0.00935250352090884,1.98021542277615,2.99104030848245,-2.23278400130101,0.00617266956579468,0.00450272412906363,-0.00259182656769635,-5.86196256901962,-0.700013332614606,-5.74566487520394,-0.0591229176094264,-0.0375710332157505,0.014000743316835
0.925,-4.31126022700766,-5.0569569253604,2.43801985229152,0.00669315204045666,0.00231263211334936,0.0130071846733184,-3.22521536631666,-6.77741661292147,9.79742761211132,0.000690125207202075,-0.0214640752109056,0.00825649098756031,1.97666959807964,2.98733534660801,-2.23034598308959,0.00242776513469731,0.00315551538662376,-0.00735976232292198,-5.8561002647956,-0.699204000069813,-5.73849533987524,-0.0599703473521937,-0.0420518623152077,0.013590730649457
0.93,-4.30661972018856,-5.0505043614869,2.43607506043872,0.0038371624592961,0.00997983574310472,0.0196129428357464,-3.22252577287361,-6.76915516925949,9.78557381007113,-0.00421108821610772,-0.0223138684709061,0.00689945602089809,1.97312377338312,2.98363038473356,-2.22790796487814,-0.00238001069534632,0.00152499361921742,-0.0114830729846526,-5.85023796057158,-0.698394667525022,-5.73132580454657,-0.0603904228005038,-0.04551722199022,0.0132106203762062
0.935,-4.30197921336941,-5.04405179761341,2.43413026858593,0.000127940859767159,0.018551213357404,0.0268339957340787,-3.21983617943056,-6.76089372559753,9.77372000803095,-0.0102452358619734,-0.0231831813656839,0.00528482961149508,1.96957794868683,2.97992542285911,-2.22546994666672,-0.00831335836688039,-0.0003895135615826,-0.0149331379425261,-5.84437565634755,-0.697585334980229,-5.72415626921793,-0.0604547012488237,-0.0478970220753373,0.012802359962918
0.94,-4.29733870655031,-5.03759923373991,2.43218547673314,-0.00439725892183499,0.028088890086106,0.0346321588757824,-3.21714658598751,-6.75263228193556,9.76186620599078,-0.0173583506836642,-0.0240801246064026,0.0034276814081357,1.96603212399032,2.97622046098466,-2.2230319284553,-0.0153176161849756,-0.00257489044115823,-0.0177254995201779,-5.83851335212353,-0.696776002435438,-5.71698673388926,-0.0602484937355943,-0.0492388925882779,0.0123121320824442
0.945,-4.29269819973115,-5.03114666986642,2.43024068488035,-0.00962702707230523,0.0385956535884789,0.042961365963556,-3.21445699254457,-6.74437083827357,9.75001240395059,-0.0254049746990441,-0.025009157322223,0.00135356485433667,1.9624862992938,2.97251549911022,-2.22059391024385,-0.0232473113200452,-0.00500477201258231,-0.0198908013902505,-5.8326510478995,-0.695966669890648,-5.70981719856059,-0.0598444983503586,-0.0496410161263161,0.0116918218721164
0.95,-4.28805769291205,-5.02469410599292,2.42829589302767,-0.0154106863057517,0.0499856533603062,0.0517534176114248,-3.21176739910152,-6.73610939461162,9.73815860191041,-0.0341918993086208,-0.0259642707125786,-0.000901069817292544,1.9589404745974,2.96881053723578,-2.21815589203243,-0.0319103417746886,-0.00763851627301217,-0.0214503903006181,-5.82678874367548,-0.695157337345858,-5.70264766323191,-0.0592958542203453,-0.0491886063816564,0.0109007824420904
0.955,-4.28341718609289,-5.01824154211943,2.42635110117476,-0.0215827030028226,0.0620686855698485,0.0608978040670447,-3.20907780565858,-6.72784795094964,9.72630479987023,-0.0435045198938286,-0.0269278684381694,-0.00328777687345432,1.955394649901,2.96510557536135,-2.21571787382098,-0.0410943675196622,-0.0104204256997156,-0.0224103231083168,-5.82092643945145,-0.694348004801064,-5.69547812790327,-0.0586422750212963,-0.0479315610640935,0.00991145362048067
0.96,-4.27877667927379,-5.01178897824593,2.42440630932208,-0.027967764179233,0.0745578257673095,0.0702230810321181,-3.20638821221553,-6.71958650728766,9.71445099783005,-0.0531059066557832,-0.0278732228715138,-0.00574569939800425,1.95184882520437,2.96140061348689,-2.21327985560958,-0.0505657145373736,-0.013279802534999,-0.0227668699788953,-5.81506413522743,-0.693538672256274,-5.6883085925746,-0.057920387421893,-0.0458956109173297,0.00871783128486561
0.965,-4.27413617245469,-5.00533641437238,2.42246151746929,-0.0343760063563124,0.0870910555529511,0.0794834965190757,-3.20369861877248,-6.71132506362569,9.70259719578986,-0.0627234860139605,-0.0287676821108119,-0.00820205372564858,1.94830300050785,2.95769565161245,-2.21084183739814,-0.0600558646376753,-0.0161317408562788,-0.0225149004488252,-5.80920183100352,-0.692729339711487,-5.6811390572459,-0.0571692497815696,-0.0431058316592638,0.00734154955146864
0.97,-4.26949566563547,-4.99888385049888,2.42051672561649,-0.0405944308095489,0.0992449706170158,0.0883540546699406,-3.20100902532954,-6.70306361996371,9.69074339374968,-0.0720338440765557,-0.0295788117496418,-0.0105722245917881,1.94475717581145,2.95399068973801,-2.20840381918674,-0.06924582794099,-0.0188781510541503,-0.0216610313784605,-5.80333952677938,-0.69192000716669,-5.67396952191726,-0.056430813597061,-0.0396134927082111,0.00583084765063407
0.975,-4.26485515881637,-4.99243128662533,2.4185719337637,-0.0463828853759415,0.110538783227628,0.0964390035363254,-3.19831943188649,-6.69480217630174,9.6788895917095,-0.0806584710617459,-0.0302768408801285,-0.0127615472404776,1.94121135111493,2.95028572786356,-2.20596580097529,-0.0777617055730399,-0.0214098661505154,-0.0202316178464265,-5.79747722255547,-0.6911106746219,-5.66679998658859,-0.0557465633888614,-0.0355173508521437,0.00425369831045126
0.98,-4.26021465199727,-4.9859787227519,2.41662714191091,-0.0514860485322669,0.120434153563105,0.103297068665555,-3.19562983844344,-6.68654073263977,9.66703578966931,-0.0881863278239143,-0.0308216490953473,-0.0146722963897133,1.93766552641841,2.94658076598911,-2.20352778276384,-0.0851982212937397,-0.023611012607134,-0.0182562956728983,-5.79161491833145,-0.69030134207711,-5.65963045125991,-0.0551495168410634,-0.0309609929006828,0.00268993714168577
0.985,-4.25557414517812,-4.9795261588784,2.41468235005811,-0.0556566077660035,0.128341042882042,0.10847668799361,-3.19294024500039,-6.67827928897781,9.65518198762913,-0.0942139401312028,-0.0311470390685929,-0.0162128006846812,1.93411970172201,2.94287580411466,-2.20108976455242,-0.09115992025174,-0.025365339224159,-0.0157430600423392,-5.78575261410742,-0.689492009532319,-5.65246091593127,-0.0546580122052014,-0.0261065190564946,0.00122510038539757
0.99,-4.25093363835902,-4.97307359500485,2.41273755820544,-0.0586739189254149,0.133663881153455,0.111553566990841,-3.19025065155745,-6.67001784531583,9.64332818558895,-0.0983780048041846,-0.0311717971347119,-0.0173021114400729,1.93057387702549,2.93917084224022,-2.198651746341,-0.0952926879597002,-0.0265642010544434,-0.0126860674312275,-5.7798903098834,-0.688682676987529,-5.6452913806026,-0.0542801174349518,-0.0211128987803988,-5.30291488023129e-05
0.995,-4.24629313153991,-4.96662103113135,2.41079276635253,-0.0603571281655392,0.135893617141821,0.112173057718349,-3.18756105811451,-6.66175640165386,9.63147438354876,-0.100380032020803,-0.0308301995568739,-0.0178720475770955,1.92702805232898,2.93546588036577,-2.19621372812958,-0.097305699913625,-0.0271163092345761,-0.00909910149288612,-5.77402800565937,-0.687873344442739,-5.6381218452739,-0.0540213306415169,-0.0161364382152536,-0.00105782502677894
1,-4.2416526247207,-4.96016846725786,2.40884797449985,-0.0605810974198691,0.134686782770171,0.110093265134546,-3.18487146467146,-6.6534949579919,9.61962058150858,-0.100015052333298,-0.0300866973979014,-0.0178731300832136,1.92348222763258,2.93176091849134,-2.19377570991813,-0.096998681496679,-0.0269578633539837,-0.00503246922781255,-5.76816570143535,-0.687064011897945,-5.63095230994526,-0.0538864214993761,-0.0113393348052405,-0.00171217395131219
1.005,-4.2370121179016,-4.95371590338436,2.40690318264706,-0.0592927761661566,0.129897688487717,0.105215692848393,-3.18218187122841,-6.64523351432992,9.60776677946841,-0.0971983800555895,-0.0289330595016253,-0.0172826749755762,1.91993640293606,2.92805595661689,-2.19133769170671,-0.0942886652131698,-0.0260607814351611,-0.000570033755639516,-5.76230339721133,-0.686254679353155,-5.62378277461659,-0.0538806759866359,-0.00688589475827601,-0.00196079064974419
1.01,-4.2323716110825,-4.94726333951087,2.40495839079426,-0.0565225633373858,0.121589762594562,0.0976026996508963,-3.17949227778536,-6.63697207066795,9.59591297742821,-0.0919831543946502,-0.0273849074444476,-0.0161103482091805,1.91639057823954,2.92435099474245,-2.18889967349529,-0.0892276313354919,-0.0244380662500509,0.00417568806815251,-5.7564410929873,-0.685445346808361,-5.61661323928794,-0.0540127110867345,-0.00293171605738607,-0.00177966421775771
1.015,-4.2277311042634,-4.94081077563732,2.40301359894147,-0.0523928832315859,0.110044007309837,0.0874929278776668,-3.17680268434242,-6.62871062700597,9.58405917538803,-0.0845755930885099,-0.0254771200915221,-0.0144016039949777,1.91284475354303,2.92064603286799,-2.18646165528384,-0.0820179985712142,-0.0221467360343692,0.00906980456841708,-5.75057878876328,-0.684636014263575,-5.60944370395927,-0.0542940707075101,0.000380443128449843,-0.00117914543895651
1.02,-4.22309059744424,-4.93435821176388,2.40106880708879,-0.0471219142247595,0.0957638561804074,0.0753127217474408,-3.17411309089937,-6.62044918334401,9.57220537334786,-0.0753448222405738,-0.023261012028284,-0.0122378952684981,1.90929892884662,2.91694107099354,-2.18402363707241,-0.0730226205601428,-0.0192877683625183,0.0139597070512231,-5.74471648453925,-0.683826681718777,-5.6022741686306,-0.0547360094432744,0.00292430720538105,-0.000202717328035268
1.025,-4.21845009062514,-4.92790564789033,2.399124015236,-0.0410133251726906,0.0794597964075905,0.0616608865700843,-3.17142349745643,-6.61218773968203,9.56035157130767,-0.0648077974096213,-0.0208068231217059,-0.0097311184359354,1.90575310415022,2.91323610911911,-2.18158561886099,-0.0627496043116719,-0.0160008307192322,0.0186751972593795,-5.73885418031523,-0.683017349173987,-5.59510463330193,-0.0553462552027767,0.00459533608724423,0.00107687538961547
1.03,-4.21380958380598,-4.92145308401683,2.39717922338309,-0.0344281846977089,0.0619866555057338,0.0472522535690266,-3.16873390401338,-6.60392629602006,9.54849776926748,-0.0535796385591284,-0.0182013698449036,-0.00701371404517718,1.90220727945371,2.90953114724465,-2.17914760064954,-0.0518031475601768,-0.0124525879529304,0.0230348792229701,-5.73299187609121,-0.682208016629197,-5.58793509797326,-0.0561275434730323,0.00531295893205117,0.00256389040406863
1.035,-4.20916907698683,-4.91500052014334,2.39523443153041,-0.0277422303349764,0.0442547950473437,0.0328341883199812,-3.16604431057033,-6.59566485235808,9.53664396722731,-0.0422981525201014,-0.0155388274985079,-0.00422592576576817,1.8986614547573,2.90582618537022,-2.17670958243812,-0.0408092884451904,-0.0088198518431399,0.0268658054571068,-5.72712957186718,-0.681398684084407,-5.58076556264459,-0.0570807057584094,0.00503569972816863,0.00414665577239103
1.04,-4.20452857016772,-4.90854795626984,2.39328963967762,-0.0213019902443151,0.0271640117473761,0.0191186885436661,-3.16335471712739,-6.58740340869612,9.52479016518713,-0.0315538476961496,-0.0129156136634271,-0.001501051999547,1.89511563006079,2.90212122349577,-2.17427156422667,-0.0303468146381221,-0.00527182679581594,0.0300234483533083,-5.72126726764316,-0.680589351539616,-5.57359602731594,-0.0582007742737475,0.00378357089060914,0.00570367569269508
1.045,-4.19988806334862,-4.90209539239635,2.39134484782483,-0.0153964532169572,0.0115465548185255,0.0067503581077427,-3.16066512368434,-6.57914196503414,9.51293636314694,-0.0218519044888058,-0.0104306942806271,0.00104735924153865,1.89156980536427,2.89841626162134,-2.17183354601528,-0.0209095309617238,-0.00195641969749765,0.0323952628392317,-5.71540496341913,-0.679780018994823,-5.56642649198724,-0.0594505925435933,0.00162093578835135,0.00711276046127653
1.05,-4.19524755652941,-4.89564282852285,2.38940005597203,-0.0102403110626797,-0.00192889040033747,-0.00374990106040584,-3.15797553024129,-6.57088052137217,9.50108256110676,-0.0135765707623119,-0.00817608082898026,0.00333198862095291,1.88802398066787,2.89471129974689,-2.16939552780383,-0.0128716815169192,0.00100935215040087,0.0339011853108548,-5.70954265919511,-0.678970686450032,-5.5592569566586,-0.060744604196965,-0.00139519853711679,0.00827367461195152
1.055,-4.19060704971031,-4.8891902646493,2.38745526411924,-0.00595935022856754,-0.0128695710891367,-0.012086759792278,-3.15528593679824,-6.5626190777102,9.48922875906658,-0.0069378240609317,-0.00621530482182413,0.00529252541147687,1.88447815597135,2.89100633787244,-2.16695750959241,-0.00643662515013986,0.00354650155194784,0.0345090400066366,-5.7036803549712,-0.678161353905242,-5.55208742132993,-0.0619830276848484,-0.00523326400904548,0.00913840357786143
1.06,-4.18596654289121,-4.88273770077581,2.38551047226645,-0.00258685361825358,-0.0212013952796581,-0.0182343199501721,-3.15259634335541,-6.55435763404823,9.4773749570264,-0.00195125469492097,-0.00457320616974503,0.00689494611987264,1.88093233127483,2.88730137599799,-2.16451949138096,-0.00161761831423862,0.00561612759533489,0.0342483765008181,-5.69781805074717,-0.677352021360452,-5.54491788600126,-0.0630978773791398,-0.00985134105320032,0.00971993753829612
1.065,-4.18132603607211,-4.87628513690231,2.38356568041365,-7.76601529714482e-05,-0.0271063397514584,-0.0223706990717553,-3.14990674991236,-6.54609619038625,9.46552115498621,0.00152143802275732,-0.00324584069549149,0.00812980816789045,1.87738650657832,2.88359641412355,-2.16208147316954,0.00172272219463397,0.00721419792654576,0.0332081177304142,-5.69195574652326,-0.676542688815658,-5.53774835067262,-0.0640551304559905,-0.0151565535589225,0.0100714216834
1.07,-4.17668552925295,-4.86983257302876,2.38162088856086,0.0016657579959182,-0.0309088945435804,-0.0247756045814452,-3.14721715646931,-6.53783474672429,9.45366735294603,0.00370623053801241,-0.00221393375083939,0.00900658114241878,1.87384068188192,2.8798914522491,-2.15964345495811,0.00380766416131894,0.00836098192738524,0.0315256703717236,-5.68609344229912,-0.675733356270868,-5.53057881534392,-0.0648247014113093,-0.0210010404807791,0.0102602771414676
1.075,-4.17204502243385,-4.86338000915532,2.37967609670818,0.00276372864996471,-0.0329818968408085,-0.0257577272131371,-3.14452756302626,-6.52957330306231,9.44181355090586,0.00485919404437157,-0.00144968712874192,0.00954471768768326,1.8702948571854,2.87618649037465,-2.15720543674666,0.00488966895040685,0.0090891274881394,0.0293737128584336,-5.68023113807521,-0.674924023726078,-5.52340928001524,-0.065357404172338,-0.0272058854828149,0.0103531402633959
1.08,-4.16740451561463,-4.85692744528183,2.37773130485539,0.00333538627542193,-0.0336950221754349,-0.0256212375064878,-3.14183796958321,-6.52131185940034,9.42995974886566,0.00522941171472416,-0.000919252282764465,0.00976593479996401,1.86674903248888,2.87248152850022,-2.15476741853524,0.00521373793635863,0.00943452994561794,0.0269464868110619,-5.67436883385119,-0.674114691181288,-5.5162397446866,-0.0655850248987482,-0.0335796340143451,0.0104084514515576
1.085,-4.16276400879553,-4.85047488140827,2.37578651300259,0.00348228092399868,-0.033386758243727,-0.0246460791934366,-3.13914837614027,-6.51305041573836,9.41810594682548,0.00503360566294148,-0.000585181757481543,0.00969043411128145,1.86320320779248,2.86877656662577,-2.15232940032382,0.00499237927620141,0.00943141191756335,0.0244452443149731,-5.66850652962717,-0.673305358636497,-5.50907020935793,-0.0654370886542767,-0.0399180344255727,0.0104716395173043
1.09,-4.15812350197643,-4.84402231753478,2.3738417211498,0.00327456131934649,-0.0323372998262923,-0.0230575551044572,-3.13645878269722,-6.5047889720764,9.40625214478531,0.00442787378419168,-0.00040995720875024,0.00933557324854801,1.85965738309596,2.86507160475134,-2.1498913821124,0.00437775361055799,0.00910950839124625,0.0220643225198609,-5.66264422540314,-0.672496026091707,-5.50190067402929,-0.0648554684713985,-0.0459932355185726,0.0105714652130581
1.095,-4.15348299515733,-4.83756975366128,2.37189692929701,0.00273968326479798,-0.0307426318114031,-0.0209924227780925,-3.13376918925417,-6.49652752841443,9.39439834274512,0.00348106512839463,-0.000359341962392595,0.00871486645466294,1.85611155839945,2.86136664287689,-2.14745336390095,0.00343542598608282,0.00849168163207134,0.0199801243009597,-5.65678192117912,-0.67168669354691,-5.49473113870059,-0.0637978991961587,-0.0515452641496825,0.0107185371486558
1.1,-4.14884248833818,-4.83111718978779,2.36995213744422,0.00186354513069622,-0.0287083538727062,-0.0185013108387794,-3.13107959581123,-6.48826608475245,9.38254454070493,0.00217721222177376,-0.000406461453107414,0.00783909234552679,1.85256573370293,2.85766168100244,-2.1450153456895,0.0021471114956132,0.00759419095053341,0.0183363104403995,-5.65091961695509,-0.67087736100212,-5.48756160337192,-0.0622514762941791,-0.0562942984543686,0.0109056141309772
1.105,-4.14420198151902,-4.82466462591429,2.36800734559154,0.000608056034425271,-0.0262643495394281,-0.0155902981587227,-3.12839000236818,-6.48000464109049,9.37069073866476,0.000452787736409004,-0.000536847009711531,0.00672032654729779,1.84901990900653,2.85395671912799,-2.14257732747811,0.000448179414216976,0.00643048624611183,0.0172232041307568,-5.64505731273107,-0.670068028457329,-5.48039206804327,-0.0602582644102125,-0.0599825184087696,0.0111091219557946
1.11,-4.13956147469992,-4.8182120620408,2.36606255373874,-0.00106580008725992,-0.0233751132710578,-0.0122407550669517,-3.12570040892524,-6.47174319742849,9.35883693662458,-0.00176666161937858,-0.000751216151579148,0.00537479600750679,1.84547408431013,2.85025175725355,-2.14013930926666,-0.00173564306321199,0.00501433086059871,0.0166612442121556,-5.63919500850704,-0.669258695912539,-5.4732225327146,-0.0579136735409407,-0.0624385554952342,0.0112949033153271
1.115,-4.13492096788076,-4.81175949816731,2.36411776188595,-0.00317727784960386,-0.0199535120012368,-0.00840883610282897,-3.12301081548219,-6.46348175376654,9.34698313458439,-0.00454031759249937,-0.0010607032582719,0.00382300761762246,1.84192825961361,2.8465467953791,-2.13770129105524,-0.00446257417410735,0.00336170349375508,0.0166016319020094,-5.63333270428302,-0.668449363367749,-5.46605299738596,-0.0553354292263038,-0.0636336262792408,0.0114282168968447
1.12,-4.13028046106166,-4.80530693429375,2.36217297003316,-0.00571104141551328,-0.0159104561998265,-0.0040627662926361,-3.12032122203914,-6.45522031010456,9.33512933254421,-0.00788157251692941,-0.00147299810335683,0.00209031967491545,1.83838243491721,2.84284183350465,-2.13526327284379,-0.00774553112117777,0.00149530158240179,0.0169539195691363,-5.627470400059,-0.667640030822955,-5.45888346205726,-0.0526408358307332,-0.0636735406722418,0.0114825735387306
1.125,-4.12563995424256,-4.79885437042026,2.36022817818036,-0.00861125725471061,-0.0112229284139643,0.000760609468788993,-3.11763162859609,-6.4469588664426,9.32327553050403,-0.0117337715782527,-0.00197891440389898,0.000209450125317588,1.83483661022069,2.83913687163022,-2.13282525463239,-0.0115290921392648,-0.000549344981738558,0.0176236992308885,-5.62160809583497,-0.666830698278165,-5.45171392672859,-0.0499406465917436,-0.062735725141126,0.0114458005305125
1.13,-4.12099944742334,-4.79240180654676,2.35828338632757,-0.0117795853277426,-0.00597608149797518,0.00593148730513315,-3.11494203515315,-6.43869742278062,9.31142172846384,-0.0159618336865199,-0.0025506176244739,-0.00177626737841377,1.83129078552417,2.83543190975577,-2.13038723642094,-0.0156813099545974,-0.00272010960433843,0.0185306838507483,-5.61574579161095,-0.666021365733375,-5.44454439139994,-0.0473341884276622,-0.0610233826917801,0.0113238800137099
1.135,-4.11635894060424,-4.78594924267327,2.35633859447489,-0.0150750611561736,-0.00036617282259413,0.0112418725926031,-3.11225244171021,-6.43043597911866,9.29956792642366,-0.0203589378789608,-0.00315238233685317,-0.00380941215915222,1.82774496082777,2.83172694788134,-2.12794921820952,-0.0199994934246376,-0.00494754291728136,0.0196081959206022,-5.60988348738704,-0.665212033188585,-5.43737485607127,-0.0448950894485883,-0.0587416369801845,0.0111369018346083
1.14,-4.11171843378514,-4.77949667879977,2.35439380262198,-0.0183179285469411,0.00531881448832407,0.0164338449954199,-3.10956284826716,-6.42217453545668,9.28771412438348,-0.0246622776957492,-0.00375485581873722,-0.0058155803699079,1.82419913613126,2.82802198600687,-2.12551119999807,-0.0242247285261648,-0.00714573909272326,0.0208039775736813,-5.60402118316301,-0.664402700643791,-5.4302053207426,-0.0426480169831592,-0.0560634852768614,0.0109068538133341
1.145,-4.10707792696599,-4.77304411492628,2.35244901076931,-0.0212937483465105,0.0107094713621709,0.0211974685978474,-3.10687325482411,-6.41391309179471,9.2758603223433,-0.0285553048553402,-0.00433466638420073,-0.00770590532676574,1.82065331143474,2.82431702413243,-2.12307318178665,-0.0280441202607076,-0.00921478783377016,0.0220913733290324,-5.59815887893899,-0.663593368099001,-5.42303578541393,-0.0405580463861265,-0.0531158625564518,0.0106561052205833
1.15,-4.10243742014688,-4.76659155105278,2.35050421891651,-0.0237599193081216,0.0153451675149375,0.0251413455271747,-3.10418366138106,-6.40565164813273,9.26400652030312,-0.0316592817709327,-0.00485587398282254,-0.0093872675381631,1.81710748673822,2.82061206225798,-2.12063516357523,-0.0310838451172806,-0.0110462993603775,0.0234802226436405,-5.59229657471496,-0.662784035554211,-5.41586625008526,-0.0385539214903087,-0.0500112764701264,0.0104264655423677
1.155,-4.09779691332778,-4.76013898717923,2.34855942706372,-0.0254629084325905,0.0186760443491829,0.0278028143277592,-3.10149406793812,-6.39739020447077,9.25215271826293,-0.0335528332703815,-0.00526054041628922,-0.0107724789441254,1.81356166204182,2.81690710038353,-2.11819714536378,-0.0329293510982321,-0.0125316934520883,0.0250094980067227,-5.58643427049094,-0.66197470300942,-5.40869671475662,-0.0365646112065036,-0.0468744829555409,0.0102907658061604
1.16,-4.09315640650857,-4.75368642330574,2.34661463521093,-0.0261648106908298,0.0201092493209838,0.0287152975322248,-3.09880447449507,-6.38912876080879,9.24029891622275,-0.0338264333462033,-0.00548065019756967,-0.0117852337128445,1.8100158373453,2.8132021385091,-2.11575912715239,-0.0331786290532324,-0.0135711441082427,0.0267291706477986,-5.58057196626692,-0.66116537046463,-5.40152717942794,-0.0345324918676438,-0.0438260343464365,0.0103346683606177
1.165,-4.08851589968947,-4.74723385943224,2.34466984335813,-0.025670380123399,0.0190904455503445,0.0274804671827101,-3.09611488105202,-6.38086731714681,9.22844511418257,-0.0321389316826611,-0.00545076373981702,-0.0123649396887287,1.80647001264879,2.80949717663465,-2.11332110894094,-0.031497454972384,-0.0140826216477905,0.0286920184489523,-5.57470966204289,-0.660356037919836,-5.39435764409927,-0.0324045125764288,-0.0409582678509242,0.0106315773630841
1.17,-4.08387539287037,-4.74078129555875,2.34272505150534,-0.0238484421588116,0.0151859944233724,0.0238184188738316,-3.09342528760908,-6.37260587348484,9.21659131214239,-0.0282570479271814,-0.00511381850778579,-0.0124739021709675,1.80292418795239,2.80579221476022,-2.11088309072949,-0.0276582143692571,-0.0140112280581979,0.0309499042004679,-5.56884735781887,-0.659546705375046,-5.3871881087706,-0.0301264832039276,-0.0383329066583511,0.0112351732641054
1.175,-4.07923488605127,-4.73432873168525,2.34078025965255,-0.02064550033656,0.00814879797432209,0.0176084976395012,-3.09073569416614,-6.36434442982286,9.2047375101022,-0.0220816282112301,-0.00443166273825483,-0.0121026046931338,1.79937836325587,2.80208725288577,-2.10844507251807,-0.0215651535105533,-0.0133374237903768,0.0335387505224007,-5.56298505359484,-0.658737372830256,-5.38001857344193,-0.0276494236149986,-0.0359847348485327,0.0121837610298728
1.18,-4.07459437923205,-4.7278761678117,2.33883546779975,-0.0160917935015997,-0.00203703557049074,0.00891957416034825,-3.08804610072309,-6.35608298616091,9.19288370806202,-0.0136633072921578,-0.00339717190064845,-0.0112709801993738,1.79583253855935,2.79838229101132,-2.10600705430664,-0.0132689676718543,-0.0120814357637425,0.0364607270175016,-5.55712274937082,-0.657928040285462,-5.37284903811326,-0.0249384382229715,-0.0339226025003218,0.013502703580066
1.185,-4.06995387241295,-4.72142360393826,2.33689067594696,-0.0103013617774373,-0.015148869250777,-0.00198965502331164,-3.08535650728004,-6.34782154249892,9.18102990602184,-0.0032040000365031,-0.00203292057698691,-0.0100272392507342,1.79228671386284,2.79467732913687,-2.10356903609522,-0.00296840871618741,-0.0103018280970242,0.0396831315938166,-5.5512604451468,-0.657118707740668,-5.36567950278462,-0.021975268558408,-0.0321356510497579,0.0151994403639695
1.19,-4.06531336559385,-4.71497104006471,2.33494588409428,-0.00346635215103052,-0.0307472234791525,-0.0146968761472961,-3.08266691383699,-6.33956009883696,9.16917610398166,0.0089557899202978,-0.000379517853556031,-0.0084452206270788,1.78874088916643,2.79097236726243,-2.10113101788377,0.00900135735302405,-0.00808985756571729,0.0431506239487592,-5.54539814092277,-0.656309375195878,-5.35850996745594,-0.0187559180433213,-0.0306029050124502,0.0172571902043185
1.195,-4.06067285877469,-4.70851847619122,2.33300109224149,0.00415527267052791,-0.0482005563074666,-0.0286454249788988,-3.07997732039394,-6.33129865517499,9.15732230194147,0.0223587216972235,0.00150832530346304,-0.00661894811443695,1.78519506447003,2.78726740538798,-2.09869299967235,0.0221900313173395,-0.00556257653499739,0.0467901913635414,-5.53953583669875,-0.655500042651088,-5.35134043212727,-0.015288314639277,-0.0292965143888353,0.019634087226577
1.2,-4.05603235195559,-4.70206591231772,2.3310563003887,0.0122575277812453,-0.0667204781445245,-0.0431749376575982,-3.077287726951,-6.32303721151301,9.14546849990129,0.036458973969151,0.00355484753282425,-0.00465341176229189,1.78164923977351,2.78356244351355,-2.09625498146093,0.0360609145492174,-0.00285451736214856,0.050504575111792,-5.53367353247472,-0.654690710106298,-5.3441708967986,-0.0115899026885672,-0.0281781824663884,0.0222623828981617
1.205,-4.05139184513649,-4.69561334844423,2.3291115085359,0.020506043039077,-0.085415494610304,-0.0575670367248524,-3.07459813350795,-6.31477576785105,9.13361469786111,0.0506573117020979,0.00566009750242396,-0.00265468295949402,1.77810341507711,2.7798574816391,-2.09381696324948,0.0500260032704196,-0.000107649375269936,0.0541698820044954,-5.5278112282507,-0.653881377561508,-5.33700136146993,-0.00768507323169732,-0.027199634191773,0.0250462791087855
1.21,-4.04675133831728,-4.68916078457073,2.32716671668311,0.028554798296551,-0.103344474186744,-0.0710987278105025,-3.07190854006501,-6.30651432418908,9.12176089582093,0.0643356483391026,0.00770805905342379,-0.000723043896171461,1.7745575903806,2.77615251976465,-2.09137894503806,0.063479661669444,0.00253830251474819,0.057644125167526,-5.52194892402667,-0.653072045016714,-5.32983182614129,-0.00360776936004517,-0.026311467407764,0.02786508781745
1.215,-4.04211083149818,-4.68270822069718,2.32522192483032,0.0360626650447813,-0.119582524287307,-0.0830982364702225,-3.06921894662196,-6.2982528805271,9.10990709378075,0.0768935392472269,0.00958192406429802,0.00105071737793456,1.77101176568408,2.77244755789022,-2.08894092682661,0.0758336541398957,0.00495409428000774,0.0607815295477846,-5.51608661980276,-0.652262712471924,-5.32266229081262,0.000588541246101588,-0.0254719729513888,0.0305838320999324
1.22,-4.03747032467908,-4.67625565682368,2.32327713297764,0.0427177228296183,-0.133325673426338,-0.093011921082219,-3.06652935317891,-6.28999143686512,9.09805329174057,0.0878003188017703,0.0111835942427046,0.00258665901854107,1.76746594098768,2.76874259601577,-2.08650290861522,0.0865674518968836,0.00702811375610817,0.0634525726932518,-5.51022431557874,-0.651453379927133,-5.31549275548392,0.00482002618952961,-0.0246498141628385,0.0330702606221037
1.225,-4.03282981785992,-4.66980309295019,2.32133234112473,0.0482624565732718,-0.143979366671801,-0.100450725186296,-3.06383975973597,-6.28172999320316,9.08619948970038,0.0966416208019046,0.0124465788838076,0.00381745119662167,1.76392011629116,2.76503763414132,-2.08406489040377,0.0952735213759893,0.00867208865669065,0.0655610096055111,-5.50436201135471,-0.650644047382343,-5.30832322015527,0.00897262753449785,-0.0238207009027081,0.0352086753235488
1.23,-4.02818931104082,-4.66335052907669,2.31938754927205,0.0525071411955943,-0.1511704072745,-0.105189068038784,-3.06115016629292,-6.27346854954119,9.0743456876602,0.103132811625122,0.0133321371495087,0.00469337231339711,1.76037429159464,2.76133267226686,-2.08162687219234,0.101671049184949,0.00982516740983903,0.0670449690733985,-5.49849970713069,-0.649834714837553,-5.3011536848266,0.0129165421923098,-0.0229624929636262,0.0369011273671485
1.235,-4.02354880422166,-4.6568979652032,2.31744275741926,0.0553340926560288,-0.154724516214702,-0.107152197813811,-3.05846057284987,-6.26520710587921,9.06249188562002,0.107117021304254,0.0138205186388309,0.00518745919405738,1.75682846689813,2.75762771039244,-2.07918885398092,0.105604753788151,0.0104565688242563,0.0678706247570566,-5.49263740290667,-0.649025382292759,-5.29398414949796,0.0165224770312464,-0.02205556712465,0.0380655794751047
1.24,-4.0189082974025,-4.6504454013297,2.31549796556646,0.056698284737725,-0.154657860788526,-0.106413451983406,-3.05577097940682,-6.25694566221725,9.05063808357984,0.10856430279646,0.0139091220768632,0.00529678135547408,1.75328264220173,2.75392274851798,-2.07675083576947,0.107044283762501,0.0105659910992421,0.0680296359479865,-5.48677509868264,-0.648216049747969,-5.28681461416926,0.0196705011424552,-0.0210878710363698,0.0386409666959599
1.245,-4.0142677905834,-4.64399283745615,2.31355317371367,0.0566231506446686,-0.151169393480939,-0.103182853112735,-3.05308138596399,-6.24868421855527,9.03878428153965,0.107563761088001,0.0136136508205148,0.00504004359645276,1.74973681750521,2.75021778664353,-2.07431281755805,0.106076379343642,0.010180947659064,0.0675379426968616,-5.48091279445862,-0.647406717203179,-5.27964507884059,0.0222547570225083,-0.0200592494397774,0.0385947069326939
1.25,-4.0096272837643,-4.63754027358266,2.31160838186099,0.055191873824065,-0.144617159765987,-0.0977809995081086,-3.05039179252094,-6.2404227748933,9.02693047949947,0.104306138196935,0.0129674873464523,0.00445336688748986,1.74619099280869,2.7465128247691,-2.0718747993466,0.102887663992107,0.00935174977594944,0.066433052227328,-5.47505049023459,-0.646597384658389,-5.27247554351194,0.0241876298292147,-0.0189835660223669,0.0379273338563972
1.255,-4.00498677694515,-4.63108770970916,2.30966359000809,0.0525363285810245,-0.135480198955043,-0.0906057438821004,-3.04770219907789,-6.23216133123132,9.01507667745929,0.0990614746444983,0.0120189253086533,0.00358561778191065,1.74264516811229,2.74280786289465,-2.06943678113518,0.0977426851421913,0.00814553994168423,0.0647701130847885,-5.46918818601057,-0.645788052113598,-5.26530600818327,0.0254036678019417,-0.0178893404125636,0.0366735005834645
1.26,-4.00034627012599,-4.62463514583567,2.30771879815541,0.0488250488533776,-0.124314499943469,-0.0820963244420527,-3.04501260563484,-6.22389988756935,9.00322287541911,0.0921550659516987,0.0108276660292912,0.00249332512649862,1.73909934341577,2.7391029010202,-2.06699876292376,0.0909602891863038,0.00663983380263323,0.0626180135384027,-5.46332588178655,-0.644978719568805,-5.2581364728546,0.0258628002327097,-0.0168188315365338,0.0349002513225588
1.265,-3.99570576330689,-4.61818258196217,2.3057740063025,0.0442519376560087,-0.111711052925267,-0.0726977704664511,-3.04232301219179,-6.21563844390738,8.99136907337893,0.0839449236554689,0.00946176106717298,0.001234997845563,1.73555351871926,2.73539793914576,-2.06456074471234,0.0828914301516955,0.00491573102254456,0.0600572366025326,-5.45746357756252,-0.644169387024011,-5.25096693752596,0.0255524198958053,-0.0158247651319122,0.0327034274146126
1.27,-3.99106525648779,-4.61173001808868,2.30382921444982,0.0390275876275368,-0.0982573511194897,-0.0628284076829863,-3.03963341874885,-6.2073770002454,8.97951527133874,0.0748033327536622,0.00799519030747281,-0.000134132449042873,1.73200769402274,2.73169297727131,-2.06212272650089,0.0739009813523985,0.00305187235330021,0.0571799050479807,-5.4516012733385,-0.643360054479221,-5.24379740219726,0.0244881202842666,-0.0149643091704945,0.0302022486378753
1.275,-3.98642474966863,-4.60527745421518,2.30188442259703,0.0333711025187088,-0.0844997075471174,-0.052850257127359,-3.0369438253058,-6.19911555658344,8.96766146929856,0.0650981646981088,0.00650412970601076,-0.00156500064563497,1.72846186932634,2.72798801539686,-2.0596847082895,0.0643493897972611,0.00112048915776894,0.0540873205445635,-5.44573896911447,-0.64255072193443,-5.23662786686862,0.0227103201906087,-0.0142913344473263,0.0275298020544829
1.28,-3.98178424284953,-4.59882489034163,2.29993963074423,0.0274960511618349,-0.0709051443392097,-0.0430440586336891,-3.03425423186286,-6.19085411292146,8.95580766725838,0.0551655317428286,0.00505861724262642,-0.00301392675021181,1.72491604462994,2.72428305352243,-2.05724669007805,0.0545660669111042,-0.000814100046568272,0.0508786326296612,-5.43987666489045,-0.64174138938964,-5.22945833153994,0.0202736928470179,-0.0138502954609316,0.0248165177482252
1.285,-3.97714373603043,-4.59237232646819,2.29799483889144,0.0215927651702458,-0.0578319598466563,-0.0336038689082159,-3.03156463841981,-6.18259266925949,8.9439538652182,0.0452842240937748,0.00371465779098201,-0.00444097125211792,1.72137021993342,2.72057809164798,-2.0548086718666,0.0448245188444793,-0.0026959509019636,0.0476395431925927,-5.43401436066642,-0.640932056844846,-5.22228879621127,0.0172366510099032,-0.0136755294623852,0.0221736484672481
1.29,-3.97250322921121,-4.5859197625947,2.29605004703865,0.0158171630550956,-0.0455240009628187,-0.0246546586552642,-3.02887504497676,-6.17433122559751,8.93210006317801,0.03566818866916,0.00251124628031712,-0.00580982782580127,1.71782439523702,2.71687312977353,-2.05237065365517,0.0353350584670464,-0.00447799179561629,0.0444394274311637,-5.42815205644251,-0.640122724300056,-5.2151192608826,0.0136579166678949,-0.0137943275283741,0.0196845213669803
1.295,-3.96786272239211,-4.57946719872115,2.29410525518585,0.0102860528131978,-0.0341242918784335,-0.0162687607416735,-3.02618545153382,-6.16606978193556,8.92024626113783,0.0264662248189284,0.00146516550966507,-0.00708639841197981,1.7142785705405,2.7131681678991,-2.04993263544375,0.0262448986510848,-0.006121650767169,0.0413253053500921,-5.42228975221849,-0.639313391755266,-5.20794972555393,0.00959392917015249,-0.0142290103458333,0.0173975469588406
1.3,-3.96322221557301,-4.57301463484765,2.29216046333318,0.00507608452256108,-0.023689293432575,-0.00847764615060059,-3.02349585809077,-6.15780833827358,8.90839245909765,0.0177643426421095,0.000569223549339875,-0.00823775372931261,1.71073274584398,2.70946320602465,-2.04749461723233,0.0176406275026602,-0.00759606413348473,0.0383202042331623,-5.41642744799447,-0.638504059210476,-5.20078019022526,0.00510105061133509,-0.0149987923422459,0.0153236768769316
1.305,-3.95858170875385,-4.5665620709741,2.29021567148038,0.000229494596158447,-0.0142036166962849,-0.00129381732957844,-3.02080626464772,-6.14954689461162,8.89653865705747,0.00960228877256476,-0.0001984928973622,-0.00923455704997927,1.70718692114758,2.70575824415019,-2.04505659902088,0.00956390834871485,-0.00887795200105842,0.035438096046453,-5.41056514377044,-0.637694726665682,-5.19361065489662,0.000249096671817474,-0.0161218719800074,0.0134445220156586
1.31,-3.95394120193475,-4.56010950710066,2.28827087962748,-0.00423736951934447,-0.00560676324520167,0.00526982514624225,-3.01811667120467,-6.14128545094964,8.88468485501728,0.00199219491203321,-0.000869641510674712,-0.0100519924786917,1.70364109645107,2.70205328227576,-2.04261858080946,0.00202964929907327,-0.00995103267829439,0.0326917633069987,-5.40470283954642,-0.636885394120892,-5.18644111956795,-0.00487086420513935,-0.0176115700459894,0.0117198517658293
