Header,foot_Accel_X,foot_Accel_Y,foot_Accel_Z,foot_Gyro_X,foot_Gyro_Y,foot_Gyro_Z,shank_Accel_X,shank_Accel_Y,shank_Accel_Z,shank_Gyro_X,shank_Gyro_Y,shank_Gyro_Z,thigh_Accel_X,thigh_Accel_Y,thigh_Accel_Z,thigh_Gyro_X,thigh_Gyro_Y,thigh_Gyro_Z,trunk_Accel_X,trunk_Accel_Y,trunk_Accel_Z,trunk_Gyro_X,trunk_Gyro_Y,trunk_Gyro_Z
27.465,-0.104160439070547,-0.713975407265026,1.08713991218701,4.67739973951262,-3.275154226481,-0.573075145245873,-0.615324507405208,-0.289583156250032,0.0889373629001829,1.129663209122,-2.4178690110112,3.95653842496333,-0.687362116760647,-0.320644506474277,0.000225939771699237,-1.31865253011894,-0.551868970947928,1.73656291587269,-0.854882575236285,-0.20920736503477,-0.023251573626323,1.21592700530111,0.408269472304275,0.0959478486549166
27.47,-0.117754138840565,-0.66339839406574,1.04573902595353,4.82859757111462,-3.44025925970501,-0.887099856015394,-0.667849045783202,-0.386187244074036,0.10654074282497,1.20627344939491,-2.54713886678985,4.08719683813206,-0.662499465849312,-0.331210517304841,0.0171557475089711,-1.03091979513729,-0.48687025083304,1.73860730260044,-0.843821693410551,-0.20855598670702,-0.0139066391160329,1.28886550797517,0.287913386855901,0.209587591396198
27.475,-0.151226596363391,-0.588738965692319,1.005904524298,4.91548705388995,-3.53304432840918,-1.1015092429159,-0.714418945730292,-0.480119545787117,0.107477820742567,1.21006908350519,-2.65280157856353,4.20262748665282,-0.632035119517316,-0.345566558391871,0.0179508173419302,-0.656630100702987,-0.46225607937631,1.7884978140069,-0.837719542731311,-0.194148692231428,0.0220332184719308,1.29276410723352,0.249530671138536,0.285860470139352
27.48,-0.160787966565668,-0.47555272864749,0.990436817451934,4.96785886909827,-3.5886806446938,-1.25163681071731,-0.75450041547401,-0.601429777447554,0.0990396331579877,1.17333538266193,-2.71834774072135,4.2943104589799,-0.610985297547754,-0.349648775796425,0.0358787129650675,-0.277403895756759,-0.374935945286958,1.87236024787953,-0.802173440292973,-0.191549474559266,0.0507062918288231,1.28930115693555,0.229917152482415,0.305876355432364
27.485,-0.181244897291884,-0.336366725813975,0.987874343430661,5.00028966022291,-3.60226547204647,-1.30678789588846,-0.801207382432019,-0.730526410474083,0.0705167082979176,1.21772273623123,-2.78123588580373,4.37323185599498,-0.565458222818382,-0.347165711057087,0.0216823969850763,0.0701216786384797,-0.29453207106126,1.98052904295386,-0.773711370196143,-0.19191894840633,0.0648498960168552,1.31907245787123,0.178865859330289,0.282674675527119
27.49,-0.210539044595392,-0.246014502742139,0.994245734414201,4.99010930320781,-3.61031331689448,-1.28037316177416,-0.832207318196085,-0.838194777680608,0.0561330671906197,1.38001742841934,-2.85466097023309,4.4277040931418,-0.514766113878096,-0.338995081208438,-0.0122484837145426,0.207271429645374,-0.277687673883169,2.05783090786097,-0.745199017062873,-0.194577616812684,0.0749921215247286,1.30839451311572,0.106948491861649,0.19874602325095
27.495,-0.239331063363311,-0.107654121706641,0.994913128984273,4.98307923806946,-3.57445217015415,-1.14957614047028,-0.853747809500832,-0.924429546323902,0.0381254637313227,1.67220954361035,-2.95620609489644,4.48117306153474,-0.449412836954825,-0.312551107780973,-0.0275560160679103,0.285503183043708,-0.223830756940936,2.11945015998734,-0.720863299878259,-0.195993915033704,0.0638506541964643,1.23362521829248,0.0614485934702951,0.145180464442659
27.5,-0.27691263495084,-0.00990129001238079,1.01395698062508,4.94668482548744,-3.51198599767261,-0.918051684929499,-0.843013534957702,-0.945097287640322,0.032089350368537,1.89367391148135,-3.0068433296022,4.49635087355047,-0.414654713082722,-0.261686574362688,-0.0408272534567301,0.377259991568146,-0.1360630234218,2.11866204555107,-0.692166610919697,-0.191591830716193,0.0537356414849214,1.16591153591988,0.054798256918985,0.149084367274151
27.505,-0.307368256038254,0.0955935516935703,1.04599523802594,4.87305024693007,-3.44180213260999,-0.665703960789536,-0.828951397504305,-0.926748167128369,0.0124480843085515,2.07148783960208,-3.04862347678019,4.49966448582396,-0.362987676634806,-0.197319734000753,-0.0794083227829618,0.462564429016681,-0.045872460435439,2.00541115906953,-0.664469087155432,-0.184133016740483,0.0452103178472277,1.15590649110029,0.0481287505594577,0.168241611336298
27.51,-0.341890445578731,0.153171764331906,1.08554648859461,4.78080698859898,-3.36192018564121,-0.385337232119069,-0.804965071504092,-0.861908314989072,-0.0289131111085819,2.15920201896586,-3.09701921115753,4.48873857817442,-0.307805437011177,-0.113588382883648,-0.148962041894562,0.427148705137943,0.0174655831826945,1.7980943327551,-0.640504392734446,-0.172833577794182,0.0352983603255687,1.18265004523584,0.026001035501776,0.18660976651225
27.515,-0.37625550271838,0.129883917231215,1.12575157321128,4.62623484147723,-3.2338434969584,-0.00798541076462301,-0.798719996600984,-0.793388472688574,-0.0817161611422311,2.11632751740294,-3.15344920282646,4.48126552711555,-0.264593251132723,-0.0504398361886531,-0.203477244347974,0.296876802810883,0.0660401643888486,1.57623657362442,-0.626181640589634,-0.165383302519673,0.0360761181184641,1.20381958560527,0.00012266288029879,0.196480289101601
27.52,-0.440024282414012,-0.0129401392834169,1.20395765039957,4.5502463222842,-3.13083056944689,0.302520672996277,-0.811768284054002,-0.722274783552571,-0.124099687332753,1.99720942096492,-3.23808345770103,4.46979163138839,-0.235635934873875,-0.0160714600339281,-0.232371968780612,0.170137409596791,0.118109917136804,1.35443258264054,-0.620046281449071,-0.157162776342861,0.0294799512225735,1.22906648868511,-0.0463101037555771,0.196480289101601
27.525,-0.511649304121191,-0.162614264367275,1.3012430399808,4.56538040083703,-3.05603827057736,0.606754522740775,-0.82830114413009,-0.657832437129907,-0.150961534407211,1.86031846754191,-3.31473900378124,4.4430937853435,-0.20902847305059,0.0139931219927609,-0.25677355101624,0.0732174385106947,0.191977004571553,1.11971078062935,-0.621233459047415,-0.142487567415515,0.0297382923786787,1.25082563440472,-0.0928874286008291,0.20148187637429
27.53,-0.592364056925816,-0.276863369711514,1.33876631982716,4.55145733919089,-3.04443021636192,0.799560118794361,-0.838868547124064,-0.617460870311521,-0.172017312158277,1.75354457052797,-3.34251977685971,4.41462130127068,-0.192255854891952,0.0306110759379822,-0.269183860510684,-0.00506296672864709,0.262874743252429,0.976385915912385,-0.631352715048085,-0.130125450648671,0.0251860089865196,1.26349383694488,-0.159423241702347,0.223590596623087
27.535,-0.645006228210926,-0.402333425073134,1.32818145590221,4.52941358045303,-3.06056005102202,0.965487163443804,-0.859183399012979,-0.580832728814326,-0.192287896763514,1.63523837284242,-3.33632993073979,4.3602080809091,-0.174803771908146,0.0434842582254254,-0.27897813660029,-0.0950132875307888,0.375727720748772,0.869080888707771,-0.64367758363942,-0.115219625791649,0.018099236615288,1.27677867207338,-0.231960513743257,0.241478187962023
27.54,-0.655562680048439,-0.463213242368594,1.32241822925662,4.48736173865176,-3.06100662794959,1.03135176999182,-0.871834124822943,-0.54600424474243,-0.211818494729488,1.55488431091072,-3.30588447134912,4.32421615124356,-0.163183109876253,0.0467943005236715,-0.279469472184756,-0.157074683046828,0.461401007410615,0.852494345133132,-0.660885309819664,-0.112890533449995,0.00798284048588356,1.2778310385703,-0.302528099685078,0.259682371533247
27.545,-0.671759842940722,-0.539971968088774,1.31423493065641,4.40533584371894,-3.0650333304609,1.06012242843065,-0.897069912618065,-0.521364471134964,-0.255036982713736,1.43967494011262,-3.28195117796153,4.29098414155719,-0.149855886954302,0.0489770375886486,-0.276211898834178,-0.212249664316017,0.551027725067691,0.854536956079638,-0.68193136034789,-0.105097879062604,-0.00411341089885315,1.28182119478101,-0.38236863766547,0.26245179772377
27.55,-0.704520382623975,-0.615861568078069,1.30233468610405,4.31570251153694,-3.07154407711335,1.02813700474008,-0.911945072290645,-0.497889662724774,-0.282718839591373,1.33848382523907,-3.28437539503622,4.27754795510265,-0.140761801462375,0.0513982931867889,-0.273291508818392,-0.25616794848451,0.628618126678743,0.872315506794531,-0.713917185727036,-0.0907406233495479,-0.0157528600983049,1.27212754896175,-0.475317568855885,0.255172993167451
27.555,-0.716853031983509,-0.689315379159581,1.28379868966116,4.25896369052051,-3.07838777850223,0.96542566130515,-0.943430092312584,-0.475160781420243,-0.31196342818544,1.19798420758124,-3.27248876114248,4.25998388772344,-0.135221023747175,0.0512247240533426,-0.266648282691343,-0.286577109779877,0.685572569338186,0.86377408733964,-0.744169609392337,-0.0864069015701531,-0.0221772959910189,1.26851469573951,-0.558266969283563,0.236651098808798
27.56,-0.745637931081119,-0.747920407538192,1.29384903001981,4.21886648659126,-3.06464024120094,0.871071491876257,-0.957692243451574,-0.47114243883901,-0.306725836703498,1.10650554290608,-3.26728446289153,4.22858796296681,-0.13374001148723,0.0512617797797676,-0.256204925459556,-0.338950590687408,0.727440043263589,0.818076892159885,-0.769258785939944,-0.0742650564402113,-0.0327638779712516,1.2893068191493,-0.608757958183109,0.217896894277112
27.565,-0.780406811961562,-0.827596469035179,1.31918255127729,4.18847715068166,-3.04540817737721,0.771800681800731,-0.992851402952346,-0.488085605908179,-0.336882659542248,1.02210211734579,-3.24607311703873,4.19282505178567,-0.139966294455726,0.041347053028643,-0.242348209834063,-0.453670461579643,0.740171009268635,0.713878580070712,-0.801127945444477,-0.0699768246409929,-0.0487562460134509,1.34192917384357,-0.635517775348808,0.208666322637204
27.57,-0.83340898102484,-0.927513136656558,1.34360037405916,4.17233135542739,-3.05334808511417,0.623114978429462,-1.03331302293663,-0.507965371059233,-0.374704179260524,0.946514925983199,-3.23281593045881,4.15856621252551,-0.154716197298778,0.0333852760319365,-0.225104298859653,-0.539504175169657,0.739122644731318,0.627112667554699,-0.82857035577129,-0.0553679947828661,-0.0638029138768087,1.39738999461724,-0.644608051943577,0.192295683823146
27.575,-0.879911905721079,-0.964066458831556,1.33077297452016,4.18618618943597,-3.06369097216542,0.468301698127027,-1.06386984871255,-0.541600785238873,-0.409322714714071,0.892336545683763,-3.2329485971128,4.11176374595559,-0.192316394047392,0.0251936832177275,-0.194971242649285,-0.63733433391544,0.718078286805207,0.515920323887425,-0.86544341264647,-0.0553016375340236,-0.0852700091234199,1.46235851704563,-0.661820231952049,0.118305583670129
27.58,-0.922601999581318,-0.990353327567107,1.32411869467894,4.1796279844301,-3.07990179915255,0.308019502188061,-1.09285325531451,-0.596642085650355,-0.44090076199032,0.868733014684797,-3.21711674325496,4.05057350339687,-0.224012692806706,0.0133055730743975,-0.162349561033703,-0.683636565882943,0.686388469858654,0.436285849838771,-0.851335755410555,-0.106238152406576,-0.063105107121247,1.40270115150244,-0.669911297567131,0.126940070991538
27.585,-0.956936741657446,-0.995023073714769,1.27177792777683,4.15718338138462,-3.10544768932365,0.113462264876339,-1.103411315944,-0.642749865846354,-0.462163339891088,0.873600488818139,-3.18666358057179,4.00181569394993,-0.262908869780766,0.00217790533114771,-0.123250557684131,-0.722027378076305,0.639254733432904,0.339871103955389,-0.84868409779737,-0.109709640226105,-0.0448419424256749,1.38507056467455,-0.633089710365688,0.162822018970097
27.59,-0.985251821811597,-0.958551477564816,1.23980447492124,4.16972143709768,-3.10250740296499,-0.0181749782743003,-1.11657621921796,-0.703367630713191,-0.49149830000194,0.911998116627147,-3.13386899992277,3.94207293554594,-0.298633544925465,-0.0111845099430417,-0.085833802591247,-0.767288339411322,0.580641034528007,0.250722844593414,-0.858758323456855,-0.103624893720772,-0.0193093027316386,1.39722765191875,-0.617756843566895,0.1872453579462
27.595,-1.05010559123097,-0.934781798457486,1.17595742794913,4.1350331888682,-3.08177839238894,-0.152090479294194,-1.11551151999436,-0.769813046409423,-0.547543254992365,0.959902406251546,-3.10332392771185,3.88824088072692,-0.332637566603295,-0.0277859286800687,-0.0491507361508077,-0.825486169847297,0.51415171113696,0.148851705733018,-0.86841505354352,-0.101987361188351,0.00569824063846617,1.37052380494768,-0.620143592111426,0.186725611685205
27.6,-1.08167846564946,-0.938590041658738,1.10870686559664,4.11015745684426,-3.04676011394577,-0.225180544001508,-1.11169647381022,-0.833216438658327,-0.59764954421363,1.0137192887236,-3.06097621518031,3.83995608657415,-0.367565689045007,-0.0588624108143092,-0.0101071551866817,-0.871187878785203,0.428346486250419,-0.0201460337713611,-0.884107447069441,-0.109449125463045,0.0217262031983889,1.28834225070867,-0.605405952812502,0.189747255899114
27.605,-1.09975405265671,-0.934234216684886,1.02688399285204,4.06982941382948,-2.9634438080805,-0.282179759056869,-1.09971920921311,-0.897307719726709,-0.637750796481632,1.0813793512946,-3.0126416139389,3.77155706346074,-0.396233011261348,-0.0834232180493837,0.0204053248009027,-0.913162967202152,0.340322722475303,-0.21183999358513,-0.899407832223129,-0.111774815161925,0.0498109020993473,1.19501929064061,-0.558452974960432,0.196490900846817
27.61,-1.12464700603236,-0.960460914932608,0.949404939343981,4.03655488284969,-2.85263264035391,-0.329266709757427,-1.09031520237159,-0.942483829664775,-0.676753784261423,1.18976088985026,-2.96670068307859,3.6954126095547,-0.428485416286403,-0.102514314644681,0.0469877826036921,-0.972440106299777,0.247652379750185,-0.492123134673224,-0.921340180663455,-0.114438476442877,0.0737014062993087,1.11125713327197,-0.504708769726037,0.205774848253076
27.615,-1.14884986735247,-1.0500323678594,0.890547121893513,4.00349824763316,-2.68899857484714,-0.373889345837569,-1.07534380145452,-0.980769994069613,-0.716810036685431,1.31616806286409,-2.90380394241633,3.60802222510864,-0.466653393648435,-0.100594915230173,0.0821900101239131,-1.01305882585307,0.172267661124473,-0.76895956346775,-0.944117473467271,-0.121030862903543,0.0908335471977149,1.0472306425641,-0.463543960437515,0.218674943366879
27.62,-1.18233236001841,-1.13293715114991,0.862853967145255,3.96768255376102,-2.55551727250618,-0.423613911118355,-1.05625659480716,-1.01416226126258,-0.766505033087511,1.47431052354946,-2.81538069922894,3.49270177592781,-0.506377605308333,-0.0699745624379031,0.102687923781953,-1.03262000442402,0.10590094164397,-1.0830672343905,-0.964505686785234,-0.124537842247848,0.106078801661029,1.0447109541216,-0.424105504310615,0.244334253821251
27.625,-1.22252713287012,-1.20035176890124,0.840347156583813,3.92560981681376,-2.40263502555394,-0.49013466105382,-1.02801750599805,-1.03771399318938,-0.81944559767876,1.61432316608324,-2.74631908514121,3.39885796697881,-0.56291069684508,0.000104860245262902,0.117757244191035,-1.03235919478689,0.0596526893020766,-1.31315492387385,-0.98247110706344,-0.128188785442538,0.12404265979996,1.07042060799621,-0.391781337523349,0.257539704517406
27.63,-1.26782521132809,-1.25840786498568,0.828145742501717,3.87966410277668,-2.25605459503775,-0.564123036690448,-0.999620563397596,-1.04822196870076,-0.855136426778987,1.75419494911511,-2.66531239437845,3.31175210672494,-0.628763619579623,0.0815208860039561,0.139707693974451,-1.02297347741027,0.0113103129230786,-1.53908486316501,-0.996240454978277,-0.124442372226299,0.140692813347453,1.10237765124106,-0.377162349833726,0.267889933454977
27.635,-1.30797236300185,-1.34740723663779,0.814421008299867,3.84150085539209,-2.13548361962569,-0.656690351492599,-0.967325996937348,-1.05889781905058,-0.883232539497598,1.97495572021041,-2.54506615260832,3.18626807848478,-0.701722759304346,0.169317851683736,0.169066922737448,-1.0268293927077,-0.0287074826117985,-1.70752444160206,-1.00165923404239,-0.118867617873771,0.149444330951196,1.13248812229538,-0.373433685687319,0.278223648187443
27.64,-1.33898155301572,-1.46915602087314,0.804911536282449,3.75509930411792,-1.97505731463201,-0.783627242134353,-0.946708414990292,-1.07551608350417,-0.897607901457246,2.17497211774672,-2.4319714970817,3.08002220662292,-0.820195831467873,0.290172373866427,0.188380122176109,-1.07506052754704,-0.0746530929330692,-1.83484318571792,-1.0073138714776,-0.116436575866411,0.162044830169586,1.16809147600645,-0.384243261528204,0.295267623377036
27.645,-1.37123534280547,-1.52266768369921,0.80785840701679,3.71796999295345,-1.86436555914665,-0.901207205358299,-0.924281963563795,-1.07840361504687,-0.915266225078876,2.40183163932056,-2.29717294518195,2.94983404240359,-0.920550703216713,0.389971307437864,0.205252590153934,-1.17836892760173,-0.101295948222852,-1.88594973009425,-1.00543222270022,-0.11297135702454,0.166074021466397,1.20077131876542,-0.402260790953231,0.31390382065754
27.65,-1.40744656806796,-1.55717401911028,0.813419595811308,3.65053187334118,-1.74658773831811,-1.03770744944517,-0.908819859567184,-1.07248047504691,-0.937212740836065,2.60835816230195,-2.15241919417674,2.81450196412164,-1.03421230129575,0.508277650558441,0.214954455710401,-1.40494160247301,-0.119051130348153,-1.88377044085145,-1.00293958971082,-0.109373887773017,0.163844788678461,1.2317347323674,-0.422577155374263,0.335738195208629
27.655,-1.42233165650002,-1.60971219876584,0.809465534164914,3.5476579707091,-1.65365004645153,-1.21472888160612,-0.908079904912433,-1.06512722356558,-0.943791950654646,2.77651647874967,-2.02296769091915,2.68319673513452,-1.1388471648638,0.61381060209917,0.21808033996878,-1.68575315506691,-0.134287162241857,-1.83609385592189,-0.995386045293459,-0.0997475378594053,0.162873009136639,1.25841163907479,-0.435618068207797,0.358753046253318
27.66,-1.4309203465948,-1.63340195140266,0.782380799509419,3.47048920385302,-1.593152251151,-1.32822144746051,-0.914895055800684,-1.04330092769217,-0.937473077101794,2.93830186936163,-1.84598615353433,2.49818604801187,-1.20817298525448,0.713179051429195,0.210134536309841,-2.00490675750832,-0.14506723117515,-1.74153654626724,-0.981626971251324,-0.0999890640516236,0.160406561879823,1.27789272590528,-0.43936646927349,0.38943915094983
27.665,-1.43443344428854,-1.63601708099527,0.736018027123423,3.32380955568508,-1.49322898505433,-1.50824532202027,-0.930698887336209,-1.01930651265552,-0.921843089270155,3.04509268432395,-1.72230145492549,2.34052835548657,-1.28119677718536,0.827367668912902,0.190407434774092,-2.37600410508192,-0.147443947278881,-1.62428381708221,-0.97119418640377,-0.0885391463260529,0.153169937753066,1.2849254884914,-0.448530617553493,0.421645948703784
27.67,-1.44129094419266,-1.62045263886339,0.693754561784116,3.19526090144349,-1.42439849763572,-1.61519871467432,-0.939277416015466,-0.994181464497105,-0.903239669432807,3.11737310829522,-1.59677911851727,2.1660928255146,-1.3192817356313,0.913561111973156,0.1496118997681,-2.6530731458617,-0.139679174705954,-1.53360769021202,-0.950702912780938,-0.0716836634632632,0.152996246258952,1.27787592535561,-0.450996479033043,0.443270012889828
27.675,-1.45011150172219,-1.54018664940297,0.642422658736317,2.95922699822377,-1.31425929634045,-1.75901140696015,-0.94378809946726,-0.959724565300412,-0.878061930094952,3.13733834575622,-1.4062893461504,1.93744994611986,-1.33453633915124,0.992468492122482,0.105105771583603,-2.95309096613511,-0.125333642850198,-1.43719908292203,-0.928863371820268,-0.0604352746250275,0.150792606575262,1.25120466494088,-0.446641108356035,0.459192953156581
27.68,-1.43476858929166,-1.45582422636693,0.596015467892064,2.64290065320685,-1.18416241752599,-1.8302742259625,-0.931616245686371,-0.928840670849354,-0.869633365297069,3.10975262039398,-1.26499610176693,1.75184424197912,-1.3343993989201,1.05354886981656,0.0404638367668111,-3.14841450036988,-0.117120550985628,-1.37913209261796,-0.917635870374975,-0.0443523781404093,0.147665072280923,1.22395056504001,-0.424249559819599,0.470714915780784
27.685,-1.3942453402949,-1.36620802667215,0.533405802761805,2.37635173330022,-1.06868352434885,-1.84831620717272,-0.921525468257205,-0.896495292550588,-0.851605350155637,3.02292932817953,-1.12475244016245,1.52460272919582,-1.31440301938685,1.08591474758308,-0.00509881635351342,-3.28082274836689,-0.106303074158244,-1.30993394801911,-0.909403844217047,-0.0242938397804175,0.135141630108074,1.20303663107345,-0.38896871134887,0.478746952184135
27.69,-1.37177307786483,-1.29129277248689,0.473599816370415,2.11161701019767,-0.929714772948117,-1.81175467073939,-0.909599604949441,-0.875580415890126,-0.822845019735715,2.88555715955936,-0.9733337813541,1.3013723724906,-1.27644465424186,1.08969985435455,-0.048440061502523,-3.26531816758352,-0.0935921322046191,-1.22937287129598,-0.901190934546425,-0.00923108712723786,0.126716764063027,1.20993769946204,-0.339648311195743,0.482801372574466
27.695,-1.33238504065555,-1.15182557838611,0.368291653895264,1.71234036837978,-0.708609053858458,-1.73034223006237,-0.900132362069228,-0.850588719123328,-0.781667806539975,2.70798009316843,-0.824229205835432,1.05256333440918,-1.22808046205131,1.05860173357582,-0.0885201974450652,-3.04932134069069,-0.0694306054606146,-1.13227574577576,-0.892625794154413,0.00481658615181934,0.115139308039311,1.23673130742886,-0.276735424349048,0.501050928978552
27.7,-1.3001975360395,-0.99440926568344,0.276963890548914,1.3852865041339,-0.506663326331943,-1.59543697348919,-0.89204496086229,-0.809276778851629,-0.756247732759393,2.46912498026392,-0.657287711593056,0.779057666738086,-1.1728336700593,0.998194243987443,-0.119890704443868,-2.52793431147509,-0.0344556836466707,-0.950828227406267,-0.884070919072062,0.0160512550068764,0.107605935214902,1.25999302539472,-0.205090590697019,0.51331930588576
27.705,-1.23992085474561,-0.792853862978298,0.0998846044385449,1.01385176866272,-0.202538358234568,-1.3793933734901,-0.876472093076846,-0.759173340854911,-0.710019507080059,2.15753608617673,-0.493649327212696,0.470244631525468,-1.10474325687694,0.913067964354372,-0.154220870679722,-2.05468073258224,0.00476146472657412,-0.753391053046925,-0.87572650359157,0.0248392027102164,0.102364665428409,1.26961588109748,-0.142185281377198,0.52749204740111
27.71,-1.16486006099971,-0.610330714953423,-0.0414662542315721,0.714925522501905,0.167277158828314,-1.10809325261118,-0.862173445311761,-0.721672125241661,-0.666276984551383,1.88816889134633,-0.341567331420449,0.218360828451802,-1.03879323382284,0.824324893253977,-0.175984658900876,-1.63856358087793,0.0359322895717647,-0.530348764560421,-0.878286892286125,0.032583282574298,0.0974168010432243,1.26013320062722,-0.100306374721013,0.543167553722579
27.715,-1.09433689943153,-0.438199685757407,-0.104530457078524,0.447548213178781,0.537116549921401,-0.668737191148541,-0.845475991727915,-0.675791689238541,-0.622294283580449,1.52845545647782,-0.136409985123192,-0.0990329840773095,-0.961259601364782,0.715739544844064,-0.18910688290452,-1.27817420633919,0.065582157967734,-0.292175856174702,-0.880326942646781,0.0326093209713185,0.0970251721296278,1.24265897362508,-0.0716681865776125,0.553294088749844
27.72,-1.06529771041294,0.108591536871618,-0.0406822541377676,0.22955453878005,1.01569344686868,-0.33416745071702,-0.824446783026039,-0.630059310737885,-0.635549812623746,1.20417648667095,0.0207481763878517,-0.334207290111502,-0.877455335627778,0.554615617614437,-0.194013992490628,-0.937419014631561,0.0920407007401032,-0.038830603217559,-0.903464084382016,0.0269743871975262,0.107275658321329,1.22401311443977,-0.0748351083865028,0.566722646201383
27.725,-1.75515764884156,1.20375308381829,0.879042607232057,-0.975028417243015,1.50150669197292,-0.852074915288185,-0.805036753139887,-0.521461658933491,-0.720011620762729,0.76937102876717,0.16223495413989,-0.533357113184149,-0.806818527460976,0.419704156433192,-0.182896838014101,-0.696281396672901,0.120001249584597,0.13689613836205,-0.927856884779086,0.0105249459808734,0.11822379713463,1.20183477221311,-0.0875327899950264,0.583745352061962
27.73,-2.16289045333027,0.903286893601769,2.57244877612836,-4.37388246486623,1.24570706411907,-1.82094608913415,-0.772405534438105,-0.232598530721796,-0.822799632257108,0.131336764743983,0.300142849176178,-0.677049787324315,-0.721990736849662,0.265034416962319,-0.147580227606411,-0.431755542795977,0.148425344913319,0.273873499957147,-0.952226905649297,0.00528386281510365,0.129031475751314,1.18512189886448,-0.120287626230946,0.610067794654823
27.735,-1.64938004811336,-1.09184679825676,2.80075182596253,-8.44110342529837,-0.248455891635859,-1.57308877157894,-0.719657457807032,-0.152110468167875,-0.746090123883599,-0.421951842231946,0.395502257326775,-0.736459149510668,-0.656018702953397,0.154615411770812,-0.109283359704708,-0.209289800638394,0.169192617508462,0.325527121109229,-0.983307846954667,-0.00408194563532914,0.142238360777622,1.16206511276666,-0.156271125535994,0.643649774701876
27.74,-1.47888831608519,-2.07436401963187,2.34399147122335,-6.70458188547438,-0.859340864604005,-1.01426318587512,-0.802330914463772,-0.267756373015959,-0.423031238564659,-0.529206993916918,0.273676073756033,-0.938392991734157,-0.592082470049272,0.0841188176331359,-0.0744413086179466,-0.0041975829774718,0.183188931116768,0.310485205442048,-1.02045134048491,-0.00459188201654117,0.158011776295269,1.14491723120629,-0.225733359446191,0.650885803101912
27.745,-0.525920898669718,-1.52650995041122,1.9481547790164,-4.56473496746449,-1.54069007381036,-0.627135602031124,-0.935827286313879,-0.0276325523594814,-0.120922759330775,-0.409444940736545,0.0414566993057407,-1.27824648185362,-0.532827204251248,0.0302212941691858,-0.0383877110177317,0.147601739907893,0.193888803777,0.276084929174448,-1.05514209413922,-0.0050048296250126,0.165195441807409,1.10361770808878,-0.322397184693502,0.667982187341015
27.75,0.211160727619883,-0.581346304260665,1.36834373394168,-2.9243891160751,-1.85695980374025,-0.923038608088418,-1.1807102311928,1.04605282724746,0.0454052331078715,-0.309343061639746,-0.146437704652244,-1.41009394241142,-0.502444566225803,-0.0272461404345167,0.00457712413627917,0.183426469564438,0.175423942647846,0.199939317393202,-1.07989233065168,-0.00178015389520043,0.185436188798088,1.08335698087723,-0.444383635492962,0.681427739867235
27.755,0.4875892462354,1.57478343378034,1.57839868337486,-2.24109178185064,-1.94316947149252,-2.37262140772726,-1.63989383020854,2.30719614539011,1.27371741596516,1.29979582993032,-0.31872756114924,-1.24629690001448,-0.515802156171162,-0.06628605711658,0.0371747939919802,0.0752979088825555,0.133864663854073,0.0572242156519755,-1.115330764556,0.00676405715311711,0.206124117842931,1.1322256870894,-0.634195584112262,0.677884273549788
27.76,1.14131543808195,4.14979554862665,1.67548322694366,-2.76188404292327,-1.89192734270307,-3.26937301059295,-2.98493123398577,2.84247711976808,3.21124710513497,4.3640458381878,-0.158010859520313,-0.941529973404664,-0.599192644688389,-0.0161465107690113,-0.0084661968000038,-0.239394368781364,0.0980604044060588,-0.19328342255642,-1.16065398708891,0.0294081858257085,0.212164399502512,1.22755935029554,-0.770983850135873,0.671890092888619
27.765,-0.0769346727599226,1.2926899358686,1.47945131353588,-4.23895107922365,-0.756362956943262,-2.47903834687719,-4.53054928147978,1.95434605213768,2.13483366822329,2.20601018046773,0.644563345750108,-0.443973703048326,-0.794062102738019,0.144662637927989,-0.151814484877662,-0.668784431421088,0.130676786091478,-0.515757705553872,-1.23992200847392,0.0632524602740196,0.177147104689509,1.36198442847201,-0.891009623013746,0.667466162059446
27.77,-1.79557417846881,-2.15488808347069,1.78432804182998,-3.92335423922903,0.14825311571133,-1.37438202144322,-3.77958511195888,-0.856032383661855,0.157427217363917,-3.24569729781258,1.4991897926279,-0.468315594563843,-1.22068132599664,0.471660971580095,-0.199741646893123,-1.12809543231104,0.311431931048015,-0.780380109589387,-1.36627873143062,0.090056592606764,0.0906817135788439,1.44627808555074,-0.950223941349611,0.665925681494074
27.775,-0.923115706600419,-1.92856445958723,1.72354949947982,-1.44285391657751,0.229726352889262,-0.423984231695839,-2.31813819102361,-1.7528377744274,-0.776454635431324,-4.35644744823857,1.35026274376258,-0.846610431008144,-1.73932545810641,0.853860527104525,-0.113578538690002,-1.56900494185956,0.673700762617936,-1.06542339189681,-1.53136697024087,0.127974467447725,-0.0231402946230408,1.38758462043169,-0.901895846137245,0.636180425902745
27.78,-0.757958808540047,-1.86351227043995,1.35659316468602,-0.782592242052212,-0.0144350698856068,-0.106901940857458,-1.59123831638121,-1.68297046722922,-1.05773498143505,-4.21784459564451,1.16064654113812,-1.39235583944252,-1.9910234878238,1.05957597728862,-0.0505330101080605,-1.52723451610958,0.831234941395733,-1.11793468777908,-1.71033028539502,0.146885852219096,-0.186175341440586,1.17142079719007,-0.70006329358039,0.593186497314647
27.785,-0.648341388086951,-1.28841163712248,0.964377871871914,0.247329551413134,-0.385826590068894,-0.12721157872758,-1.04389412199437,-1.78497616949369,-1.03575106790613,-4.2988539089135,1.54197706108713,-2.56445592825891,-1.99472766862278,1.19891856824446,0.114145268681739,-1.02173237382456,1.13224213010007,-0.998122269449881,-1.83484493412165,0.115367520395141,-0.338769222248341,0.871977674886415,-0.304069758644269,0.533753229490047
27.79,-0.358951425817947,0.775342684277799,0.71067201521236,0.375895382825962,-0.242023331603324,0.0146870129722024,-0.869627338951124,-1.63319153120641,-0.828799396690769,-3.87019097601507,1.7908196224993,-2.68796909688105,-1.99752253061389,1.16005641326668,0.284975017516458,-0.300558717954778,1.196615992164,-0.819928037420203,-1.84910084121675,0.0596033368001252,-0.437980143241117,0.662421644397591,0.12701480926156,0.498180411509658
27.795,-0.371204230716718,0.773506385928234,0.784037764865169,-0.237645748095011,-0.0691013545633172,0.160259409703304,-0.69751317093194,-0.914988132587342,-0.559109269415613,-2.76120500677057,1.7347746764009,-2.56321254104697,-2.00520085376713,0.874102102789795,0.703899117161575,0.156295054598942,0.993852808341291,-0.742679174851173,-1.72898130507255,0.0288677760038942,-0.497576589985335,0.603074367959941,0.564001506498231,0.416014772715344
27.8,-0.459712562745592,0.134203575076223,0.847345068277324,-0.687709802159474,0.0308387748211773,0.0933230693885475,-0.41925702320495,-0.148229948384911,-0.201765959635728,-1.67295917078,1.756023475112,-2.35245310529515,-2.01045608402431,0.41989886058992,0.917936545882533,-0.00882997579328818,0.628114442410408,-0.696672806712209,-1.56104843836973,0.0212923143590215,-0.516765386691529,0.665661183063182,0.751397484575735,0.32027471823278
27.805,-0.574559599203798,-0.402335686607298,0.812199595553643,-0.645303670942271,0.0222796620339066,-0.145094806661744,-0.0664906480985758,0.359689701826887,0.125615559706564,-0.867401105813574,1.97702171633804,-2.10348021296457,-2.00698431232807,-0.059217677460627,0.708139033723732,-0.72990652171344,0.235973044479432,-0.574705688953444,-1.40631293876557,0.0293403931408688,-0.503488231169792,0.799311580129109,0.580744150518823,0.242480830894209
27.81,-0.758492311473721,0.094559194458088,0.742102521413117,-0.0710445664385144,-0.0786889725104083,-0.187465573287352,-0.136621414657482,0.187022517693997,-0.483015753854238,0.189356011119413,2.05160509692855,-1.43707440600088,-1.97132978146296,0.0426134985955594,0.188889184177295,-0.494669169606594,0.219716816173535,0.198900080277172,-1.19839214392056,0.0670247978800412,-0.477550521656984,0.935780226532777,0.138891196743815,0.219577003185345
27.815,-0.656726581636654,0.124049060986088,0.797520675369146,-0.234548450889694,-0.202409288990852,-0.208607218056071,-0.348725156450042,-0.0130243765506813,-0.824174410926534,0.967969769801847,1.55168760881921,-0.703555459396887,-1.57261725707288,0.0237842773353829,0.0292845662833713,0.0876418199641487,0.191836789377544,0.659016699739586,-1.0996312859925,0.0881564406824124,-0.464823681597652,0.995575049032425,-0.122939948394469,0.220942513130413
27.82,-0.507119793985606,0.157552306790099,0.857464797946744,-0.28510613372045,-0.269707208195967,-0.231226278863883,-0.557422614247781,-0.385330785776559,-0.735659811880564,0.221102133463824,1.04787002922073,0.043052547284197,-0.974848793793126,-0.373505634875048,-0.151960718469732,0.872508945632442,0.194046135805001,0.779634646418238,-1.01833409392649,0.1202632588253,-0.409539038768169,1.07497701191392,-0.459977400144974,0.273253055770119
27.825,-0.395339419573564,0.20342757037559,0.843978386939974,-0.187516642113604,-0.285431900043468,-0.228802847029202,-0.714534533547456,-0.674801348924434,-0.398042825958227,-0.876703959228657,0.939711327510561,0.334482178181704,-0.442202157353912,-1.06712178475994,-0.476487041127873,1.2416005341786,0.260506910310689,0.645286012734902,-0.951402981431614,0.161330738768049,-0.287442390813196,1.20650010595371,-0.818269529321534,0.391836933110803
27.83,-0.463501971534095,0.171788651280682,0.806040552763942,-0.0832651699159924,-0.23557248016622,-0.20574581138174,-0.832963514878944,-0.547016777940224,-0.279429887808494,-0.645703830863126,1.01121104620838,0.038538027990604,-0.164333085564088,-1.62992999382752,-0.916658647296238,0.420066561561624,0.437699747555736,0.643575283395143,-0.920909520976305,0.181527340243634,-0.130458389355161,1.32296865249773,-0.827352773004168,0.510305172303166
27.835,-0.558424936253252,0.315981442136458,0.707131015538504,-0.0224617101065445,-0.108764608214041,-0.126598583759075,-0.889954994662427,-0.2683398572715,-0.403846632630669,0.329301191950491,0.747621041024716,-0.241654628621091,0.0136373989828373,-1.78610542282145,-1.24489922432274,-0.335019774865851,0.647634947845588,0.690745304736919,-0.892374295368307,0.197360096184502,0.0249520405030188,1.39243814769223,-0.707987966481981,0.645599862183965
27.84,-0.576591453655466,0.348529030760605,0.766766875660475,-0.0649426040259983,-0.0227510975039032,-0.126114180944062,-0.87549202297767,-0.0509402890186889,-0.51007398113174,1.27506073286379,0.374613509658368,-0.427330368277287,0.1111288244293,-1.47878257292678,-1.36857189506111,-0.173934007423404,0.801199292955502,0.575224597920787,-0.875173225069205,0.191102485685107,0.113142491145909,1.34445263719331,-0.53387498438471,0.781375509741197
27.845,-0.515311326860103,0.300058663735401,0.857591364958349,-0.171707082178527,0.0154566013898756,-0.15877511539743,-0.874273143018533,0.0632711598604982,-0.484473057381695,1.82828724448379,0.148231303396466,-0.621681536722207,0.199475995077996,-0.841927853677307,-1.39106742130903,1.06096523859343,0.862668445473468,0.211292675351947,-0.863484687706037,0.160679422345017,0.173117965579785,1.21256488165284,-0.36376601429364,0.891994138064112
27.85,-0.506287667439585,0.245447975679585,0.895456365897996,-0.250765319687806,-0.0207675680184793,-0.193106359028304,-0.945433151668003,0.135548800871076,-0.388921136167781,1.7109795965805,0.333295210512755,-0.793215770528938,0.288996989690448,0.0764869767037076,-1.35024713518402,2.7853034495721,0.760816004361232,-0.190920310661873,-0.854413079017328,0.114531821357086,0.240016313475653,1.05706039535915,-0.214132501493583,0.954631090448055
27.855,-0.487254423515252,0.19557067886613,0.931609899446585,-0.250769719195302,-0.137105259872451,-0.230206974960746,-1.11522659147596,0.205129509545659,-0.303149070185815,1.17139708765245,0.690559709122065,-0.78262063526281,0.277830849889034,0.821426733739039,-1.23919332006806,3.31967544192477,0.48357177006435,-0.464685067589457,-0.848406153209079,0.05321545580245,0.287283715220753,0.874279985028097,-0.0936429878050106,0.870273564653602
27.86,-0.449706418737718,0.0829700033832845,0.93184264092879,-0.280756070700665,-0.1938351388707,-0.222208881231542,-1.29866175570628,0.244408668983865,-0.288993797453337,0.633036093392121,0.859308314111225,-0.599673371383955,0.157532061971156,1.01240947236563,-1.11753934607875,2.52305673314343,0.267914607484715,-0.70263280650725,-0.843643165717048,-0.00333454054910748,0.301280520117317,0.714268499078808,-0.014414697651481,0.537010151479735
27.865,-0.432582891891884,0.11771690354939,0.907802168522286,-0.181512021677703,-0.169510749884237,-0.169864445747151,-1.43466595932225,0.282900498280734,-0.322009656718006,0.110862792155409,0.793370330859881,-0.372659316804031,-0.0763430498797579,0.843181889213166,-0.881690534680521,0.516317584157809,0.0364107962187832,-1.01308525025505,-0.835919339960009,-0.0476516136348116,0.288846639464253,0.528098186425882,0.0400195559421072,-0.00409878655048856
27.87,-0.425243848247799,0.146259807509105,0.887121045726364,-0.173135285359365,-0.0624748384395656,-0.117695409840216,-1.46545973837883,0.325271109860636,-0.347166603601997,-0.290212006611838,0.646913506606072,-0.249836317167392,-0.26504337366679,0.537581735975881,-0.650421608634923,-1.51847826740361,-0.0970939243618687,-1.26118310627699,-0.839575993340009,-0.075907317135705,0.238384065888236,0.288580616429258,0.0982291111151531,-0.584846887089896
27.875,-0.449863142154741,0.118948396017407,0.872023466483248,-0.208410753970039,0.0882719270324983,-0.0663710732456579,-1.36148963518587,0.28440587433822,-0.345766054310051,-0.678589436861814,0.466739002296738,-0.228966269922607,-0.38375600487372,-0.014746135268039,-0.39650191906666,-4.19320885813144,0.0152962376056459,-1.60974699560196,-0.872428862990454,-0.0913024376856778,0.161857280770148,0.0407708007902335,0.149626051510992,-1.01178127756015
27.88,-0.472643350656745,0.156910265397183,0.870436600152019,-0.199046206443549,0.16945512703672,-0.0257986394617116,-1.20805625523213,0.214949531049097,-0.340430043051425,-0.708079348976318,0.378742519867771,-0.287813394817278,-0.499757467073478,-0.520936933029679,-0.173808274530266,-6.46845286890814,0.193399462214977,-1.81753890243695,-0.920204858836262,-0.0978459395833532,0.074577456843345,-0.0977774795340742,0.155757527931212,-1.22067713521391
27.885,-0.510987019192305,0.248808970262439,0.87405097129387,-0.213033476539461,0.189413522217675,-0.00695029832588459,-1.0625711239946,0.181866294596886,-0.352585723496352,-0.555169006135678,0.300700971897208,-0.356398332563564,-0.629975109234648,-0.787437190858309,0.0818062800257172,-7.50426731363258,0.0886581121745406,-1.64398759340753,-0.956332573736273,-0.108952076798008,-0.0156001035075274,-0.0466381199284259,0.132490056401369,-1.22514719074488
27.89,-0.502213765856499,0.271576493305816,0.885079944371186,-0.253955462402387,0.163383721262756,-0.0117440158765209,-0.968101011368092,0.167146327134251,-0.337537663139668,-0.453221098393632,0.17043709269785,-0.393044902155699,-0.718691195082597,-0.830223509003754,0.27432492064354,-7.25048105544808,-0.251189143551644,-1.36421216003133,-0.97926740376812,-0.131503772109867,-0.0989743303476814,0.167594352744132,0.0889327859831483,-1.10260988948303
27.895,-0.471494165533629,0.165567147892548,0.857641388041935,-0.302799397683943,0.0866727872085728,-0.0336012081410232,-0.910068792175048,0.134853210942351,-0.291911670046162,-0.338241210248343,0.131386214094868,-0.397802965019412,-0.83257503538722,-0.714692312918744,0.376058399924721,-5.49824438287757,-0.692544515534114,-1.34871397788444,-0.972490749370835,-0.162914852602667,-0.148756223646883,0.494573508921773,0.0226549645094593,-0.935061287394104
27.9,-0.486022656412783,0.198453264793438,0.850227506004185,-0.218932489305134,0.0518736235469421,-0.0259308488770008,-0.888419448310307,0.0798972846806749,-0.277035911948825,-0.109896132935695,0.183081693178848,-0.342915212278754,-1.01564477808392,-0.540165470946514,0.401378652187214,-3.78982276062921,-0.913380733259261,-1.75579400991501,-0.960842007288918,-0.1819908692963,-0.180588101010101,0.88039958089819,-0.0787918677642557,-0.77750294177627
27.905,-0.483395499819605,0.227329539045898,0.844528693548222,-0.209357000587647,0.0292944939165203,-0.023357443070023,-0.901623956140532,0.0291336544184333,-0.310279451864063,0.100128211501084,0.22608789758528,-0.257063084825393,-1.24365334261199,-0.411271151850653,0.3876013883487,-2.9531698830713,-0.998624020574069,-2.00785743975359,-0.971624004198397,-0.183400848552874,-0.192321136431696,1.14437541995592,-0.148650377670439,-0.697439924484205
27.91,-0.488467924721694,0.195068532809947,0.860385843479118,-0.210740412568699,0.0338593591336724,-0.0295638995524311,-0.905073228673299,-0.0156190466319237,-0.35151622161119,0.222652790841153,0.22211006598542,-0.181100625280074,-1.68851806868611,-0.199586893401185,0.310617006546115,-2.52446162346603,-0.997065559705628,-1.90292251487935,-1.01313359498212,-0.184841247984715,-0.195845263221427,1.40226530923775,-0.177787064695478,-0.595809658672785
27.915,-0.462112014519887,0.189452316003252,0.870955862928391,-0.17524206649029,0.0552623292806612,-0.0258284829404765,-0.907763769173293,-0.0270307880768732,-0.372569265006848,0.331338693464856,0.200815511251736,-0.122428260320876,-1.94918060100824,-0.0806025017360568,0.267592507911891,-3.06991067684447,-0.703459735984457,-1.38510435271775,-1.08456671048844,-0.169301146623709,-0.195295894391752,1.58948917486595,-0.101922818702954,-0.457711454294063
27.92,-0.469668174516976,0.174032970144698,0.869170764070481,-0.158119288598577,0.0596154950446176,-0.0185706984383443,-0.939714313549134,-0.0168035247603011,-0.365211330624491,0.404074119589462,0.173508883514534,-0.107180277093408,-2.00433121787507,-0.0165865270364714,0.396897569523649,-4.27639570457317,-0.125728736709262,-0.736633978729139,-1.17044003121,-0.145794567354008,-0.190251342410376,1.71078084309288,0.0847406434331393,-0.30823951478179
27.925,-0.476014241435465,0.190093120486342,0.868703836970335,-0.134016412225711,0.0488293981033516,-0.0120649345569461,-1.0118021829509,0.032240192019608,-0.339541044299347,0.491419144368317,0.117348748273623,-0.101374408322737,-2.01003862266388,-0.0231126107366823,0.766216940232129,-5.27924030092029,0.437154864161135,-0.433189321888814,-1.24848651842851,-0.104471504289708,-0.184420440228406,1.83288927189179,0.317889388926848,-0.163576944919008
27.93,-0.476674179866723,0.18270087103136,0.864072312353778,-0.122502280007388,0.0363205348776639,-0.0035485377965652,-1.06615315836923,0.0958281655693995,-0.323174121070322,0.508848071098328,0.0595473408081018,-0.113038544653364,-2.01464888663422,-0.0790081163288439,1.05030560705527,-5.09803376538673,0.576856611605154,-0.383272272262504,-1.32724713955307,-0.0553101473527159,-0.188879886415133,1.99548021095816,0.573436398609033,-0.00577343270731601
27.935,-0.473437375438489,0.182097941309016,0.870342832618405,-0.115033701251174,0.0349932807832599,0.000711029395461082,-1.09259128504888,0.144467596976544,-0.313994560346007,0.499382746734472,-0.0434036132045753,-0.131026783719964,-1.94231814507525,-0.163043634525008,1.17728956558629,-4.33424896265064,0.522179284888458,-0.245130599479094,-1.37275701259947,0.00341584811851835,-0.195530368024839,2.15164551314639,0.764479936984435,0.12917352386916
27.94,-0.463210196204802,0.174395831386094,0.865062414171684,-0.103790189021222,0.0328624860598855,0.00853371859126268,-1.0880163607623,0.179812101916825,-0.311833073621574,0.487018621577825,-0.12840216950299,-0.145674823267504,-1.74090771622566,-0.22585103134375,1.1008174225696,-3.49148596067417,0.486361880388225,-0.0553237497596642,-1.38805387817593,0.0768297099623899,-0.221724892293862,2.36470933530034,0.896655536859837,0.209160727635251
27.945,-0.46142067629905,0.177350437137852,0.864068071404277,-0.0774410810124445,0.0398792837973155,0.0126425932118793,-1.02669893789097,0.196399883580073,-0.300320717328151,0.454138410237015,-0.222658147113814,-0.194372634400542,-1.4681921693675,-0.262835230931871,0.917791198795116,-2.63048254599311,0.52362963353199,0.0985041297636545,-1.38282426062339,0.130224901267509,-0.246260355261367,2.53746983832037,0.940711229593955,0.246590426941322
27.95,-0.471797878645483,0.187235010779841,0.867367226696242,-0.0484187636652464,0.0374083496574265,0.0139358454208831,-0.982104273097793,0.190963183484961,-0.307623880379942,0.399750169168793,-0.262271707207672,-0.245225087542596,-1.23460003026236,-0.257041349928578,0.703713574858963,-2.0780986210792,0.592718630862983,0.12581168495453,-1.37931677093353,0.159439781201909,-0.282367678999817,2.61524009383099,0.847931874321523,0.27808828526486
27.955,-0.478492677962295,0.204512719099853,0.863965529271277,-0.00954241394777697,0.0308275825159922,0.0163543320199654,-0.958742134883184,0.156196666860265,-0.303929288358867,0.35673167372933,-0.266050606966019,-0.278560201954694,-1.07757140322953,-0.220065926029204,0.510134885748557,-1.85981852124135,0.663736973187226,0.0731645294728138,-1.36138588986641,0.172386264134341,-0.31168264054754,2.65170625561806,0.607447240543841,0.314287460752587
27.96,-0.483078982787919,0.209711186671535,0.854603056163573,0.0027721587030115,0.00975919717923874,0.00858516018645268,-0.93938743276398,0.118064452736896,-0.29600953254442,0.464857055359868,-0.253962208063004,-0.285400579037064,-0.985591219780161,-0.172933832537794,0.385391930359599,-1.85361687761579,0.694959108784625,0.00807803464022178,-1.3232660674869,0.183122459253725,-0.309193232622707,2.66845238968277,0.221862224833697,0.342026863646611
27.965,-0.475259997792395,0.229404826760809,0.857746259206395,0.0429697667225888,-0.0147261015930423,-0.000916652342271289,-0.936230269746603,0.100182248349945,-0.311545397542173,0.633418642668101,-0.239768929657889,-0.282548186011458,-0.917783749222128,-0.086327278204013,0.318340908378097,-1.89090740248667,0.679948855025108,-0.087396760038925,-1.27346985980743,0.186064776069334,-0.254019901807986,2.66491221705068,-0.192296771853614,0.36235462454467
27.97,-0.482427677506923,0.236561632223871,0.852253723182583,0.0703485726152338,-0.0378713640506606,-0.0177648962514268,-0.952303595464812,0.0983645480353888,-0.308517371736364,0.819757438479242,-0.235092660483492,-0.260441468376751,-0.867140744584295,0.0164093270546383,0.289624968161018,-1.79710175553029,0.641400792245917,-0.164817375860192,-1.22473269058829,0.176999139452686,-0.191442227101355,2.6405710984759,-0.528141383740782,0.376044782381598
27.975,-0.478015519037787,0.246692842746288,0.84780276919624,0.0857329663296497,-0.05149281314511,-0.0290255486966646,-0.968561295969478,0.120067472989104,-0.305572598544339,1.02575867901389,-0.241782551935598,-0.231639759609783,-0.816219756067657,0.123761554500606,0.244553083947081,-1.58122144673811,0.57011698181711,-0.187963945865966,-1.17091344737532,0.162955840860215,-0.117034258904597,2.5847147422314,-0.830058287389046,0.380188599608303
27.98,-0.474989846994854,0.250096423416089,0.844018441814797,0.100506765709679,-0.0652347239895789,-0.0424760020350561,-0.978393424390763,0.148131381610965,-0.308996114818485,1.17757200893721,-0.274535302009711,-0.21142661090638,-0.780144456564606,0.210673014290165,0.171341034468837,-1.4404846909869,0.510800992975412,-0.161548238642348,-1.10523013887404,0.151926012832416,-0.0385211303724282,2.50926362809051,-1.06078879129015,0.381551008028711
27.985,-0.47994224858509,0.242495126704174,0.842993420137922,0.104593906941299,-0.074384130707602,-0.0593739214065731,-0.982202995507101,0.176799408968097,-0.313999509708508,1.28362454850825,-0.318815714000027,-0.196164606999472,-0.76701870519242,0.287571064051311,0.0791956225822168,-1.48449860056952,0.458009744714065,-0.137383926073128,-1.04299367064578,0.142015063939448,0.0244386367512405,2.47450304661461,-1.1036199940402,0.37929246707087
27.99,-0.483190369179675,0.256148985330915,0.841993214594701,0.126840301362608,-0.0871329269856896,-0.0735307015401339,-0.975360990394246,0.206364647114024,-0.30877343538752,1.33828487215196,-0.359524044836648,-0.183802990337195,-0.782224237400042,0.315349329831191,0.0212083547853066,-1.77061232072447,0.390430468823434,-0.163130966532678,-0.960223562817052,0.132461744181548,0.0620082960870806,2.51703987417546,-0.928472073424959,0.339675422045343
27.995,-0.477677363523052,0.254367117249774,0.831629918525579,0.131497523294011,-0.108252155677545,-0.0840957746963895,-0.97222628205442,0.221659366339636,-0.313554855928529,1.33317134485588,-0.383524516565073,-0.190261374931144,-0.80204080554278,0.308503417931174,-0.00246348288206871,-2.12040497274094,0.341408187804797,-0.258415366585181,-0.90448671024626,0.130133097548919,0.0461928712914237,2.5916326625071,-0.695566323577962,0.257025389026855
28,-0.478730482851756,0.265542880618641,0.832246348810791,0.14615522190856,-0.121735662793711,-0.0995473092754011,-0.961392851183095,0.220004794548467,-0.302111847922974,1.2614654760754,-0.42520546035361,-0.204880878629605,-0.832846881485375,0.25463969377815,0.00373640873579113,-2.5712592015319,0.257830326443136,-0.488773394376232,-0.841663654805478,0.134617544941431,0.00448834040769478,2.67940216994476,-0.463089696675018,0.0984826782230049
28.005,-0.48204028106244,0.25471719520086,0.833373480678371,0.137796124121525,-0.129288326783068,-0.102786022672318,-0.96321459713407,0.219626981841838,-0.298216050899208,1.19343409075481,-0.434928660229647,-0.239317507256323,-0.852372354631855,0.206056602288354,0.0175732435755894,-2.7713364211961,0.195418037139531,-0.673150286580662,-0.763070869526177,0.150632488418572,-0.00506320503863375,2.73167564688039,-0.245545842494788,-0.060154854587972
28.01,-0.481175894253221,0.248271252143475,0.831064332007567,0.149014916198423,-0.134668879678711,-0.117735103708237,-0.959098035225091,0.205585548784334,-0.283621594705044,1.11452997677677,-0.445107974456687,-0.27407873043403,-0.876887054840939,0.131596770640975,0.0323882917699483,-2.92206833525122,0.125040984701103,-0.896290563841414,-0.677262554796433,0.166811272545157,-0.0100092634960462,2.77275538565562,-0.0534932844009216,-0.147028348649829
28.015,-0.474899343176945,0.241604846979974,0.83947006450034,0.145641421952941,-0.137954757564484,-0.122265238688006,-0.957974520999916,0.195955075483299,-0.272699409175953,1.06099449946575,-0.445707986887259,-0.307182939355603,-0.880920715130043,0.068278483226371,0.0303558212091081,-2.96801072808415,0.0933200775190039,-1.02293005117062,-0.540322212536569,0.190124854330553,-0.0120903291290516,2.81016314244086,0.106779409155193,-0.181397886477863
28.02,-0.467492053852749,0.223710537759433,0.839294206527533,0.145815099138231,-0.141072198621674,-0.124994807625613,-0.957516709198551,0.181847698343354,-0.253652097499639,1.04028522968292,-0.453364171349255,-0.334570653647284,-0.870802491683624,-0.00782404743819727,0.0198993796831559,-2.91629966265134,0.083534479377243,-1.10807925430728,-0.60717541576164,0.173345420216855,-0.00963287863167818,2.84317566552601,0.262165304655567,-0.160625199076892
28.025,-0.469418135613318,0.2188577887042,0.836658038011645,0.159006239513569,-0.149720905277547,-0.134091526591303,-0.948680079706882,0.170811189653515,-0.228676262053545,1.04106404740596,-0.460865166169158,-0.352700280390448,-0.859587269969698,-0.0582901938037375,0.0167697263640406,-2.76780851444054,0.0980756517985221,-1.09559338894933,-0.643203709188218,0.178241936765239,0.00452090834900025,2.94317611166162,0.333582035155794,-0.226560475359996
28.03,-0.464405480706815,0.221785158598996,0.838012833768389,0.168690448657508,-0.14942621968291,-0.138426367797418,-0.94244912673137,0.171324168918342,-0.209472916780062,1.06008851688257,-0.45119026975088,-0.359894351107202,-0.853335453784105,-0.0833274355116769,0.0203015044397156,-2.63922502441433,0.101855443823185,-1.0674524610495,-0.663363501154248,0.197057765730566,0.0064861850944934,2.95575462827729,0.322676068890716,-0.241908224018323
28.035,-0.46947207788669,0.19997312376192,0.838256571080104,0.166264687804292,-0.142608097820039,-0.147114008665085,-0.930643180500672,0.164458801958372,-0.19815933074361,1.10184652646647,-0.446457526339729,-0.343159675240414,-0.857449241581582,-0.0786969819505186,0.0295660452044759,-2.58567711941714,0.0902934789292101,-1.0786048480085,-0.673321593784729,0.211961090318806,0.00378368360817013,2.92484252670548,0.282825986683022,-0.237662088617801
28.04,-0.463631290545646,0.187640888738408,0.844104949714008,0.175710884583719,-0.137211601515857,-0.148809132423201,-0.916905631085298,0.15252819029775,-0.185009383938948,1.17091795811011,-0.427716048063288,-0.319542548546702,-0.870769443968178,-0.0576392682850269,0.0401479083541394,-2.5722472203628,0.08963078528461,-1.09421546062646,-0.684815418073036,0.223294103499168,-0.00568656999925743,2.87164707992883,0.250302955696803,-0.21499412277131
28.045,-0.461189058317566,0.171113714179702,0.850487623521832,0.197304204431113,-0.13742361856608,-0.150559681122272,-0.911869335468062,0.13349794831835,-0.168591054423985,1.22651311195318,-0.412052974849809,-0.294837082086809,-0.884077884520401,-0.0425529781458158,0.0384547974813851,-2.60430722029538,0.113916396854238,-1.10622854894483,-0.718815321384868,0.229613968949432,-0.0127286516953649,2.80447725458202,0.221619804345072,-0.169849546523528
28.05,-0.455874430925391,0.168846303782099,0.856413140591223,0.218394559450009,-0.139695668078732,-0.149113197446094,-0.911724979636662,0.123732706189261,-0.146370653907487,1.24035956899724,-0.393235632884302,-0.290136252471492,-0.897085206486765,-0.0226177399270551,0.0437485524656585,-2.60305662860719,0.163742203030835,-1.08553990942964,-0.750185765359933,0.230687911411094,-0.0168576644787585,2.78178752175455,0.201270573998324,-0.129843732148041
28.055,-0.449239107621289,0.170178712304271,0.858907043050226,0.240830644134636,-0.133037738730222,-0.144968161632796,-0.919582649320911,0.111412255613418,-0.126201899993872,1.18324842794367,-0.362498269783486,-0.314536907849697,-0.919517604730176,0.00831314919464817,0.0486327536541586,-2.53429671595516,0.234059893480802,-0.992783799545918,-0.776258054241987,0.233986940124008,-0.019538108610568,2.77260743990004,0.193709886452335,-0.0961428188166201
28.06,-0.452960067154013,0.156695957187688,0.859518718479603,0.247280004900971,-0.124332147573729,-0.141236919445077,-0.927807468180098,0.0876718807256576,-0.117187085054252,1.07611252704944,-0.332465973861117,-0.340557145175472,-0.951459948587511,0.0493557746660814,0.055448091322528,-2.43902176795156,0.316387847339971,-0.802688464433107,-0.787422477392877,0.239319924896806,-0.0255216917057564,2.74893880718549,0.196706892972794,-0.0671587298445041
28.065,-0.450005966447821,0.163714807819217,0.863762662675714,0.279178194788874,-0.131048945254529,-0.135650596869162,-0.941424460540249,0.066820504305073,-0.110993447007882,0.990053675845823,-0.299408002742716,-0.357677959481642,-0.965553096816077,0.0859163766757212,0.0584798736322498,-2.40371868771958,0.398362804421213,-0.554164810799808,-0.797748202945653,0.236688914810595,-0.0298199874104114,2.71172273151652,0.191549131732009,-0.0438476661853818
28.07,-0.450645723509707,0.173574868802005,0.86218516114296,0.276759538801719,-0.116641243191904,-0.114755124596784,-0.946113698480527,0.0482946645667544,-0.105736867503236,0.920886893981422,-0.263464895255668,-0.378411622163006,-0.966981163662327,0.124469866778562,0.0556631530567847,-2.41250558688859,0.477726481910188,-0.341368075832728,-0.796669252796165,0.225788184926953,-0.0309512396761315,2.68175763869581,0.17506686236527,-0.0331562525485934
28.075,-0.445628929665019,0.180232803631087,0.871920210224697,0.297430959005997,-0.119012642783014,-0.12019078957479,-0.949682556188535,0.0420257091866633,-0.098840153790929,0.840785115232728,-0.215766274027979,-0.401734575991501,-0.989435842093615,0.175822186619699,0.0637413719771846,-2.45342967371632,0.560922288501705,-0.152219040592978,-0.789564694582838,0.219544231722397,-0.0316918045557795,2.66841472816404,0.169886436529306,-0.0296497466057878
28.08,-0.439193045577437,0.212547472767948,0.867222066402053,0.300373635561659,-0.112277951572706,-0.0979505989915767,-0.955118085846762,0.0333743540909676,-0.079451591386359,0.823488011666538,-0.170831278613647,-0.412779377923202,-1.02178860974052,0.231418663601345,0.0767557287764957,-2.48284331930951,0.616934500557276,0.00880067304888508,-0.792393771704022,0.20389646772613,-0.0280547054287434,2.6645909116564,0.16497518015625,-0.0337502170779743
28.085,-0.434017180818561,0.242010875303968,0.86471583875811,0.291274457237411,-0.111062421324805,-0.0904110598258784,-0.954179884384195,0.0360319267723239,-0.0681255611680184,0.87875922539129,-0.137356157844415,-0.404890107263158,-1.04464310887486,0.268512405577507,0.0878041281612738,-2.50729545476584,0.639038644390962,0.11032885110477,-0.791242328267664,0.198900926051992,-0.0315433704047972,2.63801246854673,0.1739741659493,-0.0455976666954098
28.09,-0.430726318074774,0.241365290241946,0.862061930573727,0.276131421275102,-0.109042420983315,-0.0805100106893128,-0.950527289750232,0.0480312941707361,-0.067137978148853,0.95443561132898,-0.10281962937446,-0.388952550619727,-1.06324568029964,0.292012354552915,0.100056435783497,-2.53378084287528,0.636260511061206,0.162933050999967,-0.794033050501778,0.195675764877219,-0.0397008653552085,2.58902120015264,0.181502268754564,-0.0652775231028079
28.095,-0.446706775100481,0.247400641422954,0.849172575667538,0.2612447941441,-0.107820719480515,-0.082054760167245,-0.952361221944709,0.0646554562652275,-0.0924577499800733,0.995987292072207,-0.0684680472870495,-0.36996965169907,-1.0827933809995,0.301955191374009,0.124266623828929,-2.59480065072163,0.607433416662578,0.165958819111923,-0.80203761746993,0.190849547961999,-0.0377616098087377,2.5234244409045,0.189227922654437,-0.091062241367682
28.1,-0.465367879412541,0.2516198455458,0.837347907539349,0.246436057044082,-0.10904583970525,-0.0740607866942094,-0.940519760259716,0.0868962383828432,-0.134770465081224,1.04963006884794,-0.0560974736681844,-0.356065387876135,-1.10174171873239,0.306761685478069,0.152514393849521,-2.63963399056559,0.569208264771544,0.148652628103488,-0.813851130969223,0.181855289755984,-0.0513963166734702,2.4443347150119,0.227293288363501,-0.124462908162162
28.105,-0.471157083824618,0.257945660524901,0.83445330499863,0.238136796664734,-0.120878667766781,-0.0875313131060694,-0.933221579938727,0.106809454911782,-0.157149728929668,1.10478444688228,-0.0441407781083214,-0.35531626417567,-1.1292417534263,0.305953187302903,0.190683427894987,-2.65628372731178,0.498703329980623,0.116233827150201,-0.822137848247391,0.185811322920653,-0.0404094219949268,2.38129199272963,0.258878081892618,-0.155173157227694
28.11,-0.464740669694316,0.259372378355906,0.841097389898617,0.221496368731424,-0.126864490246281,-0.0880209949665619,-0.930616735511602,0.123791446881445,-0.157353133036439,1.09308997657439,-0.0304599560805944,-0.375791325079698,-1.15124912376775,0.296421888757578,0.223653552109115,-2.6248683565252,0.42091266436129,0.0604410745653027,-0.834564968078915,0.185334065274839,-0.0341008454542225,2.33730736798533,0.293377096961136,-0.179840066504466
28.115,-0.466448465683854,0.253052187295889,0.846841301187822,0.203301561819885,-0.134865516554662,-0.0937782345567773,-0.933696712383517,0.131690099719052,-0.14329078324844,1.01418836077241,0.00591032005488224,-0.401820454674616,-1.16480749413631,0.277869869037516,0.250686470805318,-2.57105445977418,0.352896604375237,0.0297929896457507,-0.856225606998544,0.19332421143768,-0.0337224456398589,2.28662954491888,0.321618590923061,-0.193906374216156
28.12,-0.474053797489243,0.244181914002935,0.847202257764162,0.188101778508177,-0.140021123323852,-0.0901087933478494,-0.935649217202663,0.138940321033984,-0.143642854807114,0.914582965352132,0.0400900336188896,-0.435950897585465,-1.16215719325041,0.257162344511536,0.275460987403343,-2.5099143941636,0.300915486327919,0.0256283934597588,-0.874496573225562,0.204892839022646,-0.0376340256904358,2.2349903053007,0.341017710181557,-0.193872001055493
28.125,-0.468495164001131,0.24818981324305,0.847930042009233,0.17351612517529,-0.148644036344775,-0.0911468815831475,-0.950515895445107,0.149010185423128,-0.144700513520303,0.792664651314885,0.0809689369800344,-0.470933393490767,-1.14333011228559,0.223063075082588,0.30533284069716,-2.423657006034,0.245554097431445,0.0370780321828822,-0.897213005260018,0.217988957434338,-0.0464193581933807,2.18799766602742,0.358686641151794,-0.190217653887309
28.13,-0.45668859670856,0.262413574565051,0.847643830785249,0.148630008631927,-0.146790752487577,-0.0935457355527158,-0.956267459416002,0.152150918996071,-0.121050418244708,0.71512230254279,0.128711907599186,-0.503041973458032,-1.112979576534,0.194425514525058,0.326800233396479,-2.32462084162115,0.219466823971417,0.0564660562394771,-0.909011031914172,0.226106852849023,-0.0588628630590344,2.16116300840822,0.364371190940779,-0.193011571513604
28.135,-0.449789821437197,0.271027298231005,0.845339378199042,0.120657225954371,-0.143139766410267,-0.10424674088672,-0.963087030432357,0.143469492177315,-0.113808715627204,0.673778157077012,0.160225957474927,-0.521560112054939,-1.08698410353716,0.164050586064928,0.343918523825499,-2.24258362750204,0.212129569069177,0.0849658081618742,-0.924997468845397,0.233951923811339,-0.0652892443069961,2.14413996526241,0.35233318811921,-0.201998972314198
28.14,-0.455936309622876,0.259661958249717,0.850017740568598,0.10846572281823,-0.149710324126526,-0.116564784896011,-0.960108404652231,0.130045366441302,-0.105743781494856,0.603973354245126,0.204340133799268,-0.547782974549537,-1.04197110755238,0.124711083262266,0.363242523822093,-2.14939593744494,0.220437123559709,0.119783684313801,-0.945738257357142,0.24624042414166,-0.0826942262607957,2.12584122388132,0.318683944020736,-0.200711482556918
28.145,-0.451747604979534,0.259020125160627,0.855684456615071,0.0914965947603456,-0.153812090471322,-0.110344622167585,-0.962086791702678,0.123860160975015,-0.103280054049619,0.564141729858941,0.246008898114816,-0.5697595372013,-1.0055675026474,0.113912814667253,0.381228088034898,-2.06005390854579,0.232435789195079,0.147236139669689,-0.972252817779381,0.246007607168602,-0.0940965773104024,2.1205782522303,0.279866414172263,-0.176038817727147
28.15,-0.433520273865377,0.269515801971709,0.850937675620088,0.0774376272490998,-0.153906063216639,-0.107680731492949,-0.958633304892137,0.128427953718374,-0.0952951323558011,0.544764754707711,0.277850048666359,-0.594583213481274,-0.969175754026309,0.117821824568551,0.406160665602406,-1.90605480676914,0.245006620001933,0.188649141615484,-0.976408107942996,0.263697328686531,-0.0988057541563694,2.11863796975823,0.235264464481581,-0.128188584081267
28.155,-0.435765686157733,0.304999353094021,0.845995043645799,0.0564284696455649,-0.151090661610724,-0.101966189656559,-0.954595359842738,0.133864230914187,-0.0908214985996017,0.528261309660568,0.32171501294495,-0.620912104942197,-0.942302861883829,0.122943172312805,0.431126631293938,-1.73828311103761,0.255444830380439,0.232812895264243,-0.9401501256709,0.318989470807172,-0.100923534804206,2.13213540200601,0.156043649368229,-0.10568394218003
28.16,-0.436688066833464,0.284361492292507,0.84768275445112,0.0107622141189138,-0.151654113196996,-0.115726825003813,-0.949373691676028,0.140724714541751,-0.100335395056164,0.492767303800596,0.365764205874317,-0.646010799211909,-0.908171227866451,0.113837128580224,0.441452674234472,-1.5754624355554,0.256905168294907,0.291827392616137,-0.91528554132994,0.344306111586008,-0.0933275990017243,2.08778869965497,0.0568053654537455,-0.160105023945081
28.165,-0.423541707701619,0.267387422371936,0.860776146163376,-0.000398732035608119,-0.151857383678907,-0.115625369795213,-0.941262871149203,0.151126347770748,-0.113770361332726,0.439460005582611,0.408855567682577,-0.673152200383642,-0.875061783147858,0.0905258602380957,0.447093555805533,-1.46289131882368,0.254481628468256,0.347368444856489,-0.911419285084063,0.324796503823238,-0.0827381726127553,2.04373320118773,-0.00815523889483362,-0.210644326793558
28.17,-0.430799310667665,0.340771433407268,0.827028960082251,-0.00990240489294032,-0.150070305307383,-0.0990020438642535,-0.933288435013175,0.144053867734136,-0.151109396588158,0.389916905313005,0.434655824785125,-0.691255192975381,-0.853725204335103,0.0841051395716073,0.44627168500789,-1.39159538602987,0.252001270173151,0.384920095567631,-0.924094894743468,0.306582977200099,-0.0781329485566366,1.99958068209159,-0.0796471641002958,-0.244016539075113
28.175,-0.46188709042339,0.279838532325657,0.840270974223149,-0.0883883360259139,-0.142794193881558,-0.108730791154645,-0.925541484552978,0.131839301346371,-0.207986245790206,0.317884399204954,0.459803677809537,-0.707446744280537,-0.832134108088318,0.0897420987863463,0.438897090443789,-1.32587299131159,0.265520249508615,0.375784294067291,-0.929028845131614,0.294845569236048,-0.063960892609259,2.00240242844167,-0.125074276139952,-0.279026587901364
28.18,-0.456967056189749,0.268734707916769,0.846720654909145,-0.082909038320302,-0.149358332157135,-0.105626470424294,-0.92678652929728,0.113001609750804,-0.240227812151504,0.249213104738614,0.459016781811522,-0.725923069414755,-0.825431075464381,0.106664277974999,0.428016494193321,-1.22682998983045,0.28565295615009,0.355802622147422,-0.937127238555421,0.282121277435386,-0.0564320230439286,1.98458853771008,-0.174395214543926,-0.310745452498944
28.185,-0.453296070207951,0.27003359532157,0.843707659405287,-0.101625631387182,-0.151697386101255,-0.098221571592105,-0.928912185221006,0.0961023764966189,-0.259417900105362,0.201325802528507,0.452888143920975,-0.748865340460132,-0.824617328999118,0.125899621931508,0.415054671008971,-1.13238380578126,0.311759433823649,0.336287519058119,-0.974983200447942,0.267600049164017,-0.0503609391274732,1.9566723313803,-0.210372372458222,-0.329509838412049
28.19,-0.454896539192744,0.275573013138275,0.844918220550271,-0.119246003084403,-0.162288016801655,-0.0998446701918602,-0.933666278697216,0.0893249412380095,-0.259769990085405,0.147806579195174,0.441393423499053,-0.770980542228365,-0.827247259018124,0.146231746520413,0.404482298081772,-1.06405951765235,0.336732931277164,0.326420659271443,-0.970614853041393,0.260082954681434,-0.0434087816218513,1.95931575234283,-0.238380057630545,-0.381565761525975
28.195,-0.459482652104374,0.268895190917743,0.848372797153633,-0.153423002798792,-0.155901144419885,-0.100743911598471,-0.942354960512462,0.0759319039816926,-0.246236428169751,0.0902887805097787,0.43299584638143,-0.786896579110271,-0.831901085851125,0.1661950265759,0.394274404143426,-1.01740917733935,0.363293758448013,0.324523717164993,-0.956425397802959,0.249836556797563,-0.0490222105857999,1.91218017964449,-0.235627689920947,-0.335599031726882
28.2,-0.452228606776049,0.253004794373004,0.846666572380965,-0.168163681882145,-0.157637149627215,-0.0972975785183847,-0.951777060857321,0.0606887901765734,-0.230898299665733,0.0229098742241791,0.438999331359653,-0.795026406252171,-0.841343135783376,0.174210184094991,0.392407864161062,-0.995715625242465,0.386170302712225,0.322107929625137,-0.978356583804322,0.23518859919923,-0.0518256846910327,1.92628501670332,-0.231770199136313,-0.321655832079768
28.205,-0.444548248015684,0.250085662523989,0.860112302629023,-0.166969717738396,-0.148725346229421,-0.100825725796456,-0.960142081715404,0.0431399852601434,-0.224378339657384,-0.0283686883559334,0.445304442960967,-0.800494717291103,-0.849846814316761,0.154049679229562,0.378929391225425,-0.984277013192461,0.390885357780516,0.295506130487187,-0.994865153146701,0.250943705714878,-0.0491811744053503,1.91494684592452,-0.174321880278916,-0.308207892472325
28.21,-0.446839324075537,0.243672249554435,0.859669286194117,-0.178859537955236,-0.138056206255908,-0.0967118298578319,-0.961745769396627,0.0359774764013779,-0.243740272954096,-0.0375861559365589,0.445663475385693,-0.804796051276798,-0.861590233382695,0.125318385022821,0.380847143100477,-1.00171773406324,0.40539126978545,0.252794958634061,-1.00684336135096,0.263244040135919,-0.0498984757918434,1.88103180264672,-0.12154504516676,-0.270587316368496
28.215,-0.443546377193189,0.243310772097806,0.861062336401542,-0.181148982231245,-0.134687880558423,-0.0982335742270416,-0.968235571129804,0.0295306106320958,-0.249617713292123,-0.0464341411958704,0.456471467622814,-0.80951044217063,-0.873050691771665,0.084038683865737,0.376644075308544,-1.01451252393234,0.405273575000664,0.185389519586272,-1.00912537837058,0.270602076615531,-0.0450426897073741,1.86381620897427,-0.0815309510715426,-0.246213013963157
28.22,-0.444220650380114,0.242898143930245,0.859957334146763,-0.177292198583902,-0.123340224184118,-0.0969910038501144,-0.976213206993834,0.0260813287103171,-0.25965891498181,-0.0606261124847061,0.458855673270325,-0.821405084487921,-0.893764466500347,0.029527938425527,0.357344714057613,-1.02577905912169,0.398384320092778,0.0996852933565353,-1.01594062403848,0.270677966611669,-0.0373954244049646,1.85814224624666,-0.0596251958580781,-0.24542277559838
28.225,-0.4506688418432,0.229109569017411,0.859957549259955,-0.183528542749923,-0.1141272937171,-0.102423108870171,-0.980313193344778,0.0173485476891201,-0.266763014118491,-0.0853102854243122,0.456997119366368,-0.825993785351736,-0.921871865888344,-0.0098169116289908,0.344430498075998,-0.992166977594492,0.407457849818679,0.0481646794573661,-1.02350738521336,0.276152517416927,-0.031621998519385,1.85277084398859,-0.0404979861574618,-0.247649884791488
28.23,-0.4496180522681,0.220180755999965,0.862510246015682,-0.183705059327686,-0.110264107584953,-0.102269916553301,-0.979120006451973,0.0114489808148286,-0.267592692027371,-0.0994672961045295,0.457540769631352,-0.827443032621266,-0.9504776005843,-0.02888318748901,0.327635819854493,-0.875958649248519,0.425289699153485,0.0277700694478665,-1.02938120331249,0.282556557658148,-0.0321189422508941,1.85207914680042,-0.0172180111177193,-0.243219753650427
28.235,-0.445182167009743,0.218700294373825,0.866540717140302,-0.175917824517196,-0.110264107584953,-0.0983762991480555,-0.975199610951026,0.00991005704771294,-0.267412993543356,-0.104165780119444,0.460673085940417,-0.831358423231939,-0.983257742207997,-0.0408387012728606,0.299571130277507,-0.691350172013945,0.445978581226901,0.0253828918669614,-1.03490607677148,0.289078795493131,-0.0382234965140826,1.85685277037586,0.0169929028499166,-0.232081311579815
28.24,-0.419414388791624,0.214413526593688,0.869783204271289,-0.169473389036744,-0.0935563891820937,-0.102779141481128,-0.967170769696564,-0.00281138453394685,-0.258175615017174,-0.103341721620109,0.465381925185924,-0.85528460688473,-1.00386415290125,-0.0255165099062584,0.262984733845139,-0.509850063213028,0.466100949119495,0.0388154506825104,-1.04386637844315,0.294946507338526,-0.0406934929509331,1.8608765874662,0.0247793140360083,-0.216677884057651
28.245,-0.447289543352502,0.21057732558738,0.871881263401174,-0.15566211770665,-0.0851144395860777,-0.100660891567213,-0.963607077255057,-0.0152942189720568,-0.250838732714432,-0.1039749025065,0.461159473996315,-0.864997251767177,-1.0234154654642,-0.000710587580886398,0.231671907624042,-0.367994080933855,0.488405567970934,0.0508641377091408,-1.05661250674443,0.292050710460944,-0.0408405386753933,1.85960906666684,0.0230491768629054,-0.202670931201923
28.25,-0.449440633661218,0.200417532902964,0.866837163159362,-0.147334452361277,-0.0787912501455986,-0.10123854238693,-0.958192304286563,-0.0157388988653827,-0.267562758047042,-0.0908187995272259,0.477523865336744,-0.871168027855741,-1.03405670130418,0.0261258573400334,0.20684256003732,-0.303921542718488,0.502572366952787,0.055114154421134,-1.06418619477695,0.298164775627902,-0.0354423653339913,1.84828500892649,-0.0017738355551292,-0.185981229257527
28.255,-0.442418531346403,0.197513240240992,0.872221069805052,-0.134594361182873,-0.0729557114465053,-0.10115674278513,-0.950387920876801,-0.0202899296654927,-0.28095021754732,-0.0716949963968982,0.490441375082328,-0.880544586221577,-1.04288660512912,0.0447336385242465,0.183025221327585,-0.304431209928605,0.515617349408927,0.0695748621011384,-1.0649703013125,0.303017394530924,-0.0306162413995327,1.84446068333004,-0.0289851465734959,-0.178284810888161
28.26,-0.451112260713168,0.203963073850708,0.874308752413275,-0.124719490953866,-0.0672993184272638,-0.108495509586593,-0.944437626997378,-0.0324343244781761,-0.285752464924156,-0.0484848650900301,0.495858655131063,-0.884550088631597,-1.04563643926285,0.0613723183748646,0.162871328158723,-0.38784132125421,0.528385722031129,0.0804491892845938,-1.07094909109715,0.314456934775187,-0.0127816604386008,1.8177564692085,-0.0573842069357452,-0.161605333218466
28.265,-0.437431858051121,0.200962657328694,0.87750595344908,-0.109284035799362,-0.0575301738475096,-0.116772717049288,-0.946175928198198,-0.039326344923649,-0.284080004341988,-0.0213862970107199,0.485141211180021,-0.894365382544057,-1.04356622453946,0.0747474796568393,0.155239640880579,-0.476552723989501,0.537513903387649,0.0878400814594797,-1.07228257710713,0.322381155084487,0.0111157250175269,1.80222227227031,-0.0864205605245897,-0.152924329042435
28.27,-0.439942202434658,0.205382159581119,0.881802140101909,-0.0826664678970635,-0.0417245993427229,-0.128770787628695,-0.95533585870103,-0.0502683653682742,-0.273600246043432,0.000560151229920722,0.477977079874788,-0.906075746294532,-1.04183700574611,0.0988519038042529,0.157133051825083,-0.539299750094909,0.545020543034004,0.0934700469167841,-1.07956324111532,0.328729543992746,0.0642830643729436,1.78500212955931,-0.133893346543453,-0.139151956362536
28.275,-0.424890644550821,0.199193959201455,0.907873203729183,-0.0720518504352457,-0.030150193887291,-0.128943771361883,-0.975046219792083,-0.061526711887199,-0.266147088250649,0.0234362166580769,0.479417646436104,-0.912385472266392,-1.03314660732385,0.103314988652967,0.171537361005354,-0.584443943849647,0.548519410944239,0.0949970833003352,-1.08599064957166,0.326612954144632,0.124332848086539,1.74520598349008,-0.185372585080773,-0.137042313814163
28.28,-0.403276173733614,0.218631474102514,0.928555126700812,-0.0454721914401804,-0.000341066603803073,-0.13611875474453,-0.997157491588321,-0.0571251860078602,-0.270986757187147,0.0451433635326786,0.462518041422134,-0.911096775065574,-1.02657235667142,0.0781002856383609,0.18511181626741,-0.627402444153933,0.538013071378876,0.133923751964215,-1.1072412279341,0.321360439435699,0.229295431747754,1.61574509746263,-0.298033461498337,-0.135478601740056
28.285,-0.375053046240896,0.307727825295015,0.935307197499562,-0.000909527912350461,0.0410569094067035,-0.133849216466378,-1.03043408359763,-0.0526346417342359,-0.273385146256905,0.106773525252875,0.428323103101121,-0.908251723114723,-1.01027379916371,0.0320703119907934,0.198856058958842,-0.683909392114356,0.513973208146483,0.187395814528791,-1.15465817864439,0.293396217728675,0.304000745906433,1.41606594018532,-0.444326757540098,-0.130482921264906
28.29,-0.387314232912929,0.34179022669792,0.927612195448446,-0.00253535403074961,0.0822585256052443,-0.141363830921671,-1.07851887999053,-0.0388209243902186,-0.273988800162093,0.172112190034084,0.392548749593879,-0.918102130902971,-0.992075385841187,-0.0242325535010096,0.210834109370809,-0.737242971400459,0.489320043003536,0.240838219946099,-1.23769690472286,0.248250528522095,0.306147223771083,1.13334580118368,-0.60632284760624,-0.1247137834845
28.295,-0.406269918118429,0.367413815794734,0.850414498759556,-0.0072259812327979,0.120539020833068,-0.153936073748526,-1.12100430979278,-0.0174772151395365,-0.280848851286212,0.21757168775514,0.36987628823709,-0.938009241724771,-0.96612658303158,-0.0929668399962671,0.215755557884563,-0.787103303984475,0.460690976865987,0.288080033129746,-1.35345777893115,0.188158152189455,0.212456506347305,0.927305326309391,-0.687791847015711,-0.118716895580292
28.3,-0.448760437327041,0.310126062896388,0.832266878071693,-0.0679834145506094,0.123434196456134,-0.177530395982554,-1.12363651163876,0.0336155029444941,-0.336146539665132,0.292873425251457,0.323036513877908,-0.961973969236384,-0.950448233166364,-0.163865966008026,0.202487124908243,-0.829264981612094,0.437360538166492,0.33214708611226,-1.50221502700184,0.124077251295137,0.03940139268883,0.942804622695473,-0.679705676917294,-0.123906606144708
28.305,-0.411827332135159,0.25693573541713,0.956035353106364,-0.0976278302720254,0.101511557968956,-0.195478742404712,-1.09626072045226,0.0777443528430995,-0.359309580556867,0.404832512215611,0.219483688423477,-0.947180821333674,-0.945611149078001,-0.20641401236438,0.176958176491662,-0.853081504747354,0.420104625145543,0.339898168868877,-1.7279126615436,0.00869486684764139,-0.219159028556773,1.26685193152727,-0.508556811730591,-0.0953668519003277
28.31,-0.391146605796095,0.119096731089629,0.909749712305599,-0.19578598957062,0.101209097180253,-0.263074709816738,-1.08967647078549,0.100920436048739,-0.28018372343788,0.568129980902748,0.112024594468064,-0.90645099239596,-0.954706667302665,-0.231526075421698,0.133940765945113,-0.833049783826474,0.414685699986057,0.329202728091371,-1.81951628175649,-0.0793541966107489,-0.38639081933277,1.56303627969189,-0.165874394654112,-0.0492703940677189
28.315,-0.383221317531429,0.352256361816622,0.83966554496999,-0.0957723138925731,0.119770992708203,-0.294173665447322,-1.07793870947507,0.0741800286185659,-0.189294128147245,0.775867566902945,-0.0227292367880309,-0.863236990896535,-0.982741623220262,-0.228134211290655,0.076566214991556,-0.721403065675883,0.417124896561538,0.29134322487818,-1.7668111586538,-0.182485775078991,-0.543036535323553,1.89475163736767,0.514121382820125,0.0400785769749038
28.32,-0.463665327632652,0.339303909703232,0.892883906380785,-0.137075982853546,0.129788196005676,-0.351097655250815,-1.04033105491775,-0.00187774237090952,-0.190270929975315,0.872983064776877,-0.0786690589043894,-0.859807769125171,-1.03057253963538,-0.197602153651751,0.00363496207350094,-0.55461078663959,0.420612215995789,0.261912221750076,-1.56831747433852,-0.294153507226845,-0.588538869516285,2.00791083399468,1.07084157850964,0.149037973912318
28.325,-0.458415407420064,-0.0230188767414723,0.754161475299129,-0.178232192651932,0.221063691160712,-0.415843071329386,-0.976935920206005,-0.0182279353147036,-0.312256460100314,0.844736856481769,-0.0458831463744506,-0.851128018157857,-1.07552638278961,-0.163947438625613,-0.039833281143302,-0.381840737561867,0.421331531104701,0.244531211991312,-1.36953665217378,-0.415974023180546,-0.58172764923285,1.90497508446,1.20924708492181,0.235675290615668
28.33,-0.484759836813066,0.0495358029685981,0.805922209532245,-0.000842076137949128,0.129481693290917,-0.426882028579712,-0.937104223326267,-0.0985408604168054,-0.429791217817898,0.776233464020982,0.00373210270350564,-0.851546836394973,-1.12351784063857,-0.115230332569121,-0.0873973433394469,-0.19410726837884,0.404321705277895,0.249845991266423,-1.20118384792784,-0.496024149408216,-0.547019158307472,1.69579132495695,0.95426645762457,0.262003615540814
28.335,-0.471793737265017,0.145511851879354,0.674174994819523,0.194916211823408,0.144201802550134,-0.444952081025983,-0.927747590595192,-0.16220521454676,-0.451480236506126,0.740584240219198,-0.0311186743782298,-0.866642108613797,-1.16989680577322,-0.0480133317672343,-0.155243195096234,-0.0358240978629474,0.363293906971676,0.309316525195178,-1.05854266745128,-0.52710659219367,-0.499341717177699,1.47597113175523,0.479283636351353,0.225907642969933
28.34,-0.535859933116171,0.313461777640803,1.04207491650758,0.329689289030179,0.143053630809778,-0.454407347349678,-0.933630282603271,-0.168216687585237,-0.492623290189548,0.570257176925807,0.0128224966732934,-0.86620389648636,-1.18069085588655,-0.00408531925762877,-0.198744086776525,-0.00851485790717349,0.324273224446239,0.375717755638558,-0.940600866358845,-0.508813562119681,-0.411152364693347,1.23668597835366,-0.140461745738796,0.116441301505269
28.345,-0.515992772253513,0.171545399012031,0.941698158995851,0.294845288813272,0.121839979252933,-0.574234100750865,-1.00514939874694,-0.129971198178705,-0.399328075783971,0.500888169630206,0.0740416372976773,-0.871013701519043,-1.18162920720391,0.0394069512805784,-0.261900874476582,-0.0670604467191793,0.287681118341239,0.451346352009027,-0.884918946292598,-0.46447575300265,-0.322918764251818,1.01433186530961,-0.699636330654988,-0.0481532609270185
28.35,-0.455007261417493,0.138728689026631,1.05780641276141,0.424331811554676,0.013275678451097,-0.726010213145612,-1.09384264747938,-0.0657845777067858,-0.353591484569789,0.54849629559764,0.0870370419072966,-0.863377084499976,-1.16838323581644,0.0659953774590726,-0.321710247289953,-0.197795655838069,0.260133290005287,0.454174955885984,-0.860131824050869,-0.416020107746704,-0.199420267642594,0.794307466336028,-0.968487813812225,-0.157156959031676
28.355,-0.406346094331056,0.354366541298523,0.826435387534489,0.637945805439494,0.00235102980561947,-0.82285726537078,-1.14677931917971,-0.0365218365543951,-0.303504199414311,0.642100889645416,0.0550285096113156,-0.859478030184794,-1.15917415392755,0.0825138836602062,-0.382809330896779,-0.375370650579136,0.245711036977655,0.398024374276673,-0.882908870238242,-0.350452730023185,-0.0482841818496585,0.635477494340184,-1.07691189791593,-0.223128367033469
28.36,-0.439667128545901,0.495464502954628,0.813345580591015,0.960762044720859,0.0760596590719613,-0.904756130621961,-1.18690106147727,-0.0511762623776345,-0.372873775212405,0.726113320068403,-0.0180812801117142,-0.825180359375621,-1.15589566301216,0.0949654929159013,-0.435288893833292,-0.54195380196302,0.241155150309266,0.31856837929656,-0.914669388800976,-0.269520534774908,0.0738760981603262,0.57333727750794,-0.966961894516412,-0.246021745379086
28.365,-0.54902973653927,0.616904129285884,0.838217087542794,1.05235425064245,0.215584570094065,-0.856631392095602,-1.20556865047433,-0.0757896263860614,-0.405281986049818,0.714573003702445,-0.031794064193855,-0.784264395553491,-1.17035721128589,0.105941032517214,-0.497766843851637,-0.757018963495564,0.237056381231916,0.242457221109116,-0.945221743131464,-0.06584355156206,0.153165766319898,0.815149237821004,-0.688591607694713,-0.276679708802454
28.37,-0.533998960080304,0.488674822158943,0.829305415611349,0.936258741142505,0.297124837813816,-0.935290706270672,-1.19251810163677,-0.0719132675687493,-0.431352305531267,0.772234930846197,-0.0809687548993847,-0.719345656113008,-1.19461390065019,0.102087887431833,-0.564256266460399,-1.04620339940481,0.225734142686754,0.176927423443425,-0.942489684426094,0.00626299523727829,0.191397084722317,1.21205608509452,-0.36594764326799,-0.379610808097077
28.375,-0.555493261230877,0.246814141045187,0.924610959495411,0.778578182896488,0.286863633823084,-1.1084679498921,-1.15924363188609,-0.0442851445868284,-0.429562528585565,0.838887501211376,-0.0704885391582703,-0.637650074583236,-1.22783478699302,0.086347751986392,-0.631693187738732,-1.36841888006996,0.222661998347519,0.162213373562869,-0.968750173054507,0.0109370698220179,0.196453169015395,1.43399112050965,-0.0732993148129436,-0.416701607125279
28.38,-0.607563239449386,0.135990489919865,0.919827085441806,0.800209394001631,0.191040871800143,-1.3357020073638,-1.14973116301009,-0.00864725239274989,-0.391806949372409,0.987997489513652,-0.0408473874935436,-0.56840340860071,-1.24839734881018,0.0653506014872906,-0.677342148823614,-1.61138183879726,0.229471893920313,0.173018980370756,-1.0139164471692,-0.0128749016747953,0.168039065931945,1.61205719759828,0.140961621767646,-0.386591578797429
28.385,-0.553729430575886,0.309076735491755,1.00187672719509,1.5766730548528,-0.0506787813610479,-1.41076009986267,-1.16146500557663,0.0119427698064314,-0.366008780893494,1.14785301571508,-0.0151499073635285,-0.500136263204743,-1.25887210170403,0.0377907198168543,-0.690238660064704,-1.79230154204594,0.252485068193001,0.205980249043543,-1.06929620606539,-0.0608051532591321,0.117078946525896,1.72346590942852,0.302869953340965,-0.329939133400563
28.39,-0.506737827184452,0.441097474330747,0.963121345729591,1.12476731088077,0.0570630277610093,-1.52956952973922,-1.19881881881031,0.00897300024892646,-0.402859975547385,1.31322252443224,0.024173077361066,-0.419534119853866,-1.26060553687944,0.0172224539928177,-0.680454020689131,-1.9166337528576,0.284261710865391,0.240948758541395,-1.10992862884276,-0.097257992236782,0.083682185670086,1.74024173792257,0.369682623434648,-0.272454937599273
28.395,-0.584931228407315,0.543639490585459,0.806523447832611,1.18857380392295,0.0586887098946653,-1.755749918022,-1.21448958621049,0.193432478962596,-0.425946064089356,1.47277622804203,0.021049483577427,-0.289149966093186,-1.26542682807179,-2.78407865442248e-05,-0.641999710118385,-2.05628197481898,0.342862317324444,0.286402655289327,-1.13329041669592,-0.117730961422142,0.0503589068833846,1.61963445611057,0.35936316798273,-0.220040773798192
28.4,-0.5627226280879,0.679691860247295,0.787069448549304,1.44011523234025,-0.0717137907705407,-2.31284947789167,-1.18977440627665,0.356405562465866,-0.368676826449181,1.73523450153624,0.0337355356274615,-0.161137061717986,-1.27722823934334,-0.00208394472979076,-0.577943330139808,-2.1318030613254,0.375577018052837,0.313164802395531,-1.1314147996425,-0.101591485117825,0.0313255059470152,1.4282731058493,0.242111889146151,-0.205960847236453
28.405,-0.667144584147484,0.792998808240812,0.867902436805805,1.5265171240595,-0.198046553040846,-2.49163320689117,-1.13091042887899,0.465406606233416,-0.395833797983519,2.12772657462475,-0.00857799018563124,0.000372695616634514,-1.29641166557888,-0.00218334744514539,-0.493272953538961,-2.2142414178301,0.436117308140841,0.337821007266253,-1.1054380928234,-0.0597918715008269,-0.000640878360092911,1.19714610297731,0.0503229465742202,-0.199904683827472
28.41,-0.767353856319418,0.599271011710352,0.872566557287851,1.43898949482292,-0.280663290431089,-2.59837718790566,-1.0800520210303,0.457710393517416,-0.42818938560737,2.31982190289636,0.0251691373255836,0.192338545318678,-1.3141031728562,-0.00274211987760838,-0.420823724175442,-2.25675379368145,0.477876712644746,0.352850919007959,-1.07122516313751,-0.0113851768020086,-0.0552523217186274,1.0278438450192,-0.136033295703944,-0.193374904150078
28.415,-0.789037888257374,0.627527956575724,0.74904796854198,1.63822047938268,-0.41583813191245,-2.52243595177471,-1.05368380435255,0.365048165266074,-0.443568231521087,2.3713516093251,0.0835988391764448,0.356816907401473,-1.33764519778992,-0.000863696154508213,-0.331645309480434,-2.25607066111919,0.527479213684186,0.369512388640445,-1.03462543178163,0.033543950219289,-0.12984154474746,0.956240893530399,-0.256872211732722,-0.189575165510178
28.42,-0.818953375652881,1.16668013520365,0.606253663655972,2.39808528753876,-0.522802312761304,-2.37727773600512,-1.03483266513307,0.25707568435979,-0.524152125786446,2.43347345347175,0.16133056378776,0.533106255731721,-1.36311208175365,0.00951125669127631,-0.243040364339266,-2.21906240176901,0.577169971390535,0.419055516157742,-1.01532877844671,0.083014807227853,-0.204719825858784,0.979828780507821,-0.331850245410022,-0.18747505537982
28.425,-0.878081209195895,1.42094227095184,0.62911371457732,2.48990607994185,-0.541061813068731,-2.36570911215169,-1.00439109894966,0.281979385715508,-0.58188877417342,2.52217687361916,0.222773146133005,0.647527482222556,-1.38194251758612,0.0253519290036182,-0.163846021229557,-2.16353934126625,0.624460623825153,0.497948378193193,-1.00823958734706,0.137607454804516,-0.27286548228421,1.04613009694852,-0.358723329423033,-0.182246183467684
28.43,-0.801486755241851,1.10239365919146,0.70433076033314,1.79582644822478,-0.522694033333667,-2.51193540278253,-0.970464621602719,0.344165138221403,-0.539184295388016,2.6034529960294,0.26403059152477,0.723767726735025,-1.38595975306267,0.0446724730486795,-0.111486946633216,-2.12487632226775,0.658429857733121,0.580953737126066,-1.00675938068644,0.146537552776919,-0.321366918102823,1.11959763165984,-0.318230631209173,-0.184516255470484
28.435,-0.794199522958303,0.624094570557803,0.73377413426261,1.37959111725364,-0.633361398115758,-2.62173827489432,-0.914266489040982,0.37345866680523,-0.474440207752836,2.78567092674651,0.290080336721694,0.789950465638942,-1.38044143111475,0.0734788120619373,-0.0678445991242792,-2.08208876132654,0.685272048275149,0.682653755640422,-1.00851089184559,0.126449423996702,-0.327962199400355,1.15284767807267,-0.260253462025091,-0.194172296169366
28.44,-0.842620545556667,0.405509528295749,0.738446952814368,1.42131023633068,-0.78865542761445,-2.63778785922604,-0.899784355201007,0.328307931630731,-0.473412978941305,2.98809450138244,0.311374857925848,0.851552398578672,-1.36183262316287,0.10847653045158,-0.0390268048421957,-2.03677820828824,0.693638689739824,0.738455634270306,-1.00684760255448,0.0911053748966719,-0.311852609276175,1.1708372183941,-0.182125108941369,-0.197665916605057
28.445,-0.787571284319739,0.417034832765667,0.722056482075626,1.45150822851893,-0.903740917835035,-2.68259172431001,-0.884545799401283,0.260528410807368,-0.477656749523666,3.10134986777561,0.343172959883147,0.916241197996969,-1.33241025141931,0.14734157822956,-0.0210501415217197,-1.95643650756267,0.689963254157017,0.7672740091167,-1.00785391288015,0.0591834279555881,-0.288922569322369,1.1642278153774,-0.0971518469761617,-0.186820461844443
28.45,-0.657270691316632,0.346604179708275,0.66289155142302,1.40224930580622,-1.00500782092589,-2.88700910801297,-0.874972780695585,0.193398912748754,-0.465259646549326,3.07991554768517,0.379827880788632,0.970544755202164,-1.30022002342906,0.178932948205555,-0.01253915973211,-1.83036796048066,0.658977945449604,0.769157108939736,-1.00208950313271,0.0258919279784648,-0.27173403142192,1.13463454995774,-0.0173428110150826,-0.176569006827751
28.455,-0.60524830183029,0.225360601621613,0.617855858808819,1.46426117723731,-1.0419185476303,-3.07569168186182,-0.868657165921839,0.113527532522273,-0.432936825946944,3.05770740668054,0.442261309441515,1.04707695043198,-1.25804796445167,0.19558107057748,-0.00816636371678339,-1.67139326801172,0.593639285051903,0.7606551221916,-0.994976148916887,-0.0196469705948402,-0.243435902772106,1.05878977376939,0.0551204231101249,-0.170920441989348
28.46,-0.631317507959614,0.190644095715941,0.654536430103843,1.53104960918427,-1.08497251916544,-3.26405683921764,-0.871873468292942,0.0434122591205861,-0.393078731142368,3.12396150473356,0.478959440918395,1.08625577510165,-1.20666810644648,0.187845378062194,0.000312685133292874,-1.45925647090741,0.492932894697167,0.749952293048422,-0.987603895649104,-0.0662845839795348,-0.228684169270501,0.942272142192372,0.0871921960221626,-0.179241436392913
28.465,-0.649467528148556,0.191656215841902,0.675374779915327,1.52674434183646,-1.1306427655124,-3.39556247245953,-0.864931373809831,-0.0110061759409451,-0.371805886591862,3.23911220850142,0.470760389257849,1.12260526780533,-1.15434623563447,0.171131231799176,0.00459019109480227,-1.2195942572339,0.400232755167925,0.758794056757064,-1.00675650019554,-0.103956132485746,-0.223906617584644,0.804766710240154,0.0488383746895339,-0.220587107789296
28.47,-0.641684538646401,0.217299537141465,0.661697154325139,1.5085612699474,-1.18210228499283,-3.53097637917623,-0.83987762778244,-0.054184270663261,-0.370030746589839,3.36877630542564,0.456667645352974,1.1557383137566,-1.07496287505231,0.157457153237728,0.012596366012392,-0.904316346019373,0.236807258639947,0.784648995985967,-0.992288882429365,-0.128725673531185,-0.210594980464231,0.718839635607202,-0.0434038714180171,-0.357442893532066
28.475,-0.623092231619652,0.225041353550157,0.62095470583579,1.51587063700264,-1.20383049087598,-3.60190388770543,-0.807390886974055,-0.104260132463521,-0.35851239099718,3.52693936201832,0.430288581798713,1.19038197125537,-0.979996299383777,0.152785292620764,0.0161096059148911,-0.702283133910096,0.11979858187591,0.792109124791924,-0.997174542465104,-0.148395752238484,-0.198724255931842,0.595113648703189,-0.16199807441034,-0.318633315001957
28.48,-0.59348737016093,0.225059731529297,0.590689340340358,1.52371479537813,-1.20405842854291,-3.66746418427929,-0.78376024865635,-0.146317111768102,-0.34897713756405,3.62977166407161,0.426110906692602,1.2248948667456,-0.891637902884639,0.152242770354943,0.0140737310559322,-0.519388304765397,-0.00473009236576072,0.787260889149504,-1.01404751498677,-0.174426880239738,-0.181778120564405,0.44367357609688,-0.225152347239031,-0.222123501218448
28.485,-0.574221045658032,0.235161862609579,0.579649805396874,1.53594860771231,-1.18980637744884,-3.71127552936905,-0.778915496461646,-0.148809403100908,-0.336123184223752,3.72133170439257,0.447297007741882,1.25465091930317,-0.811209890328848,0.149726462947702,0.00349062007043147,-0.435163410745621,-0.120965540763949,0.75244099375911,-1.00849531342412,-0.201825529161004,-0.129437241827463,0.39149818841802,-0.189607425831834,-0.199029402300165
28.49,-0.578109420126439,0.26062846785302,0.593693351278744,1.56395079350059,-1.15522728584554,-3.72768092951281,-0.780902406529055,-0.135571317516954,-0.318146963076923,3.78094781136447,0.470221198418358,1.28302397823474,-0.739712459563466,0.14125036913786,0.00119181260060612,-0.401357639024547,-0.204986642551047,0.703791405997455,-0.999860801857254,-0.231652917328927,-0.0817274604537291,0.392866619970837,-0.0816249144074936,-0.181836293933687
28.495,-0.561835034596724,0.302961980550322,0.634638822680854,1.5901715506552,-1.13280962518744,-3.71008240780565,-0.782797142070795,-0.127886513908163,-0.301124397175155,3.81251683623534,0.471251727856758,1.3072726819274,-0.69228555035061,0.120678844632519,-0.013735216183664,-0.461792902861235,-0.284908856204881,0.655162566512482,-0.981524941760029,-0.263743718218615,-0.0452821432296049,0.500866637612043,0.0988691620274731,-0.189545022479368
28.5,-0.523027444748024,0.342538294415317,0.632356532560303,1.62072373016412,-1.10416171739249,-3.67103401232134,-0.778226453859132,-0.131250887193378,-0.286787304910186,3.81156520765562,0.483147101565332,1.32438729756531,-0.640935069046052,0.0861869483112134,-0.0292662513302815,-0.665050066262569,-0.353531949180369,0.591375928935344,-0.970264341180818,-0.274999278089417,-0.0238304648867791,0.610056570122214,0.231242352739336,-0.220836566840967
28.505,-0.481920009317236,0.389106376895245,0.612841450853086,1.62604140216903,-1.0592565103158,-3.59507475247922,-0.806413992259008,-0.138652096282,-0.266827337864766,3.77500406277697,0.495030929402833,1.3421329688404,-0.604623276068821,0.0415808836588886,-0.00997562437055249,-0.928981239045117,-0.375066846196261,0.544045876280949,-0.949434952968433,-0.282319523007471,-0.0132336327593393,0.728221712724525,0.387355532373277,-0.210485772510721
28.51,-0.47904685471365,0.411861295871341,0.593683976312048,1.60410977872726,-1.00344431879049,-3.49300125101939,-0.82881621113608,-0.130876248707724,-0.240673250022087,3.74844439874583,0.49084273163227,1.35013581346329,-0.584167582481148,-0.00804402329577213,-0.00538073936949833,-1.0387767218945,-0.356954844514031,0.490336855519929,-0.932012934443712,-0.269078214748545,-0.0149722543556005,0.814146767220745,0.477798046055898,-0.205968358892584
28.515,-0.418694112006054,0.440345385476685,0.573918833834035,1.59255013965688,-0.933702765767939,-3.35883496307751,-0.832880964834842,-0.110896383362287,-0.207895396748609,3.68215540120151,0.470592617710071,1.34198702251016,-0.564482999384581,-0.0710657010217463,-0.0322758375075235,-1.09108489487715,-0.325832269697108,0.42197171078472,-0.907592757220041,-0.251329937103999,-0.023028678832911,0.883958793013491,0.507075267035353,-0.239400454731174
28.52,-0.351250744313174,0.474361338881064,0.575321593130888,1.57100564071668,-0.86261098169564,-3.23541185000143,-0.825091236736074,-0.0886573693222393,-0.194054045110432,3.59487823706785,0.454794602574377,1.32263762447736,-0.559677967809321,-0.121304526152943,-0.0583576190606157,-1.19336541066348,-0.264092182507723,0.347945890528202,-0.883043029683153,-0.226622708408101,-0.0301434871610535,0.914679054464657,0.469209194387916,-0.313479424329758
28.525,-0.332894408480664,0.486625287920442,0.584055226783192,1.54129345160551,-0.777498626346236,-3.079371588161,-0.83485483748681,-0.0679698648367868,-0.17502165441627,3.43751181602205,0.439563064200999,1.3174347593054,-0.568716900719901,-0.147949725687272,-0.0773629401128775,-1.30017766959175,-0.188289885235687,0.261116859118516,-0.853726785470063,-0.200423885129218,-0.0324429944156749,0.880219776508167,0.362963801308664,-0.399092034244198
28.53,-0.286747989827104,0.439697118528107,0.596166318449916,1.54793644285053,-0.703292987973136,-2.90463143060301,-0.824892632538164,-0.0529764505872409,-0.143329167682493,3.27888370147699,0.406460858044069,1.30256853396531,-0.58701037440345,-0.14483995956456,-0.103192304699517,-1.40136073980911,-0.0849572841060849,0.164194929404166,-0.844347511072557,-0.164560064793555,-0.0379315623822385,0.823890737357956,0.228961344685995,-0.437312289193177
28.535,-0.223769642541947,0.416455295050434,0.624436281906932,1.57930659653334,-0.635388990358055,-2.74586160695065,-0.795722270377965,-0.0532300036991514,-0.121955360127843,3.12555795201947,0.3778731058777,1.29436205246188,-0.617868612636037,-0.123424046072622,-0.129052333516946,-1.48291302016546,0.0205546052971173,0.0708778397133233,-0.843567522122352,-0.130665193572605,-0.0327303219074814,0.778019766651783,0.0947256480923525,-0.448329378860416
28.54,-0.185577464726673,0.39802848606384,0.663333826044248,1.62870063601741,-0.575250960070338,-2.57269556056632,-0.780683086769547,-0.060727146288381,-0.11724238107013,2.9284482939881,0.347783043966752,1.2809243411188,-0.658436681190698,-0.0804614797828719,-0.147874982250994,-1.57653094908972,0.146478628426244,-0.0132915842197626,-0.842708858902832,-0.0941747373039047,-0.0259926648238747,0.740572123356782,-0.0391535751896989,-0.436934842977982
28.545,-0.159571591005087,0.388972692750059,0.705578762338806,1.6554818417517,-0.539981389060146,-2.42034121132744,-0.772531959978599,-0.0669213772922313,-0.0936351213327759,2.78977427026835,0.317019239362302,1.27000486213134,-0.695080293089283,-0.0438684900452162,-0.154259933674955,-1.67064164605594,0.255535170006566,-0.0415634467701742,-0.849414947000451,-0.0596610628209288,-0.0146312856526594,0.710214931200704,-0.161881445199305,-0.417014249410561
28.55,-0.13226464905761,0.357457665683035,0.742239039750388,1.67997284713712,-0.52400864402885,-2.26639643062003,-0.761659594208929,-0.0828831719454164,-0.0660187532199857,2.68242030353373,0.275262804804619,1.2602223618389,-0.733201180122198,-0.00773418628942623,-0.152539185558846,-1.74811576891991,0.363448501237622,-0.0274852751006268,-0.856245352721857,-0.0412083626702787,-0.00641448186383743,0.685712958179029,-0.229999588901129,-0.394870019109104
28.555,-0.0984820207769182,0.296002247461057,0.74812586311818,1.68706719181431,-0.51989103665333,-2.15392528979668,-0.749600169978271,-0.130237309797172,-0.00223166194453843,2.53919415115231,0.232495904452917,1.24913607649935,-0.77734696629198,0.0314116631044318,-0.131819523114151,-1.77366873979359,0.480059187613204,1.16689340974073e-05,-0.860657371406279,-0.0397318668387893,0.00196473104393937,0.664620042777896,-0.271555413190254,-0.382864842028431
28.56,-0.0125792712504853,0.189343096587457,0.770058163705773,1.70322508954996,-0.494010839872694,-2.02791747144579,-0.747044336054615,-0.199437103222311,0.0089071184949599,2.37351327320133,0.207296884236019,1.24892422391881,-0.804160889340012,0.0618882360201009,-0.113002510558173,-1.76008655480699,0.571110646149436,0.0159290718878494,-0.881961030729705,-0.0353387195533154,0.00260745349414095,0.649921244859022,-0.278125762939453,-0.373465841884633
28.565,0.0300737106606405,0.136935660815979,0.816596089196245,1.72090599297262,-0.481506161020046,-1.86690411968295,-0.757849821796332,-0.264131070530329,0.00851360632141041,2.15057565340083,0.115984634528577,1.24143430950171,-0.838343956377068,0.10630673159538,-0.0773914452521332,-1.71111525503194,0.669170581990197,0.0337604135274887,-0.90166769936577,-0.0346053483527475,0.00387872646248991,0.63270179309773,-0.272528004622943,-0.356747007189002
28.57,0.053942123265661,0.148391519920913,0.867388313940692,1.6542628348097,-0.47697183620529,-1.70099304017639,-0.758180076722933,-0.304023552358971,0.0413602682555855,2.06951929541088,0.0268944954199728,1.2005689809406,-0.860439755073757,0.132623076377843,-0.0490408185134555,-1.69861031564616,0.724989737647229,0.0354963748113594,-0.923988999136571,-0.040834744048494,-0.00106554284290604,0.605291011401314,-0.259569770741158,-0.334851359195047
28.575,0.0791961582594261,0.146341987435772,0.915832561891463,1.52660052596269,-0.469493391726793,-1.5705992442071,-0.762819726627251,-0.345446925313119,0.0675256407201545,2.00245725645527,-0.0592578416718378,1.13054696136905,-0.88184485479089,0.150038382517011,-0.000314221664671099,-1.67729639962616,0.762034804004948,0.0404702643805096,-0.940166331112454,-0.0513928099029987,-0.00934663147446834,0.592738221188576,-0.235551287264035,-0.309410287638699
28.58,0.0868814546359722,0.0805101946834533,0.961332486603554,1.35829952443785,-0.466168182838007,-1.45865045757264,-0.771114385662907,-0.373801087736587,0.0849667468838063,1.89863278517412,-0.139528982745699,1.05310772396093,-0.890561017744006,0.15124611684056,0.0466084183098798,-1.61293627822995,0.767783183233429,0.0408231643817931,-0.959563634274134,-0.0729729309172558,-0.015995217361221,0.594750204358084,-0.205494174143121,-0.269218537214596
28.585,0.0969351272113354,0.0228908179046755,0.964262740854793,1.1923807869021,-0.477958415809342,-1.3574227504179,-0.77660238919255,-0.393323329347978,0.0995177844799799,1.78918617380068,-0.246379006821977,0.967479963401199,-0.8933579926631,0.134449045809162,0.097136686035627,-1.47864513435001,0.754500293893524,0.0195520982574575,-0.978058753118771,-0.0897753709982437,-0.025452716884687,0.601046985530258,-0.178941320282944,-0.220490195396662
28.59,0.116231425924824,0.0179467806893548,0.939318301545675,1.03978154167186,-0.479358102698765,-1.24255524845422,-0.789144263131805,-0.402508127173727,0.114824459084979,1.66219320494222,-0.365717022377842,0.877359289614869,-0.879166779130988,0.0967068635567164,0.147329798008629,-1.32396657345524,0.724690178788588,-0.0374998008749417,-0.995492930562541,-0.107429881647352,-0.0312174806941078,0.60278258442533,-0.166704932355179,-0.166638188266223
28.595,0.129272265206122,0.0366538678651366,0.901086772537976,0.92981897229812,-0.460381771037377,-1.17598509577245,-0.805990741555407,-0.397373890460458,0.11291754415087,1.56320540045996,-0.446466869260945,0.817075104848599,-0.85660354601312,0.0706193798568105,0.174484120125788,-1.24786830021998,0.66785996655895,-0.120216963717913,-1.0191620717421,-0.123078740139505,-0.0433957473051332,0.596935033867935,-0.160077333520035,-0.0968546952891744
28.6,0.112104301308757,0.072538864638285,0.893355958626197,0.680667502961294,-0.39725562657833,-1.06126185143412,-0.837108419881589,-0.377881565936027,0.118901038687952,1.39838156220179,-0.564672535016086,0.734455384959408,-0.794608802606642,0.0349621792081516,0.204312846913372,-1.26772111704071,0.595389758413808,-0.229298531039927,-1.04659111450721,-0.143459836214689,-0.0482830617182073,0.602121280499695,-0.189986666644808,-0.0239878356427072
28.605,0.0833341515465533,0.0866627008783208,0.938682686383094,0.517566467265139,-0.359949847352298,-0.978040682856441,-0.86630701172271,-0.367135747793847,0.0886805224466794,1.26363905750204,-0.666429264866955,0.693784585335231,-0.74453023702201,0.017846668418707,0.211371511649708,-1.31582727227588,0.515281113051372,-0.322567269495918,-1.06238862978787,-0.149463309652801,-0.0462062022146242,0.602587580680847,-0.240920204370765,0.0245247319639634
28.61,0.0258997829448348,0.079661356781084,1.01392576218037,0.443856211777109,-0.342208519695617,-0.914348490170561,-0.879937759214049,-0.349537508915621,0.0674243317427236,1.14720423326815,-0.779841650214468,0.673449302931815,-0.69976965925877,0.0110941127879737,0.220604097573591,-1.36631292125632,0.428825405984379,-0.434519944587228,-1.08562444471451,-0.151912352261554,-0.0487841903926257,0.605118304882333,-0.299360981124068,0.059040137156148
28.615,-0.0748801800036394,0.0709715860033293,1.11184359928916,0.483592552020965,-0.378867226381476,-0.820775680318363,-0.885996824658629,-0.335712903116407,0.0396757308883841,1.10484898635409,-0.852563460222088,0.655921747340073,-0.669486873367158,0.0152641814742011,0.22331866564296,-1.41086089082597,0.347840039648657,-0.55804339883352,-1.09112753039206,-0.149090076921957,-0.0388651374460731,0.606252670288086,-0.368438584831547,0.0837169362121382
28.62,-0.115725028734552,0.0691466436896322,1.11339456513065,0.573893688836373,-0.427777815516426,-0.686084286174006,-0.894516827263105,-0.32054806013274,0.0157996455310126,1.09139014784293,-0.892761699538164,0.641001892562271,-0.663295667024749,0.0208018409728262,0.207625218411547,-1.41113730321816,0.251754734641863,-0.717340476757597,-1.09613575021137,-0.142211583684448,-0.0338330300971122,0.624764281967676,-0.448804801586271,0.107855261596577
28.625,-0.135291877669398,0.0997078776020998,1.07374544613967,0.68907056697902,-0.465557575050213,-0.598508886557058,-0.916674063848654,-0.299301414207334,-0.0212872606492738,1.03404470054009,-0.951347209630047,0.646911370723922,-0.669602303643657,0.0252391522356372,0.178289908066448,-1.38200166495893,0.175541877656091,-0.846470384883151,-1.09479132038517,-0.133180284726277,-0.0270162896571913,0.627345088961431,-0.517030261585401,0.11147679096917
28.63,-0.175688178812851,0.135318935411075,1.0743636568777,0.787486281197677,-0.507945642150282,-0.508060347716934,-0.934800396325885,-0.274103569156026,-0.0253979993048229,1.00711210927523,-1.01391145876372,0.656622207550638,-0.683060249863265,0.021385576390686,0.140695176560544,-1.34053320647261,0.0938425017805937,-0.987762426051661,-1.07748939184036,-0.130134878705237,-0.021481573066689,0.640034732728978,-0.570886160287219,0.112996449255778
28.635,-0.220539403625297,0.156867713384448,1.08948749721903,0.830075161737246,-0.543210452565945,-0.442113517900878,-0.951211010878515,-0.257364398347165,-0.0382590164090278,0.974919785410672,-1.07185516362602,0.666639440383095,-0.698438310445402,0.0165890855314105,0.114809070631512,-1.30181089143929,0.050486836839451,-1.08002802921505,-1.06453868097965,-0.122711385854761,-0.0118711179421586,0.651747934062885,-0.605798220517265,0.104870344181946
28.64,-0.275936437179951,0.192419561191555,1.07344026728147,0.875047881779731,-0.580857802790765,-0.388321133714753,-0.969415543318237,-0.225865391377465,-0.0765199262121126,0.908723011874426,-1.11328615590553,0.674520585645707,-0.724398092098071,0.0109828291907761,0.0598785966848984,-1.23891751584364,0.0530040857068491,-1.22378788468796,-1.04756600029633,-0.115805726543,-0.0147648094497209,0.63802377567006,-0.633025388468971,0.0920298272470707
28.645,-0.287037795504496,0.203963310175531,1.02362168978572,0.881671605992774,-0.612191224822028,-0.330715229678258,-0.990556837927188,-0.212092072363894,-0.0857600108712896,0.855890213549993,-1.14658222645939,0.674118349394351,-0.746348352174433,-0.000199749580283834,0.0471768437440398,-1.19799664020946,0.140531040251828,-1.33444201268694,-1.02382866970289,-0.110893293944025,-0.00743968622871942,0.605975000010966,-0.639473670990719,0.0702332290419942
28.65,-0.272093041115316,0.204980096847561,0.93603859933138,0.868424350349666,-0.601914052388534,-0.284005716292507,-1.01027392989838,-0.192486864319872,-0.0848866449486733,0.796589314746914,-1.18184707752217,0.680879094652735,-0.788435432860129,-0.00611832849420096,0.0149038082608395,-1.17560083104034,-0.0296042080342999,-1.47151598634834,-1.00639502767001,-0.0975990915241551,-0.0115023315162979,0.578924570633486,-0.621871481244034,0.0512268212510577
28.655,-0.24542234287642,0.188985216171566,0.833134765721205,0.850987858707056,-0.548097515494707,-0.262290994786806,-1.03230004947619,-0.180589598292419,-0.0813259785528549,0.735958523273594,-1.20496821044139,0.679816629132367,-0.838607315159592,-0.00720193036088809,-0.0274779605587766,-1.07490438698156,-0.0163139890476327,-1.59622902855156,-0.9835383957252,-0.085064233306252,-0.0140557076235046,0.512476234077401,-0.59736047677273,0.0338691860384283
28.66,-0.23768824589585,0.184426648493642,0.82030418578258,0.853175602228838,-0.471578185035033,-0.25191593069812,-1.04964596082328,-0.163901801327356,-0.0906916727088781,0.663022946505608,-1.21019918523627,0.670566213661816,-0.904370117699228,-0.00956125928523912,-0.0555874829176177,-0.98070459538101,0.0179942719709323,-1.68147236960275,-0.958642347080219,-0.0805481092024667,-0.00951786383912145,0.475326155197218,-0.568886125676167,0.0154650422285759
28.665,-0.284891226624848,0.253307147165732,0.801982080699149,0.823468503091876,-0.363663401881525,-0.274481273699846,-1.06048086206844,-0.157565847898402,-0.109059951707442,0.593642541243612,-1.20891030356141,0.658014666364235,-0.989488368870465,-0.00470135175608514,-0.0911739141499854,-0.903223135516444,0.0809961458916971,-1.75451873890349,-0.947329317437257,-0.0684620459388606,-0.0137882428031323,0.456258633367207,-0.534378101433356,0.00515711248100689
28.67,-0.419481692606971,0.339332661443627,0.959030398156214,0.583637409366762,-0.289352987175895,-0.398135508653721,-1.05970780208895,-0.14473677874464,-0.132076224053978,0.535043336589376,-1.199534296235,0.628433764397213,-1.06261069109907,-0.00154602643716738,-0.122526358192892,-0.830646167405401,0.147745673976063,-1.78049644156702,-0.940457142425121,-0.0693548335362066,-0.0147430878126113,0.447811937750505,-0.506926712704314,-0.00404361859025993
28.675,-0.566398058843603,0.146276067210408,1.07855607326647,-0.0578965800061161,-0.275279737944946,-0.636986134107835,-1.04883642062228,-0.150050905061531,-0.152969950421697,0.466553975814331,-1.18039452071449,0.59841314428523,-1.14840833061308,-0.0028745761222329,-0.161024898934222,-0.750635881901287,0.236271753839715,-1.78062673830663,-0.943596320388806,-0.0652948063625877,-0.0164378289541639,0.457816994089,-0.482012636753905,-0.00747483550924879
28.68,-0.681942223522479,-0.280205389527212,1.15895953088353,-0.917518364646614,-0.299117133859966,-0.965560715378664,-1.04507974798359,-0.202878652584315,-0.154762036591795,0.303588400970312,-1.14822354906359,0.559082997870703,-1.20640832911786,-0.00622710492255857,-0.188523998097851,-0.696290900852245,0.313005730779595,-1.75088427443764,-0.946967690357795,-0.0643123654906562,-0.0165594119120101,0.453990678747715,-0.470724794212786,-0.00503487167553486
28.685,-0.708062572466618,-0.67890349785826,1.15839792970545,-1.49959530979375,-0.376938895078133,-1.15528504630318,-1.04988211008231,-0.325899540272725,-0.141490835750675,0.195046612244468,-1.10592103686429,0.49362680204303,-1.25052879215006,-0.00259900246963799,-0.210575964597558,-0.609639831404354,0.381934963678375,-1.68124235085263,-0.955038821846981,-0.0695573073603814,-0.0153722012382214,0.422185306470317,-0.465058027784765,0.00257435490184258
28.69,-0.627073521250051,-0.803358578309673,1.06440673806367,-1.78301560254675,-0.447098935185456,-1.13065328074942,-1.07198970449001,-0.50111495160025,-0.166399156914876,0.0279442267046165,-1.04730382685963,0.376901357312973,-1.27602410818934,0.0114464260020703,-0.223156989640592,-0.49948115905996,0.434687940002556,-1.5847648423145,-0.969002774766574,-0.078002109781046,-0.0111939077907061,0.370038096743044,-0.46270807982755,0.0123238007704528
28.695,-0.60287005473616,-0.410130111956415,1.02971635893144,-1.74763623021278,-0.476303159050966,-1.00145083833988,-1.08336648669387,-0.584195051229466,-0.180959194636518,-0.119196979532017,-0.981542703320786,0.24474818602405,-1.27323755355002,0.0353130518972473,-0.2246340275856,-0.370299454063689,0.455721151987181,-1.47026374213326,-0.983656478858295,-0.0877040539510257,-0.00612361803392969,0.298871157524087,-0.470167603769971,0.0230711643667177
28.7,-0.647175997665405,-0.00715844974668913,1.10398390297773,-1.80688025190519,-0.480193736164229,-0.880224803476057,-1.12783474820042,-0.619648989193932,-0.148750824247018,-0.180825211680623,-0.929445337791223,0.124719339207186,-1.26243452294449,0.0617759899459694,-0.22048467296388,-0.274884379744494,0.456215903632078,-1.38881625564416,-0.997101489328561,-0.0900864432467599,0.00149106486001958,0.25378802453883,-0.486601705700435,0.0252512518695478
28.705,-0.587628020575145,0.400724121255321,1.23271616239102,-2.09075155120707,-0.589808241486093,-0.681459942123389,-1.16732476732681,-0.562552507027591,-0.117224989324504,-0.226417547759731,-0.84371198483543,-0.0136316334361424,-1.24394816356173,0.116602267679088,-0.212851196741821,-0.145985108131079,0.429315771817814,-1.28084371049906,-1.01387866708631,-0.0958589010691214,0.0180722010070971,0.177543664987021,-0.509769998098759,0.0229996778070927
28.71,-0.433457778771451,0.514903880944712,1.2281599851961,-2.0978510161322,-0.583763448842615,-0.66722905328631,-1.20920036313253,-0.4328501355636,-0.0410533298750459,-0.187981139339997,-0.810510161851895,-0.0504066064844689,-1.2324647347798,0.166361743491517,-0.203196958455916,-0.0477349205922543,0.399455311664919,-1.19119947176831,-1.02958137318926,-0.111129310382891,0.0267159753748037,0.137327718030306,-0.537305039975738,0.0218294194069733
28.715,-0.430689480002986,0.303112539987312,1.17536003341483,-1.55394664949801,-0.559838137604156,-0.531479139122988,-1.21654325395576,-0.288553028272369,0.0245007996567959,-0.0383852707254947,-0.823579781015461,-0.0390957570584904,-1.22190235644767,0.230827395834171,-0.195470527620166,0.0391309231695807,0.345464304436071,-1.0849616049192,-1.04576628782649,-0.118907925500187,0.0302954078226439,0.103775657294934,-0.569035098419701,0.0118598995713929
28.72,-0.413142526567636,0.269117858999201,1.09659957983747,-0.810623467442724,-0.498095613041924,-0.343345702785293,-1.20220951423115,-0.125022563595842,0.0931417972019626,0.170190067414137,-0.89527248513674,0.00766528738228779,-1.22198080637592,0.279178947859796,-0.187708475623771,0.101549208414869,0.291136320122816,-0.971013355182758,-1.06053979317848,-0.129227250505491,0.0291972960292373,0.0823559948266749,-0.61000611613965,-0.00727233239570901
28.725,-0.32403697219571,0.276327065402952,0.95767664706893,-0.564150363848071,-0.378201030998962,-0.251112371236839,-1.1806576239043,-0.0322643623808029,0.115527225856049,0.311098608041268,-0.932105309158567,0.0520450552900709,-1.22490514746677,0.321090466699969,-0.183823157479175,0.144335805903867,0.230147744565438,-0.853220269302703,-1.07266450001382,-0.131559218701523,0.0295881923382242,0.0735938549041748,-0.646812286137957,-0.0235369466539061
28.73,-0.292145888224194,0.202974180535066,0.959348563537944,-0.54545210227737,-0.212768053737125,-0.240856409572248,-1.14895411053952,0.0227660985975176,0.095570484543573,0.335315212574225,-0.90484020817208,0.134783490558383,-1.23099398833667,0.352119077891824,-0.176356674869987,0.160412629075493,0.175654173368755,-0.712344684247015,-1.08771496707069,-0.13989063674609,0.0233407312908096,0.0667698917409582,-0.69122399788782,-0.0407377270120773
28.735,-0.402137966899517,0.177780059670595,1.02739842710616,-0.480107979368398,-0.119101887789312,-0.263486919369684,-1.12556479254254,0.00871095738371771,0.0567879865905498,0.275520515869491,-0.823774236021605,0.215104437569042,-1.24403600551051,0.354133008736084,-0.17618024539051,0.158314068150349,0.129715463817173,-0.599896792015128,-1.09701421897633,-0.146646361280581,0.0175918275220213,0.0658263030227927,-0.74862919479503,-0.0606789123341967
28.74,-0.529494597286268,0.118449741088188,1.02127977817544,-0.379623252274716,-0.0533906840564615,-0.225934912198032,-1.10788268712464,-0.0269908091936319,0.0183077963923606,0.227570790121855,-0.759434145509301,0.253350147838967,-1.26285897818478,0.334579397223219,-0.183645235625178,0.0632183853217648,0.082373742011529,-0.527765088542184,-1.10094984029537,-0.146800680949138,0.0027887584701638,0.0593908758327839,-0.791470341187816,-0.0660315793659376
28.745,-0.579025326822843,0.0722072928290332,0.989383632586837,-0.279858489574349,-0.00545920415491799,-0.168022016653117,-1.07813894171404,-0.0929031146042451,-0.0242595522430417,0.154378115678073,-0.710068265114086,0.267375856456852,-1.27442706593488,0.304520706367286,-0.191532460767477,-0.0404014891521349,0.0533192848024056,-0.489400217080683,-1.1046498840141,-0.148721030058365,-0.000492754660911995,0.0634838913346647,-0.825675066035183,-0.0679191937042546
28.75,-0.567086849328884,0.0985470242536138,0.969931444027557,-0.0965727207003568,-0.00523009791294789,-0.118642161481323,-1.05572858673785,-0.129537316247971,-0.0447971781056248,0.112644269381439,-0.656598065347045,0.240795484432002,-1.28758260950786,0.278805289937345,-0.200210364803644,-0.141023343270168,0.0331104713756957,-0.457756001805171,-1.10224415888176,-0.149695736776579,-0.00959248826854253,0.0721591544206877,-0.856328396029876,-0.0610556811800641
28.755,-0.52766385237515,0.135632566836628,0.970306872135751,0.0685658037676457,0.0181848356120065,-0.0803013167696615,-1.05167331980764,-0.157590910795285,-0.0656441229181647,0.0964589683258744,-0.606312898672568,0.193476690122911,-1.29182839381687,0.259519617235978,-0.20927882875714,-0.242899510449687,0.0178324345296272,-0.41302761424849,-1.1007065993735,-0.14482913784428,-0.0146378662899414,0.0909520166632124,-0.882465738200748,-0.0489389430550191
28.76,-0.497655813649454,0.156836773686227,0.934196035455648,0.153368745645313,0.0342187036240755,-0.0448743342736439,-1.05568394547723,-0.159408377471676,-0.0684234412887359,0.099580392241478,-0.555450836644835,0.134012558631059,-1.28440745946668,0.254292845836594,-0.211262047968598,-0.306272708240709,0.00878502637962725,-0.370712632665216,-1.09298224954392,-0.139614008465417,-0.0219962915225401,0.114433078098665,-0.889717741184551,-0.0446705230129027
28.765,-0.478892375449129,0.201955857188469,0.918754464309028,0.17736066121998,0.0574682442926644,-0.00730053133021612,-1.07705141676595,-0.134926726397111,-0.0541992569221423,0.0857916657680031,-0.512454775522431,0.0935941110616442,-1.257250267378,0.258626334746435,-0.214520522544568,-0.350276465840345,0.0105826152068383,-0.328038751776213,-1.07900528146783,-0.129714446636607,-0.0194627559503115,0.155502322025101,-0.897844040761939,-0.064142921764196
28.77,-0.440994345361231,0.216610937689384,0.909537005540596,0.185626702615427,0.0572204431564202,0.0144721767875233,-1.0466199514382,-0.118845988574266,-0.00321214249316399,0.0688617670519128,-0.46457756143674,0.0507651045825096,-1.2216270410161,0.265543461119747,-0.216830764125324,-0.36870509823836,0.0190716524744926,-0.289740456333389,-1.06861525883863,-0.123646994027627,-0.0252408275363264,0.181318220101229,-0.886979072420322,-0.052390881595602
28.775,-0.430634712839538,0.207524284153015,0.908036950924506,0.192790788747131,0.0500295143314973,0.0234589591686282,-1.04018018288875,-0.0426289161485629,-0.00998162704811155,-0.00330172206018492,-0.43043657372023,0.0208706140207535,-1.18538440416799,0.269959428455788,-0.222046448870092,-0.3589061543106,0.031290652235347,-0.248849294606184,-1.04925402819576,-0.103871577768338,-0.0298903262729514,0.218694861334726,-0.863800343342502,-0.027807931949542
28.78,-0.421855766495199,0.187346114194083,0.914359315360419,0.226047517629855,0.0370443785583302,0.0145733016617303,-1.02575096412916,-0.0133461885638199,0.0190918601375733,-0.0547914978396386,-0.37884483601396,0.0213861966623289,-1.14708864239955,0.267268427479431,-0.224577277104673,-0.359778256581926,0.0367754779093978,-0.190385361962214,-1.03619299665609,-0.0946712113168709,-0.0255718958123107,0.235194591640571,-0.828925896191742,0.00144159842195354
28.785,-0.43425889988861,0.180416288186497,0.936567839792689,0.246041488319648,0.0378056297124887,0.0225791815178919,-1.00685196624026,-0.00926059726192233,0.00261267888460063,-0.0603490102195441,-0.374059368311969,0.0374804351721854,-1.10930619832051,0.261388095152479,-0.216602759676665,-0.377056923959863,0.0442617168459946,-0.13184071033143,-1.01014969880297,-0.0902544862428255,-0.0106391240597582,0.264431040426894,-0.776297917804237,0.030170412387749
28.79,-0.430799352338126,0.25362758728299,0.864847348412278,0.232129283009492,0.029357009235316,0.0233084739419579,-0.963649085518688,0.029105067329714,-0.00324120570776097,-0.016301153204395,-0.364048159556041,0.0517472784277279,-1.07091769849736,0.239182808942227,-0.206161838269033,-0.408321365031894,0.0497103289496841,-0.0783395562693143,-0.991739830223101,-0.0822158228461325,0.00438007903049278,0.325759937862423,-0.719106111393484,0.0176942506031143
