Header,foot_Accel_X,foot_Accel_Y,foot_Accel_Z,foot_Gyro_X,foot_Gyro_Y,foot_Gyro_Z,shank_Accel_X,shank_Accel_Y,shank_Accel_Z,shank_Gyro_X,shank_Gyro_Y,shank_Gyro_Z,thigh_Accel_X,thigh_Accel_Y,thigh_Accel_Z,thigh_Gyro_X,thigh_Gyro_Y,thigh_Gyro_Z,trunk_Accel_X,trunk_Accel_Y,trunk_Accel_Z,trunk_Gyro_X,trunk_Gyro_Y,trunk_Gyro_Z
23.815,-0.704327366631736,-0.461346205662842,1.20133666796111,3.04428246398311,-3.36308031525432,-1.42613622765202,-1.00260593798548,-0.174476765054403,-0.4002677543852,3.75816156188057,-3.33951628643202,2.7582061290741,-0.758117617043579,0.0346313314139928,-0.0537266693792565,0.929012244058958,0.102525592006439,0.174098213396253,-0.990134637542749,0.0188379307645929,0.0900304489485312,1.12807583971447,-0.0351498320538129,-0.270949960494377
23.82,-0.722039321844102,-0.493511702188735,1.16530993184292,2.98870890334835,-3.32349163414486,-1.50398149716885,-1.02313289393765,-0.141628951650953,-0.400770678334353,3.55961233927272,-3.28344047140632,2.75040631727325,-0.751244010060757,0.0457243882562861,-0.052733557490759,1.05833027180176,0.0244024555707966,0.209474187511529,-1.02005771448472,0.0282207348650122,0.0866443438909309,1.13108694005213,-0.0614340908372613,-0.293433417395773
23.825,-0.715373204807341,-0.543941787354226,1.14028023842426,2.96646177190684,-3.26878134194791,-1.55004267005235,-1.05538818419901,-0.144260535987535,-0.401369728866166,3.29840852877106,-3.26581676116118,2.72138225071211,-0.75427155361786,0.053767767434981,-0.051902852635497,1.13137139913747,-0.0368030804234514,0.223830370277638,-1.03937106984612,0.0232790878101071,0.0889320568251946,1.12550128310803,-0.0783454806509059,-0.296487693040982
23.83,-0.702467340124833,-0.552331607930304,1.10754232671718,2.92827372112191,-3.17592642708796,-1.57116740339429,-1.08328531194497,-0.142300669805311,-0.396524385620054,3.05422304632261,-3.24399669953069,2.67140722238662,-0.757352875705631,0.0767174646728664,-0.0271788377434183,1.16154350376677,-0.104250522681582,0.23625487014482,-1.05565603980228,0.00901942537127363,0.0887666979778926,1.10696510608412,-0.0863653095180365,-0.297423889677747
23.835,-0.698775812544588,-0.511826710053863,1.07336443499756,2.87334329221393,-3.12180794222396,-1.57945428539439,-1.11189825151632,-0.146968181818855,-0.381924499399701,2.82068788540346,-3.20548743912681,2.59725894350019,-0.760566989227393,0.0992190778915328,0.0107053338029428,1.17632066231139,-0.174754492667796,0.240503499795074,-1.06690317981479,0.000633219484815203,0.0826908415020488,1.07239705679981,-0.0920456673548208,-0.280872188609541
23.84,-0.688678677720403,-0.472652354456687,1.03802244122393,2.77839188827318,-3.0283818823912,-1.59159547778547,-1.14014230638695,-0.174244311561767,-0.382302309727614,2.49964777648312,-3.16974197961691,2.48235046834659,-0.791106324182218,0.160812989189573,0.107042447864872,1.11791106738687,-0.193271317859894,0.235727949524413,-1.08063664739102,-0.0268670564296059,0.0872788124177003,1.0157319474413,-0.0796319320977638,-0.243470808788387
23.845,-0.678043631496996,-0.429508831750815,0.998289344992827,2.60989151087696,-2.88320420677993,-1.58223611485766,-1.15762992623586,-0.199508855880907,-0.370901047668436,2.21262106450414,-3.16291177685052,2.36663285369782,-0.869433067717651,0.198894306779793,0.162270525661893,1.03936823645292,-0.318253726289832,0.292995836048173,-1.08343297759797,-0.0418244840475216,0.0897962127361469,0.980595294146231,-0.0553134307031659,-0.214070886956406
23.85,-0.684345965161698,-0.395806569999447,0.968309062406,2.46817776757136,-2.77401765132595,-1.55357310519438,-1.17128631624345,-0.216369007926827,-0.367502242068569,1.89647585833001,-3.14834857467312,2.25424616858523,-0.781402754751773,0.168133171714288,0.123640232050104,1.09403572452711,-0.444153808110423,0.295918260964476,-1.08105543428706,-0.0634003855112223,0.0877352611129221,0.922278322040023,-0.0330553258382111,-0.165113846176863
23.855,-0.689017760374128,-0.350507424718995,0.928640282634548,2.2103016474586,-2.54190512272046,-1.47110304163062,-1.19288383090651,-0.242743092593544,-0.385544733775469,1.45219793427919,-3.11641929452494,2.09527521028741,-0.788125589226593,0.23630216108526,0.135629675436567,0.81365516218624,-0.409718389885592,0.179669139489751,-1.08367915901535,-0.0777338711633274,0.0981156006362906,0.879578261195062,-0.0207033370770094,-0.125157907996831
23.86,-0.684845468849584,-0.329738117682227,0.910027101506547,2.0366324824518,-2.35582897983245,-1.37353579524492,-1.19991354575812,-0.257745401607419,-0.392721434926496,1.18801448335497,-3.10290534772892,1.98218421026665,-0.826451498151704,0.278341419616864,0.166650957528474,0.530756607725885,-0.442752579856544,0.136561780735785,-1.07203931756217,-0.0949892495822676,0.0959888640565059,0.819147270189601,0.00518870313392639,-0.0775454018247637
23.865,-0.680703175347174,-0.302967904049666,0.888626169997513,1.83250156379987,-2.15039571542178,-1.24359536269406,-1.21671102787352,-0.286792016647981,-0.401874455482178,0.82917450605343,-3.06870898411618,1.8125893390755,-0.861614990321195,0.315791949878492,0.192467624425635,0.275804806195736,-0.450522415599052,0.0999056947080966,-1.0634029585575,-0.113051754895217,0.101471960137606,0.763846359023176,0.0298791517265286,-0.0317007504960153
23.87,-0.673719690548906,-0.272778090993241,0.861866246639684,1.58037409362542,-1.91630143765785,-1.07272132641451,-1.22194823411579,-0.305745085634596,-0.403574086386389,0.560939325603342,-3.02057930351075,1.65565219744676,-0.900651245075334,0.3557285728506,0.194255924369347,-0.217534258136084,-0.444794527438953,0.0267212995038275,-1.06231738521369,-0.126962428593539,0.102399139897534,0.737501507760012,0.0213975212528092,-0.00437734317881118
23.875,-0.676827637260678,-0.245047765784073,0.827535156165338,1.3897897387724,-1.73029785594443,-0.940712807112941,-1.22575742277357,-0.324177959650095,-0.40242009102225,0.370174509188503,-2.99629021373372,1.52202108972951,-0.926027820014035,0.40310015087478,0.181144630594584,-0.648421718902498,-0.41540253866026,-0.0923662499977615,-1.05515650053353,-0.132671848443533,0.113952330337412,0.741661626219646,-0.0184928777850161,0.0132893819734131
23.88,-0.687311521860758,-0.212405627208427,0.799324759460515,1.12256773429747,-1.47502701882021,-0.791989701883867,-1.23139018899911,-0.338074494524677,-0.400924292865875,0.234595807629242,-2.96766116042941,1.38871191999735,-0.959826234666129,0.459967568164226,0.143064848421696,-1.14713774711777,-0.388815686338573,-0.177511342276383,-1.03589529764998,-0.135907926595648,0.123128149362714,0.746029027577034,-0.0531202116390851,0.0378054705217822
23.885,-0.703435774739133,-0.190770519529368,0.797810199767228,0.882089873740427,-1.23383428155088,-0.657374552439025,-1.21794717629282,-0.332135089040264,-0.394535799993021,0.153736576434702,-2.93022555856898,1.26081005035113,-0.989195764982354,0.511356825145372,0.0921519088392797,-1.56279607571033,-0.340579785527244,-0.271778344575525,-1.01756214843924,-0.127539730220337,0.138021558017267,0.755088838942782,-0.0722910636205792,0.0587862608642579
23.89,-0.715004464558803,-0.185296332903713,0.799808772179291,0.663305883682833,-0.994386893622745,-0.528547489118145,-1.20468273739844,-0.303097122585004,-0.386695323502182,0.0989096536439478,-2.90792641820945,1.14455129889641,-0.980369026868998,0.541600326349775,0.0535660119296411,-1.87287098091318,-0.327561438549907,-0.444776457500926,-1.01067772842675,-0.119844207699802,0.151836689762524,0.754100425437095,-0.0799228873707326,0.0749103322453808
23.895,-0.732964711897639,-0.1835215875558,0.805287429506387,0.505119249980859,-0.789051006169254,-0.43763231647781,-1.18691539245749,-0.274184645247661,-0.38107969818421,0.0996325584883146,-2.86040334927681,1.06778712385433,-0.998842876798672,0.54541932809968,0.0219550491876813,-2.03686515034622,-0.271837078224823,-0.59578192726638,-0.996648430935052,-0.110178563720769,0.1681480446612,0.757742762565613,-0.0807002123728195,0.0783010087995029
23.9,-0.803436782279147,-0.182164937624857,0.823252847879359,0.375433071158659,-0.571933940665303,-0.338526408794694,-1.18242370020682,-0.247123269394964,-0.371882059692089,0.136996552558427,-2.79358635017948,1.01178687444514,-1.00250489681083,0.532474966556521,-0.0079579218442677,-2.14952836321503,-0.180673290880581,-0.728735214417688,-0.984539842224649,-0.0846328987490541,0.185393518049914,0.742399253473472,-0.0789895728230476,0.103960041690661
23.905,-0.852402609175538,-0.189590863618595,0.865858321030753,0.331415213123635,-0.457816930970402,-0.285018543407951,-1.16434336160706,-0.2258228023779,-0.347001373789287,0.196606621656793,-2.73135709476638,0.961138955622433,-1.02691072807567,0.506550750722653,-0.0449930535669505,-2.17662985640513,-0.162253070440089,-0.875143121262705,-0.987678670426628,-0.0664152224176642,0.209758146808853,0.713287090217951,-0.0742450823952768,0.114484479470053
23.91,-0.967034592505633,-0.222987874607018,0.946910047153005,0.335303695899142,-0.35275902993689,-0.207048255548416,-1.14033647046102,-0.190812017629238,-0.342374123391034,0.288877625412344,-2.68170883856707,0.935806465056435,-1.00159577746786,0.488577684659579,-0.0559128017639612,-2.15525103322038,-0.153927459917904,-1.02394311301541,-0.998452031687168,-0.0460465466924012,0.218548611555152,0.690473768581206,-0.0822221577887556,0.0953088310608018
23.915,-1.04010728509504,-0.26910780263527,0.999787990522443,0.40105598770982,-0.3322511338152,-0.138427478109489,-1.11561647446684,-0.180695941767206,-0.396854320541708,0.315558551689401,-2.58317019039568,0.92517286328557,-0.976038640374978,0.487874489320437,-0.0731864590044983,-2.08256143904871,-0.147112999199941,-1.10475145283077,-0.998843970969345,-0.0341051669055468,0.228379909218822,0.669553150347054,-0.0722713281113517,0.0864526464146155
23.92,-1.0430232997844,-0.312758680143942,0.98211265129552,0.502498992509468,-0.386565850783176,-0.0833749819490178,-1.08673004679544,-0.182831815951229,-0.468292850336243,0.261065494445173,-2.47081848763811,0.888418004863856,-0.943986367298551,0.493560905811312,-0.0875254958003095,-1.95560443875218,-0.121991221382095,-1.195929957304,-0.996081894847162,-0.0116035653621055,0.231869905183436,0.642605180941993,-0.0689519212192046,0.0768530301669527
23.925,-0.984691793919054,-0.34961733554595,0.898093594854962,0.593386895337783,-0.441064200015526,-0.0566110017117594,-1.06342522098862,-0.178846072184487,-0.480936351118266,0.206006321707652,-2.39432078843844,0.834234056842931,-0.922565864513883,0.495535359539429,-0.0685435443782353,-1.82876880861286,-0.102094877364639,-1.24120020597771,-0.999315546850775,0.00800625557755437,0.235534895217109,0.61377890380475,-0.0805702344492797,0.0821025389514415
23.93,-0.929357267759758,-0.401830135355201,0.775630089517075,0.70129981863597,-0.46201779908867,-0.0545647634747542,-1.04199004952693,-0.163349233796473,-0.437037213167085,0.219153437945209,-2.3259075497385,0.770912284389048,-0.923794241304959,0.503476998734942,-0.0756961807578224,-1.64480998071785,-0.0752668625607093,-1.25206830000713,-0.989892719335904,0.0298254813059988,0.229526856124828,0.581165662586703,-0.0913931123614486,0.0923075169717719
23.935,-0.899397600507575,-0.430821077197166,0.676683955548868,0.760202947076518,-0.423643418315303,-0.0693186336038598,-1.0241412163358,-0.145549326999057,-0.374877727818151,0.273015457431802,-2.24111089125187,0.707000574376165,-0.921353200393169,0.504727222655802,-0.0589278272603631,-1.44096868491644,-0.0645913586036066,-1.25771073510677,-0.985452897018874,0.0437126929937428,0.219054232397672,0.544449927347964,-0.101592322712307,0.0939609323747269
23.94,-0.857675401118929,-0.458196168782377,0.551631162512764,0.809530507357353,-0.330608659187153,-0.105754607844491,-1.01230254935792,-0.150299222235747,-0.33811566494499,0.299915374597415,-2.16238690800761,0.654874102856041,-0.924669593096521,0.503912805900441,-0.036026605434079,-1.22600772537069,-0.0608105998027831,-1.27940456895873,-0.989806716345357,0.0580455597400401,0.20840807631412,0.509818845932288,-0.11747752478716,0.0892297041802257
23.945,-0.828200203467613,-0.465533990996216,0.437286162372613,0.827708468969356,-0.236741325632799,-0.137662919638287,-0.992217406499303,-0.163376992112994,-0.32191955078297,0.298192960354069,-2.04521022731729,0.593008396442593,-0.907587983494577,0.516702259940454,-0.018794047551997,-0.972069474301295,-0.047719393359556,-1.03643929531151,-1.00535067697202,0.0693000913766085,0.201061169138412,0.486441408754977,-0.144521751234978,0.0887089153503756
23.95,-0.806224741305436,-0.457659246847951,0.327158141822255,0.815535938104212,-0.0253717811773353,-0.17506851847963,-0.971151493623138,-0.163036292473542,-0.329552858511182,0.248227726703373,-1.94255201541902,0.536768791404393,-0.936892995336013,0.524633034269829,-0.0190521582712989,-0.742389636888336,-0.0495093141138541,-1.39495811084987,-1.02334980560925,0.0868694501485656,0.18315572150603,0.453077418322794,-0.186962144856222,0.118541290615436
23.955,-0.796365651717538,-0.433627186771911,0.248423702552033,0.80480589102013,0.163111547413852,-0.197876044108027,-0.946709855815868,-0.168904616728751,-0.329257926445193,0.174244205136198,-1.81812603618625,0.457301053197095,-0.956313556222163,0.531237981753875,-0.0175986968363828,-0.570523527413645,-0.0386470827605508,-1.39735073418876,-1.03030033611984,0.0935012828735464,0.16841310744866,0.413992740662317,-0.227254877676628,0.163866583323829
23.96,-0.810977451088218,-0.404007998293753,0.188027093654707,0.796991690567923,0.423156838428447,-0.195694030161753,-0.931458066161366,-0.167658622685267,-0.321200488363267,0.106329622799328,-1.68979336227299,0.374276880913972,-0.967755670873235,0.518516136869744,-0.035237125822988,-0.409241625120905,-0.0354276942531632,-1.38338098581895,-1.02860518589584,0.0944231221162852,0.154444416375334,0.375508745540388,-0.267873361757535,0.216056791120316
23.965,-0.854679240935013,-0.380205330744511,0.177368494619157,0.790118148827347,0.656792874370924,-0.170472246592363,-0.90766959282413,-0.17950316538693,-0.28580919223681,0.0923384268229916,-1.5627621340249,0.307785419029324,-0.984836310916045,0.491661645033999,-0.0424324931390167,-0.319177108274813,-0.053429399059084,-1.63171127870897,-1.0304546040454,0.0956635123898585,0.146968164250618,0.346991683403433,-0.300270246557238,0.250635208821603
23.97,-0.923579085248544,-0.364971979563176,0.182522716967114,0.79814637547078,0.846095132550237,-0.129451305033929,-0.875243751712909,-0.185398187922327,-0.253705448540966,0.111578648344488,-1.39921723546774,0.243739077403152,-0.998922937664933,0.456809154564994,-0.0464743350262665,-0.215733237573973,-0.0572389155055983,-1.27939535609292,-1.01951700206024,0.0801265185033968,0.133587700969695,0.324714735435823,-0.310724211553776,0.28473425294927
23.975,-1.00941552989134,-0.30358263663283,0.188197539052017,0.79416678224337,1.02629002434683,-0.0492759436370905,-0.838635209961726,-0.19856100846524,-0.288146629322858,0.0855766028068326,-1.23394347208305,0.181164349656527,-0.994317257087163,0.423850889741821,-0.0439174155050173,-0.167971055693918,-0.0729523599147797,-1.24614631339907,-1.01597259774232,0.0807636945705832,0.128402735597504,0.29771844987534,-0.292452498734467,0.32281145189731
23.98,-1.09904031175129,-0.280249543355174,0.19035909609473,0.757909517097457,1.14590984377943,0.0103020436987277,-0.791919022913867,-0.203900718394014,-0.344059054605272,0.00249821331282747,-1.00169359133398,0.0940617524411122,-1.00343654703295,0.408409166072314,-0.0373911324431098,-0.149849090670551,-0.0797959507750193,-1.22482593804773,-1.00533934923204,0.0784698297413521,0.123770419394826,0.252689836277116,-0.260407497646008,0.383381208281953
23.985,-1.10471706264368,-0.22947167785867,0.184595821265457,0.658343529035048,1.26927946303541,0.094901861979678,-0.758511023233985,-0.194328461449324,-0.363057560895104,-0.0564666388861843,-0.793806714831559,0.029168571132811,-1.01940342264449,0.400984631454777,-0.0298079706545701,-0.151308353435517,-0.0961266287409163,-1.18802253416081,-1.00647968818425,0.0710900486009827,0.123367648449546,0.22289566296425,-0.241616634373343,0.410092610235375
23.99,-1.13520989843781,-0.21254218175496,0.172771100826834,0.562566791862987,1.36060385418382,0.163992605036804,-0.743841623981485,-0.140364280060086,-0.3595450134958,-0.076088703398585,-0.617168221075162,-0.0397971981792137,-1.02077894601588,0.414058387366437,-0.0294051871429078,-0.0847021249256367,-0.0938500081219813,-1.16240734583419,-1.01396625957386,0.0645492896659603,0.123109896339668,0.184689815728711,-0.194355722627608,0.470916776363798
23.995,-1.15574198202099,-0.0690420585306252,0.155571086911358,0.346564938615629,1.46176519349251,0.218970200231392,-0.73821682049198,-0.103055062209526,-0.361221405936938,-0.118615761980188,-0.404164578889653,-0.0960086088516912,-1.02761161939795,0.433220226499848,-0.0375152959660176,0.00669785111993777,-0.098315857788314,-1.18533766815854,-1.01187636289838,0.0525659711777784,0.127892279436066,0.15056495354868,-0.173077403954547,0.50190175332807
24,-1.28414523298211,0.197652121985369,0.211535656325449,-0.0604053796428323,1.55105880993658,0.204079741458542,-0.7374373391092,-0.0793948824053952,-0.372892902436209,-0.151126025112881,-0.276506973404085,-0.145645703737016,-1.05000362913169,0.437136695265483,-0.0588740985180819,0.101926260846037,-0.0942858460374424,-1.19113219111149,-1.01187308417814,0.0458270139786399,0.141823062247672,0.153501806962801,-0.151619905866499,0.539022835887244
24.005,-1.50829763427113,0.368770803490234,0.416173340225304,-1.49254975019741,1.64883493445636,-0.11952894669984,-0.744432222407904,-0.0387045465430945,-0.390382069083969,-0.227866655960895,-0.0649372468864313,-0.213597756920064,-1.0479568300842,0.444270166728375,-0.0773403906113051,0.179010928444946,-0.0913983003567331,-1.17637999085423,-1.01506023922456,0.0380481877991586,0.15503649645235,0.147724537778723,-0.135268549565607,0.585091368040562
24.01,-1.46468634995423,-0.113987914307708,0.497666656404951,-2.63549235012173,1.68413283100408,-0.4896223659122,-0.73367618755885,0.0110682970679214,-0.370387277890575,-0.327407086469557,0.119345262330932,-0.265015047257009,-1.03697981683022,0.434716287535356,-0.104564794862138,0.276706183718874,-0.10631392272124,-1.13737577106648,-1.00711787715383,0.0227311737655192,0.172487423444798,0.164017655313645,-0.123879172398215,0.603316848715566
24.015,-1.21575891327973,-0.729620824816484,0.489778898412078,-3.16878345525989,1.67409527436514,-0.524418859589549,-0.724669668032124,0.047273507308404,-0.345360027157901,-0.575585386948457,0.345737683393842,-0.317278057261789,-1.02333265317038,0.412476227233548,-0.13001528455379,0.423953785715012,-0.114274260443585,-1.021642218475,-0.993674808107921,0.018115528025249,0.186644635569021,0.183575611981359,-0.0983890408986873,0.620824811939469
24.02,-1.09518177421524,-0.591422230485525,1.01869356514353,-3.26109800289501,1.66622983433855,-0.320545555394172,-0.733242057612463,0.065548357121711,-0.377718992261207,-0.827457436850985,0.535308180455617,-0.352290880260451,-0.996056718624001,0.374784981755844,-0.150915005957233,0.600743885307028,-0.123544939958365,-0.877961708274687,-0.979394415112576,0.007474970077168,0.201995798081267,0.197449892614344,-0.0469390673573016,0.636028148833941
24.025,-1.33323329638495,0.0020490677983686,2.68088022611428,-1.91107962420983,0.719418994373125,-0.137434941465228,-0.783992659425556,0.0525844759754899,-0.518604580861279,-1.06883740190662,0.718701920837726,-0.429276912295366,-0.964999641911242,0.319467174222841,-0.166054803780605,0.784190681517496,-0.129002398651192,-0.736105699337651,-0.971794175122151,-0.00571082313916879,0.23025054572558,0.206757375011935,0.0236239748083889,0.633847537929766
24.03,-1.27857465129198,-0.372198046186617,2.31762479775339,0.124236446434463,-0.873931553893458,0.216845681148351,-0.873842449809191,0.13004206742366,-0.307270571980836,-0.960359349286975,0.851047422958862,-0.451301612037272,-0.939759949593994,0.25387107733745,-0.161602328107164,0.882590006699437,-0.105890952810788,-0.605324499714974,-0.965417420228745,-0.0236633833009601,0.259582752651371,0.20286360911878,0.0776791322817412,0.619914993773856
24.035,-0.222890554287528,-0.275473030462384,1.41906319287882,1.20021937232877,-1.46492252978954,0.309079404230904,-1.07236482330663,0.31124001266791,0.272982723928096,-0.26619227511432,0.870804255802131,-0.350759791284621,-0.919797847943761,0.173961957633531,-0.155389356817442,0.91924909748696,-0.0684571234710126,-0.491129600669366,-0.970405627165026,-0.0326719220454761,0.280762236109124,0.190254700712966,0.130500005898552,0.603754459887833
24.04,0.995136110163137,0.389353384515524,1.4159846841592,0.990933402371645,-0.858740748812939,0.0029487139662065,-1.4957466149013,0.462019118111165,1.18131249544624,1.0950460959906,0.551158820724942,-0.136119046660037,-0.956630155196416,0.0432241102121198,-0.174564198044488,0.84074418352227,0.0193034539792808,-0.388626137537347,-0.981838766898844,-0.0466417287513601,0.29757977858549,0.174952318643075,0.179010259929089,0.585362032836325
24.045,0.832267726924736,0.975056761108242,1.94017714249993,0.697915564961496,-0.300983279516397,-0.693159413195501,-1.88901709799152,0.388458987684693,1.486480152009,1.50345030945978,0.108083662169818,0.0597560429673462,-1.02285851617412,-0.0224164657361735,-0.20542432466838,0.750183882949058,0.102781630078132,-0.317127583045601,-1.0053311249467,-0.0496319399715974,0.30823006173771,0.143831978631149,0.220841137181793,0.569332481646991
24.05,0.00457407757754037,1.08585482130331,1.6492331922401,0.713184304452739,-0.503344592447267,-0.794874283644373,-2.04628683520021,0.233008998571996,0.965857329958921,0.715040029067403,-0.104992993323787,0.130828516772735,-1.1642003198325,-0.0702445277824274,-0.292951340833968,0.560749411193919,0.255994067727251,-0.282902944329327,-1.04256739011358,-0.0402104729339796,0.315800620526331,0.0814303515415672,0.276237037595858,0.548047199553133
24.055,-0.442549431581454,0.518838572524312,1.0456347317026,0.630146397881933,-0.489634874148288,-0.652212366986982,-1.90286582139432,0.124136958651304,0.1070458554515,-0.275170595661244,-0.121429088296201,0.11757545428059,-1.33496563399854,-0.0777660546418975,-0.352821915847679,0.333254134157811,0.42613496973311,-0.321535752958558,-1.11365570532453,-0.0250580177097871,0.309643494721654,0.0158978005008882,0.324270015741468,0.539260142463646
24.06,-1.12268381939173,-0.23288065806725,0.732290416873806,0.347024981932551,-0.220287078053752,-0.445746014081518,-1.52419854516748,0.0518904540358301,-0.223011690571311,-0.748010282705089,0.0120419052960011,0.0227159279586005,-1.50997211774522,-0.0945945830682158,-0.411854229272763,0.0442729910893072,0.604165017901703,-0.378183398133164,-1.22815218384994,-0.00761266063420285,0.279143397521877,-0.0665459464758731,0.341273337602615,0.531015762152477
24.065,-1.56258705748755,-0.691028912110627,0.497360686056418,0.0650582701958641,-0.173388772093899,-0.283662331448592,-1.14501518152592,-0.0523951100019948,-0.453243958860218,-1.37786817161504,0.221684454096906,-0.147952267477362,-1.66697404707445,-0.130152143023276,-0.409209090316443,-0.415053184801596,0.770428537347887,-0.481951491115471,-1.40655358128094,0.0121678904551551,0.223699277166917,-0.128526611840184,0.29896355853814,0.516988444882448
24.07,-1.93205116243612,-0.603836466263633,0.386832577721448,-0.0546101026428677,-0.254462407378302,-0.157868494031228,-0.96462666807616,-0.0608996431343165,-0.759717705995113,-1.90931403153551,0.501092437524905,-0.287683474673665,-1.74263851447239,-0.169104731584302,-0.337327832782933,-0.777247307679378,0.810832727769287,-0.603932156292288,-1.50348671044309,0.00622537172058623,0.16146203278804,-0.150268438968778,0.141742117168379,0.462186364196055
24.075,-1.52294282167179,-0.102268145484911,0.495553692166568,-0.159642652429157,-0.27881048301611,0.0261446968367574,-0.811375408873367,-0.0608942030435776,-0.910017123531738,-2.02611377533046,0.817125902304103,-0.398442042318249,-1.76616919950522,-0.194445921053127,-0.214844116062197,-1.01752837797574,0.729249332846734,-0.755478495019215,-1.54089116867008,-0.00345672990739218,0.103970142804192,-0.137157552813602,-0.0799779026526495,0.421614881846555
24.08,-0.830448993979361,0.345561546247891,0.715776629747662,-0.255835807806719,-0.108951401754034,0.192704531974432,-0.865497682373669,-0.119062647579546,-0.671781608482914,-1.62807935981542,0.941391268821205,-0.408516977629915,-1.76018166987841,-0.19398533211036,-0.0796291903683518,-1.01472147943079,0.561102079632159,-0.798213541507721,-1.51302802692785,-0.0190851284781859,0.056827518630571,-0.120601253034342,-0.30839076063513,0.390491389613601
24.085,-0.409993410473935,0.321581099436717,0.99709656165036,-0.281810993766394,0.00905021904583749,0.177198382069023,-1.01455117868249,-0.270962298699482,-0.0136249819172671,-0.93868570347545,0.858071328731244,-0.372197087839555,-1.72782919074105,-0.0949206337384801,0.0371270061919208,-0.732630429170727,0.364460149778027,-0.66298795026539,-1.45648344611417,-0.026376342676015,0.0256818924006761,-0.0968823625237884,-0.487492212624329,0.381241313160086
24.09,-0.249741112040627,0.17048633453786,1.06105037966916,-0.243355452059293,0.068521709550705,0.13799002363605,-1.20853047485681,-0.29226145260814,0.2970727923474,-0.373335878295558,0.813349729230063,-0.279500975057953,-1.66744657037142,0.0340035065497587,0.12886332800172,-0.198877593212333,0.135650393128259,-0.396508892519689,-1.38941253057396,-0.0109435525606028,-0.00410300018652976,-0.0715091871318305,-0.623351500864157,0.34173294747165
24.095,-0.217727309041774,0.06172122406728,1.02664799652357,-0.136676494342654,0.106469952661609,0.0859149027432803,-1.30674081314528,-0.172715704925282,0.284718512660423,-0.0680354424685661,0.851564401007294,-0.185558111652318,-1.57601373539776,0.150399754078731,0.165357759675031,0.340164789898301,-0.0570663027337538,-0.104116204473135,-1.33132283978213,0.0120535128530342,-0.0335103921940004,-0.0604108078132306,-0.650580314902431,0.283459411388974
24.1,-0.303944723489158,0.0538170141617674,0.952905313805234,-0.0510084691192779,0.13103462457229,0.0533071833312439,-1.29589808656532,-0.00227707825739616,0.166808611694967,0.223224739849167,0.816917228994379,-0.110858165503972,-1.39377361075093,0.283280023051332,0.13976797010736,0.934009378648306,-0.304248763697269,0.267568428418809,-1.28859089037068,0.0411121222687677,-0.0617632584446888,-0.00987713726345366,-0.617228195613131,0.21860244499276
24.105,-0.378972986031026,0.113963282810967,0.891099742257199,0.0210714711624203,0.128115487356075,0.0639982945967949,-1.21535672676586,0.0521380069056819,0.105864589317864,0.359044104086867,0.788846228950571,-0.0902728831447712,-1.24545999647872,0.419543210375313,0.107726009030336,1.32061354439811,-0.465887586091126,0.480291267354687,-1.22786683335571,0.0613662652891515,-0.0851120261552887,0.0762853211177234,-0.516791522452956,0.155098097369121
24.11,-0.448051003226268,0.196134716018604,0.86720332739436,0.120163851720639,0.122972825939586,0.0899147595137968,-1.04214806479118,0.136984530856005,0.0535156027791051,0.617269030016758,0.747746642379516,-0.122785304353407,-1.1002882291747,0.551314859736708,0.039578626289663,1.49370784402927,-0.58337414641148,0.667857108453623,-1.18458998574492,0.0814719982997768,-0.0939810936653377,0.144484208537641,-0.422221579964,0.141986291514957
24.115,-0.486447363836118,0.259722401068311,0.840042649737007,0.208145865430618,0.0966670644416878,0.103423714609422,-0.916004077907282,0.18286886227254,0.0249948924970109,0.974772651487813,0.751584630943037,-0.152131352534074,-0.940471842245366,0.661375600284285,-0.0360687677481174,1.44904106831198,-0.648956829314425,0.818075954107319,-1.14594012990521,0.0761982129713917,-0.0940481752647305,0.207786292987759,-0.323625619677182,0.147393773991588
24.12,-0.486177313452663,0.339014069936919,0.805327464118954,0.25181567659557,0.0926181102300372,0.100818521316252,-0.782992695439502,0.211456798855415,-0.103716327511918,1.32262452342163,0.799511046761229,-0.185038006859912,-0.795280842813205,0.67754879248708,-0.0751497134052049,1.19870528423837,-0.658253629807093,0.86943218010914,-1.12942475674857,0.0656552355884392,-0.0923999054559662,0.277258326078635,-0.253440494208257,0.137959096398733
24.125,-0.480492140157125,0.363478388445306,0.791167153971476,0.245507408042873,0.0972303824789443,0.0949289230255252,-0.740852085914652,0.223099158182868,-0.184085857122039,1.40918405159141,0.793644663348479,-0.184620234883653,-0.600670299443668,0.561591506664908,-0.0843424660458333,0.763495576446698,-0.624826800253727,0.765396830902665,-1.09280160578778,0.0483545466072467,-0.0826724018592721,0.350848809920112,-0.217878743660993,0.116518007787532
24.13,-0.4636214929921,0.358897138726875,0.791273965421784,0.199802388659386,0.0987139986759391,0.0806829969611159,-0.763477502106364,0.247549409119801,-0.180325887141911,1.33746472596214,0.752968798378377,-0.162257454778961,-0.442060841362596,0.335010275316257,-0.0668675848787803,0.10678450272802,-0.556348161702603,0.384935151800009,-1.07074042200934,0.0292413176072827,-0.0760385382601757,0.451183642221337,-0.182690755442204,0.115306584486788
24.135,-0.439288400235256,0.327755877464723,0.799425328998356,0.157545610149057,0.0964511399075665,0.0744681177236002,-0.823194891383632,0.295822366293239,-0.114689828756981,1.11171194520798,0.698025633943559,-0.144052815698899,-0.350335297530716,0.149452295087905,-0.0758989814445828,-0.531032953534881,-0.493363723216448,0.014324594648111,-1.0365684338908,0.0129445617745173,-0.0587906044052319,0.573897245809145,-0.141987517450265,0.12710522433792
24.14,-0.41308589639371,0.290867845556973,0.816672472484869,0.0992869994053041,0.0637236958554364,0.0601219745031648,-0.866932238636905,0.347718785883033,-0.0509903112742596,0.804668680634605,0.671153982644388,-0.148743726646682,-0.264630833949816,-0.0621283041694491,-0.0947351020043278,-1.37349983843145,-0.402650484454532,-0.514163099076548,-1.00442369897243,0.00844911479237807,-0.0348979799783398,0.710279187584711,-0.0756235701488431,0.144922428439388
24.145,-0.406453985055997,0.280437243009774,0.826894769079797,0.0525334656431906,0.0241938953130049,0.0513713474512343,-0.895996687610639,0.364407121573622,-0.0530215636821203,0.278722123632286,0.664704626014173,-0.158783468655286,-0.285608005865748,-0.186707853010272,-0.0836949762543162,-2.03419066288396,-0.349264611980283,-0.98968041097993,-0.976603856236429,-0.00374435640566889,-0.0147232483229289,0.820214824714976,-0.0121781783433584,0.168778632638822
24.15,-0.397295335262587,0.301483797104088,0.826414157128033,0.00614943378732876,-0.0177387814119048,0.0386701899338474,-0.929736966464437,0.336053356866705,-0.0958959777921573,-0.160650376942459,0.631866273039808,-0.154241027383787,-0.393472739966655,-0.281511739374172,-0.0694617384122679,-2.52009523761393,-0.245076229155384,-1.33944761180319,-0.957053416242471,-0.0211247370122578,0.0162678834633788,0.949345904891054,0.0688593257628007,0.17004009055724
24.155,-0.409285835603113,0.321752619247925,0.829873714345908,-0.0244788782574989,-0.0405487246703076,0.0226521246095947,-0.9598700936101,0.281530899732014,-0.12719444712608,-0.518370979341513,0.568494909023493,-0.147391269826079,-0.531151298948667,-0.36511596569421,-0.0698396255960249,-2.81793385712463,-0.131765167225653,-1.51697672917882,-0.93363771607772,-0.0290581041565522,0.0475875576052144,1.02830051391352,0.117322654030174,0.150364187248844
24.16,-0.41468842174694,0.324274070304336,0.834983452383954,-0.0448507759045124,-0.0527845150322677,0.00962795667581065,-0.945696232218798,0.205467564274248,-0.106937537431451,-0.665280970213198,0.519544587153471,-0.146884514595728,-0.674816249082262,-0.405031114270128,-0.0732943661922728,-2.89265682067806,-0.0528078162638311,-1.53634201045988,-0.901999914025116,-0.0361561083505513,0.0769368797247127,1.05606719878525,0.157118700857404,0.143097276118765
24.165,-0.429946391582486,0.29565939188004,0.834188076972964,-0.0510491341044282,-0.0666916606482479,-0.0139143831668468,-0.951775009814941,0.151994340621621,-0.0868024320802523,-0.598897879008375,0.516970884663578,-0.152689953448303,-0.842131401476706,-0.464759836409061,-0.10484163318073,-2.77030757256174,0.00345352647698473,-1.39719316376789,-0.870784193951016,-0.0336804396822018,0.10965692869927,0.996083213715169,0.180616865432332,0.120727961015841
24.17,-0.438084883865288,0.271944880552085,0.824266688422884,-0.0460184414868172,-0.0878189443624934,-0.0254743359021346,-0.957332936191561,0.096837690862996,-0.114380252861987,-0.468264787388396,0.508641680827118,-0.13381790493024,-0.96226436676885,-0.492746327592235,-0.114062074427112,-2.5352998450899,0.0115454121956359,-1.25677792251709,-0.829052636279662,-0.0238907904794555,0.134990709619004,0.919578608659095,0.168891455562398,0.109552863990568
24.175,-0.42983266610206,0.248682001347162,0.827318288408209,-0.0346860252546755,-0.104906914173193,-0.0354415312892964,-0.96300136774249,0.0242064225858993,-0.138434782032127,-0.312291743651131,0.469223974827681,-0.10143247202353,-1.05003277298503,-0.503768197813216,-0.118798612196267,-2.10328915000181,-0.00747243639546018,-1.07119770200757,-0.78031152018784,-0.016207869791046,0.161978535042385,0.793804192916798,0.156363555530421,0.108004325929862
24.18,-0.428935175099,0.223281144461725,0.825310602746787,-0.0162191585399023,-0.116523751703848,-0.0384693151199266,-0.967015855765165,-0.0346619794488518,-0.133830811857507,-0.122774609351072,0.444707148046235,-0.0706503181061628,-1.09869125670356,-0.474022546721716,-0.127057413432061,-1.77751740122629,-0.0400704102393773,-0.948860538619256,-0.756557268454291,-0.00911913290352384,0.172327443996749,0.700682122687229,0.139115524696551,0.111950232037996
24.185,-0.431665627406633,0.201490624359528,0.847612284438605,0.00515600311777808,-0.11710665179295,-0.0336018592897345,-0.986583660774633,-0.0385647471108966,-0.107043599150384,0.11413406709863,0.438507790998291,-0.0326794562378304,-1.10068526878386,-0.421875607944243,-0.0931983811055068,-1.2933709640563,-0.0961532873553112,-0.791579157916592,-0.720153848311743,0.00847417268504706,0.178306800092177,0.57279403560339,0.11285125606075,0.090481495487027
24.19,-0.462130736807067,0.199460016592333,0.840942333533136,0.0299399823709992,-0.126197532576,-0.0269447526332502,-0.984943552654282,-0.0377551577873649,-0.130048188144538,0.406085531204356,0.420324148472316,-0.00698125842403019,-1.07494782311642,-0.365118340434629,-0.0436944334226121,-0.94945960702936,-0.131291563363957,-0.683252246681214,-0.707058737143232,0.0238784350901977,0.176789828495699,0.464530183764182,0.0730159487303532,0.0777304067411118
24.195,-0.446236319139708,0.245681615092317,0.850732140253085,0.0433824509382248,-0.138697937638443,-0.0142090179799462,-0.985200187932657,-0.0233448552407523,-0.159576873607356,0.61059789436633,0.398297851811093,0.0333650689936965,-1.03460268544925,-0.282189868998017,0.0294313118891482,-0.576135920708751,-0.146008095601566,-0.567262475367955,-0.714320096885272,0.040805261338351,0.163909123420085,0.363583148511873,0.0223727795890689,0.0478070289787371
24.2,-0.419395923005285,0.259351917055926,0.859513098154146,0.0319313405701782,-0.128918127286259,-0.037024548736317,-0.991769064458509,0.0221985515902578,-0.137094125473239,0.879980518867726,0.366331894643097,0.0777587565269218,-1.00809800939866,-0.197388109831285,0.10587396262241,-0.298783521742152,-0.143375592454361,-0.478861714403147,-0.715797895666957,0.0767598459575936,0.150299516559329,0.291810345520956,-0.0309613216118024,0.0508486189770595
24.205,-0.451771557407163,0.266390050578434,0.831268242962876,0.0420283390627021,-0.124562186598036,-0.0229083217804988,-1.02021774489941,0.0693782767550641,-0.13580324608108,0.986472424854125,0.364899956598226,0.10094388344058,-0.995347214828584,-0.124645002693106,0.172229343463943,-0.173888824991737,-0.132458511962459,-0.374773232648475,-0.728450635239403,0.10429116693801,0.122660192940192,0.180985331917826,-0.0722542470945307,0.101106235463082
24.21,-0.449914307249552,0.272360756341357,0.825848986523956,0.0154165087219467,-0.130837686551669,-0.0205815467627057,-1.03323458714513,0.120827839095743,-0.132934210279822,0.979944333466622,0.341553783429755,0.1140779241887,-0.989499664573131,-0.0475522066681789,0.237056880696477,-0.141365199831351,-0.101366995652683,-0.287091476574969,-0.749627326883524,0.114044278031318,0.0993950572314995,0.114932948770681,-0.0860687209377149,0.111700426838154
24.215,-0.434527050806646,0.284498446141818,0.834575077346512,-0.0113864541197729,-0.140240058318292,-0.025693963363059,-1.02963080305432,0.164189410289277,-0.114035387874168,0.907174430227251,0.314064809511393,0.116902723908424,-0.990169395400931,-0.00677136087805318,0.281716618211103,-0.244315877029699,-0.0654565749956195,-0.265693784900677,-0.780965787442022,0.129757418569514,0.068908363020285,0.0570402849076746,-0.0865178152984287,0.091667597917024
24.22,-0.408858483207963,0.257912659890884,0.840173544813439,-0.0259260476632052,-0.150555144449698,-0.0390288337666061,-1.02602492391691,0.184930754385767,-0.11275659039899,0.809010702193215,0.286665890498413,0.114649218920973,-0.987221745121825,0.00975991108616371,0.317419972564744,-0.499926773261973,-0.0114672525182968,-0.296220296605857,-0.811248548511389,0.149216512330618,0.0475049263348094,0.0140624845157298,-0.0612183202645421,0.0688363103049085
24.225,-0.429823945850389,0.255811703540216,0.852501333810057,-0.0431723392687486,-0.158634255008892,-0.0359474450949272,-1.00439728810898,0.197920154385183,-0.112594107802137,0.673832334082158,0.262766472792154,0.114827244303786,-0.999982818457099,0.00433720013474879,0.324913621528792,-0.775311933500516,0.0228492489279142,-0.44923277648744,-0.862190123357791,0.15112809126702,0.00448535492066929,-0.0238297604772191,-0.00989899953453582,0.0365424037101281
24.23,-0.430688241814103,0.248907151586284,0.859212655060012,-0.0604497343867568,-0.154177458319999,-0.0404538146585516,-0.97824700230475,0.220075227015933,-0.0995383951716287,0.512564590504195,0.235066245964924,0.11283202844798,-1.02801398840578,-0.0220438274152021,0.301417320058088,-1.01843757847924,0.0556117341965492,-0.646466197429415,-0.918668500094966,0.161077326154392,-0.0202497043430657,-0.0135791838778033,0.0527473753023866,-0.0219086500467706
24.235,-0.451743045251065,0.250063299402843,0.849412559495275,-0.075190846170279,-0.139183346661627,-0.0461084744873099,-0.968458367166894,0.232619445862788,-0.107762771892418,0.392714147171147,0.233752779824306,0.115681029856205,-1.04842619463271,-0.0435731600649981,0.258935275544921,-1.11041852009935,0.0636948953153127,-0.760172969900977,-0.968186195778891,0.172689289374934,-0.0427389010097488,0.0234432462687213,0.0897569375286402,-0.0655426038471321
24.24,-0.461621273491709,0.26029643965656,0.841492457849234,-0.0809553060976811,-0.145224218932409,-0.0439629350709852,-0.97522346835868,0.230527868346452,-0.127018521036293,0.267075582188971,0.222389038996207,0.111226890951564,-1.07032280888954,-0.0605975122403408,0.196435006458486,-1.11357773844172,0.0532381852842358,-0.864062108468315,-1.00691332830299,0.187920673681778,-0.0590487230303245,0.0821669432493364,0.10653010007877,-0.0623858075170954
24.245,-0.456564444102373,0.25740418665611,0.836376527918591,-0.10407910338335,-0.138136187282276,-0.0407892859607219,-0.981005557119785,0.212016860585738,-0.136563461108089,0.174898668201636,0.209129141241914,0.105729790002709,-1.07979033594614,-0.065310633507193,0.157959651640189,-1.01742364824416,0.0387362809408761,-0.865740017612228,-1.03624570420973,0.194451869614548,-0.0765700278332802,0.124589548637056,0.110373079776764,-0.0599493553147399
24.25,-0.450182849689264,0.238031859875838,0.846628145484528,-0.105518971493502,-0.14083822724224,-0.0463710716133895,-0.993937852332954,0.191087556760924,-0.120562797914189,0.0914759001817853,0.201472258468684,0.0900024767380561,-1.07616821182149,-0.0768185320154279,0.107082350216343,-0.877513181455424,0.0179963332225728,-0.834200377883315,-1.04794746063685,0.220307824026866,-0.0888626887494499,0.186234608553844,0.110373079776764,-0.0642948791547534
24.255,-0.436406449017165,0.228538184022594,0.853127574442716,-0.0987019654414587,-0.151638258800697,-0.0509558593805653,-1.00663590075017,0.179840092904024,-0.106164538104538,0.021291286451751,0.198321219018822,0.0713185090806623,-1.05814559860813,-0.0871692280705461,0.0762960332516596,-0.711190704959201,-0.00668859948794746,-0.789016993603961,-1.04158250192907,0.232204624751469,-0.0926849536031254,0.246202041983522,0.108864643684339,-0.0312658514039894
24.26,-0.436937041865871,0.238163781681197,0.855154374929774,-0.0948387335802235,-0.153569872645193,-0.0544217053984486,-1.0188160673653,0.175074869379812,-0.103977422640059,-0.023121109004231,0.181352855812672,0.0590423544105641,-1.02649911074921,-0.0974604637566427,0.0527380936223041,-0.571080584190287,-0.027342239808979,-0.759401416975525,-1.03042873241848,0.235284546116332,-0.0962456039895064,0.298339036128735,0.106845029515609,-0.0209813229739666
24.265,-0.430820253693207,0.253329768160645,0.853025053389165,-0.0913443993916643,-0.149869498832717,-0.0487032469525748,-1.01705017411732,0.172077394473102,-0.0915718384891114,-0.0586987090248719,0.176112984525933,0.0543882137837997,-1.00205745878006,-0.0990019893213086,0.0480997753589857,-0.503189055410405,-0.0485184714198112,-0.748080138806378,-1.01314946166405,0.232366153769543,-0.091558244944881,0.379904645620528,0.0995578538185487,-0.029443174808913
24.27,-0.439637468520789,0.263910048477382,0.86011645842726,-0.0852481724093076,-0.148081663868185,-0.0491819589608843,-1.00998904179635,0.165182111227483,-0.0884983888799766,-0.0790206344237347,0.175609302204995,0.0513349406419571,-0.980473744283593,-0.094188000318822,0.0490762482844128,-0.455343910403496,-0.0504648803177281,-0.765910979213002,-0.98737457286035,0.23192196236437,-0.087666266854568,0.440335297120709,0.101821213960648,-0.0273597748479785
24.275,-0.441389289700028,0.245873358386492,0.862580224451906,-0.0758397044287277,-0.127422731004013,-0.0468298423546016,-1.00180422459862,0.168666580065278,-0.0904320450403083,-0.0993599323285679,0.172252504527571,0.0411643950272173,-0.971158814654198,-0.0807880887637278,0.0563525934639616,-0.428686449332131,-0.05820410835119,-0.789951664042101,-0.974580323092253,0.236162887637201,-0.0853597397051793,0.483629339279826,0.110502933493975,-0.0132401480924919
24.28,-0.446204004943602,0.236722744956655,0.857651150574956,-0.0601283512598235,-0.111622333374252,-0.0391939985922887,-0.998763750430366,0.168479001944644,-0.083416223480041,-0.0914354043994895,0.182624898221226,0.0374925807118416,-0.973052443653207,-0.0648170195348299,0.0688395171545804,-0.40748627536942,-0.0651653021834339,-0.793326735496521,-0.960929839871009,0.236883739920782,-0.0837447045013578,0.483740824675525,0.136085437102603,0.0221771755623696
24.285,-0.44400956531079,0.233277304268366,0.861650356113327,-0.0563705858345135,-0.0957531074002607,-0.0364228977086161,-0.994795473096791,0.153857752782479,-0.0827179371992487,-0.0804030527734637,0.188739022811209,0.0342452150062709,-0.995598907147866,-0.0536661048907722,0.0839070121614617,-0.375057183272294,-0.063916588251778,-0.785428081431241,-0.954759569828192,0.236633011550309,-0.0912880740450506,0.45431994275119,0.168257926782215,0.0490098161021636
24.29,-0.439769861381597,0.237861470534622,0.853247086876882,-0.0543531067669392,-0.0847491446461143,-0.0284451428369287,-0.987230203920437,0.145344716707655,-0.0827187908565956,-0.0925782301933312,0.189759716391563,0.0301624126732349,-1.01429226977534,-0.0506510829838941,0.0953894314218103,-0.358138653880273,-0.0514543103936351,-0.778705663530606,-0.952375256730311,0.236470583545953,-0.0941943562483834,0.405189765831353,0.213183753447204,0.0705770457621692
24.295,-0.432392334733689,0.241416421725637,0.855004685265675,-0.0485795249149571,-0.0828274386162239,-0.0265234421180041,-0.98682658686237,0.142248945045022,-0.0758606728386416,-0.103007018419259,0.193008032212397,0.022853699600101,-1.03004273028078,-0.0462785283463734,0.111913843419366,-0.351247289209481,-0.0373494121413075,-0.751933645674145,-0.959517511800082,0.238082627714825,-0.0978192934693103,0.390982100305715,0.248650438709724,0.0705528294277575
24.3,-0.420634638746919,0.233889098498246,0.857040036002945,-0.0503762687408538,-0.0771555956209285,-0.0265703746901393,-0.989112371649136,0.142634600758307,-0.074880831500936,-0.109774972043422,0.19803977708695,0.0169049774189917,-1.03335974781463,-0.0446990363946762,0.129368689397853,-0.346148170205471,-0.0226868311255562,-0.722000218972788,-0.961090253205458,0.24152143583323,-0.099293430939632,0.376743210411501,0.262452708693791,0.0685816846869857
24.305,-0.427346648318587,0.22970847547472,0.861319584454913,-0.0505669185486843,-0.0806795379497879,-0.020281271266655,-0.987878275093243,0.147016463096332,-0.0820695375327011,-0.116780084895502,0.190138663229724,0.0109942403848224,-1.03080514728465,-0.0508110624173342,0.140114826444634,-0.328561789121443,-0.00510843819695539,-0.678416966388634,-0.970886527141271,0.254086357358481,-0.0999803408378228,0.363431504517585,0.27532135420798,0.057896865832374
24.31,-0.431499326197914,0.227978405548435,0.858843552460623,-0.0398951328858565,-0.0792904195960798,-0.0231887777488697,-0.986597366951829,0.170545329734325,-0.0826897853004838,-0.0934991992145767,0.188629861098288,0.00542908340960537,-1.02614229108503,-0.061678928751256,0.146824591248696,-0.319911216189726,0.00767993965278263,-0.628150606980236,-0.974971498169621,0.255376251049778,-0.0978445492814471,0.339288209190592,0.288365521195942,0.055241528332516
24.315,-0.42896115820762,0.242043396821074,0.860520497766602,-0.0368463779708044,-0.0730102118754292,-0.0195684470818564,-0.982256205552417,0.179363091723763,-0.0841333264337105,-0.0742149956393471,0.199426180097485,0.0040876976230712,-1.02677840475846,-0.0690301655115528,0.14684131333206,-0.312324281189371,0.0160513508098269,-0.579645704866637,-0.980033593971654,0.264333545999851,-0.0876328565978001,0.325621605338709,0.301940006414638,0.0528869783620913
24.32,-0.426155015476028,0.241909043554526,0.857587330468472,-0.0350595969070923,-0.0715475831816662,-0.0225737514177583,-0.9831080701446,0.189468298829008,-0.101560556957927,-0.0360198683336028,0.189711106103931,-0.0044846767055522,-1.03457150224176,-0.0668120202873957,0.144438861000746,-0.29233669682431,0.0298006153991377,-0.507124426007993,-0.985039953519906,0.273752607616927,-0.0664328681748228,0.314984007995274,0.335487174071632,0.0533032697587775
24.325,-0.428351853201013,0.241361869446776,0.860287065917438,-0.0335843004286289,-0.0631268027171004,-0.0282511095436504,-0.978326205702271,0.206011090654842,-0.0980894396046872,0.00272845833660845,0.188745049034424,-0.015267734150925,-1.0435488242401,-0.0664697017753424,0.149456517397074,-0.250654920540622,0.0326504335740209,-0.428978775371207,-0.985320206705093,0.27427715477983,-0.0567401542558999,0.313046008348465,0.343008427612119,0.065949071624244
24.33,-0.420090455718549,0.241623870390422,0.854997686314632,-0.028378733384079,-0.0717799961065052,-0.0373071066244045,-0.977324335453865,0.209589062390252,-0.102565468537235,0.0382539494155913,0.189251787553474,-0.0244021798042762,-1.04622604648484,-0.074270511074329,0.156883280468348,-0.201134849941079,0.0320860017092833,-0.32590421759198,-0.995569438621311,0.283674531763353,-0.0340744186658407,0.308991676601472,0.350985673331135,0.0847331373726027
24.335,-0.422979325571652,0.249140590038072,0.855894504435088,-0.0205383078489692,-0.0808332145200983,-0.0428546311051972,-0.981748359976507,0.208370433811542,-0.114315241697473,0.0688676491544058,0.173833419780233,-0.0378772209285243,-1.03949446985559,-0.0829348155753767,0.158862340526362,-0.152271177274532,0.0164653887283768,-0.226175014409736,-1.01040668824977,0.282697116957819,-0.0134249387594528,0.306757811663605,0.362646960413691,0.110422544290305
24.34,-0.427455650632099,0.248746818354844,0.857961088880581,-0.0122203934867454,-0.0782677165628418,-0.0470822152018078,-0.979965486099577,0.206139245034683,-0.122895967554365,0.0747243063485318,0.169905703362434,-0.0409004734790021,-1.02613737317388,-0.101451860936318,0.156300977628243,-0.132564142896103,0.00247776560999586,-0.179091314435314,-1.03201460632768,0.270130221540165,0.00297624120165135,0.326953421944274,0.37449350005085,0.142454046762589
24.345,-0.432178672553727,0.244757796082368,0.852673513003191,-0.0129285694365551,-0.0714619626183911,-0.0548131342130761,-0.991611281169278,0.209100574888646,-0.116876696432054,0.11870700957655,0.180545433169024,-0.0443953349586344,-1.0018782566949,-0.128517090256716,0.149702428122026,-0.151773782776009,-0.00679445105564284,-0.174197182324468,-1.04909858331928,0.262969964471217,0.0155609212013991,0.367033245849266,0.376702487468719,0.159323654325375
24.35,-0.431281352874902,0.246515497939866,0.8548232762139,-0.00688399435044453,-0.0807155379997188,-0.0558131039142609,-0.987848633710527,0.202102256325382,-0.118248972825647,0.166356174988431,0.174999413251564,-0.0474136105749664,-0.988858420661886,-0.142899573193177,0.146718859145925,-0.172257201561052,-0.00478822062489088,-0.190732505237694,-1.06277456500732,0.249564553930813,0.0235703146140755,0.419379638588195,0.37480486989747,0.169875897768788
24.355,-0.430632757762862,0.242716531901712,0.855125886994023,0.0011477541723246,-0.070535476521278,-0.0649335959247525,-0.985978972982382,0.183041383196281,-0.101156534710084,0.251423592496278,0.179986163973808,-0.0423228476845911,-0.980244577958985,-0.146117474859134,0.144275496663008,-0.205053698914509,0.0022363921654123,-0.215145814158834,-1.06491665014557,0.240337485811027,0.0259315947150327,0.484051564250448,0.347538632298257,0.164465666099241
24.36,-0.430737793392373,0.238161778044663,0.856303174768798,0.00999996926250381,-0.0670731017382237,-0.0703940938218786,-0.986414684678467,0.167055522354557,-0.0936857194568909,0.312990052674925,0.196934407283512,-0.0340083854891882,-0.98507374839731,-0.146253959818417,0.143536135873719,-0.213624268770218,0.0130668968915327,-0.230523228687471,-1.06824940997083,0.22293523716532,0.0273380010607759,0.559658671822476,0.305579748615335,0.163363749996883
24.365,-0.427245938085976,0.245344214252164,0.849947408189875,0.0150646007155633,-0.0663493367682952,-0.070911193017792,-0.986863939201942,0.160155605006424,-0.101924368248949,0.331091632836889,0.198930464847906,-0.0333657041192055,-0.991308687707648,-0.141143810467045,0.14760162763251,-0.206958557587781,0.0263842437153849,-0.242721887857498,-1.05751202022601,0.20828079155842,0.0284956413566201,0.628756269737549,0.269762145857741,0.154271213150072
24.37,-0.425119480311637,0.250261938163431,0.849039066718086,0.0130175602533985,-0.0698799118154451,-0.0729168355464935,-0.983506385118868,0.147264959149376,-0.12383527655853,0.343296111600915,0.201976656913757,-0.0323470250322452,-0.992420328451436,-0.13896092856137,0.149543002490459,-0.198462295644524,0.0382056535694029,-0.24968890688651,-1.04943321481626,0.191393725883548,0.0235060683090645,0.699878260650744,0.227878190498297,0.151477457111176
24.375,-0.42790464040768,0.258681628988288,0.849970555808489,0.0174180548912929,-0.0680939262562253,-0.0720883079279457,-0.98234973803915,0.141399229543988,-0.131557447151925,0.379586751837813,0.199528805579271,-0.035002075913861,-0.991792008704825,-0.116299750836231,0.148217720590075,-0.201407313346863,0.0482924238867943,-0.237200063108921,-1.03968404844865,0.182073773954527,0.0211252638440741,0.735748058916755,0.201645574919476,0.162413842967637
24.38,-0.425033971793775,0.24945303449751,0.851149037315487,0.0156062463760751,-0.0612093941403544,-0.0728361426622074,-0.98451071106481,0.140564719132078,-0.125840732919813,0.42723589000103,0.196054655994663,-0.0359023231693551,-0.990918822875173,-0.10739833476506,0.14817740207934,-0.192548197906932,0.0704861126290025,-0.223709863823375,-1.03946241979125,0.1766749027303,0.0230723807670623,0.759327551661753,0.185867248248966,0.173657674942263
24.385,-0.427817132589377,0.247845669718025,0.854438180922132,0.0250276391120557,-0.0630702059779652,-0.0714866192318033,-0.984249963735712,0.145062915910739,-0.113855316612605,0.47076945744408,0.189956292104337,-0.0360056667375954,-0.990926622041099,-0.0970031962814595,0.142639173374045,-0.170640797026238,0.0772803004157439,-0.199914693058679,-1.03275260396833,0.15789467157759,0.0201608343957832,0.760862548808902,0.182637788261009,0.175017211691693
24.39,-0.417990626650363,0.260938392299282,0.855974498266751,0.0203821001613314,-0.0671804034325541,-0.0671285145459752,-0.986369290306072,0.149061606938467,-0.104449993385671,0.504913576718365,0.194214353768713,-0.0324123003191727,-1.00154335012613,-0.0835688385521185,0.136060291053298,-0.140953633058947,0.0920748448584199,-0.170256688813822,-1.03849754417262,0.150253207844475,0.0161612862952061,0.733970513857914,0.193075806254737,0.178569062553518
24.395,-0.412699177899803,0.260305708204576,0.854229662591761,0.0210270574177945,-0.0656927078962326,-0.0674746354570447,-0.98522950500442,0.140586242702872,-0.097373561946197,0.521009363712194,0.18939706809006,-0.0310515027869253,-1.0131333728587,-0.071463021812571,0.131544521013179,-0.110727672990878,0.0990358669304434,-0.137636572585793,-1.03003796592873,0.144597494782113,0.0165959493463638,0.66635681161036,0.21324081109565,0.172778992138338
24.4,-0.410780811859942,0.252504060411874,0.853044685502323,0.0213086609279702,-0.0713847370013382,-0.0670582266939909,-0.988023638019216,0.148801272556502,-0.091311993992944,0.522977976502119,0.187027105918876,-0.0357126849635432,-1.01891921082203,-0.0661610275592673,0.12632632344898,-0.101228356361389,0.114972117198117,-0.112317103860717,-1.01676744806381,0.143324090839344,0.0180046950564034,0.564547526736146,0.239231197599798,0.158583840173622
24.405,-0.412201463801714,0.253265551597406,0.85335374408628,0.0207160456162101,-0.0726674616330439,-0.0635938787368118,-0.988826416261939,0.155743940535222,-0.0949604830224432,0.506675204591893,0.192841812106695,-0.0383081989004543,-1.01499759317341,-0.0677486410602537,0.121354079593385,-0.108579092739973,0.126620699548254,-0.0934118126276274,-1.00653086744912,0.150252388776571,0.0119684390537976,0.463826847896288,0.248775488324571,0.151977014028443
24.41,-0.418596396442155,0.242705507448838,0.854875337863023,0.0193115045574645,-0.0693901979729595,-0.0645302389667711,-0.981415991139162,0.167585200547029,-0.10694772890229,0.479127007147183,0.190713216278197,-0.0459074420504174,-1.00073850657083,-0.0734649654104053,0.10606179300376,-0.148775334415797,0.141050924937147,-0.0885764849247917,-0.991209131908119,0.161199457360767,0.00611457174574843,0.343533588272331,0.265528291463852,0.165305288297534
24.415,-0.424400055373979,0.239279996372448,0.854763235587147,0.0189273856366483,-0.0701369626047122,-0.0598571882950785,-0.972704770306329,0.178597980327558,-0.120585267621208,0.45207650858682,0.198205194755831,-0.0504516904481588,-0.989492724372062,-0.0814778977518576,0.0833225982475219,-0.224328419988249,0.157060934357482,-0.0908524245023727,-0.986002007818205,0.163015205235324,-0.0018084257480654,0.276364551100135,0.260986188896263,0.158540120842644
24.42,-0.422875723857271,0.233400847066906,0.850855025057134,0.0109096212451708,-0.0726809388930808,-0.0537116632454313,-0.966554546655107,0.180471028252833,-0.124244821006461,0.400078490588483,0.1921683382648,-0.0573050418566163,-0.979517854106604,-0.0834252219541539,0.0565854498560766,-0.284630931454866,0.179345023367682,-0.106367962629321,-0.973083718113233,0.169825176112949,-0.00398432887025623,0.221746364123509,0.253810404781872,0.149208515931396
24.425,-0.396646924937528,0.243320552823688,0.856470961908459,-0.00126780709116264,-0.0684628218204719,-0.0560388274327101,-0.961639968955016,0.181831545960509,-0.113535021464132,0.336816039324335,0.186930314453304,-0.0671871237475277,-0.971474616281951,-0.0722118344325598,0.0353047744670631,-0.341263606348927,0.205530890504989,-0.130719051546834,-0.965492749301474,0.181759637031019,-0.00956701817936679,0.163946381524867,0.241159429886167,0.137721047379019
24.43,-0.413461964124246,0.268346670952641,0.849132302622847,0.00673161633312702,-0.090637611458447,-0.0486496061485154,-0.973474497793385,0.187267209972419,-0.108629711698036,0.283046297910999,0.188947447788514,-0.0717467197150496,-0.967916220682839,-0.049663677548939,0.0278072375876202,-0.367176212820422,0.214985989484202,-0.136240657649964,-0.960750529960848,0.187251040561217,-0.00878534944619001,0.129021522836419,0.223528492417256,0.120885712175248
24.435,-0.404755222587585,0.2654464444828,0.851839511878068,0.00508804276329268,-0.101987579650911,-0.053791594074508,-0.979908373461792,0.176857509246921,-0.111313900626079,0.232270649880672,0.189327098983094,-0.0732680355652085,-0.966921969098572,-0.0274620412291942,0.0265785501946922,-0.392056559257639,0.21240951506888,-0.14398988097486,-0.959166483352352,0.192930667201673,-0.0047199677188296,0.113699893986319,0.206585591593419,0.110870207075179
24.44,-0.417930753441713,0.253663047348043,0.853530185222336,-0.000291977321991506,-0.10593199037359,-0.0648968751432868,-0.977266125559036,0.180796661138813,-0.132775501072799,0.190642948022321,0.180791558117072,-0.0804748574461639,-0.963661596336964,-0.0184634284649475,0.028548510504415,-0.417398893228683,0.200277069451211,-0.138181452680141,-0.957375604233601,0.19769359239522,0.00173031208742645,0.113663320592701,0.191990746676337,0.102902745501877
24.445,-0.415407674634016,0.247090022849672,0.849992719247447,-0.00326569658955278,-0.108778701181328,-0.0674796225857837,-0.978832591994064,0.183262495383114,-0.150561416214331,0.140114548630036,0.173106274370199,-0.0747379261554148,-0.956343263177813,-0.0260832390997786,0.0291079171330334,-0.482359504440006,0.177333893310694,-0.162727494376204,-0.945320491067576,0.2104395833286,-0.00197191946395125,0.126153672251774,0.177072208434841,0.0943250767368924
24.45,-0.427769121355341,0.241576605476238,0.852824708990643,-0.0058181003113483,-0.101159851593096,-0.0689189754049088,-0.974581700246283,0.178005089872249,-0.152651591198603,0.149711822805474,0.150877094677513,-0.0722143500896101,-0.962679476736006,-0.0409505746539395,0.0216353420028331,-0.56973093712911,0.153398750604486,-0.219353475922539,-0.945328079028391,0.211450274883094,0.00623102653429569,0.151359328617751,0.170339071331539,0.0843126110396521
24.455,-0.427283299108454,0.243312033328165,0.854323091269243,-0.00380179500918366,-0.0954096919453462,-0.0659829732603645,-0.97764545190444,0.168743707988639,-0.127784769722786,0.184406145473671,0.150256261514838,-0.0606522135188893,-0.966534934472604,-0.0582134489971619,0.0127904482333078,-0.707455701264336,0.129990384006478,-0.290679878911994,-0.945090775904542,0.210788237167405,0.00902260769691649,0.192232953017216,0.16095748923288,0.0889711827039719
24.46,-0.432290652408487,0.244110684755895,0.861751594602652,0.00158500510261234,-0.0904730477016358,-0.0667217468698524,-0.981632792936658,0.155113056014113,-0.122703409099057,0.220360749688162,0.158522965631435,-0.0591204854376922,-0.974660523426166,-0.0725940826031276,0.013717794151739,-0.822562389253989,0.113843498286023,-0.367352731527699,-0.94124298904782,0.217808021095848,0.0121868536008468,0.228676803057206,0.152629449438185,0.0867673802611333
24.465,-0.419506532171008,0.242788367983392,0.855129546167653,0.00329202102214134,-0.0845633601327936,-0.0661318917098631,-1.00194097847378,0.139642751834741,-0.145313941250776,0.228392925388766,0.143702370608616,-0.0620453861987354,-0.98794129766435,-0.0806164914784928,-0.00310745366162881,-0.9226370590404,0.104807932369566,-0.433364343545241,-0.942515409954106,0.21486834895994,0.0127099727964035,0.278122978577952,0.138874426611982,0.0862000700325841
24.47,-0.420604740701893,0.237752079059917,0.853111197847605,0.00899367664966435,-0.0857573654598816,-0.0636661033103103,-1.0018145952727,0.129030161311819,-0.147826753631356,0.232544378123295,0.138650273340937,-0.059531268945338,-0.994212300407186,-0.094508818458807,-0.0170929950433588,-1.03294836485618,0.0772026477323074,-0.487465023142171,-0.946070489664074,0.214538167792559,0.00902619989280627,0.308536015251509,0.127216924248955,0.085903933472896
24.475,-0.418674543251024,0.241525208792469,0.856668316769875,0.0144568869350773,-0.0797760404953319,-0.0684979178615303,-1.00481910519901,0.128344217991456,-0.141639803911756,0.271188935003828,0.137226849794388,-0.0602429807186127,-0.992374233397623,-0.101659443603615,-0.0252073547711348,-1.10894363190099,0.0564660457276289,-0.532473001680013,-0.951455478102072,0.217048751863451,-0.000630310331470432,0.351745376847954,0.109502467868139,0.0959502621522618
24.48,-0.414992015211468,0.236009174577203,0.860883571817237,0.0174905846376649,-0.0799592479926245,-0.062472902272317,-0.997553288703215,0.133907637294141,-0.135192271733921,0.312829525230703,0.131573003267387,-0.0591122100339969,-0.993931243121263,-0.106793025551129,-0.0230210124243969,-1.21091578321922,0.041458867999795,-0.588660571861116,-0.955512864428912,0.212096323052374,-0.00199239427972979,0.383108552062363,0.0989126616105994,0.107635670200728
24.485,-0.420410973860465,0.250970828741631,0.855794685922959,0.0108316034423647,-0.0827964395284653,-0.0599130928861437,-0.991983435819575,0.146049351747295,-0.137321269835523,0.352889838430946,0.1268376136574,-0.0638983919922113,-0.999619455501392,-0.105215746581603,-0.0135951343134539,-1.26299773797591,0.0317890159003714,-0.591291696688769,-0.965338520401143,0.212122192560794,-0.00821034619186602,0.430078710521862,0.0776950948359695,0.119022993712162
24.49,-0.415071734659183,0.255042398545049,0.85436214206056,0.0148890643974296,-0.0776740016295342,-0.0619215779006481,-0.985418131378537,0.157774285266886,-0.133831593703064,0.369671805305101,0.124784156135654,-0.0568036442479139,-0.997813997397772,-0.0994050365757338,-0.0128014462917067,-1.26208029741134,0.0150558276011401,-0.560743943946505,-0.972519678864612,0.213900150798067,-0.007402450163002,0.453149666950004,0.0665069453406495,0.126866997257868
24.495,-0.418339655945696,0.251635111521389,0.853413377461301,0.0160762099269711,-0.0829594191127769,-0.0685242017896739,-0.982232708557017,0.164071922014611,-0.137813571971234,0.367324108165753,0.130291535658815,-0.0537322256245689,-0.984460839109358,-0.0939040332212191,0.00737650581202709,-1.23664984598726,-0.0173530722024886,-0.516269832907043,-0.983571971132275,0.218299739449783,-0.0152644035777947,0.490088582638483,0.0402855305448847,0.138396514932913
24.5,-0.423284555170287,0.2416964967917,0.857657505950761,0.0152834765613079,-0.0980185078251632,-0.0659991399280558,-0.97602446340522,0.164185179235875,-0.134832956870423,0.365379147998063,0.130088957869509,-0.0551639315350049,-0.985004115101093,-0.104703272580921,0.00769515731685365,-1.18369961615938,-0.0398638184773377,-0.508310716599226,-0.985787205857818,0.222308900109789,-0.0222391080590902,0.512089875499839,0.0211502940484931,0.140413749820616
24.505,-0.419627524030086,0.253593176108164,0.851945414622285,0.0160560127529209,-0.0901266038417816,-0.069350541539354,-0.978806853834607,0.168353220291205,-0.130059524200424,0.35264109239713,0.132605752611018,-0.0598180187406195,-0.981558737500951,-0.112753192043242,0.0279671917782618,-1.1424302489867,-0.0696992912751774,-0.52249130857975,-0.992244691812241,0.223149111932435,-0.0217905945257289,0.529325090274847,0.00124280866979414,0.151817985720643
24.51,-0.421723505764253,0.25935602451426,0.85512840580515,0.0119625231662388,-0.0896017924067239,-0.065939413637399,-0.984559512527978,0.166972490619607,-0.139132110573045,0.340895689264021,0.130455221669852,-0.0598473739983904,-0.982276338721047,-0.121060959889682,0.0530414995716689,-1.10985585052604,-0.0944583872848312,-0.526020690787419,-0.998613916859954,0.223281914848973,-0.0216296350482653,0.541874578554486,-0.00908738429335609,0.153030513624592
24.515,-0.419850301179264,0.252647707871892,0.860016639824294,0.00671184863717167,-0.0806943920637203,-0.0647458458222552,-0.979858599300029,0.167785027431653,-0.138504860244649,0.311250349495174,0.116871734530041,-0.0643023798253773,-0.981178850361284,-0.125297648788101,0.08736177989907,-1.07776080149152,-0.120917054383446,-0.550939761934957,-1.00734315101435,0.22357553738318,-0.0186198191847544,0.556152977557491,-0.0120992456901845,0.150818191540025
24.52,-0.422285699838456,0.244044007468437,0.857661014775575,-0.000173882939004051,-0.0732776867350367,-0.0597329901974935,-0.977523805589915,0.165438206648978,-0.130064771849596,0.291745421256125,0.117581164657378,-0.0729915573908937,-0.9836839494939,-0.126950185755119,0.117726942313477,-1.0476775584752,-0.136723675883133,-0.57134388237138,-1.01080001062224,0.226591637184778,-0.0188937846244743,0.556567302277723,-0.00649612665989762,0.149103620055049
24.525,-0.415917178035437,0.24823922598857,0.857688795718505,-3.45439946750559e-05,-0.0764687339752484,-0.0622663582955751,-0.978757432475772,0.170806748963956,-0.117538290762625,0.258674204047886,0.124787119330141,-0.0786012585088823,-0.989747866884196,-0.125482712085522,0.145298746349112,-0.996111984808462,-0.143443833093437,-0.573297465694232,-1.01039685190112,0.228968786686426,-0.0173599338132754,0.535221076116698,-0.000636487581337144,0.149536040254348
24.53,-0.413926667624547,0.253177952528402,0.858296273471587,-0.00304194167256355,-0.0791109159684732,-0.0561738404828407,-0.982379048499289,0.173096983860401,-0.126083689898529,0.203348404550338,0.122244764978469,-0.0928142389796847,-1.00020805981317,-0.123500249579214,0.166379940714857,-0.927723972753114,-0.137975636607119,-0.553916256519163,-1.01752592797104,0.2388022775946,-0.014728091011281,0.527057790980181,0.00727640989686236,0.144493526350068
24.535,-0.41209158565897,0.253222698065636,0.859225062107637,-0.00635406616733065,-0.0790499393879534,-0.0541977469335139,-0.979825783175942,0.17454416543029,-0.132073039770336,0.161180147145509,0.135108857480508,-0.0964763554592707,-1.00498329562678,-0.127913098983621,0.180439549592668,-0.841064970297886,-0.124128920932193,-0.521274775656584,-1.02294368248076,0.240432944754948,-0.0119512498495547,0.505826889759446,0.00421664075814214,0.141504049301147
24.54,-0.408079798902037,0.245190104952139,0.856643846412513,-0.00792871788144112,-0.0869730322204152,-0.0523058402099793,-0.978368262224853,0.166304999195931,-0.129696652883029,0.119589811482795,0.139577806347002,-0.110444967313529,-1.00412566475871,-0.145454924929579,0.194203742371625,-0.714303963101887,-0.100542411295264,-0.486400114424782,-1.02362282398545,0.246232108581521,-0.0121207130664295,0.485713551244354,-0.00152117452195892,0.130541203429806
24.545,-0.409304706083602,0.240429081097675,0.861882024023774,-0.00538240401637505,-0.0769117168396824,-0.0531459621515037,-0.977092716469913,0.162136626553788,-0.128449285980464,0.0886859229476559,0.145402884310865,-0.113997541368008,-1.00597120227566,-0.155709359578816,0.202851921306849,-0.648048980212029,-0.082622550344821,-0.465620861109651,-1.02204471425549,0.247221743243831,-0.00624017134698619,0.474487449322677,-0.0175949771531792,0.127176441061455
24.55,-0.410442072839719,0.241580295171465,0.855139968650913,-0.00879910309426758,-0.0773853258246968,-0.0531966903520109,-0.977098912623757,0.161328127868347,-0.136364562118733,0.0456922951747782,0.151485698455073,-0.117060381224002,-1.00804888980022,-0.164296017992371,0.21614965728856,-0.554352520825516,-0.0527083812274813,-0.429318881371998,-1.02004581700421,0.250435479115571,-0.00247896944639888,0.477914972600351,-0.0325054018930695,0.120526768835816
24.555,-0.416704004918625,0.242405496058896,0.860837009195804,-0.00919476350127095,-0.0775172134313515,-0.052932916747342,-0.978404927090577,0.155502446195592,-0.143273279846291,0.0346039815617745,0.156779237036585,-0.122960146073148,-1.01250867147883,-0.173183321958341,0.221056591963316,-0.482663238238188,-0.0308107314365561,-0.396163437334694,-1.01054625416213,0.254346914071333,-0.00465285554159564,0.493240105338546,-0.0447371204429101,0.117518500175494
24.56,-0.416948121054367,0.243457099752164,0.858401718539048,-0.0103721059858799,-0.0584887907834748,-0.0567176371856236,-0.974809609599412,0.151607958274649,-0.153167734862133,0.0386308735800755,0.156865905975598,-0.126030614769654,-1.01505572138909,-0.184434495314302,0.218926751556917,-0.410292717064926,0.00225142995136069,-0.340357096100742,-1.00522384721497,0.25311473262789,-0.0012108943008732,0.50544327430708,-0.0573381465082767,0.109400908284902
24.565,-0.418238038413151,0.251846935003997,0.856832653019944,-0.0102745844680992,-0.0789065169226225,-0.0519231873878317,-0.979390591608865,0.147609113896819,-0.149190197806539,0.0429683114241203,0.162353078962528,-0.126001818959848,-1.01852929591626,-0.191623416530603,0.208722847030518,-0.352476397619843,0.0333560157371483,-0.288556416564286,-0.999862660192214,0.253406655147673,0.00662171493331525,0.506785530398118,-0.0585766772030348,0.0962773599207751
24.57,-0.41381974664724,0.251856601689285,0.852589903966433,-0.0136838498437652,-0.0815847405603107,-0.0530263736725489,-0.981095447689349,0.141436615687309,-0.150291544103562,0.0460253259574255,0.162730340506862,-0.128064782362205,-1.00631393320721,-0.193532132406443,0.199192762675451,-0.315751922028279,0.0516642258210633,-0.264325559011369,-0.993172605751338,0.251112922931716,0.012292990542057,0.512875697285482,-0.0625793804853613,0.0860983438596942
24.575,-0.418729505513508,0.24723762413871,0.858869113681613,-0.0149139689400115,-0.0773310617766829,-0.0524929375433799,-0.983155395692188,0.141861051978786,-0.152843774296827,0.0496814011504455,0.154751927408015,-0.131505675947315,-0.992374229948537,-0.191891870098126,0.191200753600858,-0.29130896252167,0.0661460377979407,-0.235361935057614,-0.990155540314645,0.249323015711804,0.0157033615252766,0.522123833571598,-0.0600589339282272,0.0737953037918604
24.58,-0.412973701774496,0.249344443356352,0.856886453112108,-0.0141929742296727,-0.0707352813681157,-0.0497825248340861,-0.98744489656721,0.143670684754348,-0.150032569468436,0.0602706624774419,0.154510669543297,-0.133364565537422,-0.974626742165501,-0.193885408612515,0.169120847651091,-0.261185919440015,0.0821888842090085,-0.218807308211174,-0.983570047328338,0.239853174427321,0.0173457362169392,0.527819193888883,-0.070189414082704,0.062828899592788
24.585,-0.411665405274335,0.24478674977646,0.858052381396323,-0.010147776045545,-0.0770123435582479,-0.0510506132951736,-0.985348826904219,0.13742749104545,-0.151013385794917,0.0655437329169833,0.151301646966018,-0.136785640692385,-0.965919415862843,-0.180979809436365,0.154348505709714,-0.212937066481532,0.105620856684033,-0.209546014811434,-0.985406980300349,0.23398382963624,0.0188095360656478,0.548356240092598,-0.083578344516866,0.0477315756327229
24.59,-0.411585387775316,0.241881298166075,0.864585259000875,-0.00967371614108532,-0.0730228871107101,-0.054941581136781,-0.979135269355492,0.128463815316597,-0.156134176397241,0.0619945923001807,0.151780819847787,-0.133746451769355,-0.958497755257188,-0.175325724732344,0.140248175829839,-0.185315712168718,0.122012709666517,-0.208641158949111,-0.985839210633568,0.230222223600158,0.0137167042767995,0.566805583303929,-0.100744844729719,0.0328908519173578
24.595,-0.40827851991577,0.246060956117462,0.860922034481249,-0.0103721059858799,-0.0755123499258304,-0.0504883765070377,-0.978140718645969,0.127979429252793,-0.161736784535457,0.0606766804933277,0.147404783462003,-0.129053705978502,-0.955254367847394,-0.166660191975499,0.115326021046697,-0.134911073481086,0.144036034653369,-0.204896960226049,-0.987260363370386,0.22439952620335,0.0122006156742713,0.584389823056286,-0.11610543650516,0.0220924758531013
24.6,-0.403163012291705,0.248714781542686,0.862651789317557,-0.00237142572919321,-0.0778309231095528,-0.0462757672008219,-0.983691200386717,0.133710305055085,-0.157837744234712,0.0972611711990979,0.135694121546011,-0.139873092681119,-0.956268610871537,-0.158131774512038,0.0935113570917947,-0.0833039880035819,0.173117411050439,-0.203362098752116,-0.985749051988479,0.209242985499035,0.0109998246710401,0.608787161914514,-0.147974479110607,0.00603609141717977
24.605,-0.408538291066917,0.24606888479521,0.861114224925008,-0.00792871788144112,-0.0820246417106336,-0.0511512795478674,-0.974635111444436,0.136240337724742,-0.154758382878116,0.0950249846628936,0.139882412869315,-0.136785395908271,-0.956803666717576,-0.154922484417016,0.072042202831593,-0.0572473518550396,0.185956785525243,-0.211898689331378,-0.983659440457379,0.203138522184283,0.0072294334414236,0.619233764541977,-0.158425393829542,0.000627098920596283
24.61,-0.414106582090559,0.24178383346121,0.856796625399109,-0.0100349596437117,-0.0750666022531224,-0.0553073835981934,-0.974387067881368,0.132034564381047,-0.16776935510569,0.0807633459474412,0.138836228888826,-0.132196713881677,-0.956395958270034,-0.157840057381553,0.0528268530521031,-0.065534397473254,0.192155346274376,-0.224492543314006,-0.981378193320851,0.196881855792406,0.00350769009720403,0.640397421338576,-0.165253738537197,-0.0101928142770302
24.615,-0.412090111696278,0.236960679414769,0.862523985128083,-0.0103471350543283,-0.0772366995730504,-0.0545414667825573,-0.972950692362707,0.139748329323936,-0.177230662416794,0.0724747643002577,0.131144720197278,-0.131088103883244,-0.958320048411881,-0.16115605428705,0.039267176335512,-0.0843057942624736,0.198444978618209,-0.245934462378101,-0.973486948333095,0.193141129664083,0.00383315916224111,0.652668066805379,-0.162954929983427,-0.0147593460213187
24.62,-0.410209599758938,0.239373451035516,0.86180765003844,-0.00572896941849391,-0.0977039101013635,-0.0441646524112324,-0.976884883901486,0.14734413350451,-0.167387467802406,0.0766785834048397,0.147831603963363,-0.128942384025231,-0.960349443486823,-0.164996593522455,0.0320725817156544,-0.105395588182255,0.212932574878785,-0.273144406901705,-0.97135370686347,0.190355330486781,-0.000507452313714868,0.656473216456036,-0.15988355926765,-0.019366413905871
24.625,-0.409557386192101,0.24474618152471,0.862162134696492,-0.0119214585561494,-0.0826770682632307,-0.0524756765503625,-0.98487297804007,0.150509847424714,-0.157171251674025,0.0744746068259701,0.140635708843375,-0.139441998871395,-0.967209831769616,-0.168369708666502,0.0256505439339028,-0.137048780637133,0.216589242219925,-0.303818538503992,-0.97282574509351,0.190071138300153,-0.000750571634394944,0.658760391678018,-0.141117880192171,-0.022203017026186
24.63,-0.411291541189411,0.249731599761301,0.858684190113526,-0.00897873723272506,-0.0793130133968032,-0.0516329955304089,-0.987861383597842,0.151642217990677,-0.164690507028822,0.068411223590374,0.121804436058668,-0.139964997720982,-0.974054849538174,-0.165306949373932,0.0277275819911683,-0.151077621616413,0.214640020584671,-0.324669640347388,-0.968447043033062,0.192629465293297,-0.000726075654697559,0.653363976883857,-0.137688525864057,-0.0236344838819679
24.635,-0.41494457851324,0.240048734412063,0.858160802821138,-0.011201269940864,-0.0794797837085288,-0.0549839399592767,-0.984989670078918,0.156397561997134,-0.164952090604966,0.0699539482085982,0.112405055021734,-0.142096519470215,-0.982475535161975,-0.163384107717424,0.0252662482771714,-0.169044207322619,0.202738115102271,-0.335736048251318,-0.97056532630976,0.198474212247962,0.000596403292197799,0.661504202610267,-0.131016067319002,-0.0266055418689287
24.64,-0.411072881928379,0.244663343669584,0.856974043966874,-0.00475009729390956,-0.0973001613842529,-0.0534507927380099,-0.98610362889267,0.163490079349022,-0.152325219343947,0.0719775262186243,0.11870385880745,-0.144342334821587,-0.989061814349526,-0.162948282343248,0.0227158345782055,-0.1972467998827,0.183853614311243,-0.326644302386144,-0.965278808260215,0.207314883836691,0.00147887508005745,0.671423794820505,-0.131255656056587,-0.0281781001442706
24.645,-0.412891305830918,0.253916653314071,0.85885505578284,-0.0147107998694343,-0.0789068152900386,-0.0572593346516893,-0.987763007038489,0.157080648732368,-0.155656619507704,0.062577979042227,0.126069240299157,-0.137421607916236,-0.990869957671418,-0.163682640367386,0.0220620357364919,-0.206840043333553,0.173806634000293,-0.322761358843459,-0.966127123040663,0.216801746849576,-0.00389690564701868,0.676390798507721,-0.119948594057618,-0.0250064643783462
24.65,-0.403679736120758,0.247897362127749,0.861734721370536,-0.0156157042518599,-0.078431302581474,-0.0598214230734599,-0.987435809441953,0.143612022290235,-0.148361903985167,0.0378164133755071,0.130612248206721,-0.140962111401923,-0.988566898069272,-0.164361123629267,0.0220854205085469,-0.195557824700994,0.152208227365501,-0.308795408487305,-0.960626034526243,0.225059666317691,-0.0012206524594784,0.675519711618073,-0.113769078164893,-0.0303853569081212
24.655,-0.397304455589258,0.249021408052677,0.86821496662877,-0.012815497815609,-0.0799608288376503,-0.060262630185001,-0.983511370833403,0.137484165293687,-0.152061876471774,0.0109442336117711,0.1282624990243,-0.148625378699679,-0.984414462859629,-0.162554843116639,0.0265917405081756,-0.199624315197318,0.129320590683518,-0.307950845472654,-0.964316126631454,0.235952939626672,-0.00306480300377574,0.676083633041577,-0.118180992470053,-0.0356416590511799
24.66,-0.396552926856315,0.244615826658555,0.8644823863467,-0.0242380097838585,-0.0632192817301294,-0.0583359389476889,-0.986935821772698,0.140929867033854,-0.153930262968083,0.00705068411625231,0.124064023685211,-0.149518622795932,-0.978756194500223,-0.161902855609911,0.0209516365127305,-0.213679051380414,0.102745378146739,-0.315932398965983,-0.966553059020508,0.252968663350291,-0.00542601502019943,0.660323417312983,-0.115768567755916,-0.0323610499451643
24.665,-0.400810067512954,0.251513753966415,0.869540209863051,-0.013380687498848,-0.0792226707229716,-0.0611375536501785,-0.978458034225039,0.137187580285824,-0.15840584598728,0.010389929115797,0.119108112889614,-0.157565189462356,-0.973516970451306,-0.161346731554577,0.012278396846394,-0.24089109091002,0.0813823005089623,-0.319974010258988,-0.966128097286426,0.260705272388821,-0.00687002792190092,0.643067869140918,-0.0999334163764408,-0.0281364585902499
24.67,-0.396186892446033,0.256000232977345,0.865363430104348,-0.00936666135268751,-0.0867479976485774,-0.0641487203113502,-0.974928949135791,0.144882716655391,-0.162768172643963,0.0251399751299743,0.117196883549705,-0.159924538739946,-0.970624453187425,-0.15976564271047,0.00957051514899932,-0.293375808526441,0.0634965270100556,-0.321501182482977,-0.973061197538258,0.270620936370246,-0.0139960986023732,0.613108883366521,-0.100077501550062,-0.0270898006856441
24.675,-0.397911734808762,0.264205709368691,0.85454987603911,-0.0104113428751489,-0.087249823817371,-0.0647591221180273,-0.974764007802993,0.145684733695138,-0.163194122601438,0.0321680578939844,0.110349676223751,-0.15594283102485,-0.968141596422194,-0.152914100580767,0.0085613607606066,-0.338912590525181,0.0497153626247196,-0.330666264794641,-0.977182995467821,0.278762655366105,-0.014381812735588,0.582097210988496,-0.0907348916872505,-0.0216285419781054
24.68,-0.415875401156494,0.225986972793082,0.856409521668449,-0.0298875919201903,-0.054447390643397,-0.0666516928440305,-0.977649345779753,0.135365499467522,-0.1795438393407,0.0166911122881109,0.110259274410763,-0.156305320227265,-0.967270060704075,-0.146992964547776,0.00577449569110687,-0.374731510576822,0.0346914881280606,-0.340395521993617,-0.980305702058299,0.281345305505221,-0.0193353987273811,0.552394205369294,-0.0742355425231381,-0.0152422436023764
24.685,-0.419340057714917,0.210397037929803,0.863663330919941,-0.0260300470758975,-0.0815747380256653,-0.0575842279424338,-0.974762389708979,0.134881550907319,-0.184828625285758,0.0139067576127479,0.11772815226015,-0.166415558827819,-0.969405593943227,-0.141090574274921,0.00709496597947047,-0.426312692731899,0.0213970738314007,-0.35473844408989,-0.981853308554091,0.288225444031699,-0.0239703370109933,0.527154891928105,-0.0671343764527648,-0.0101521371097612
24.69,-0.413717529819327,0.226823690670783,0.861141194483003,-0.0224303100534744,-0.0831360194531332,-0.0545914098620415,-0.97505715441171,0.136486004409234,-0.176556619839395,0.0295837020844995,0.123281753238661,-0.180564406328871,-0.971023957081019,-0.141694764122925,0.0107192830335451,-0.471954830203068,0.0157501638468102,-0.360512573378092,-0.977789681403713,0.289392474834196,-0.0328954059167512,0.487711904774644,-0.0746610526763205,-0.00104990301709731
24.695,-0.403987956789939,0.234192188713646,0.866543603762875,-0.0205758668620326,-0.0868917238996816,-0.056243306128819,-0.981380896526582,0.129056382603013,-0.170393559898919,0.0557554153691783,0.119315330120696,-0.184855833649635,-0.974157550962162,-0.143761106345064,0.014996076761311,-0.511843815957872,0.0165894034551274,-0.379667183328444,-0.966865726423086,0.292504879502278,-0.0363421609156716,0.447998248976877,-0.0739905229486127,0.00811478729055268
24.7,-0.406242011567141,0.231580073654623,0.868525648660103,-0.0202252117995837,-0.101388951226899,-0.0604612353215909,-0.988836073458776,0.117729181565321,-0.172958710241882,0.0782021429552946,0.119937850910908,-0.187113939601665,-0.978491500705392,-0.147134139252545,0.020694076782786,-0.54715944163221,0.0163470931475798,-0.391916454586914,-0.970251096853242,0.29024812726327,-0.0350384357190332,0.412375777091225,-0.0698559984139148,0.00203314137171127
24.705,-0.399348284860412,0.231038444608306,0.864493148049745,-0.0184742071426887,-0.0907039609762116,-0.0641400892633686,-0.983994191618618,0.104675216837272,-0.167307067155419,0.106981225365233,0.124000894698312,-0.182358018355789,-0.982539192027033,-0.15409920799845,0.0232450437372634,-0.559766640984479,0.0166940392721148,-0.402194771717323,-0.969534961929996,0.287140437258662,-0.0363567650563978,0.402911641382271,-0.0659107608135605,0.00237307492586984
24.71,-0.405073618488089,0.233245827166068,0.866433007950678,-0.0191083285261039,-0.0939485219404821,-0.065771022629446,-0.980243092780236,0.0979268554890757,-0.161847696707861,0.149527725908912,0.122958265535788,-0.173739410034991,-0.983656379568699,-0.163094419535954,0.0290272961625137,-0.579655611858976,0.0155061293044065,-0.400672845648631,-0.968584158307931,0.284764810870068,-0.0297707462369793,0.397869820156387,-0.069910816211126,-0.00531497111613701
24.715,-0.404213202443921,0.245209435351775,0.863744722188349,-0.0217587316035082,-0.0901741878665563,-0.0692517459392548,-0.975666914628584,0.102475005670787,-0.160809526912117,0.182331136820752,0.124172635725193,-0.168575687081396,-0.98476251617242,-0.170227937716434,0.0346777367194584,-0.594125236569999,0.0206848414172113,-0.397575877076903,-0.957581883955924,0.28068137891787,-0.0232527994993983,0.391787096921265,-0.0651000495806818,-0.00987699995662314
24.72,-0.396701960673194,0.249173342338184,0.868267329558648,-0.021367359906435,-0.0890646536089028,-0.0681099200714153,-0.974341580900035,0.112010026545772,-0.157085978486097,0.204195375917009,0.121725049881787,-0.16549882902138,-0.979412389674642,-0.177394767497144,0.0408495429611476,-0.611683808336764,0.0299353137729875,-0.37753950165574,-0.954237211333672,0.278129857108137,-0.0172817411691833,0.396568139883852,-0.0409979915195919,-0.010115202586115
24.725,-0.394238339183092,0.240901192612898,0.871467046397332,-0.0179258849746445,-0.0852398276329041,-0.0712479121433776,-0.978380348783178,0.110436669167587,-0.158043612715576,0.200610659452797,0.118147330637433,-0.16526344745419,-0.979914731395131,-0.177733889711232,0.0501575854537267,-0.618849349925755,0.0338119688962253,-0.359694232027848,-0.949343874098932,0.277118106403712,-0.0137645707731881,0.408546726272706,-0.0433816550738421,-0.00369882027849815
24.73,-0.395382497166431,0.235558758327729,0.866840441511633,-0.0194457227358832,-0.0868050947923905,-0.069773500598432,-0.983131234162907,0.110832753190881,-0.159497529279198,0.2132797123777,0.125722934287037,-0.161743562748014,-0.982364862580565,-0.183634394378642,0.0567039994914743,-0.619205028471164,0.0469831688019801,-0.310172646611123,-0.954638043312047,0.263861462544131,-0.0104602639323828,0.421155686346902,-0.0499221244235508,-0.00123402056123064
24.735,-0.404423976962886,0.24003497974142,0.865390709103423,-0.0226283620677115,-0.0872497755360123,-0.0646804768322824,-0.985199179170828,0.11220280942602,-0.173177786938984,0.215425439800436,0.120126256450941,-0.172634198108722,-0.981547221770026,-0.195329415036798,0.0599292346962708,-0.624470867934264,0.0552506415781207,-0.275628012920687,-0.955117330879738,0.25904365456136,-0.0147172477441188,0.438018873094208,-0.0774759851496798,0.0025681903223334
24.74,-0.406777539504848,0.241027574499405,0.8613139165528,-0.0260945962917973,-0.0853195970581797,-0.0653473538040827,-0.986536311684327,0.134917553907389,-0.185744954009661,0.215957151835593,0.118808399679822,-0.177432622554464,-0.974116585712756,-0.215105625419639,0.0709720203311861,-0.636340691793827,0.0664521546676596,-0.239626303834875,-0.9684875223565,0.252918902912224,-0.0189852062900224,0.461152124050372,-0.125435517563674,-0.00306673342568024
24.745,-0.40372942525196,0.246480227450324,0.862831003636072,-0.0238107480108738,-0.0861489294992032,-0.0632474728462938,-0.978025218415924,0.141152457571399,-0.179178223939923,0.193774660030025,0.128040204247464,-0.177409843206757,-0.961711138431059,-0.234520528410751,0.0778371189612247,-0.632375511853816,0.07807186825627,-0.207177385677967,-0.969526422414805,0.25466780006698,-0.0192793334515284,0.475950979238686,-0.147824071890053,-0.000749326492706946
24.75,-0.397161557620613,0.246067220886184,0.865524022493295,-0.0248493398611745,-0.0928131166260115,-0.0582564957439899,-0.981716817544591,0.148680024935506,-0.174684861288245,0.171551345399267,0.127535365619739,-0.188520908355713,-0.95576419724828,-0.247701092239448,0.0880479939557384,-0.610190506814415,0.0850834794917036,-0.181866512296115,-0.970998706997861,0.243332213615771,-0.0171845749686809,0.496841167537591,-0.172920326646608,-0.00434494355180032
24.755,-0.397794902897922,0.240335653282536,0.867645873964184,-0.0245965783171888,-0.0857186375753367,-0.0599140535421137,-0.988812879105533,0.14360272802124,-0.179990964981191,0.132724215107295,0.12214514330275,-0.194231156143662,-0.960449198130298,-0.257413415118629,0.099403582204185,-0.554603365030652,0.0934959311780488,-0.158010345603314,-0.971672995280135,0.244543687760012,-0.0112543295717393,0.508254933308816,-0.186498671770096,-0.00818237751184784
24.76,-0.402891129126375,0.23280409809302,0.864341738173206,-0.024952700539348,-0.0796895410737514,-0.0584159787914802,-0.988011272906249,0.13420550978302,-0.18477264711039,0.0962747200989541,0.113160953074961,-0.200461874974303,-0.964137056282466,-0.263507420262937,0.107519980933015,-0.509624397402073,0.107799788761269,-0.138557152998317,-0.972290682442545,0.243249468276043,-0.00986849236054272,0.517513525392863,-0.188683035878931,-0.0154469530776284
24.765,-0.404362013790145,0.2365504023362,0.865135135158821,-0.0286975242197514,-0.0824744726350624,-0.0614717105959495,-0.982711801814109,0.124948752201041,-0.188602928819489,0.0756461469335777,0.132025450913187,-0.197336155992134,-0.970203158245348,-0.276384446227474,0.110932841121882,-0.439051954268433,0.112844482527889,-0.117908584247294,-0.973168679180899,0.243568587498354,-0.000391901922997875,0.522286650916285,-0.191869100666896,-0.0182070359223827
24.77,-0.399962565915671,0.232279806634633,0.866418744633393,-0.0297483544779588,-0.08488527205151,-0.0605290200544168,-0.981172377352832,0.103877196335149,-0.188078308321073,0.0413365607117337,0.115316357478468,-0.206451554031118,-0.979719897644496,-0.292966587549714,0.105758370363903,-0.389566808075432,0.120075382292271,-0.105512760579586,-0.979010953291282,0.240205099700802,0.00297084978125333,0.51467902776641,-0.171786452559984,-0.0262926347366598
24.775,-0.393202915593784,0.232828143789766,0.870738478577253,-0.0303110268183638,-0.0803067779498756,-0.0594319213831691,-0.983065685192031,0.0882376813800969,-0.189090325272288,0.0476503253703623,0.108718020032351,-0.205210818136086,-0.985682131940571,-0.304149412830512,0.104650347916727,-0.325361476328164,0.127999493030312,-0.0999658748475825,-0.98061593212723,0.244910706348135,0.00580498353492061,0.510960459709167,-0.145879799284588,-0.0331023664450201
24.78,-0.393068019270625,0.23716163518247,0.867457097084286,-0.0310620381447017,-0.0791313499212265,-0.0559708525137474,-0.996578642370131,0.0785493907662585,-0.187407343172977,0.0726725055270505,0.11016486115255,-0.19527590485619,-0.987461282528738,-0.307687804862322,0.106996955755115,-0.28657469596422,0.134503241707608,-0.0936445052478836,-0.977705041775569,0.245665447211015,0.000361247576373661,0.502192089436612,-0.122411902021918,-0.0399001964193075
24.785,-0.395970327195011,0.235598201905051,0.868986990977671,-0.0345889892841168,-0.0815507379650475,-0.0604025408618172,-0.993179690000879,0.08057853932034,-0.190752822093473,0.0853183900992418,0.0934508762892156,-0.20255769175179,-0.982757334667866,-0.304962990739214,0.104436187830966,-0.240184957478592,0.136691696691634,-0.0858390142566134,-0.980038300423016,0.253519722305721,0.0128998322691894,0.485840274007212,-0.0990720190849573,-0.0490597371576553
24.79,-0.399099464216759,0.235601822703634,0.869901072977926,-0.0345745714399555,-0.0679369622852195,-0.0538648498056819,-0.988250926532438,0.0900684339962925,-0.197874616926696,0.0947061889048199,0.0925544488401551,-0.192929413925025,-0.97464300131891,-0.298040340546623,0.0973200575771504,-0.19167333960425,0.142648232986878,-0.0645401151899603,-0.975811186426674,0.258475845941653,0.0167773473103914,0.479110069802986,-0.0885472070996425,-0.0572537178270265
24.795,-0.401140975014134,0.233398892014431,0.86831875056141,-0.0343676823735516,-0.073852886323006,-0.051271392765518,-0.985159773593487,0.0997708545354673,-0.198951053170938,0.111196288054667,0.0879475493278259,-0.190552780434107,-0.968077644169713,-0.288155442899588,0.0927616548441573,-0.14706976291541,0.150489993789069,-0.0490140303155844,-0.977414027986985,0.262608229449061,0.0173740367481744,0.465110971482986,-0.0872780110388696,-0.0642197643166063
24.8,-0.402944720147069,0.239141706640381,0.863751197587636,-0.0312996208465172,-0.0742445737123489,-0.0497046336531639,-0.975144714778923,0.109939432809001,-0.197731486656312,0.133008677409945,0.0905276514384863,-0.194262973440186,-0.962975402153057,-0.274850481481987,0.0853577833513245,-0.0976810407548423,0.156382315464026,-0.0358007936020227,-0.981952973364503,0.268169904742292,0.0218199209058049,0.451983239121407,-0.10898207975819,-0.0728814949091076
24.805,-0.402370492650061,0.238971726823757,0.861966331472109,-0.0377967595260641,-0.0694556256501006,-0.0494798585706894,-0.979479690668569,0.123310802949129,-0.192029887777253,0.15562894265293,0.0859156847000122,-0.200153329995881,-0.958218702943435,-0.251008505862857,0.0806180348447259,-0.0518550707237667,0.162281758012169,-0.0367976990823941,-0.984695587177372,0.27373508431739,0.0240578066861016,0.446171698344723,-0.129944940245509,-0.0823812147567612
24.81,-0.397508104864498,0.23944250024948,0.867982673449746,-0.0348059944808483,-0.0681524900872074,-0.0490088611343775,-0.979904029732637,0.139488174972503,-0.185374339676007,0.157546034962075,0.0869419106493137,-0.207286155680713,-0.95806278761763,-0.231699733403902,0.0813986457450533,-0.0132244618816212,0.165044901312036,-0.0434534707546413,-0.990217030232065,0.269262239873702,0.0233774933781853,0.433849255984682,-0.155148436911445,-0.0878428359072967
24.815,-0.397111715434849,0.233903271412843,0.865135353472053,-0.0314834829539848,-0.0846516774547326,-0.0521965172983116,-0.976462186066248,0.14862008942012,-0.180603308982448,0.143316542674078,0.0818144834289155,-0.220317472337815,-0.955834481514177,-0.210651307597199,0.0794549712761615,0.0443821774065294,0.173829928040504,-0.0512187418412567,-1.00053742840952,0.267763613382957,0.0240692250155218,0.423999490161443,-0.179050360685303,-0.092284144955394
24.82,-0.398495274926275,0.232370672772594,0.866682291475707,-0.0333448992095823,-0.0809914546748176,-0.0590791875211309,-0.976428146382659,0.128450565611197,-0.17629938024247,0.108874651588221,0.0876188167046625,-0.225079213375295,-0.958750139394948,-0.194512698787826,0.0792290859081122,0.0741461073015775,0.176037150779085,-0.0608232596155948,-1.00711728631421,0.269361912712755,0.0258617558368906,0.416333016615182,-0.215205208330301,-0.096194644628235
24.825,-0.402718954405523,0.223194653029998,0.865605661598352,-0.029327283483304,-0.0775276408348579,-0.063181097067858,-0.970766318490541,0.093055772645201,-0.185727985043535,0.0816156750622258,0.0981693213216425,-0.223752556317531,-0.965071801074325,-0.184637862723986,0.077102063722194,0.0802951226032454,0.188363115705905,-0.0857368753699261,-0.998536531024175,0.267556999291351,0.0297037525361391,0.41369899809409,-0.235621781391053,-0.10854219917686
24.83,-0.408148312564587,0.210804449305759,0.873794896309749,-0.0347223162346868,-0.0815747380256653,-0.0711395144015096,-0.964107610634806,0.0752233039481443,-0.182935412653128,0.091739772320208,0.0929338145469552,-0.223638016304863,-0.978367458760718,-0.17395081647075,0.0703580499067803,0.0771625326008713,0.204937533784964,-0.122322117229638,-0.993851897011282,0.262518418653845,0.0341238619801259,0.399046956485433,-0.24592443936254,-0.117359990111104
24.835,-0.398602929883862,0.237737083921954,0.862089047576509,-0.0327040726501887,-0.0848701702619775,-0.0675476601017365,-0.962959196783667,0.073212452757379,-0.171831629257046,0.12530660060038,0.0977102985581135,-0.223550369549189,-0.991194902130212,-0.171221853987317,0.0714665324415697,0.0495147027568574,0.216785518007852,-0.128645846835911,-0.98798592733189,0.255715469026145,0.0387367891913714,0.387133769162017,-0.255349167220277,-0.127931661433897
24.84,-0.397129063767396,0.245010180039427,0.870694751196565,-0.0367729710266907,-0.0910306920261371,-0.0735033044145586,-0.960266708058444,0.0869371533796999,-0.1461217651753,0.165158510366822,0.112909675285382,-0.21256183840972,-1.00311421480353,-0.163942261779701,0.0770354700310514,0.0137399697970459,0.228085887666748,-0.13777823346141,-0.981409362507248,0.244458011141349,0.0442362295218446,0.374923358568722,-0.263125734186161,-0.133037524080265
24.845,-0.387359626017366,0.235255271009369,0.868754955450692,-0.0473504971932817,-0.0904541633055378,-0.0826903879642487,-0.969895423965913,0.0798039593394692,-0.142162755853385,0.173008292221268,0.123999502022292,-0.204990759806418,-1.01095317895475,-0.160000203453782,0.0762287858386235,-0.0221393699105326,0.235313282042426,-0.127156279721389,-0.977682496228781,0.228776371081557,0.0475008906032362,0.374130725860596,-0.26797315626996,-0.142034087648128
24.85,-0.386446995660348,0.235697750680809,0.873737543230138,-0.0438779348988367,-0.0890618904156121,-0.0811301641586324,-0.979878901883167,0.0665272349327309,-0.145287488134653,0.163912650887917,0.123491257239834,-0.202465769782955,-1.01436684291428,-0.1594314953422,0.0724906520176919,-0.0630692099997933,0.237358033657074,-0.106015528806758,-0.972679768508029,0.225076582944578,0.0534827124050032,0.376035335610832,-0.267337297534944,-0.153068473836829
24.855,-0.387533531097065,0.228955302731818,0.879043187200285,-0.041261965389523,-0.0983757776837602,-0.0732195200700507,-0.984923180472036,0.070488125764432,-0.153798705523167,0.159215223088467,0.118894970401312,-0.200731392659467,-1.01478635975303,-0.157355929754657,0.0667545711502557,-0.115681737341677,0.23413084249066,-0.086057627212008,-0.969773124001803,0.22199293865965,0.0579397230272204,0.389374652127717,-0.267183809393754,-0.165406440549187
24.86,-0.396216577224315,0.232748340899405,0.877827191747267,-0.0419767804392879,-0.0908438404523519,-0.0716154411409649,-0.986952787934657,0.0764271885066883,-0.159101262475727,0.175663912564233,0.138007362488339,-0.201774786446208,-1.01363218508891,-0.149649905124612,0.0644536287249853,-0.142554142335654,0.220158972308371,-0.0766016681799729,-0.96966585332701,0.21307606571482,0.0626661267699872,0.399336952633415,-0.267018182621427,-0.17879053455348
24.865,-0.391293373221793,0.230917840634242,0.875369307308152,-0.0534916370008893,-0.0903101105745267,-0.0654949104162241,-0.992160352431327,0.0849618065779493,-0.171605879865871,0.182882315891568,0.137808424439925,-0.206264764242644,-1.00405962136401,-0.145593815923573,0.064003397775907,-0.149680004341896,0.206010117308799,-0.0812668975963699,-0.970260368650925,0.208014496827008,0.0592625337396256,0.405429904832069,-0.26346543431282,-0.188456187859527
24.87,-0.39354249786901,0.232471241469963,0.875392560461833,-0.0551955214845806,-0.084039296483314,-0.0657339845814579,-0.991004335323139,0.101347682936642,-0.174151457694735,0.182293936810012,0.136837528986576,-0.214424889199022,-0.996406546715987,-0.140883244591397,0.0609595587954874,-0.153761222958565,0.198992306651982,-0.092813927442991,-0.971032371453077,0.205139898575075,0.057669785693126,0.410967287248378,-0.262996297138928,-0.198967626327753
24.875,-0.392097399275557,0.234757074865065,0.874565437183841,-0.0507391484750291,-0.0864104001999748,-0.0578151792812608,-0.988659681145553,0.120582425914825,-0.180283728203821,0.156263894878617,0.154412572316219,-0.228058814307477,-0.984765231727147,-0.134451824382564,0.0587830216563993,-0.148130830617631,0.192990052254355,-0.113078093281719,-0.977030725450852,0.201300917936745,0.0607743500198617,0.411636801487416,-0.269390389651674,-0.211382160663862
24.88,-0.394415397453594,0.236532900134221,0.873356992936493,-0.0530525727252162,-0.0840969666004184,-0.0570347979664803,-0.98831776781278,0.127055381929432,-0.193549022691635,0.0979969322889215,0.154878970004767,-0.235801392572213,-0.977194272245317,-0.13119150474301,0.0553757796959292,-0.12858525200912,0.19769671915807,-0.136797201790128,-0.974557609751086,0.204760716620092,0.0591243930463065,0.416272761124114,-0.273238986730576,-0.22291845734708
24.885,-0.391877864894973,0.229462157484997,0.87284603371498,-0.0549873440979435,-0.0856626516607004,-0.0549674558586682,-0.987008669489705,0.116613883604561,-0.20359286428931,0.0341260859391578,0.159017802726523,-0.245891807361139,-0.969401458240223,-0.125808801476075,0.0459955413972241,-0.138370122233965,0.196391307110105,-0.148412795948794,-0.985249826679611,0.212413419700479,0.060305028553613,0.421142100396383,-0.284865602434374,-0.23396230049992
24.89,-0.395777497618892,0.228504094071003,0.868517218781902,-0.0570657181956769,-0.0848257899149384,-0.0504500900683159,-0.98606347826383,0.109840342753267,-0.205949264331663,-0.00904522023013788,0.159373851495634,-0.257698096965202,-0.960767125530963,-0.135989158078512,0.0369204236795531,-0.152527141689238,0.200371763994949,-0.172585892680639,-0.988267146060916,0.219641694994639,0.0607620724027018,0.432843367396325,-0.305576702086779,-0.246346761910769
24.895,-0.39992123271352,0.230637256817474,0.868111366444817,-0.0675542494365531,-0.0795544171327561,-0.0568923008754033,-0.979698154301273,0.0862832826930956,-0.206089135486767,-0.0422438538635914,0.167945726457388,-0.253007696925085,-0.953515803495217,-0.148414628522423,0.0350173887445955,-0.193908337313871,0.204218456376949,-0.198657233896558,-0.989291366297065,0.230610937874331,0.0609649376868577,0.440491115608415,-0.321662865688513,-0.262432925512503
24.9,-0.394219613195574,0.228082988095642,0.874162802752572,-0.0636496107643554,-0.0745755254465745,-0.0538661436634518,-0.978870821448256,0.0587251957410117,-0.209328384540433,-0.0500931441783905,0.157927759302547,-0.253078418352578,-0.958658948082332,-0.165802145261308,0.017276169370875,-0.243699162991461,0.20559398829937,-0.237311733179015,-0.988634989033452,0.231491659323585,0.0637423610746068,0.451473324047363,-0.334820404697957,-0.274489612929193
24.905,-0.390455660005298,0.217702901706445,0.879635214712932,-0.0666992616214794,-0.071897131854884,-0.0551376515846231,-0.977738700156604,0.0467740089705761,-0.19963561273758,-0.0499211421091512,0.163308774888893,-0.246366906010167,-0.951984175794806,-0.178264652463353,0.00883211466729407,-0.293536093460168,0.203150600194931,-0.279420307780323,-0.986910336901817,0.242370937696482,0.0693704217867054,0.459796755638064,-0.346288315137597,-0.281791880333333
24.91,-0.39057299901152,0.221295664941519,0.87685793115705,-0.0721512981144608,-0.0690233149045681,-0.0510935690048349,-0.980360432441233,0.0497337678371895,-0.20442432010494,-0.0266225448503461,0.164296784697853,-0.247354909793685,-0.958896476578889,-0.192344233992974,-0.00269974491273918,-0.341682835874472,0.20216610703139,-0.317921787397712,-0.988607976526976,0.251008048858025,0.0696291455562404,0.459906806169451,-0.33650962549597,-0.286571135313064
24.915,-0.39059650464426,0.224705608338276,0.876816493758402,-0.0731169884395155,-0.0734613393735441,-0.0497046336531639,-0.984585691066114,0.0569765941292648,-0.209306064857676,-0.014646484297031,0.167786735356222,-0.239401488730255,-0.962194266987567,-0.19799543618586,-0.0154400811042535,-0.351560452158241,0.200707212090492,-0.345103107447675,-0.985080967027179,0.256176745804368,0.0691243404067092,0.458427637815475,-0.337204399907855,-0.289663920451149
24.92,-0.389101002103631,0.221973146760198,0.869631064038799,-0.0693324287042226,-0.0639670300813817,-0.0508465821716883,-0.989399128955134,0.0638064718602685,-0.207225544546018,0.00470633146778669,0.169084142191263,-0.241809316902795,-0.957285625662561,-0.203685655311779,-0.0221646350406086,-0.349700781452556,0.192975109346466,-0.365432954617601,-0.9857307640416,0.26431719128789,0.0662227779143522,0.458427637815475,-0.326927804727221,-0.295348835403237
24.925,-0.391169797379651,0.221631040458185,0.879127503633288,-0.0685643407891883,-0.0641475313523027,-0.0487074894505066,-0.982991590511131,0.0607878940284793,-0.205428704706617,0.0446116947203843,0.164688767755805,-0.244718849658966,-0.970861764191272,-0.206887970092422,-0.0320455011269772,-0.319701319736737,0.199569895067315,-0.372410805587389,-0.981997345129648,0.269578514750799,0.0653796171983077,0.446402166482678,-0.323828757449853,-0.288709081153248
24.93,-0.385551261172928,0.22372158301415,0.874997973793415,-0.0655198456186125,-0.0691863152518542,-0.0507548464995554,-0.983012223157621,0.0667324851548724,-0.207420049662135,0.0831498833476658,0.163197650791154,-0.243181950856372,-0.965686676680009,-0.208679310176297,-0.0311821019847792,-0.302317982291734,0.193865937097068,-0.374529456887254,-0.978384952473112,0.275242591073453,0.061064072031046,0.453835304561673,-0.311869604380636,-0.290681377451996
24.935,-0.396625113335055,0.25372505697798,0.86357260009076,-0.0641266703605652,-0.054024929703765,-0.046353923511316,-0.980612463248789,0.0730802702210663,-0.207515780474846,0.117287927237362,0.1628811620745,-0.24186867266479,-0.96207329768638,-0.213057287318444,-0.0248054130507969,-0.292345143284303,0.191412430045773,-0.369877557990719,-0.977163145207247,0.276584449173897,0.060195087273049,0.4446198288659,-0.304182122442538,-0.292967454480568
24.94,-0.392361811444138,0.216668931497404,0.875126029432366,-0.0619086916228331,-0.0616714305535296,-0.0502500891167394,-0.980571955271353,0.07966205375538,-0.201535502829745,0.14662391407373,0.170415713509954,-0.248841688935016,-0.958781224237283,-0.213592315990871,-0.0173213684130602,-0.290440259683329,0.192924818618045,-0.36068042044432,-0.968000576299426,0.280433699479576,0.0546013308838035,0.435871151160605,-0.286365304863179,-0.291303664990668
24.945,-0.398488040652073,0.232192663522812,0.868893478499454,-0.0642322558800431,-0.0686881350844539,-0.0428209063196864,-0.977468427712957,0.0879880635177538,-0.192743430205219,0.157173107236282,0.177841166845951,-0.252259933571435,-0.956908998585131,-0.213068642337089,-0.012820995410173,-0.285048482791881,0.198362657163428,-0.342979569423567,-0.969668862366143,0.286169311172811,0.0501700300576074,0.416499170446362,-0.270648969952473,-0.293240038993558
24.95,-0.393911164543569,0.227713069872503,0.878242726895343,-0.0602804699270862,-0.0620506828168425,-0.0427366947176183,-0.976751020669834,0.0979533719371405,-0.201634672374857,0.145019940864923,0.184902461281628,-0.260869406606892,-0.955304937230457,-0.213122698470043,-0.000208130673042015,-0.295374613445442,0.2089665829309,-0.317227198195319,-0.969370351849251,0.290350881160445,0.0500843404847969,0.398642879203774,-0.275962572326843,-0.292668277506737
24.955,-0.390004823491639,0.22871712291256,0.876933992516539,-0.060854838102617,-0.0554839761248393,-0.0382741941275314,-0.9807103808429,0.11046198562424,-0.19845379556096,0.125010189750319,0.179582474581924,-0.276488243976916,-0.959388773803192,-0.214096265158749,0.0147577438373351,-0.300922363894691,0.226833127354429,-0.285618070246383,-0.974832550552715,0.297537276507109,0.0549680127119855,0.380426204581231,-0.272110813431207,-0.294202502301366
24.96,-0.392155525803516,0.246680899107827,0.869169693271703,-0.066171404811749,-0.0592653223576093,-0.0352037589400041,-0.973716843742976,0.116595088224435,-0.17544601260918,0.116518924700036,0.191372204634515,-0.287961288187005,-0.9657019228483,-0.21791370999983,0.0315067461480551,-0.299028829476218,0.249200137429154,-0.257605793223778,-0.980121651438438,0.297335254479583,0.0642799139241053,0.363519014031739,-0.259813460637234,-0.302328403048562
24.965,-0.387961138345404,0.252945229027021,0.867024968349526,-0.0648032309971087,-0.0653731039771218,-0.0423744656145573,-0.978291346219818,0.114421620070408,-0.176129329220798,0.0720581374761623,0.209462227955504,-0.29746498855149,-0.967121320361476,-0.2204284041607,0.0517004703203949,-0.292800102439981,0.261144017326045,-0.231643764392192,-0.992598497149228,0.304122613758765,0.0742697588641098,0.337935803021523,-0.242653563109484,-0.3096625910395
24.97,-0.379920460968419,0.237783565632297,0.874462154743193,-0.0704211732458734,-0.0704095674923061,-0.0429003506089746,-0.977518241131262,0.0961934859096139,-0.187397347049624,0.0268054994708981,0.201855093906419,-0.301551369104299,-0.964713757321699,-0.223833896027152,0.0677192298640086,-0.266580353735551,0.266692337661571,-0.200033741359712,-1.00563421404547,0.2984078958773,0.0773010335887212,0.324074831101479,-0.23681235287296,-0.316082286214952
24.975,-0.379494393469488,0.225758662434411,0.874806132083453,-0.0705774806047167,-0.0701398145211084,-0.0435961596667767,-0.974337027558419,0.0814542822623849,-0.194811462563554,-0.0233089396111717,0.204039973261588,-0.306621932848886,-0.963412786282821,-0.225516043003883,0.0798501233893273,-0.24587833582513,0.270343780517578,-0.16837806733436,-1.01300374677622,0.300511383450048,0.0822357949817047,0.321158360182974,-0.237467167504626,-0.329779576671936
24.98,-0.387902689020911,0.227775582418121,0.875218235168305,-0.0804255011255025,-0.0693577975034714,-0.037890128908889,-0.977067987749711,0.0621671450531928,-0.18387275209536,-0.0454076033254644,0.200089881588884,-0.310412066792514,-0.962678295615381,-0.22727214177525,0.0889016067958918,-0.233107968185135,0.265920317346228,-0.144659402659134,-1.01617469107105,0.300050515367313,0.0848310863310735,0.322692004003652,-0.247529528725487,-0.338111684224803
24.985,-0.389848688787603,0.224617547048164,0.877484440154007,-0.0843444309290259,-0.0641278490638253,-0.0310517271932162,-0.973313334116001,0.0514420533995784,-0.190562177147454,-0.0123856983018735,0.223920920839233,-0.315365823772017,-0.96331068910067,-0.238424730833696,0.0978755299359713,-0.215694415036098,0.263573476063844,-0.14160374691449,-1.01120595725655,0.296927950776574,0.0807057677108391,0.316887857367112,-0.272917045279001,-0.347189566732205
24.99,-0.381789617110077,0.221984170201902,0.879814245977765,-0.0873388648033142,-0.0623431894469775,-0.0314026632636224,-0.971448486629203,0.0674764492170045,-0.20345935020706,-0.00834711773427527,0.222418464702034,-0.317901927408489,-0.96355706608026,-0.240327415580346,0.102526072535131,-0.209767096202789,0.26619656679075,-0.139944947252473,-1.00323094525621,0.286470852822507,0.0772556093356952,0.31420670340786,-0.293839630421204,-0.357764253461287
24.995,-0.382584066347033,0.226999043567415,0.878164655730848,-0.0848524860327577,-0.0677002150260585,-0.0248348530077117,-0.974658438572954,0.0928256371142933,-0.204569707860575,-0.0236506551670561,0.232118276317754,-0.331068147142232,-0.965300586317974,-0.243112622123807,0.103785478932895,-0.198298880028009,0.268629467942415,-0.140577357779891,-0.993166011274233,0.269737987450002,0.0780173980408213,0.306604096712145,-0.325330403086226,-0.361500660003695
25,-0.383867385759519,0.22195562759059,0.878006473872703,-0.0848161043529264,-0.0634874358615319,-0.0251913695710106,-0.97600697916424,0.0968625771754684,-0.198511271825749,-0.0395742435785455,0.230355130907889,-0.348666571756053,-0.968601275172434,-0.241723986562534,0.105324176226588,-0.194194525612948,0.27696969452898,-0.141928835006279,-0.984546243208579,0.263409093788784,0.0675311510304406,0.299150772103189,-0.33335705940588,-0.363894920940936
25.005,-0.381928497306352,0.225497872144926,0.880822292679487,-0.0838987946258878,-0.0564658014364149,-0.0245956872603299,-0.980042261435675,0.0886847648767332,-0.207880755038626,-0.0411215292523385,0.242540030350434,-0.361656898807231,-0.971367369042111,-0.245496826848191,0.106775430633019,-0.213938158974587,0.295041909452149,-0.140013211431437,-0.979818165632462,0.248509135216078,0.0649368258967679,0.281222780964253,-0.323269298097966,-0.358910384699858
25.01,-0.387151090793172,0.228924258513372,0.876981366544974,-0.0854211248244768,-0.0508475075117192,-0.021605659276247,-0.978436856852388,0.0884180806837414,-0.224456076976691,-0.0370467768204688,0.246033310560613,-0.37639009280129,-0.979273706669294,-0.246833251180744,0.110900019737261,-0.249878435839037,0.305310558258954,-0.134833425283432,-0.976282861555408,0.243501453212864,0.0595640029322518,0.267985282157191,-0.309557322751647,-0.35572561621666
25.015,-0.388334749357372,0.232172131568151,0.877367701691246,-0.0861171633005142,-0.0498577813613042,-0.0240961459123919,-0.979029157612565,0.0935593980289264,-0.226307323625697,-0.0244000620547586,0.24679401285507,-0.388493446181791,-0.980496965461208,-0.248412087753228,0.115458013391465,-0.269641836894345,0.317809512627911,-0.126039672772637,-0.98543481747812,0.234231923492173,0.0587186057069913,0.257354974404899,-0.27844135696934,-0.358094235365631
25.02,-0.389260289570174,0.229423705221248,0.876636631083311,-0.0872600298976556,-0.0430323549084329,-0.0298421834271575,-0.982624439035478,0.100970214649257,-0.224530626103751,-0.00599633324981506,0.25075229209951,-0.396969900119831,-0.97954671564746,-0.248384833163129,0.121183233867624,-0.275765678575715,0.321819969722549,-0.106601000930472,-0.989520156669222,0.224564894129197,0.0583147512390676,0.243064361333548,-0.237644383720681,-0.356250205304888
25.025,-0.385798980111516,0.231794070254191,0.883238598751673,-0.0903325933774368,-0.037696524888142,-0.0286092632582438,-0.976147789810542,0.0986254621387312,-0.22073333621926,0.0059387383497911,0.255354040287079,-0.407716596692504,-0.975678827986078,-0.246567527556773,0.128701944635519,-0.253639770009272,0.325019644826921,-0.0900613345044836,-1.00001671877934,0.217775019820943,0.0538050755673582,0.226305678486824,-0.197861848963025,-0.35011582097738
25.03,-0.382456741036599,0.229931945201288,0.881300440076262,-0.0873388648033142,-0.0316562010791261,-0.0336516694281142,-0.981103083706442,0.0996469574116632,-0.223844114944786,0.0104786926598147,0.259909202020562,-0.421864569187164,-0.974013734855639,-0.253088587697094,0.133454879128431,-0.230816148104865,0.315260731914768,-0.0649896820731732,-1.02803921584887,0.215481924959146,0.0465262992104169,0.226305678486824,-0.154625174959606,-0.343001238427863
25.035,-0.380897595833889,0.232106915595043,0.882678888972483,-0.0856814893458621,-0.019490627404045,-0.0400164264752099,-0.98287778748994,0.103216408413429,-0.223493225891281,0.0114016871656904,0.259802107534926,-0.431655353149111,-0.975092519913019,-0.254843151025311,0.141105768957144,-0.20040774012588,0.311511195001697,-0.0518137307024388,-1.06039783638552,0.206068840326944,0.0407760673996081,0.224733659609296,-0.110214927585374,-0.334691876779929
25.04,-0.376108244500278,0.237467719957731,0.882095659567645,-0.087180247848504,-0.0223782487924695,-0.0469440079138143,-0.986679142091213,0.112247679398608,-0.213623095420082,-0.00360280090290487,0.254877436742381,-0.455730149466811,-0.976539539035338,-0.259665997785494,0.146846438205063,-0.161003533281015,0.306234507159356,-0.0383672040632407,-1.08962665694322,0.188861140164808,0.034533464474298,0.233726830163621,-0.085509600234749,-0.32812918416092
25.045,-0.376376723973691,0.241387583482841,0.883447661554225,-0.0844513998361853,-0.017935124417137,-0.0508148258098893,-0.9890923839054,0.113412550525156,-0.224767989824547,0.00345173883448235,0.258311549382401,-0.456983466626363,-0.979326868836577,-0.266114001808469,0.152220256590121,-0.128023193471354,0.296234872891847,-0.0296087235618538,-1.12721199383606,0.17550271051044,0.0248409821840773,0.262383675790487,-0.0653633701593124,-0.310244136075969
25.05,-0.384576950980371,0.251056182078706,0.890967444014878,-0.0840068849670417,-0.0224151389461956,-0.0620323052080911,-0.984344790921682,0.10318179867711,-0.2314561971095,0.00496315239336026,0.25071216373655,-0.471661673434648,-0.982845530754947,-0.271559100743033,0.148215758592701,-0.103758273046884,0.289192502705921,-0.0190773589594079,-1.15194519104135,0.157790724479806,0.0139445682898109,0.292743516111342,-0.0652684993513801,-0.302440702632435
25.055,-0.371697422236037,0.206212033733899,0.89330062909015,-0.0811379294242008,-0.0316701849898607,-0.0762825512415367,-0.98114157000203,0.0861717555444084,-0.225016833277658,0.0208001258377077,0.261448795608165,-0.469510644674301,-0.980585095230166,-0.276210216883693,0.141992221762356,-0.0885039199654419,0.282307000234485,-0.00291294036848308,-1.16494752972029,0.138724628580367,-0.00217867023631869,0.319531115722271,-0.0783859688176445,-0.295450533880593
25.06,-0.403772293338265,0.301313775709404,0.842723034506085,-0.0765022428851398,0.00132644594159177,-0.0824524399606776,-0.987793453177666,0.037771882557383,-0.217810147588828,0.0359085820791473,0.286870509782007,-0.470640008734367,-0.984090396753113,-0.283978640451757,0.129921017380214,-0.086318051817489,0.28231076154816,0.0054114669585947,-1.16091406045106,0.128529120286968,-0.0128173384864393,0.372379270102501,-0.105737386672187,-0.281199291216022
25.065,-0.392857568487061,0.239460561085306,0.891145535188211,-0.0678183654140602,-0.0131598562002182,-0.0900014470208015,-0.980908869969866,0.0152854335586406,-0.240361476942871,0.017563689407619,0.292281394782089,-0.471580349748492,-0.98303176537572,-0.295615932263548,0.114157643845284,-0.106115132570267,0.283590737251023,0.0248737192926995,-1.1421539230639,0.11166005043447,-0.0302253625790659,0.400547099236077,-0.127436352767437,-0.274332988139563
25.07,-0.389400308865924,0.187029429570622,0.877945566201493,-0.0787869989871979,-0.0142097964756679,-0.117918642730174,-0.963722490644837,0.00330169929640536,-0.227193772787103,0.068842386261171,0.286312264033943,-0.474082344669114,-0.966583770325024,-0.296442672699558,0.0982321340854703,-0.11257757128505,0.282560735940933,0.0476373521689248,-1.09554412923551,0.0973673532492802,-0.0479619623634572,0.413464709425303,-0.151054306520613,-0.260928228413138
25.075,-0.386731453146307,0.209716320706528,0.873112600763061,-0.068830682985913,-0.0147735462446132,-0.106340274354992,-0.956441270860495,0.0043727834760013,-0.213471969937324,0.103866188323091,0.29891210887758,-0.468684720288564,-0.95421019034463,-0.298659431655557,0.0723303712062212,-0.129936780304373,0.284148667209102,0.0793880396253541,-1.04133088673534,0.0868258518661321,-0.0556447552270202,0.40704395664442,-0.158399730920792,-0.248581650842628
25.08,-0.392374614405237,0.221445290438956,0.871201382897976,-0.06298386679684,-0.00752476323602172,-0.107124276459217,-0.96656791096867,-0.00223081166309204,-0.213817753806779,0.119940619777621,0.308847220832358,-0.458023515310425,-0.954009431530857,-0.301055689328595,0.0482389033150161,-0.141883745869201,0.291578097949554,0.0973759394092808,-0.992307044497323,0.0711172133441611,-0.0602759501752406,0.387031383462192,-0.152971746841647,-0.225960248114252
25.085,-0.387177458361733,0.22525521048931,0.886354484379988,-0.0650084507738161,-0.00672202657014891,-0.105796321934017,-0.96178086061083,-0.0280895343166838,-0.22250861695828,0.130296982100567,0.313320932839123,-0.457544289621548,-0.958450301717919,-0.29801750090421,0.0175549662752955,-0.164184146875445,0.305761931570321,0.118596629780594,-0.962896343558248,0.0630353242885584,-0.0643715181714602,0.350625059075447,-0.137785609259841,-0.19228172272296
25.09,-0.372056539002373,0.193295036409223,0.89527871164385,-0.0569741656533046,-0.0086284066540328,-0.111311375568079,-0.969477482466808,-0.0155387556163586,-0.218840888771187,0.127257869960375,0.310805028732185,-0.463607497573955,-0.956680493416316,-0.292753887636135,-0.0043711595419137,-0.178885921499758,0.322599489222392,0.158763452675383,-0.947957386378532,0.0593584388862638,-0.0557013323265374,0.30404965248818,-0.12678752136599,-0.160406356073353
25.095,-0.369764859319257,0.201392176534373,0.891661735196399,-0.0572332391692069,0.0115838776479664,-0.105377321889577,-0.976059074918006,-0.00523839094394399,-0.217301060219956,0.122564989366525,0.320904318439803,-0.462996958922511,-0.958502192962453,-0.282420783473533,-0.027332533566712,-0.189514661024157,0.344518819173975,0.203776656046642,-0.938697118666765,0.063270099203269,-0.0484730824143449,0.244170336284193,-0.109070585308112,-0.140327518225804
25.1,-0.387232410037335,0.224210355532517,0.878855565090886,-0.0511671981194544,0.0186840667160466,-0.0965283408410165,-0.987076765851028,-0.00446015730968237,-0.236884052746917,0.10626017644109,0.327534722519155,-0.464531706272029,-0.964849484147791,-0.272206431869643,-0.0432027523145214,-0.186041684582811,0.364603161082855,0.247418352060686,-0.934460549550465,0.0753151623809713,-0.04110268924563,0.16619345438433,-0.0861885086324302,-0.125836928326192
25.105,-0.388250937133814,0.210155448363524,0.887475582223999,-0.0481542853537865,0.0125413014533851,-0.095948327685131,-0.977566923225979,-5.43511102695125e-05,-0.250243774732808,0.0909812951207241,0.335908603423795,-0.472596171897643,-0.963536411182148,-0.266971188543239,-0.0546235766238456,-0.181051641841377,0.381298121916159,0.283363778656212,-0.919417972966064,0.0913626059547414,-0.0293678971438561,0.0747436799978581,-0.0467432386673403,-0.126431491221108
25.11,-0.383546266627626,0.19949997456708,0.883640716592397,-0.0526051732182454,0.0266484246969514,-0.103271384924626,-0.979132744589582,0.00756860051849641,-0.258109430956509,0.0756383972305102,0.352050060822116,-0.47561913728714,-0.957330343361859,-0.258063435104595,-0.0680156681935697,-0.16855533021295,0.397960244002478,0.315144101446255,-0.910613489762309,0.111754052224455,-0.0223252633975417,-0.0382980654057277,0.0113247215172063,-0.13187930989915
25.115,-0.388310632839267,0.21451641770147,0.880479149580567,-0.0519097186625004,0.0391289365879668,-0.0981325562479023,-0.980471910442063,0.0149465696194532,-0.256434947906096,0.0496423804774809,0.352649030734545,-0.479707898530935,-0.955838429275216,-0.250854501286201,-0.0828718257528507,-0.135434022725329,0.408348497463465,0.343836927363213,-0.911990217721028,0.130494240321204,-0.0181971640052181,-0.122151103936137,0.0450096409806268,-0.146509054235769
25.12,-0.390431430658141,0.217577139219683,0.882702880063583,-0.0485019107285665,0.0419021640262182,-0.108710083821242,-0.985799697242334,0.0153700648361277,-0.261467091513657,0.0384613097375919,0.36010577188541,-0.481727600097656,-0.972291139113175,-0.245635618051072,-0.0868618983323143,-0.138717937760349,0.41510827037797,0.357867114659051,-0.915320893338798,0.147552746166204,-0.0129455058185643,-0.1810006307032,0.0728082969916096,-0.158231944562097
