Header,foot_Accel_X,foot_Accel_Y,foot_Accel_Z,foot_Gyro_X,foot_Gyro_Y,foot_Gyro_Z,shank_Accel_X,shank_Accel_Y,shank_Accel_Z,shank_Gyro_X,shank_Gyro_Y,shank_Gyro_Z,thigh_Accel_X,thigh_Accel_Y,thigh_Accel_Z,thigh_Gyro_X,thigh_Gyro_Y,thigh_Gyro_Z,trunk_Accel_X,trunk_Accel_Y,trunk_Accel_Z,trunk_Gyro_X,trunk_Gyro_Y,trunk_Gyro_Z
97.585,-0.810128396264749,0.734035107379096,1.47391733546428,6.95339756320656,-2.90086926538311,-6.16846121570995,-0.468230488728781,0.109997831381482,-0.394950892000734,4.65782734164285,0.642859495694102,2.21369128999423,-1.01856059037177,-0.695932888996892,-0.396627645409751,-3.97747886848045,0.0623041512750152,1.82575068011371,-0.931738114052386,-0.0904141320153606,0.0310615592554022,1.60180272782922,0.279445358037641,-0.233050184525072
97.59,-0.431554906528851,1.61896831227044,0.976993760776116,5.3139927318652,-2.69125717935839,-5.72935292624867,-0.578561147693627,0.130524914208089,-0.11087527624399,5.33176364795742,0.368298367376665,2.40933778729093,-1.07973837616759,-0.700435848215797,-0.407102356744802,-4.22719104904648,-0.000613740965013444,1.79003519588677,-1.00512014022161,-0.0764430030312535,0.0155236651881418,1.47061617486768,0.28890506992969,-0.266223706622392
97.595,-0.0997628085718672,1.90143393326217,0.601269186896456,3.87957812508405,-2.4587521622332,-5.43367414396089,-0.661732049471594,0.0182227586721619,0.0743992571097492,5.66010873384002,0.0572906132491308,2.5814108939663,-1.07607519434348,-0.632105462544385,-0.33782354131348,-4.22986787976466,0.00136956213941291,1.57120267626028,-1.09450647659613,-0.0681502325926078,0.00456070851474192,1.32633032165125,0.277193642519344,-0.319932068779933
97.6,0.0909879519598002,1.81086801854822,0.386399849817102,3.02628712016428,-2.1393214625401,-4.9489650987828,-0.693383458893916,-0.140139761392811,0.0933691462532808,5.57417182382444,-0.14598221022702,2.71416686418445,-1.10625942768914,-0.577162316678153,-0.294258742572967,-4.11761751348105,0.0492764841103807,1.45820682723041,-1.17248305058287,-0.0494846035203153,-0.00315338357212061,1.20561221816523,0.274134054726285,-0.347759486059719
97.605,0.152510868763772,1.5798768921346,0.334961854247997,2.83943013850861,-1.87199431996775,-4.23903830282945,-0.677329334836191,-0.270461265615949,0.014741858409799,5.14753744498846,-0.262858904575755,2.82148140783235,-1.14721384541935,-0.529305831313062,-0.287754700672954,-3.94613943966569,0.105256849664388,1.5369160805585,-1.23631918783892,-0.0280079376697391,-0.0062291409803363,1.10577513567896,0.245073168577495,-0.37826917801362
97.61,0.171972969318794,1.34359468294704,0.345562886748314,3.00404197986758,-1.70403569969603,-3.39621753260597,-0.637129322270883,-0.33462645667498,-0.0659012331996717,4.70322330054233,-0.348599490042742,2.87675755384112,-1.14513473408028,-0.455571810279378,-0.279924132644424,-3.767032896189,0.112913663486831,1.66200997490272,-1.29164969977417,-0.0144400627137292,-0.00864440586218613,1.03414005715637,0.172046353859579,-0.419374450878659
97.615,0.197898472343818,1.16749718208689,0.335871813570434,3.27095418348201,-1.58200989246145,-2.50791899937105,-0.596631719316441,-0.334938446849627,-0.100259090459176,4.37613452359439,-0.432854254468045,2.87309519683979,-1.11195664874424,-0.380181168865457,-0.255850459624798,-3.66875004312986,0.0919764041900635,1.75521073863049,-1.3227507682947,-0.00812341641921606,-0.0172032907318467,1.01460868795071,0.0742496475805924,-0.453659547047416
97.62,0.233318903079771,1.06676774792752,0.32183077227989,3.59507007401096,-1.43654891897498,-1.60195321018677,-0.58910780831148,-0.258013110175047,-0.0919533738026599,4.10729795766359,-0.533663853137011,2.83656152890002,-1.07102494202367,-0.330728900844848,-0.200105228381946,-3.63829963380116,0.0902690862114145,1.8444270357835,-1.31039310959726,-0.00585057346124681,-0.0264501487034656,1.0314565728859,-0.0305281727528912,-0.48000797558145
97.625,0.276776970846752,1.01073689100519,0.363247855182032,3.86601740275802,-1.25566825765525,-0.801569688364149,-0.612772331001418,-0.10329249130026,-0.0697610367704523,3.95457233536712,-0.64573539714547,2.79720206857121,-1.02029316923931,-0.304255633660116,-0.104897899293147,-3.5881201947828,0.0756512302387488,1.92627203155608,-1.2677217444763,-0.00625725496115469,-0.0260619048123409,1.04535830221916,-0.129160972035555,-0.483803815594964
97.63,0.283749311280275,0.922374385263206,0.490742315720561,3.92009593404418,-1.10783502161315,-0.299347725343881,-0.607684818759586,0.0565654293781917,-0.0712967210789338,3.92249881121039,-0.750082073225731,2.77964852352294,-0.965942960650547,-0.305712014302207,0.0028672878533885,-3.4760207885759,0.0388766080275319,1.94070468860131,-1.22017829613643,-0.00991018611650859,-0.022014654444415,1.05817695361737,-0.216377288482789,-0.450533425146478
97.635,0.205180204483042,0.756214665160397,0.698297723303313,3.8075729633535,-1.0205826829959,0.0693896727444883,-0.572863951263259,0.194657673822945,-0.109509167677826,3.80465577709317,-0.845163364212618,2.78339965832042,-0.92200492931188,-0.320270311346114,0.0809159484702921,-3.29259760916633,0.00548623484698398,1.86411863532314,-1.18154440371303,-0.0187338458735257,-0.015821228442798,1.06479135813528,-0.296484101584819,-0.417209033469971
97.64,0.0907064769777728,0.547711402608816,0.890188263629348,3.65526776893374,-1.04616859948769,0.263586788510334,-0.524472232625859,0.307129596396146,-0.151377311230018,3.54350001999378,-0.938008532167446,2.82100440997131,-0.865014584820779,-0.32923034614664,0.143327951778518,-3.09287935628919,-0.0450683966279641,1.72841905603109,-1.1340638294163,-0.0285499384837034,-0.00646244920837143,1.07946384335752,-0.405800138929081,-0.331870671651708
97.645,0.00799404950909997,0.265327808724502,1.10812606897228,3.59674601869214,-1.18315267702855,0.320325147512137,-0.47991932542795,0.341761720988284,-0.145013432272965,3.07334668916719,-1.06447762422623,2.86332062311604,-0.822448005100508,-0.32807391394288,0.187424015629252,-2.90306238202256,-0.122567608904865,1.50827636171714,-1.09429892744696,-0.038891885704515,0.0033257827059169,1.08733030679889,-0.440636946464468,-0.273434720513553
97.65,-0.0133948629466054,0.0576134430565436,1.21403643373142,3.57542901921758,-1.40642021512672,0.314715392082104,-0.445348081281018,0.339372520296844,-0.154655953388033,2.60133745583878,-1.15417053950734,2.86892647818344,-0.795952843305127,-0.321169058824903,0.216473360323633,-2.76533056080263,-0.182293374676225,1.34031839626544,-1.05731647510387,-0.0533796619116094,0.0126177648043781,1.12045719729588,-0.454551673273064,-0.264009393729206
97.655,-0.00210848838287821,-0.1361738745568,1.26140306211147,3.5867330841398,-1.71790480688614,0.224732713928676,-0.457113768024505,0.283243766810674,-0.159390320371496,1.98018533850241,-1.34780510001365,2.83314163658823,-0.775667629748813,-0.310811611984436,0.227480755852359,-2.67890329835658,-0.230988913782944,1.1935008919803,-1.0104911626224,-0.0632857404858973,0.0280874484095379,1.20579978401436,-0.413390877644423,-0.266795226939672
97.66,0.0149713794507378,-0.287457118702448,1.27701987677861,3.62524318371064,-1.98211606155892,0.103966305296087,-0.497926563702393,0.207571539042841,-0.150605494939482,1.47830933601877,-1.50721368287586,2.80725581512513,-0.761521218009676,-0.304562812503446,0.228394200327151,-2.5839242827765,-0.266413041499495,1.03740214417426,-0.974057724902509,-0.0624461182268094,0.0497933235407859,1.28236340500157,-0.327732914464543,-0.274166543738237
97.665,0.0321339290761471,-0.406020666454023,1.27322139049457,3.68158005957659,-2.21360602708741,-0.0364754019971748,-0.573482879335465,0.102856798146316,-0.115214290496002,0.998439710479087,-1.69424292880519,2.76608780180382,-0.747801176527103,-0.29629416050701,0.227808856829239,-2.49842573043345,-0.271151302415936,0.920767427898039,-0.933583472483461,-0.0620779928360873,0.080002126311059,1.36611226373339,-0.183914789914463,-0.274656122222133
97.67,0.0224668086912837,-0.49461197319885,1.25972674248197,3.74022280034565,-2.45570286090484,-0.203208685304691,-0.648304168554833,-0.00121722946281508,-0.094755417842471,0.599575344366975,-1.86063535580811,2.74334056772334,-0.740971523286952,-0.282317259204535,0.223858658251339,-2.44774205169263,-0.258999056800472,0.832512168387792,-0.900988295095806,-0.0675507114317403,0.102737596170914,1.44290960646896,-0.0264702455383433,-0.257471248485091
97.675,0.0034017755709924,-0.53402953759101,1.24336678630458,3.77512086795094,-2.65079666374598,-0.353649023541707,-0.721174651165228,-0.0965023107356193,-0.0997647224959776,0.184093815719635,-2.03596340307717,2.73793339788736,-0.743173634964984,-0.267542799351511,0.219948350126681,-2.40512877784373,-0.226989477324312,0.782498046664313,-0.88679080105995,-0.0736854090382127,0.128818248496966,1.49868913980413,0.0982084790321085,-0.241609173464128
97.68,-0.018037953876639,-0.533619510739257,1.22380727683067,3.77155343306696,-2.82447199773942,-0.503371984405048,-0.783411978979692,-0.180150405930097,-0.108369531283467,-0.163699161777022,-2.19725293802825,2.72446100418903,-0.737884072080961,-0.249717033520853,0.217774995221446,-2.34882635095972,-0.186992292172173,0.747024375788819,-0.876385295819175,-0.082683296845535,0.150680693644817,1.54817548509531,0.17392369821972,-0.231841305655261
97.685,-0.0402002142259584,-0.519928900666282,1.20215687016863,3.72248170608149,-2.95363244421501,-0.632881311465264,-0.832334536243489,-0.259565485916434,-0.113244855623849,-0.385923825380956,-2.33628766325273,2.70185618041862,-0.72795911190612,-0.22780877110245,0.218242628198642,-2.28602239796481,-0.147570016334216,0.702632188608483,-0.866343827929742,-0.0910869139336844,0.169216591430289,1.58767474455329,0.208105146973357,-0.222156017959763
97.69,-0.0613732643147013,-0.513124730902778,1.19935151479212,3.65801973871277,-3.03621244168747,-0.729984570887297,-0.87668437154112,-0.360019142984377,-0.120574551328495,-0.50704660822444,-2.49224691483949,2.67007311712378,-0.725366623086068,-0.207145049921808,0.220434213326701,-2.21516783343255,-0.0986728372010665,0.654703198698194,-0.863672943919638,-0.0935751939273187,0.191528588414442,1.59739483508646,0.211296394824129,-0.219340817526982
97.695,-0.0944169142043782,-0.518151135617532,1.22755128607302,3.61795015755791,-3.11806791320237,-0.803366287492601,-0.910906416282595,-0.479786085237472,-0.135174269121162,-0.504607106682334,-2.65484641947701,2.63036326055438,-0.723822262106263,-0.191722184067795,0.22480063116963,-2.12439460653495,-0.0412753883715966,0.611228086663481,-0.863176605964335,-0.0942679864722516,0.208133112944745,1.57787920592737,0.195309722711673,-0.225004315376282
97.7,-0.149850821622282,-0.519750387589447,1.25904725833386,3.6034027785842,-3.20428799178303,-0.834649570390019,-0.923553801938605,-0.581481970852551,-0.168073745334882,-0.358581199878434,-2.77216412590814,2.59819401913137,-0.718442150871416,-0.180843447407624,0.233536932045095,-1.99554259815908,0.00534225868923565,0.577869139302078,-0.863396102032591,-0.0957018761429529,0.222219463639719,1.54841835943461,0.171397844539324,-0.223808231328507
97.705,-0.201435763287837,-0.500251579720281,1.26746225320277,3.60426412282038,-3.31115240006888,-0.841866710223484,-0.932815759484382,-0.676975971871486,-0.222387733433075,-0.0673005502106281,-2.8813446356615,2.55523257266194,-0.714532042849083,-0.169340904377943,0.229553111898358,-1.77765049799145,0.0448975907582524,0.546060078333258,-0.862301486703817,-0.104283803216197,0.221536898339341,1.54969095538364,0.128049708458035,-0.217154988906779
97.71,-0.225012132571984,-0.465630485177002,1.25693884278563,3.58817942952606,-3.39147450880588,-0.830590480674354,-0.939279002928617,-0.762310347532537,-0.259297473074072,0.45055142243745,-2.99819140181584,2.51336103871615,-0.701825982745577,-0.161534512229242,0.226235234618322,-1.56460423779759,0.091245104041515,0.505986511724485,-0.858022638918748,-0.0941999519869884,0.222402928861855,1.55209175783968,0.0654320569462367,-0.202936028060684
97.715,-0.233530846410229,-0.445790143259629,1.22985630244015,3.56137611445071,-3.46631920724392,-0.810537107771766,-0.949482045466267,-0.799206535598009,-0.276685741688654,1.06719375841594,-3.1008240139572,2.48419893742606,-0.691637039505649,-0.15257065657525,0.210897381520284,-1.33541373852424,0.133018730545363,0.463083854517334,-0.841960674427948,-0.0880701793299675,0.223684769578226,1.55661797018842,0.00319623689930078,-0.179173261410165
97.72,-0.260631031907291,-0.437660619634364,1.20845005244017,3.51239259296496,-3.48497975895549,-0.767384852218273,-0.976060567090451,-0.788169245801728,-0.308240537067561,1.62761938728893,-3.19656339602055,2.46551797679903,-0.683636014181423,-0.142317373063601,0.184997706815655,-1.03388534559465,0.20042922861332,0.412965646465471,-0.831265575836,-0.0708532938748103,0.21582796340899,1.54192841754148,-0.0165762964189703,-0.163777344502409
97.725,-0.301481722380852,-0.435083081250887,1.20501180127797,3.47982981553145,-3.48863806595952,-0.731473391055241,-0.987388261483989,-0.738168693828783,-0.327369020801752,2.1467965193613,-3.26203314548603,2.46275620524066,-0.681709766357942,-0.144422483038284,0.171648882611189,-0.807007367217016,0.252081549448818,0.390524917488759,-0.83066942889236,-0.0573196358185259,0.208096943707091,1.50237200374628,-0.0168360425064572,-0.158422674945835
97.73,-0.343647826365351,-0.430454105840496,1.20432482613343,3.44961020791944,-3.50823453020402,-0.683807787048149,-0.98863794809736,-0.657031902301535,-0.34376117748298,2.67893152015189,-3.32364961864637,2.47418170536029,-0.681493350678717,-0.149896269361989,0.153520080541236,-0.498920121069194,0.285671780515185,0.350305077621903,-0.834355908580794,-0.0445209137733649,0.191825741136579,1.46973924351094,-0.0237165306665563,-0.168863553744665
97.735,-0.393126293459081,-0.409792146783898,1.19913200781721,3.41771105234445,-3.52636952521053,-0.630192202144627,-0.975646184562174,-0.57957109046697,-0.353378517791089,3.00203367366689,-3.35519631446405,2.47979649745,-0.690266814394036,-0.154934021902975,0.135168858816899,-0.20154422129268,0.297522871081333,0.310797811116537,-0.85235183440029,-0.0243144334425504,0.175714274586365,1.41522936583649,-0.0405516571144438,-0.199180081704017
97.74,-0.435547174708896,-0.386029254781044,1.1849106493851,3.37957507919631,-3.53657787928708,-0.59491443356493,-0.969391781304262,-0.515187126932835,-0.377816210170246,3.19754919336323,-3.37722227031131,2.49639763422972,-0.702817395452054,-0.154218908857258,0.123344782037218,0.0637826551791547,0.301319686676565,0.27195092966141,-0.873920807645488,-0.00705465778187472,0.162866061908777,1.35242499668556,-0.0630609601044641,-0.218869221124583
97.745,-0.467839966337731,-0.357836694715195,1.17766822338936,3.33708059007764,-3.52879265684168,-0.568804909917408,-0.96605006730552,-0.445646949599716,-0.38719062436155,3.31702566430101,-3.41353256945503,2.51740742264371,-0.71855714341212,-0.152901995679085,0.109950101344378,0.343388123289218,0.29467662307545,0.231056670817697,-0.893970014808188,0.0100836895728331,0.147993362688452,1.2968061868746,-0.097084670270722,-0.24194351610896
97.75,-0.515391761695872,-0.328505699615905,1.17405507830401,3.28935916513514,-3.51682739094576,-0.546629750266708,-0.96101783501968,-0.368795956359666,-0.38766225746795,3.37822145799129,-3.42930967424807,2.53692742776551,-0.736623138248408,-0.147998871792647,0.0921804630846987,0.661324892677987,0.274229270293869,0.195730184619938,-0.918052087630214,0.0253196437909051,0.125577741264308,1.24682041518904,-0.132674976574069,-0.257472612803453
97.755,-0.562473394804984,-0.297738863615261,1.16721392296418,3.24645899014267,-3.50969839343958,-0.537160754203796,-0.969224720543595,-0.283403913417533,-0.38887506486405,3.36081046355222,-3.42477295437273,2.56015468034769,-0.742448706189692,-0.143035543653481,0.0615835463526068,0.944841598738818,0.243044535567828,0.164481105422353,-0.945752181558724,0.0379696988821349,0.0990276587211951,1.18397064833037,-0.165091231277794,-0.258856561756218
97.76,-0.590611879419739,-0.271226656300786,1.15424804253574,3.1843594032958,-3.4908877345164,-0.542600171785101,-0.990535766900463,-0.201852570785045,-0.385532847216829,3.24264776025414,-3.42632403846557,2.58520807416862,-0.741442755857235,-0.138766239285145,0.0359594250475269,1.17145630701666,0.195462037526765,0.123770705260808,-0.969028535922104,0.0475015576386566,0.0732886896176607,1.10840988095061,-0.193370536026202,-0.252082634571045
97.765,-0.609609920682555,-0.254853682074969,1.13485839051731,3.08827011226922,-3.44124743687111,-0.565659361256545,-1.01198747732092,-0.132319723739451,-0.37907889431305,3.05592579824564,-3.42912359386676,2.60249432480033,-0.748427085513143,-0.128452828925025,0.0337576149879691,1.37901551818731,0.134525201402462,0.0572597416625479,-0.989514119098158,0.0530348016898469,0.0521434358441993,1.0318237213524,-0.2156119258318,-0.243329733610153
97.77,-0.624352682382524,-0.246749421772421,1.11351881649384,3.0000724900166,-3.36887235540632,-0.611671281419452,-1.03627082350692,-0.0667712624063244,-0.380281487802597,2.86591077489741,-3.42065753760019,2.61099754833053,-0.754077900544115,-0.112545741309346,0.0257451152506696,1.54747080669094,0.092096627191244,-0.0280397094445682,-1.01767723016301,0.0558457700070195,0.0386884561894961,0.948314709256132,-0.237748603456893,-0.242557484199371
97.775,-0.624420377351244,-0.239683088614504,1.10060383123306,2.94551783417565,-3.28723297641319,-0.672531443801986,-1.07181949137734,-0.019892578421555,-0.380419925635804,2.63484617160958,-3.42742311916359,2.61824069846937,-0.76953330206269,-0.092686130364062,0.01799804806995,1.68928339064038,0.0649967929278481,-0.0847206104234669,-1.03894479901864,0.0444489664060626,0.0224697368629982,0.88283409751177,-0.253713371124343,-0.240157617291138
97.78,-0.639156102271156,-0.217174609206012,1.11024134465279,2.93089133487755,-3.17858945592905,-0.75058878196082,-1.12000167226906,0.0149734300935533,-0.373436003304475,2.369509370694,-3.43704345995402,2.62626314163208,-0.783994148064348,-0.0668963125161423,0.0253148604331726,1.80862472331457,0.026833848728166,-0.128237512256916,-1.0579152817305,0.0302586956034439,0.0194962311617607,0.812453481505138,-0.270045046586425,-0.242917503547839
97.785,-0.67055705314674,-0.281667862322173,1.13511830856323,2.95438840934155,-3.09082127688942,-0.810357152725891,-1.14547580760531,0.0109297991730774,-0.380388942865247,2.13247014277904,-3.43359797089628,2.62569859294093,-0.797605009823761,-0.0437783186903544,0.0120784492638104,1.85462255577938,-0.0057012009581686,-0.150675482984224,-1.05313347980786,0.0191936700333667,0.0115088380531161,0.759759381084905,-0.279209235533926,-0.234898831232725
97.79,-0.707052559647116,-0.293331984126575,1.16620689158397,3.00245328434709,-3.01369397005275,-0.88189548002414,-1.19166458824239,-0.0183856001795613,-0.400651323266352,1.84928698419396,-3.42688215613,2.60555114864207,-0.810406072676597,-0.0227688229275467,0.0187749065431029,1.79653599154028,-0.039317941386654,-0.163020344637127,-1.04562312161526,0.000877754217202949,0.0159548478216988,0.709362244547009,-0.267222493487068,-0.207221090312504
97.795,-0.7429750847915,-0.308907205265419,1.18344633692688,3.0550997216528,-2.9465171867121,-0.92692041037928,-1.20938464641678,-0.0561875581772662,-0.417288026606232,1.63767018506967,-3.42107687065001,2.57307417910956,-0.83271364902765,0.00114163824082252,0.0310550249800716,1.66817288230719,-0.0695124596553744,-0.185002151100578,-1.03639748474912,-0.0188189166696677,0.0259358713639255,0.651718782588942,-0.23311232251222,-0.162214987724543
97.8,-0.765424077043572,-0.315490708058453,1.1798750815649,3.0826275340631,-2.8844538339561,-0.965804384170246,-1.22585762237613,-0.10942112173734,-0.431199230580021,1.44533206652185,-3.39300518932052,2.51618437169448,-1.0029778482057,0.026402811087558,0.0549563680846956,1.17857933626063,0.0282965758822369,-0.165166132751493,-1.02579515019063,-0.0252113039947356,0.0399217956664032,0.595688384496926,-0.198068707498498,-0.119650964466788
97.805,-0.781905255222363,-0.338829614511701,1.14982186735832,3.08474102003206,-2.80094990824363,-1.00502817861218,-1.24330021060899,-0.158280180541245,-0.432576773781575,1.30496671521184,-3.37075685663986,2.4518107777926,-0.922162936900526,0.0622806257514206,0.0667306436502133,0.972812279106376,-0.131232456279933,-0.154833434140603,-1.01526478235241,-0.036154221164058,0.0560779578816137,0.546447393402741,-0.157055752623021,-0.0770570103829525
97.81,-0.78079073208659,-0.369619397477461,1.11987853736791,3.03110785717341,-2.70888379393402,-1.02340336767926,-1.26422279169226,-0.197330969677653,-0.432613207172733,1.16824401529732,-3.34440510729192,2.37659057909746,-0.897928663939285,0.10647331476387,0.0495684249963174,0.660205833662544,-0.120697265645609,-0.218390597793487,-1.01690648204955,-0.0557746173138716,0.081777699317026,0.512763412143801,-0.108178358844051,-0.0495162219642091
97.815,-0.78503332360037,-0.398193220263588,1.09876273695225,2.92755510775952,-2.58723312189194,-1.03091165489834,-1.27829385143634,-0.237940786621825,-0.432048784824178,1.03258958336385,-3.30543930354767,2.27178798842569,-0.954471339677627,0.173968962080434,0.0387088411240075,0.164068774370072,-0.100723578548786,-0.278111401379699,-1.02650917351317,-0.0768197186096494,0.098845110100461,0.508066209250735,-0.0760335577412393,-0.0339709491736547
97.82,-0.79446449801068,-0.430662729670315,1.08351887723819,2.77877627985789,-2.44385887452294,-1.02834102193226,-1.28778193042398,-0.273754667267651,-0.434186607782938,0.951106760064168,-3.25757287173212,2.15984640317014,-1.01402209699349,0.250032982702112,0.0270716315627923,-0.335223229827494,-0.148989774658007,-0.311456233161743,-1.03286375758292,-0.101264823791513,0.110765658743592,0.537548564910151,-0.0865707881223374,-0.0190311070741551
97.825,-0.799977842490765,-0.451048482344347,1.07064385376489,2.62532681042448,-2.30491504579786,-1.01490828076309,-1.29304159136778,-0.311824297124497,-0.428113227943133,0.920268306749226,-3.20157643882282,2.03571353284467,-1.05583609830457,0.309671665992224,0.0054082874599653,-0.736213093436217,-0.205900776259037,-0.331527583416103,-1.03400574081069,-0.125404981908726,0.124919788930058,0.580419221336389,-0.122413173651383,-0.00678355822629924
97.83,-0.802953111129701,-0.455704677609385,1.05899228040832,2.48433398957556,-2.17515397559644,-0.997818403868534,-1.29081636482603,-0.350147872668024,-0.415449733171179,0.93318317798036,-3.14393171115304,1.90844381253951,-1.07228851708713,0.357828429488373,-0.0228397693082432,-1.05797914047871,-0.257940545502565,-0.357516334753566,-1.03079241376866,-0.143294231196834,0.135700019557,0.621422805377068,-0.15773990364506,0.00366691093849181
97.835,-0.805102541213083,-0.446027661607328,1.04629359930242,2.32568849606401,-2.03205463175351,-0.972789831255502,-1.28592507238924,-0.377113094455762,-0.418793637733923,1.03002510138384,-3.08839817242767,1.79501917937141,-1.06512794977137,0.410403894223858,-0.0487868017993156,-1.36269217405297,-0.307256930087453,-0.41069185260724,-1.01952284869883,-0.161721392719015,0.139236142316526,0.664329481310318,-0.196325223989192,0.0192296400128535
97.84,-0.807299152655207,-0.415486875602026,1.03273375592632,2.15131909587005,-1.87716828473148,-0.937084030361001,-1.2836965142951,-0.387442860796663,-0.438060929003566,1.19651774855407,-3.03980488691052,1.69019297365417,-1.05273807556508,0.46059031255751,-0.053762499024899,-1.65643654129214,-0.350768824968562,-0.478726617221644,-1.00164608685411,-0.183118554067192,0.14175956796141,0.696210901418947,-0.229338972780795,0.0354630636067255
97.845,-0.816947629338436,-0.380979353518934,1.02804804696531,2.00601002758025,-1.74330661079206,-0.904990808725516,-1.27642416666797,-0.373016095673207,-0.441544412745833,1.34914145921812,-3.01520673341477,1.60925076581141,-1.02796029426819,0.506353282740487,-0.0555606041572341,-1.83515013168335,-0.377166571236944,-0.540281887070747,-0.98669193971148,-0.192652010040872,0.151959375170036,0.705121967205325,-0.222648617137298,0.0529092048180442
97.85,-0.827888472081076,-0.344371905304557,1.03027603402618,1.87751646598943,-1.60563599478716,-0.854911940351716,-1.26425126748504,-0.363370188904486,-0.439072782088854,1.51700847536098,-2.97601296021173,1.52406129591769,-1.00085544545554,0.569686205290067,-0.0754829298171488,-1.93645675567207,-0.411216413807436,-0.607711917032076,-0.972327215030289,-0.201836948808369,0.155591827294021,0.716790112902541,-0.204402218741915,0.0566221565112888
97.855,-0.835875735270437,-0.315999738500892,0.981956616031694,1.80825379962317,-1.50929778902382,-0.814200767943057,-1.25864685334685,-0.350029662574036,-0.468238056414777,1.63074983599475,-2.8914682862815,1.44922424318389,-0.952743100783684,0.602814548661003,-0.0623368530856409,-1.93626106749749,-0.454292185831004,-0.908142263835787,-0.964278959957668,-0.209436217634439,0.156450593389893,0.709947373774106,-0.173435469961237,0.0628675715197898
97.86,-0.847777159472178,-0.311002343595979,0.86789851319576,1.7593898707932,-1.38883646481357,-0.767865511857592,-1.22645481873405,-0.293241804797296,-0.472810138731169,1.71715675855957,-2.85736023214352,1.36963893144666,-1.00051322108372,0.621997307128602,-0.0252630239722774,-1.87257299043789,-0.458841330229082,-0.939986302365588,-0.946020261790751,-0.19127146690034,0.146451302479598,0.703107856066335,-0.13467826783456,0.0423490496798458
97.865,-0.867406936542224,-0.291265994737186,0.75581479283139,1.70725987256254,-1.2596445858328,-0.746333476737301,-1.1749620128917,-0.221203190564941,-0.367399612728581,1.89892126228458,-2.78848448645597,1.28809607014297,-0.997482011665194,0.629444519001539,-0.0479981622241089,-1.7643951450559,-0.499382435476969,-0.949881438006026,-0.93413771410106,-0.18153442150911,0.148559073919786,0.665088431892996,-0.100448613300277,0.0499372362854239
97.87,-0.870482505828412,-0.266172790333477,0.645066841713576,1.67387690278911,-1.04540889416358,-0.727826818088562,-1.15680708841678,-0.16877610466357,-0.335583323377553,1.96147463983177,-2.69159581820842,1.25397413620144,-1.01952120271294,0.617069757289131,-0.0103761221488665,-1.71531325664508,-0.555811747306586,-1.08650501082208,-0.931195137644379,-0.162860817013839,0.146292992504427,0.653045218601882,-0.0901258727881534,0.0192724025265603
97.875,-0.89548743159869,-0.259686846194486,0.595824481776053,1.73382607316981,-0.862195039952037,-0.72818384499609,-1.09640803592901,-0.119824326366025,-0.304851271993984,2.00145363030722,-2.5847967060194,1.22676481003136,-1.03241760731054,0.621207379858138,0.0143620854352818,-1.61050664581943,-0.585603429407186,-1.16371192301249,-0.926047076179236,-0.141231263015726,0.13839792666512,0.646992631096485,-0.0843004135676652,0.00307899065746749
97.88,-0.99387449818822,-0.266661784455318,0.587721005500875,1.89649415819942,-0.694643064429081,-0.693323107650022,-1.0349739545742,-0.0917170797922365,-0.323283578659483,1.91715648928805,-2.43510521697548,1.21242250735708,-1.05442380661018,0.6068870299666,0.0340817198013826,-1.49039670928188,-0.611788860742447,-1.17161313305923,-0.920218331374408,-0.108015418874615,0.138258603657483,0.634119501837677,-0.0698233745460165,-0.0194594435712872
97.885,-1.06530007659528,-0.278172281077266,0.564466310196047,2.08842523989525,-0.571528610251064,-0.626423876810528,-0.984335871882903,-0.0821961720124127,-0.369841365641656,1.71503097756464,-2.26404378525576,1.18919863456449,-1.06768789288229,0.578258791753064,0.0581124716185641,-1.48560643714033,-0.653817355479601,-1.17219346572897,-0.916906593771992,-0.0802835421836392,0.139579795806381,0.618391410814777,-0.0525521188410739,-0.02601470988104
97.89,-1.07658118801747,-0.283663495659228,0.519666664825589,2.27098946794457,-0.46514034223427,-0.559888669137853,-0.937040284691287,-0.0704808627492908,-0.385643048283933,1.48135754962255,-2.09190107855928,1.12573086377014,-1.06954678223395,0.553861220319978,0.0803141490995281,-1.54893914186038,-0.703804332268549,-1.18379332376138,-0.924621459679043,-0.0540490780731463,0.139510699344908,0.594758071506159,-0.0362880992903228,-0.0197844129698759
97.895,-1.05504144385005,-0.249886592781556,0.468296774186724,2.4303790636119,-0.339505641802756,-0.477930847336974,-0.881690989433746,-0.0485086340957026,-0.361138536551772,1.31560429094489,-1.90440723594005,1.03801859840774,-1.06403043007005,0.522988336692757,0.0775994075642645,-1.64248730276159,-0.744087914521832,-1.2075959797233,-0.940237396451346,-0.0287651468935965,0.137460695965505,0.569879424700169,-0.0271612674077991,-0.0129917032629442
97.9,-1.07417018451,-0.199652638470462,0.445216624261668,2.48883267027317,-0.216688111716375,-0.375359877392798,-0.840153668853689,-0.0415427464990721,-0.338946022478768,1.21564555186639,-1.70020700652957,0.95847647782244,-1.05395795231685,0.488659482169055,0.048776273132398,-1.79301209781114,-0.758435958639108,-1.25844273961246,-0.957411510373825,-0.00791922062501465,0.130629812784779,0.542859835242396,-0.0383731623759163,0.00102413446643318
97.905,-1.1727209872698,-0.17664633287814,0.460891266661089,2.43460150675666,-0.119785002292059,-0.271977663490557,-0.818468999000218,-0.064200364260206,-0.34158374318538,1.0994923994322,-1.49371420808607,0.885049288931472,-1.04983178169829,0.479795619356,0.0186858943601577,-1.93690269043157,-0.745133092159597,-1.33433979170035,-0.977123689243414,0.0141695903241332,0.119119953796775,0.50669014367989,-0.0707347819394001,0.0253769716511265
97.91,-1.26665737931336,-0.167933283874854,0.452362519396288,2.36098399530117,-0.0445500140328004,-0.161515042823677,-0.780494655032922,-0.0897297978062871,-0.345984600682774,0.91888819352883,-1.28249754205962,0.786346311123346,-1.05800473440368,0.495733423860954,-0.0067234806172448,-1.95105096712959,-0.724293913484128,-1.39797706894451,-0.993364558277084,0.0345124726804359,0.107654327444631,0.481949262042371,-0.103834254234509,0.0508532515038762
97.915,-1.25335449301436,-0.142244502012057,0.363926165919656,2.22232049729548,-0.0051571877906728,-0.0332562178289153,-0.748049551900407,-0.101925565087544,-0.348885790255899,0.686112138161121,-1.07755722698679,0.656432822495687,-1.06337236125672,0.532972678667781,-0.0333500028938407,-1.86892955237373,-0.705032567910428,-1.4122777630932,-1.00621526343747,0.0548733477277769,0.100786182670759,0.451376640854636,-0.131820020230669,0.0921028013372069
97.92,-1.1839522535463,-0.0560364693879319,0.247924251179439,1.9541950066494,0.0888221847065412,0.0823583214346472,-0.732287994328544,-0.086574636630908,-0.341375957559213,0.511202742622112,-0.898042304470294,0.531864929829249,-1.06599173028797,0.606824250375546,-0.0785796691097541,-1.67133719254341,-0.659276868386468,-1.3339073697615,-1.02683633092328,0.0676497264535196,0.0911027144725154,0.427148541256479,-0.150073839224084,0.123597576908716
97.925,-1.16614917704137,-0.0750591351523804,0.12674096949022,1.64917881410569,0.228738865811651,0.188019970958671,-0.725411014814937,-0.0930132062085918,-0.323580501845018,0.374619519034386,-0.630816072914075,0.375791452928779,-1.07393894428348,0.672925280148985,-0.100795533622175,-1.47291712466799,-0.596400821371586,-1.2016316671293,-1.04389216622472,0.0772931386232003,0.0835835879295875,0.397465775683028,-0.153498779069014,0.166980074012322
97.93,-1.1227459662147,-0.152945023105297,0.0436493292209426,1.44860915466258,0.416843741973006,0.3047356526263,-0.720619901490448,-0.119896630843438,-0.292271432566516,0.246464515382241,-0.385847224699711,0.226088280204838,-1.08437068497339,0.742687158553229,-0.112873458665372,-1.17792974533875,-0.524923095749271,-0.964507132100942,-1.06072666955855,0.0761364808201726,0.0808134656152462,0.380391851621538,-0.151252799356294,0.205582052355947
97.935,-1.0294027372483,-0.17967148119758,-0.0372178020127296,1.19113608319158,0.695015498587156,0.47678506980474,-0.729395323919663,-0.151069142135502,-0.246666919024196,0.151931348082354,-0.18526306031329,0.115612196686305,-1.0783809775749,0.772578771395353,-0.105398513370215,-0.958610475467381,-0.459228078844333,-0.977864843072681,-1.06532775834552,0.0713405709812034,0.0844234780070436,0.373845993919095,-0.150035255122449,0.250069372805617
97.94,-1.06117283992082,-0.137992471311356,-0.0830428248314251,1.01752319518391,0.956152733181477,0.582457013420836,-0.739604128907104,-0.158693718682072,-0.229887170788039,0.0518308506669751,0.0144617275773187,0.0195591391785436,-1.04996625416297,0.782879791857234,-0.0874119791061892,-0.614607458358319,-0.371418093111024,-0.611861766239912,-1.06372978801485,0.0575972369785627,0.0880093288026086,0.372909039258957,-0.161173082358538,0.285878076160812
97.945,-1.03340324234286,0.0328851075837755,-0.0950264000121832,0.777230539155425,1.23303330085593,0.689022124231898,-0.768509500205666,-0.164915074626821,-0.236336876404715,-0.0633041168568398,0.238899637462321,-0.0915322622664883,-1.04232079345793,0.755632839553094,-0.060739265987578,-0.256552686024762,-0.270904395035482,-0.415350547798142,-1.07047085880776,0.0569041390083753,0.0987149940750209,0.376233904467766,-0.17032671291595,0.3432576451587
97.95,-1.03637618502873,0.229916810223625,0.00856122483535784,0.165128065470976,1.56161205266907,0.708967366343384,-0.776335308635094,-0.172476498383457,-0.247769638162094,-0.163024207670184,0.424448281774067,-0.17992770877199,-1.02621518744741,0.696387093751927,-0.0583409208642315,0.102220065558091,-0.188427428069898,-0.286490575393619,-1.07737944374033,0.0465052029888138,0.118458925415364,0.360849308367201,-0.195164202369781,0.40387287633021
97.955,-1.08798596331913,0.382897477735411,0.210376009939266,-0.854327516478221,1.84305182960139,0.65316603772011,-0.785025417921408,-0.146620008002963,-0.228508301599701,-0.198616898162586,0.605935366364687,-0.266584023206267,-1.01101783901788,0.616551459361495,-0.0806279037490596,0.370126252631832,-0.149839948198,-0.168832137391419,-1.07729779428746,0.0294182608562944,0.135635856770229,0.355531010633669,-0.224620444938333,0.427954011297948
97.96,-1.09780883319877,0.326681152340738,0.445739975595626,-2.05390202876985,2.04299528054399,0.541760254835253,-0.81891378024609,-0.102809500551763,-0.180125874431631,-0.220168104730656,0.753799359683432,-0.334702537464294,-1.00443770916201,0.525640322046936,-0.101687661276109,0.568117752279882,-0.133510517265267,-0.0698941831085402,-1.0714979864009,0.0139762934932096,0.1458768192421,0.365649634299589,-0.226242231001068,0.442253226657891
97.965,-0.94974155137215,-0.115982986444633,0.689076924124991,-3.24015933224672,2.18862566727017,0.35235550465714,-0.869928026072662,-0.0718092791606855,-0.111411667386017,-0.273205101738529,0.859493102422203,-0.381153533745609,-0.99450199281681,0.407092487283682,-0.121506890264908,0.776529322356524,-0.116094498382012,0.0500699472664256,-1.06367008392048,0.00412293199303355,0.160498640796859,0.370808813628796,-0.188434370096073,0.458170024908263
97.97,-0.60991311362499,-0.683049570021008,0.871386034919828,-4.13134338653939,2.2918606155123,0.207310352173203,-0.960525585586905,-0.0448942192383485,0.0135073443962601,-0.374705268546089,0.917750342083569,-0.435469852751546,-0.974757280966038,0.26446059403708,-0.149890083960538,0.978306095493248,-0.0951251591823727,0.181064852172329,-1.0585968389503,-0.00060648196102761,0.186757628928859,0.378324119438411,-0.135805432665216,0.451663511653832
97.975,-0.0675245988340292,-0.838801374804895,0.943530166047498,-4.49686728591555,2.41582826906378,0.186782829760342,-1.13629945168102,0.000261713451191895,0.238998335765088,-0.526184809195591,0.85772994815299,-0.491362182973884,-0.95574711548044,0.136350590720572,-0.170161137356679,1.09219092429788,-0.061524547289752,0.226789516160414,-1.06275249297202,-0.00885396597080866,0.214791520857689,0.403451383113861,-0.0991906026265387,0.442756618053647
97.98,0.648664971776277,-0.590432520339426,1.0753828575452,-4.67866321235068,2.70639765663504,-0.0604594575557174,-1.35721479014662,0.0592701281556343,0.532577464491504,-0.650048846990598,0.672631116699765,-0.498530646879253,-0.957509008304665,-0.00488522624534248,-0.182860556667701,1.07437287512922,-0.0118765846987594,0.204575021895428,-1.07281174643845,-0.0110708556409872,0.234774820671201,0.40135165064665,-0.0688692084976103,0.432082915987283
97.985,1.02532305375169,-0.318007315750051,1.38537283933106,-4.97406286481423,3.0279286670243,-0.635572302926447,-1.58567242441029,0.150953786140985,0.821437932706187,-0.801000185421316,0.467577355460401,-0.473897167202672,-1.00073250791384,-0.11152937219601,-0.183174626328582,0.868586822262908,0.0614185631670008,0.153981852346483,-1.08778685298365,-0.0166755233223272,0.251558817946183,0.387264569488282,-0.0748992233589656,0.407860502668038
97.99,0.702799408413978,-0.0966911046370977,2.12350418297244,-5.53369699406673,3.11310843096412,-1.46792379056488,-1.69964453215945,0.171217798025241,0.854241927163497,-1.29389093746625,0.25142540879691,-0.422192297665491,-1.05774711956429,-0.168071773821616,-0.193706033533887,0.642501121918405,0.16417270733805,0.109457374910863,-1.1115077288245,-0.00978441158552004,0.258071074595173,0.361012592609435,-0.0885959033161858,0.387315468810526
97.995,-0.0583823715336574,0.436374038084884,3.50570292680643,-6.62220708828148,2.40391036007895,-1.6162002598339,-1.59738522549978,0.137881377440507,0.465900398580412,-2.05207945064747,0.193899728478868,-0.394579977848652,-1.16228978060881,-0.183692231833489,-0.199996070318396,0.271268560909254,0.317033164565153,0.0462443949179187,-1.12978157358327,-0.0029442952354014,0.239621941357547,0.319825130810323,-0.114872570528306,0.36776637238049
98,-1.3405431578241,0.0332501524758977,3.88937523841209,-4.2428150592584,0.666477120880425,-1.47968806678254,-1.37956526803836,0.0901672322471728,0.0577353061132134,-2.88887801789244,0.159490262145075,-0.428734498505194,-1.22204712616314,-0.197653840650212,-0.201359773776748,-0.07728126396442,0.418281450160525,0.00954809669845483,-1.17093490362167,0.00440865764796565,0.21322701074183,0.244560466452022,-0.126553980017363,0.330758970793819
98.005,-1.61045579336879,-0.976170469833884,2.3779190071132,1.52864841131387,-1.22689282128454,-0.692124878500167,-1.170825457302,0.16385607136008,-0.00334847583487361,-3.21002321000523,0.127196767747859,-0.440088747004642,-1.25848190085429,-0.224058879551973,-0.169851798667325,-0.462923323271663,0.498571038857065,-0.0382282377341064,-1.19045040038627,0.00758014772789517,0.184867806844374,0.187725994477333,-0.138888144479664,0.297901541886878
98.01,-0.199307857659199,-0.660900416567185,0.865327294992123,1.70538035488624,-1.54543317828667,-0.36489863985363,-1.01194981010676,0.0618247144205353,0.107437017461078,-2.54738533084892,0.108985628724451,-0.401639077341546,-1.28915824719787,-0.246694371829823,-0.124634458474056,-0.798510056936766,0.561591224158742,-0.159542766062963,-1.19904731262068,0.00407542731356107,0.161637256357195,0.14082689570303,-0.151364024295888,0.272551696201185
98.015,-0.495655478512393,-0.41873795249773,0.418162105441814,-0.00809256472247111,-0.878991881006382,-0.965795242298915,-0.950113163102792,-0.218213220787058,-0.076471282032187,-2.37774202672464,0.142180429823022,-0.446846440054811,-1.31376643720634,-0.247753043221461,-0.0698657549028479,-1.06541195408602,0.603573918868521,-0.30360833749393,-1.19383065678042,0.00196155471402438,0.139583103253893,0.104982795305906,-0.171582715617107,0.261904873892574
98.02,-1.35720900345632,-0.310346130969205,0.571531924119779,-0.458250575915579,-0.602668623237555,-0.9919721302692,-0.911483784718417,-0.385340809625415,-0.576439205379801,-2.68871074040274,0.30060465707599,-0.434471220277408,-1.35042884975183,-0.185010767396253,-0.0170279900718322,-1.11911580041354,0.591424913965098,-0.410787210932007,-1.18149359045837,0.00452043852961389,0.117268936801685,0.0713745742745128,-0.200624068013914,0.261540954149631
98.025,-2.1612684467163,0.222632476502594,0.445334456572642,-0.111849511757501,-0.80653733889804,-0.502402391994708,-0.899424401413942,-0.345978724451626,-0.972351866330456,-2.61167261866082,0.556859023628391,-0.374285040536285,-1.38404809303678,-0.0787688552437183,0.0302297117135792,-0.945142101022966,0.532714859345306,-0.411202391940696,-1.18550107328252,0.0181821457082579,0.101275961134854,0.0464448156861775,-0.221122033593927,0.256114105535243
98.03,-1.87876692326518,0.785642021200124,0.272327459430414,-0.242201594964049,-0.655315992927385,0.0535187056162012,-0.957775385010661,-0.211674005551715,-0.970087887914416,-1.89005955343752,0.821509914530503,-0.33056667137537,-1.41444553746324,0.0475378606376334,0.0681901569821695,-0.653711367245622,0.46735326528843,-0.315380375838563,-1.20662611414958,0.0419128763044157,0.0866396046446497,0.0464183618026775,-0.23443333716773,0.236219072315174
98.035,-0.983541811052501,0.823691433435118,0.49745114449396,-0.559845868374451,-0.230186938924601,0.287506340225524,-1.06569779696703,-0.068904421127614,-0.661788338096057,-0.857936034752053,1.02446222138655,-0.320977948474625,-1.45190164472416,0.211154426257599,0.0943968078248447,-0.257104573225309,0.413173492207212,-0.141675078114193,-1.2297546676222,0.0693555875640844,0.0733356773333441,0.0703402521087706,-0.240931813339059,0.205842386579018
98.04,-0.41184206009811,0.401564575876392,0.931430786976744,-0.577886918865835,-0.0357636699690859,0.231593156159836,-1.20460085237308,0.0417191434643005,-0.268977878967032,0.107648378003505,1.15076233410547,-0.345440469498641,-1.47832931482234,0.390486983115556,0.117401683292675,0.203880858342235,0.372418873841532,0.100587539419124,-1.25311319438251,0.0952996662896391,0.0635248719750535,0.115724886683858,-0.236230998805131,0.170736814673786
98.045,-0.188479958831092,-0.0305209946649951,1.15903855395712,-0.444298401154525,-0.0500498591960935,0.167152598611828,-1.39524829402765,0.0899275429250254,0.086666347471317,0.699240054263801,1.18982732244338,-0.390600642018368,-1.45514106037872,0.52116969456931,0.147859184834877,0.635391459862787,0.326687838623628,0.390287376777409,-1.28284237610226,0.112528068499765,0.0524809292251977,0.189735597156369,-0.228897722388427,0.138323956264382
98.05,-0.124474833865126,-0.144793052572598,1.11073408057124,-0.30538880397254,-0.0619839410169965,0.160321143576368,-1.56914747626309,0.112469226454873,0.293599904744711,0.731672910969102,1.10858090204257,-0.430528427333636,-1.33778077925714,0.565783100064754,0.183060130187193,1.06714946056304,0.233308208778165,0.730088760722892,-1.31356029654054,0.112702882367936,0.0412328270345606,0.280333648580907,-0.233081256825265,0.118873891268537
98.055,-0.260923865973808,-0.0485247949708803,1.02938173219745,-0.176622765227178,-0.111358072710768,0.116036456311959,-1.54433467669934,0.193278985280945,0.21797610394272,0.368391629920217,0.929849299958133,-0.46028859981876,-1.11301582170871,0.508616577692081,0.208130563217632,1.45626241127887,0.104366031121963,1.02474372117084,-1.32596185282193,0.0961477161601249,0.0327255803041043,0.347205802509146,-0.256830175343588,0.108140322070278
98.06,-0.393258463521609,0.190415804114855,0.888848798431009,-0.0611276272685724,-0.122689554816969,0.0887247592919802,-1.32074690984526,0.330522398321616,-0.0162248287383083,-0.103904343051791,0.783982633513879,-0.437452774647993,-0.914051384838287,0.382532126129085,0.189142313772922,1.57371727007126,-0.0316333789664009,0.937638985185995,-1.30735456312979,0.0751151545484264,0.0202018438413265,0.395521736098008,-0.300081845402898,0.107593409454736
98.065,-0.473554123369893,0.374253492398289,0.814417194965718,-0.0559236001318847,-0.0966060548669487,0.0971387289704062,-1.06850615648021,0.339949548411414,-0.163113556090726,-0.378965467657523,0.789453115669584,-0.364338773052945,-0.764278198919719,0.234374096008055,0.139849702194207,1.35864445334337,-0.113569700680503,0.671591573094832,-1.27589413449934,0.0342922083208884,0.00802371323497269,0.414489775224654,-0.364018276912158,0.123911731715429
98.07,-0.50611240993724,0.377249984949753,0.80212627087128,-0.109797225406482,-0.0763499980148881,0.0860854782063459,-0.812198027769003,0.243776415470556,-0.226098613855251,-0.566347222210962,0.816257786880437,-0.287816064121823,-0.638667218456736,0.104693047539016,0.0914242078359839,0.969327114342277,-0.192360126976107,0.164088548719389,-1.24102072822394,0.00434508632363119,0.00174578055836179,0.415648083692486,-0.406875972784446,0.1436031028217
98.075,-0.493985876332237,0.264444747184792,0.811084426963179,-0.120122164957839,-0.0958526818236394,0.0631411385519783,-0.662587399576223,0.190332908547789,-0.219765553097106,-0.673105253484971,0.766896480370194,-0.299295409074576,-0.600193597249935,-0.0763815491699618,0.0295647739838942,0.319856684981309,-0.273091264971997,-0.679998849193884,-1.19039823846913,-0.0226744668775216,-0.00432360502960812,0.396733892810244,-0.413194348820176,0.139492278499841
98.08,-0.468843520740865,0.238993069945671,0.82737260853246,-0.130501344313849,-0.127896019913627,0.0502530394857748,-0.579852475468745,0.193660366575433,-0.197165840853315,-0.684620147067481,0.749582394433406,-0.326430065814331,-0.617559489265907,-0.224508240438535,-0.0262389277872944,-0.206305237313767,-0.288999346126709,-1.22928991462437,-1.13924182569294,-0.0432377267264848,0.000300101106174337,0.400211643880981,-0.375486672426465,0.143310346913107
98.085,-0.41719550461882,0.303578077702476,0.825867924922987,-0.136635776705988,-0.165527519977456,0.0343680860852606,-0.573840775579337,0.202159828011453,-0.16947333134345,-0.637261452505423,0.71983389473399,-0.33110764188883,-0.668523749951982,-0.334911933373738,-0.0638953812772409,-0.658854528349543,-0.276230522640603,-1.58396951889109,-1.1153516721442,-0.0534194988986543,0.0110067503680163,0.423963911531549,-0.324839127194534,0.124983865442724
98.09,-0.391817687765333,0.360392063676308,0.820425945540138,-0.175904555134105,-0.183583847904452,0.0104443720233155,-0.677649365773562,0.198512145322498,-0.15309651435773,-0.589406464368311,0.663678448037575,-0.293629257502236,-0.727898441200092,-0.422146352113089,-0.0904096857942933,-1.04860673659478,-0.222017925919626,-1.72721363246515,-1.08413458939604,-0.0548426080398702,0.0276852045833541,0.487851120238374,-0.289600536296505,0.102086300164402
98.095,-0.384589965790736,0.357461638397454,0.828441949393864,-0.215756857840916,-0.197469562098805,-0.0136792964880547,-0.833028117360064,0.208142292182406,-0.153769862468001,-0.58970008156165,0.578699391548405,-0.236053652350049,-0.776359145407836,-0.502609069778253,-0.105336913437708,-1.40232285463929,-0.16629140949409,-1.65621324201212,-1.05305364803564,-0.0605041223462015,0.047749570720134,0.559814172217046,-0.245683976592624,0.0845456216297558
98.1,-0.396295303165457,0.335384107407646,0.834797319754138,-0.22089787672213,-0.226606325187903,-0.0440568788374678,-0.951790532358398,0.216454255810631,-0.162496799924918,-0.590559313281442,0.501968737297073,-0.193932285225084,-0.798001335016562,-0.566135658849415,-0.118889711077875,-1.65075764811741,-0.109093110303367,-1.44720884203654,-1.01531775953723,-0.0672776747738424,0.0733687826917809,0.644043082416667,-0.184422297636112,0.0739667958139989
98.105,-0.409073220427112,0.313172542912936,0.83731757400294,-0.203657975693856,-0.267257615276384,-0.0687750836523825,-1.01951895339862,0.191480518669015,-0.181200518462868,-0.560160567876631,0.456736311452293,-0.16089083066962,-0.79396400163402,-0.602398478382883,-0.130613634021386,-1.78326739515192,-0.0619525695193546,-1.2181723476373,-0.969755513599636,-0.0762558544843452,0.103015918956248,0.707904192473124,-0.12810685826583,0.0687027787666298
98.11,-0.420582433167289,0.289555299619704,0.821721784562101,-0.171687999095551,-0.297179166911397,-0.0912103409595658,-1.05232925284783,0.128942524624684,-0.203657619141134,-0.47523760963983,0.433238138758686,-0.138702344014315,-0.777408034409858,-0.61242864993405,-0.143766118199784,-1.82571234530274,-0.0204613870702778,-1.03304981061986,-0.925432051809954,-0.0882614677134856,0.126724055553481,0.738841841559059,-0.0646052313209447,0.0664489258581971
98.115,-0.434792133156393,0.251457241916336,0.828992032325671,-0.136442840445219,-0.317367817045707,-0.0997910926353161,-1.05317736270038,0.043362099772569,-0.224060429447226,-0.305050598206212,0.407229832780854,-0.125031971325644,-0.768895654474727,-0.601060373637526,-0.156063400721285,-1.78712142116875,0.0145526326632599,-0.92726164089615,-0.880119626383336,-0.101286217523474,0.144789373359211,0.74385999483227,0.00421347563871278,0.0678093475767607
98.12,-0.435145997959715,0.212200514518464,0.864488899629925,-0.110028108749035,-0.329074822073253,-0.102042668019658,-1.03435483730763,-0.0318836296115513,-0.225346387580384,-0.0569077343867735,0.370813406195792,-0.108629081165685,-0.789415648108586,-0.559970702941585,-0.15766993484844,-1.64128503040956,0.0302874586234748,-0.91835443735768,-0.826595572653043,-0.111527630658926,0.162408663782227,0.71740667155775,0.0516324593830909,0.073339886467357
98.125,-0.417979756496103,0.198691611469064,0.866323380128591,-0.0881649513000546,-0.320427411684748,-0.125268652837662,-1.02720033552888,-0.0595197034758213,-0.191830755264679,0.192529303382017,0.338385798415536,-0.0840458927576829,-0.841927219415798,-0.472823610710223,-0.146335771419315,-1.36293629490892,0.0280191332299068,-0.949505535203703,-0.778832629269948,-0.11249857721958,0.167726548529534,0.656722517954363,0.0876451414227698,0.0770281752081015
98.13,-0.440815260690594,0.17489039570944,0.87309683542535,-0.0599650544228691,-0.31092229916286,-0.129288178461156,-1.02535907860085,-0.0622019613610853,-0.174246223885422,0.369529752513038,0.309170124584842,-0.0429530376634443,-0.899514595691791,-0.368371838488272,-0.123009290345382,-1.03188610332752,0.00353337765492915,-0.946664070169831,-0.749928165846547,-0.101319775821099,0.161183902090685,0.589175728352351,0.0967202232582479,0.0681187035792825
98.135,-0.425579055210508,0.164301249911646,0.875035113169794,-0.0326075593522414,-0.293253918567285,-0.129929360331528,-1.0212024726634,-0.0451581292933286,-0.154845672405476,0.509952875851648,0.254879300236508,0.0198656103650668,-0.968472138043837,-0.24898295513584,-0.0721008560446709,-0.569579759124092,-0.0346751285340571,-0.873092432212592,-0.720540322565904,-0.08481090627282,0.155582769537033,0.48666004519355,0.0942333061639169,0.0284065169250965
98.14,-0.432752811597801,0.204795351213089,0.866948573448441,-0.00239568661784956,-0.280945373779769,-0.124334563524091,-1.01501178821119,-0.0113388853957539,-0.157786261187454,0.562617483330279,0.217902001417385,0.0758918308439137,-0.996893245272464,-0.163286187282675,-0.0229539165519225,-0.269659665431694,-0.0648909670179118,-0.795874165417869,-0.695880630406234,-0.0534241490906369,0.132422391405085,0.401515089139581,0.0740673883275628,-0.0264895794553249
98.145,-0.434475457634654,0.199329673599498,0.866693213850731,-0.00404764051951207,-0.264005482056942,-0.120886911292117,-1.00472180986975,0.00799133171360793,-0.175675896166316,0.563323819031279,0.182680674020224,0.108478724911526,-1.00839140960172,-0.104167774884,0.0310612090821603,-0.0242215670624526,-0.0679051733994796,-0.742064297041971,-0.683144233055106,-0.00918516393483212,0.109381392214295,0.332109160981896,0.0714540358676235,-0.0883127381849943
98.15,-0.436654922302095,0.205655068237308,0.863724704520785,-0.00222578582794511,-0.23385561880305,-0.114449368793697,-1.01156822112807,0.0447038095696183,-0.198254354242151,0.560195905160072,0.161755490051816,0.136028606030008,-1.01160795366921,-0.0557333434239505,0.0692149655991679,0.0137464001675725,-0.0528633623051683,-0.743236684651951,-0.673407284933705,0.02237471407208,0.0880351890584834,0.257263533515635,0.0584119857896634,-0.154929916521471
98.155,-0.439825289958156,0.208847515845918,0.862379689531665,0.000920059865107933,-0.219957175366886,-0.0977043497288679,-1.02543381547325,0.0902790141198912,-0.19036513497579,0.557742375757146,0.135620161856282,0.144021669069317,-1.01311582697515,-0.0377786446784722,0.10105144702376,-0.105659700388539,-0.0254454728225875,-0.803790458651986,-0.67516318198616,0.0673238477313329,0.0549614997598106,0.191131514333124,0.0475162067941123,-0.199496462474109
98.16,-0.431837672001108,0.227823157939698,0.859312469075939,-0.00227509250090284,-0.201527112502333,-0.0817521269321543,-1.03460482349569,0.131951195515738,-0.151960022380952,0.553058250321097,0.129871773495803,0.149032484814401,-1.02223270317782,-0.0418233607095649,0.121517275428948,-0.344857542503885,0.00375033414732851,-0.917457955411558,-0.684515164239286,0.106997838462775,0.0240492602321885,0.141366801402165,0.0285184288473854,-0.250895360382259
98.165,-0.420319998875916,0.235513462011736,0.864547517912389,-0.00426363572478294,-0.177752843536409,-0.0743703998067842,-1.04724566913392,0.170154567938965,-0.120904762811729,0.50062734458439,0.122486401576995,0.144636185410016,-1.04153653581604,-0.0517980112586691,0.139110332058138,-0.591610397754821,0.0225242520375433,-1.04098110940696,-0.69603071605066,0.153996596231822,-0.00993929777804394,0.0722121786284623,0.0207513558719989,-0.271751500053195
98.17,-0.418931267517703,0.230551548178303,0.869611619130634,0.00223917850068212,-0.167093366384506,-0.0722665504555989,-1.05598407037273,0.201589825723156,-0.115471892833435,0.415369063674087,0.0951685700533123,0.132600989257502,-1.0637227476865,-0.0616378686315949,0.153037262058467,-0.784340815513379,0.0319441008642121,-1.14472220611393,-0.7147139858453,0.194906988363559,-0.0437984517705192,-0.0101490755997653,0.0167307930725466,-0.268417277297595
98.175,-0.4223081825455,0.230409207988454,0.870405259860149,0.00739915829637445,-0.158781081670394,-0.0689243735988337,-1.05026767413556,0.21495377422165,-0.123116095605271,0.303534390071202,0.0648406972823173,0.116966392584524,-1.08488479871914,-0.0740994872487542,0.167250311036237,-0.924275061573921,0.0328544921664842,-1.21646640560744,-0.743018743592981,0.229561091803449,-0.0731214260284654,-0.0743247452911466,0.0149169416923695,-0.273430993879548
98.18,-0.425920881168258,0.234909870511167,0.87314562472498,0.00581080493138753,-0.139099427379441,-0.0623638235255319,-1.03273035195072,0.209962495034301,-0.120484849020964,0.169899004689158,0.0508232395696487,0.0992699989868996,-1.09887079998523,-0.0866936968485056,0.182202605287457,-0.987339692933331,0.0247722129405497,-1.24289939591721,-0.775644652824045,0.264522498597628,-0.100167704561951,-0.107092131031686,0.0267380915583748,-0.285964239237472
98.185,-0.428147320806049,0.232111982808168,0.875910329449286,0.00543847884871928,-0.121578681504816,-0.0555011287690104,-1.01222517047971,0.203437618857569,-0.10038665909033,0.0599658461943536,0.0463469800883096,0.080652117913972,-1.09816094765484,-0.0960437790947447,0.188471678613061,-0.94997429430163,0.0134966771850003,-1.22634869903234,-0.805475406512632,0.283842213730736,-0.119664705742251,-0.107312113768298,0.0509487899810568,-0.301912443260425
98.19,-0.424509051527946,0.224119532501074,0.871489614104262,0.0064621416841735,-0.113155600636601,-0.0488674507059622,-0.996348485679538,0.202660097434357,-0.0863361713923642,-0.0040734580736505,0.0389303319745504,0.0573578289828197,-1.09211319056624,-0.112135698708087,0.199195856445802,-0.869467506422627,0.00279270112514496,-1.18534927760608,-0.829951583198215,0.316219872437915,-0.127523628162649,-0.0822761328294676,0.108165889832944,-0.319451649723622
98.195,-0.430850102001598,0.222395676363903,0.867224307103501,0.000794187271410682,-0.0949352073164235,-0.0382891226773741,-0.991026677133197,0.194650608978381,-0.0951477613755444,-0.056212696735506,0.0383908904571341,0.0315252304806901,-1.07970715105577,-0.124566501340343,0.212610468324401,-0.757961504270962,0.0045218941504463,-1.10891500439614,-0.86211509676679,0.333226427614331,-0.125299195403563,-0.058769836471503,0.178941944872823,-0.288332175996126
98.2,-0.421390386933232,0.231636256231942,0.864136444113334,-0.00517000307456568,-0.0824079957581205,-0.036007029641039,-0.981928078486365,0.19587809235282,-0.106893643652672,-0.109295750352187,0.0467223047066597,0.017932369470376,-1.07489166126042,-0.128808498859562,0.236387671829911,-0.622149255759525,0.0177988797810372,-1.01374314127966,-0.895049957664435,0.337542644040505,-0.124183245399032,-0.0119786192752861,0.276216241066529,-0.277220394110941
98.205,-0.4223362123598,0.250662924441251,0.858332534847089,-0.0130583227440924,-0.0794955875607656,-0.0338226035237312,-0.973992209755008,0.207807904733636,-0.0917785737811278,-0.114666249784086,0.0580817590030194,0.00555182073459564,-1.07479479880952,-0.118072618657904,0.254996611748698,-0.505696208674331,0.0404111131472626,-0.915379929153189,-0.94642186458584,0.361170544489586,-0.103912346479977,0.0523215373048773,0.336004128526848,-0.271580038792172
98.21,-0.414441805941744,0.24425737586132,0.869965551870057,-0.0198908347446195,-0.0897443625063094,-0.0338226035237312,-0.980605089655327,0.225080492950592,-0.0708075752495756,-0.10554609983304,0.0717619908820672,-0.00356833269268982,-1.07457620729341,-0.097825892783945,0.275803401108256,-0.401834488224872,0.0632043660553953,-0.758754492476014,-0.984561429601003,0.35912819336697,-0.0893524358013183,0.11408695820343,0.43211601129289,-0.205829212436925
98.215,-0.417957090865564,0.248790491762557,0.870748425939615,-0.0201456621289253,-0.069373820651852,-0.0349148549199819,-0.988352925816451,0.238059596654277,-0.0544673855813961,-0.0803722200265185,0.0821411575630297,-0.0169305148876251,-1.07383179689227,-0.0777096120558551,0.289137253237469,-0.323589840737696,0.0921172032029621,-0.635530057128107,-1.04736394580759,0.333422797081162,-0.0594136687428212,0.180452695742706,0.483449114167123,-0.15735191325006
98.22,-0.426898490102602,0.245074121040551,0.868275625608581,-0.0231776859418382,-0.0669144093990326,-0.0380763213888635,-0.990904765805731,0.233111230278492,-0.0580248112537896,-0.0590993976793101,0.0963791482930546,-0.0296265508301417,-1.06517380100757,-0.0626176388494439,0.293249889711242,-0.260554830711514,0.110283368188488,-0.532784201408058,-1.10107442529422,0.311717008234797,-0.0304138101156948,0.260031512877436,0.515129696743777,-0.117179658820965
98.225,-0.422969199871752,0.244390040613696,0.868989559012751,-0.0256120577730584,-0.0588085099764993,-0.0414113481011761,-0.992950406380186,0.222300719882992,-0.0588360431195404,-0.0267308643105965,0.102002669339041,-0.0480341034371504,-1.05875668006115,-0.0416555794987264,0.28846112765934,-0.193144645647598,0.118210191034369,-0.439455139978751,-1.16018326230974,0.280174489319429,-0.0117556024907053,0.335127030644361,0.533764954774722,-0.0418083693207591
98.23,-0.41786110167288,0.248553709729841,0.866300566072787,-0.0197806692363932,-0.0534916112590236,-0.0391377309413837,-0.985328258373671,0.202297167645205,-0.0499478279951506,0.0197038319446484,0.11330082120477,-0.0652068034810933,-1.05339515366443,-0.0282877654189042,0.279766642595548,-0.149996486616226,0.117808444154492,-0.385067997975065,-1.22058291349766,0.232100149188741,-0.00203431645833083,0.396994972475586,0.516220700922714,0.0799198945290448
98.235,-0.41629046635016,0.241343834422875,0.87047549993808,-0.0200971531925378,-0.0457442485347949,-0.0432742015094688,-0.984224238211043,0.18292594165477,-0.0488769219420898,0.0820937336617038,0.12665610361978,-0.0825177482296511,-1.05400694235146,-0.0195240419400935,0.261759963280539,-0.0963832431282806,0.115071714123261,-0.357234673700456,-1.27652551886789,0.182276057953464,-0.00190017304581092,0.463094437949044,0.458121557717823,0.180291067042065
98.24,-0.419611457533156,0.233519718623682,0.869715447358472,-0.0225890539586544,-0.0393088551068071,-0.0492112115864717,-0.986546274092472,0.167740410274845,-0.0504438915919663,0.150865781661391,0.138022562737328,-0.090785339474678,-1.06032880801476,-0.0167422993932973,0.237894035142852,-0.00954904113337402,0.1115766740117,-0.337223209996178,-1.31988585473547,0.131883839125353,-0.0126424850069544,0.478941582968645,0.36556736301053,0.229096182049132
98.245,-0.415249611265241,0.237805714596003,0.864186907381379,-0.0174561920985922,-0.0387343724405934,-0.046934102780368,-0.988654746709756,0.155110744639662,-0.0493194225234593,0.224358134860631,0.144440019643013,-0.0957564574594627,-1.06080950133194,-0.0188482953243927,0.211270456889047,0.10349988300602,0.100625597690963,-0.30408279189606,-1.34124169860563,0.0808013403910461,-0.029299994573544,0.4590875761007,0.274787319781207,0.248931962129464
98.25,-0.40643202843507,0.2457750451312,0.862150361533291,-0.010681498388607,-0.0404932789556564,-0.0441990689135418,-0.99110848758954,0.149102598270183,-0.0466187227749361,0.309690666729724,0.150151230062969,-0.10090609050474,-1.05327007788011,-0.0241392633246679,0.186934446927153,0.215851395714217,0.0899478437075529,-0.259610421436586,-1.33671842107527,0.0373921969190127,-0.0456231729071949,0.472514825988743,0.2133976408222,0.254090992488755
98.255,-0.404865901402925,0.245877112845478,0.862114106125231,-0.00981723989073125,-0.0402585828828919,-0.0472612418234348,-0.990333750460008,0.149000447413647,-0.0416573255813047,0.394026705912806,0.161119138673681,-0.0993372052907944,-1.04497561701087,-0.0375344613187558,0.168257395550971,0.307806457812155,0.0907547101378441,-0.22372777690757,-1.3071732270578,-0.000161944558226776,-0.0591636523061416,0.494809263742222,0.154348923482321,0.244221782560994
98.26,-0.404052042675265,0.239524933421827,0.864742620736614,-0.0108752122166019,-0.0378332679792233,-0.0467821832757699,-0.989575373062255,0.146486414208456,-0.043972862233883,0.445882001811447,0.170433741050939,-0.100663990351595,-1.0326994884667,-0.0524787435401668,0.142012840522799,0.392180058632392,0.0917621939884589,-0.185061796834153,-1.25591269879191,-0.0329661797717455,-0.0635397351117219,0.531291234049953,0.0891932829022751,0.222382325296614
98.265,-0.408963617501107,0.242210920443293,0.866784570444563,-0.00792871788144112,-0.0381808682619139,-0.044817853718996,-0.990083620364583,0.155591028453796,-0.0594130841156384,0.478900581598282,0.170677421389667,-0.106775494762485,-1.02203836377077,-0.0544060784881542,0.123138967621162,0.445374523228579,0.0988069080255517,-0.161488328786276,-1.20337170246508,-0.0465887928380221,-0.0724598679654445,0.611391561044433,0.0557337612152303,0.192352202526494
98.27,-0.410376002957135,0.238750692945754,0.864672936067295,-0.0078212523131758,-0.0328144268224557,-0.0446387444385538,-0.998610312760439,0.171803533664965,-0.0734603634618049,0.478697045587608,0.162771412760941,-0.108055593140126,-1.00903893947602,-0.0507267995866475,0.109753758540531,0.453316819849625,0.110153075710763,-0.138795993415853,-1.16404392394964,-0.0415517272922824,-0.0651802694725551,0.665821830142374,0.0625375483102493,0.158333284340281
98.275,-0.409953949490096,0.239907032881901,0.864421845591532,-0.00436505627242987,-0.036270629889147,-0.0388784177039773,-0.991381194769771,0.182487703102441,-0.0757858178336642,0.466033999667382,0.155864300633861,-0.118416268351325,-1.00047505719173,-0.0480100160601819,0.0994649619551977,0.414807599182944,0.121658688833186,-0.129413026884493,-1.13030395554364,-0.0332707059806312,-0.0636407490843256,0.706471884176836,0.108570240049254,0.128314749077985
98.28,-0.411842336227671,0.243768746725566,0.862334179764039,-0.00876745258180653,-0.0251124947669983,-0.0375834258102907,-0.992412158825739,0.198883399836412,-0.0954890274051852,0.457714089127149,0.154445436107455,-0.123311672260612,-0.990746152645605,-0.0528613247635327,0.0891295915885334,0.351979426203957,0.126797613743051,-0.113748974880311,-1.09735833459456,-0.0125045293654277,-0.0394714345946093,0.769118828784076,0.180270322911741,0.110866478340532
98.285,-0.40756574899258,0.245351816955118,0.862942051325056,-0.00606992414986568,-0.0313429063106517,-0.0364608564191245,-0.992079354548136,0.202514870697822,-0.111008615594415,0.434739846889866,0.148284138850165,-0.134856228266335,-0.984004364874102,-0.0632340733440509,0.0848674109720412,0.215897496670052,0.138283684500929,-0.0918427896916455,-1.06622520949846,0.0064743862581542,-0.017559915420699,0.779482774970685,0.250246520819576,0.110460646179627
98.29,-0.403592892397768,0.252798684131265,0.858467781442514,-0.0111350130831498,-0.0279988882641527,-0.03626599162817,-0.981739864051207,0.211045634613165,-0.113878231265165,0.43649632274213,0.144230337442663,-0.143673246493962,-0.982244033207642,-0.0737449934064112,0.0767533614664374,0.0555589464061661,0.138166555335029,-0.0720141546258772,-1.04301661890626,0.0244931349143309,0.00296178185636015,0.747349084193838,0.304914470701199,0.122339910138724
98.295,-0.408794763880431,0.251135352896991,0.858864372431188,-0.0102553138696131,-0.0359858201223046,-0.0371193854094224,-0.972406255188899,0.200614103169577,-0.113056704047556,0.400166213721668,0.144170505913589,-0.145761609077454,-0.977884547800217,-0.0831310252699577,0.0657743893161487,-0.0812304000908453,0.133182112878165,-0.0592239782572595,-1.01542350339981,0.0510998139564933,0.0258621670366603,0.679670648176137,0.347150797912816,0.113520579899679
98.3,-0.408183790805326,0.241544206633803,0.856114471161482,-0.0106892057368919,-0.0384983315458134,-0.039795878731345,-0.977334747993594,0.189794092292045,-0.126651546368943,0.351582231751043,0.140049043075081,-0.151772237120952,-0.967764914188814,-0.0938840836269211,0.0574832600902804,-0.208254554811621,0.121767627649142,-0.0604325914189768,-0.986694033231905,0.0730507009475931,0.0486172383818744,0.594353958376801,0.369750342975455,0.0906585397153687
98.305,-0.408304077595866,0.231804818487918,0.859669434933888,-0.0108975983476607,-0.0334165271019745,-0.0397603681814607,-0.982509064923809,0.19843821572409,-0.118054084068675,0.320768733343657,0.125698339139282,-0.158925894571065,-0.957292488768337,-0.108981256396228,0.0543699615548294,-0.359459978860298,0.115188606083393,-0.0880952050621729,-0.962537996525183,0.0918783643146254,0.0647414453890361,0.499715680600469,0.380446695480521,0.066162149354727
98.31,-0.406967513918874,0.231666831835516,0.861468842126185,-0.00911306037057007,-0.0308930995781303,-0.0418569974961737,-0.987947541407472,0.204440866599688,-0.0907862570407646,0.297711063016559,0.118260313764588,-0.158639850228199,-0.943235331822748,-0.130604200702991,0.0437568313394152,-0.498649412003357,0.10935681922627,-0.133088150356394,-0.931786279502333,0.115089605767785,0.0758132178169879,0.39504798262168,0.382014075987016,0.0373406809707264
98.315,-0.406838525533145,0.244326837786536,0.856358930733052,-0.00571319742736465,-0.0331469113967731,-0.0464794940595534,-0.988404666872975,0.183506848941148,-0.0979505107328485,0.230002837076193,0.114361437213995,-0.155535161495209,-0.932461218795349,-0.147330657708101,0.0286428563514742,-0.61095964604674,0.109455455222731,-0.187696312337207,-0.899507949173445,0.142995487920339,0.088130245653908,0.301310965439441,0.36622203969448,0.0112741776717097
98.32,-0.409736041555703,0.251134182461771,0.851850220908424,-0.00444138794225137,-0.0356168340749345,-0.0498823835677777,-0.975151966452627,0.152511757953497,-0.139550642281422,0.139971375713483,0.112068841711599,-0.155086462869368,-0.935090389814338,-0.15045623926559,0.0207990135670485,-0.703475340909393,0.123002345839281,-0.249647262418085,-0.877130434904948,0.169551376665769,0.100197239492055,0.236453109921694,0.340183618277321,0.00103117029203304
98.325,-0.409084637676663,0.241487986868715,0.850546888639035,-0.00709530178521762,-0.0375368821430166,-0.0537011335815863,-0.963535844138357,0.132946960622808,-0.163086023686903,0.111210336033726,0.123567755550885,-0.155795414237097,-0.941771271229442,-0.146420018056814,0.0146111095054512,-0.753850718854861,0.133763473349321,-0.297057380297023,-0.850779351177809,0.185446553770618,0.107649258655104,0.187160145127076,0.32089824906809,-0.00207607872246223
98.33,-0.409318885586857,0.233345171827087,0.852993425862786,-0.00694595289190028,-0.0426578319878204,-0.0544140903287953,-0.964010936065992,0.115182303493722,-0.157636093589755,0.135815840375774,0.127746529272825,-0.158890748849004,-0.946541329260212,-0.137656710324942,0.00958120363182627,-0.791264421190298,0.143314123164388,-0.318114153295651,-0.833570218702101,0.193860447130323,0.112918519126913,0.168514579067756,0.304143727759263,-0.00698550054447937
98.335,-0.410472540995852,0.229132374450775,0.857836008678699,-0.00324383979133715,-0.0508304760324784,-0.0477711401788632,-0.966088652075849,0.10276069373325,-0.140767173253073,0.198436877809812,0.121213314534161,-0.156317539220869,-0.950660117049234,-0.133819651102923,0.00724063867809106,-0.812334514282381,0.152874163570662,-0.325397780383071,-0.823440691041937,0.201256920845055,0.110048121090483,0.181287327931467,0.287425748185481,-0.0232334249307109
98.34,-0.405875614074131,0.237412008277833,0.86185563460725,0.00150758106129485,-0.0554050181426149,-0.050058408286052,-0.97102586949067,0.089041908121861,-0.138781009100853,0.275189833023866,0.102424808533913,-0.145909020596018,-0.954325208430537,-0.124472733078681,0.00615279984496995,-0.842169483229667,0.157385741307851,-0.319309294223785,-0.804653274442405,0.201454119610481,0.0935817002821886,0.212980813912449,0.279065173430348,-0.0509186682532802
98.345,-0.407494252889172,0.238813959307992,0.859322493752338,0.00746942299734966,-0.0603220509464459,-0.0520426208285278,-0.985241788552084,0.0802061518308774,-0.143089005717835,0.374707620497176,0.0811161558615958,-0.121764020856079,-0.958592346889744,-0.117156577035685,-0.00252376773410248,-0.887160140112376,0.154107653773688,-0.318681375363829,-0.793940626694454,0.201553616022033,0.07803318002589,0.255792376078792,0.266412425969112,-0.0709207823430222
98.35,-0.402085316550571,0.231484251318044,0.859280318363661,0.0152003978975495,-0.0680114780525331,-0.0509886367111187,-0.991443155765338,0.0854083969071465,-0.140010522840975,0.48057865861032,0.0664744153789293,-0.111627429177698,-0.96255334377037,-0.110340408479828,-0.015389409428457,-0.947944925490819,0.176620545891765,-0.305173648330759,-0.790007450766498,0.197287527728604,0.0471590825901614,0.297433903642997,0.25628339016855,-0.0664189978053588
98.355,-0.413641292112107,0.230913314875689,0.864443827659966,0.00619168094407742,-0.0544984077729712,-0.0577451752846638,-1.00149658083183,0.0943028335854558,-0.126463634838505,0.55959010108203,0.0764287856367443,-0.0936693161223583,-0.967961845385476,-0.10607344901812,-0.0224295471321993,-1.00012260459244,0.193739531008357,-0.307897873552912,-0.791717379120229,0.186261464185585,0.0233622041558791,0.319902384004625,0.23545969156262,-0.0394800506357944
98.36,-0.401988073314009,0.230319270438079,0.865874555999606,0.0160426841104439,-0.0566356014598835,-0.0572032166447964,-1.01241059800912,0.102574779434452,-0.101446434980206,0.627974495497941,0.0576837072383398,-0.0878638534576989,-0.977542572458819,-0.102468144037113,-0.0267626975863437,-1.06647810743847,0.201817838303302,-0.302316640590854,-0.806697845729621,0.184991174542776,-0.00616001182272853,0.340544297566846,0.212848376145439,-0.00413102519164363
98.365,-0.402345807640747,0.226571075994755,0.866113478584323,0.0263607273227472,-0.0561815335898032,-0.0570347979664803,-1.00608148211797,0.115896996529898,-0.106394487489562,0.673775563145922,0.0390886871558032,-0.0833545244320319,-0.984106023025641,-0.101716987712874,-0.027930907246614,-1.12696637223913,0.204057530482958,-0.310053245242271,-0.827096609307538,0.181987418585406,-0.0349687076754906,0.357299673014119,0.196511139286942,0.0275396888802917
98.37,-0.406622436035958,0.230316968114454,0.861000712886493,0.02959950550744,-0.0567965482753641,-0.0544026356282334,-0.989801501311264,0.123131198396755,-0.117157296414475,0.723695764148448,0.034604512155056,-0.0813736876408831,-0.995524933187374,-0.103663017982255,-0.025742936059843,-1.16809236590866,0.203547007733228,-0.319803104184393,-0.85264098810375,0.176946248906936,-0.0599669280307479,0.371637404252292,0.180882392255271,0.0518340457625353
98.375,-0.415057032046939,0.241624149001212,0.859757296299134,0.0259831656398287,-0.0531802075671601,-0.0549539736431291,-0.973118939888021,0.135081390912565,-0.11622733419023,0.762804883719808,0.037702678997543,-0.0810117870569229,-1.00223836360827,-0.0982377952161345,-0.0175624778082339,-1.19330776943338,0.19722921094404,-0.32223421468866,-0.882809601371423,0.17373112689815,-0.0756852102629235,0.382364076611364,0.168609191269023,0.0791915945354728
98.38,-0.40682979704929,0.248523882253636,0.861534370893627,0.0302202329761812,-0.0552889740434581,-0.0551036714519512,-0.969406480413458,0.147294787885855,-0.10185566374554,0.780612977479201,0.0339591111303901,-0.0865439664694289,-1.00779886798359,-0.0830140342017828,0.000736324446598298,-1.20788310678461,0.182217503668634,-0.305341608603921,-0.913859311879093,0.168093388893412,-0.0827209593728234,0.386347681283951,0.159006053875157,0.0996784361237097
98.385,-0.403716502069309,0.234913193286378,0.862928711904212,0.0348305888473988,-0.054646863604496,-0.0558299698548482,-0.978631548328256,0.164828875258562,-0.10100434771845,0.751842490392556,0.0357328630078114,-0.0871762648713831,-1.00869595819526,-0.0703919636063987,0.0228999412531026,-1.21353715939762,0.16297355190628,-0.277041679122143,-0.947004099381425,0.156085621680518,-0.0777629912619331,0.390764625198065,0.153801959201431,0.104418548834378
98.39,-0.413588871707189,0.217115429668314,0.867445343457623,0.0348305888473988,-0.0489397718128356,-0.0612200160704845,-0.985918937239165,0.184207173098243,-0.115406278441713,0.713808984737563,0.0313327551155665,-0.0915328341757431,-1.0054877524831,-0.0662843447124956,0.0412847417595515,-1.21936007598844,0.147611105228866,-0.255500014489062,-0.986481973458753,0.143566652400431,-0.0619786201905971,0.392038248210797,0.160844677604428,0.104224481258214
98.395,-0.417742984249506,0.21619476544262,0.87149666729047,0.0335285500109339,-0.0448435615774014,-0.0650723047294348,-0.98345058353747,0.188940469466859,-0.118258990076244,0.692810766380561,0.018357186883969,-0.103833523887508,-1.00551353660527,-0.0660625994627382,0.0588661057729553,-1.23828778494188,0.132470789333904,-0.255983338153126,-1.02786489754559,0.135555666887915,-0.0437344001797314,0.386215152778402,0.180436309971716,0.110201096095859
98.4,-0.409932895602845,0.226673885156221,0.869201478518537,0.0311655066907406,-0.0428289483966385,-0.0622700117813329,-0.982998498446704,0.181349112863424,-0.102158359145343,0.650058182794261,0.0270139117641343,-0.107097942635913,-1.00632191469117,-0.0675017879847014,0.0788539210641362,-1.26745377421823,0.109829110888294,-0.288037242379402,-1.06360518525457,0.128518929470929,-0.0222883447687112,0.393551579081682,0.202612418535386,0.113989815519455
98.405,-0.399545670573561,0.235343167562357,0.869602609678604,0.0311655066907406,-0.0416370726582966,-0.0649502751888964,-0.99361409498537,0.180401925250444,-0.0888077109176902,0.59837646509154,0.0385322845137146,-0.113232419019067,-1.01025139959096,-0.0673407243611548,0.091860246183531,-1.28484674907914,0.095437635427897,-0.333156043844859,-1.10258476423082,0.123825896046671,0.00742299416819431,0.413274234471514,0.229855312687275,0.100845741139381
98.41,-0.403403530026933,0.227934324116384,0.868259599384756,0.030497053866626,-0.0352655676771824,-0.0715280209013618,-0.995302323894621,0.172670940331865,-0.0948608051239107,0.541631466088043,0.0355019883955498,-0.121302640686213,-1.01886902083291,-0.065803903357237,0.0991171570404853,-1.27915734195716,0.087260259089441,-0.360559497838096,-1.13174460555253,0.118144945250764,0.0173320301071615,0.436649505042467,0.25769545056939,0.0837739313512442
98.415,-0.402791145950747,0.221905778826381,0.869610469912847,0.0264140697874596,-0.043769885127711,-0.070541110575595,-0.99353761212497,0.16954300093077,-0.099790821130836,0.500259492499468,0.041983268321739,-0.130462591781454,-1.02759678130866,-0.0576714469401039,0.115436640069935,-1.23457997810507,0.0772480439662094,-0.369602845239415,-1.15519629025928,0.130613895746161,0.0273710585093282,0.465723380086168,0.278941768001344,0.0670005497716901
98.42,-0.409674200986227,0.230360123647203,0.865696158074125,0.0286451649457281,-0.0448854259036058,-0.0716566581547293,-0.99030402665172,0.165348604322674,-0.105282718774376,0.48573841302091,0.0431002749594849,-0.143866671434404,-1.03801259329312,-0.050560435314614,0.123802210379359,-1.20327100503305,0.0716571607885424,-0.386375501591689,-1.14777838852065,0.127895447429608,0.0332014857189482,0.501434777582924,0.268932760286103,0.0413378371689435
98.425,-0.407449886243061,0.234342495539684,0.865701771990662,0.0276410440242364,-0.0373563992549728,-0.0673708432460126,-0.985471855765227,0.171235058407779,-0.0930725118805164,0.504126163058533,0.0474046228159527,-0.156222587374849,-1.04283969734134,-0.0542674841473987,0.134088977356213,-1.16480029210799,0.0650441940977849,-0.387724190950394,-1.14524686920978,0.132204427558678,0.0354327363220751,0.529142047522828,0.23558493050156,0.0277487634379093
98.43,-0.410750614719124,0.235208026838964,0.864914051488851,0.0244631267331435,-0.0394093388632871,-0.0647834949050167,-0.982607818278159,0.168336109439501,-0.0891655080262721,0.530865109650914,0.0550039417553432,-0.160961738210371,-1.04128503086781,-0.0642524550420813,0.144052751284838,-1.14010689211604,0.0554045166498649,-0.37548552676021,-1.14245403529633,0.133857395936467,0.0368645168869903,0.5526763747143,0.190944857183185,0.0171163994455195
98.435,-0.409005366447318,0.243422294118737,0.862762041413409,0.0238353386521339,-0.0409584819783126,-0.0698930757924698,-0.977688545682466,0.167136322655297,-0.0959730507266507,0.531801967368592,0.0683424619349736,-0.166161877462238,-1.0234764023822,-0.077553713828354,0.147891399289427,-1.12112666473049,0.0409337939636217,-0.364161049407181,-1.13266604184093,0.135186712642731,0.0353090635818899,0.578687868169257,0.136115181751798,-0.00479677414311612
98.44,-0.405636339400038,0.253676494738625,0.861803120014026,0.0230107858256616,-0.0305396350791159,-0.0733442447252272,-0.977338854430701,0.159645133940463,-0.0977856629761456,0.539091762286594,0.0748988637670343,-0.173403022821984,-1.02258209620566,-0.0869445466341294,0.155671931027747,-1.10447825806452,0.0265585522226863,-0.370835124350876,-1.10993987618588,0.137097752888979,0.0264999503385749,0.617284607142528,0.0645415784772707,-0.0354810010773354
98.445,-0.406445128504371,0.252774661889003,0.862905444988811,0.0240795996717529,-0.0378374193031494,-0.0763374622064705,-0.977315911665752,0.151170215198799,-0.0986866567856438,0.550089541627762,0.0883050191530185,-0.18202767870163,-1.03255644659561,-0.0985269803242052,0.160340442061423,-1.06078854263346,0.0190812522024382,-0.355002358993392,-1.09199827410456,0.14354913867994,0.0231707337184934,0.654157958273732,0.00231648627514964,-0.0464253520939028
98.45,-0.408304400359112,0.245069520964112,0.865494159786492,0.0231208535654812,-0.0377554895229716,-0.0829667561256968,-0.979990933356436,0.142154324412413,-0.095680640833873,0.549666801503393,0.0950438861633793,-0.192923369139792,-1.03681668736577,-0.112205743352023,0.159870713968063,-0.994132926410183,0.0151162139204632,-0.315434901849154,-1.08084464930245,0.149434111377552,0.0243733465162075,0.684014512040303,-0.0444269171511139,-0.0436241678728931
98.455,-0.40897035501221,0.240469924490821,0.864710978429388,0.0230906044010419,-0.0347933165402144,-0.0824812026130859,-0.981780579969527,0.133122661545831,-0.0946566701365489,0.54053061174906,0.102471399079697,-0.198973479745715,-1.03107983492768,-0.123062850727834,0.156147588885203,-0.915164335891821,0.0125662591308355,-0.278106737776003,-1.06705119762002,0.15123626598844,0.0239276279126616,0.716471248920693,-0.0907468731865058,-0.0463971883416821
98.46,-0.410540268253286,0.242188856282247,0.86166006029075,0.0236006158186667,-0.039066180758587,-0.0760964454079228,-0.98206832637333,0.126037477519214,-0.0995221466432532,0.539777973214574,0.113546711906184,-0.202038036875114,-1.01948542970159,-0.13272438368605,0.150967691552106,-0.820599152305218,0.015589449696388,-0.243034652118259,-1.05387075944169,0.154656535344569,0.0238013783710004,0.752706246630287,-0.132957222707172,-0.0506914686334968
98.465,-0.409250974843881,0.246126425712401,0.863108674178088,0.0202038193448213,-0.0391779113766721,-0.0757562671839488,-0.985140947392798,0.118101807933466,-0.103138939513718,0.54277942395361,0.119219035018004,-0.207312020567358,-1.00918961023287,-0.141167109960212,0.147266834895948,-0.729149807800596,0.0266133098607581,-0.201001144763431,-1.04383076095673,0.16145351035031,0.0262331371500108,0.786811513717996,-0.153919016561159,-0.050708073373135
98.47,-0.401929813709727,0.243808875886805,0.867672243439954,0.0171029225355942,-0.0421685435974873,-0.0765819177031517,-0.985802388165405,0.113192603931437,-0.10513230351273,0.53206634740977,0.128262786805937,-0.209157296449068,-1.00299682500652,-0.141165291636777,0.143024882176267,-0.663215648352229,0.0458698839748714,-0.162455595861367,-1.02650514052875,0.166643909086967,0.0333831573981931,0.822460540734784,-0.156698334227043,-0.0547026584197129
98.475,-0.401909741773659,0.232580249649764,0.868432699693273,0.0148315959028597,-0.0405810044862607,-0.0768078580323758,-0.98827097511715,0.123272343318406,-0.102291464017399,0.530211746692657,0.114891384387445,-0.218624911309951,-1.00018297566415,-0.139807639154745,0.142510000373765,-0.588217398133477,0.0697456959656523,-0.127760494544254,-1.01233690310052,0.171678424054163,0.0406671960874571,0.850692806936344,-0.147964690829408,-0.0536869703704654
98.48,-0.408546858969044,0.228842443718651,0.865469428503342,0.0134379072479221,-0.0369959186814178,-0.077654157114574,-0.994407142152053,0.122324874840886,-0.103327939942674,0.526502815851211,0.129396382571087,-0.210643877204762,-0.996687251330979,-0.131672817190557,0.14274028444465,-0.480254376234892,0.101129936949154,-0.0883414615695251,-0.996327160874173,0.171642196311686,0.0384920646803562,0.878146702500095,-0.135352712551032,-0.0609014331996492
98.485,-0.412702819601378,0.234893489099344,0.866014093163173,0.0178921887194714,-0.0322936553689869,-0.076333934605575,-0.991368983860739,0.124276245427832,-0.104957129448036,0.4954910526818,0.114915568620223,-0.212182206169856,-0.999205234417664,-0.124594050529744,0.143433809432228,-0.384144514669818,0.136612968148329,-0.0449371608395077,-0.995447665610428,0.175395095819097,0.0489179963703669,0.90437248176811,-0.137696843331815,-0.0725166665591643
98.49,-0.406125847379161,0.233139391877123,0.863328482052064,0.0201694920198782,-0.026600394513919,-0.0729179822590157,-0.991487538496059,0.13634434198584,-0.108059371689106,0.486364811531268,0.109211660944018,-0.220167674133694,-0.993677758086836,-0.125551025956235,0.1454708650771,-0.314351806010926,0.162928250825927,-0.0163335863408065,-0.987473343452028,0.175795289488123,0.0477050953975707,0.90665382498524,-0.143400229200649,-0.0919082091218109
98.495,-0.404560400687885,0.232511315553645,0.858184516412233,0.0179113862702617,-0.0311162341063713,-0.0729168355464935,-0.981885753657879,0.136078950299888,-0.102151256712506,0.492897442661127,0.115794547438759,-0.224729414145243,-0.992307533806424,-0.122948891072658,0.145579778508166,-0.251060505711002,0.195282800625024,-0.0161841365119482,-0.979893251159212,0.176549251053284,0.0559667731509118,0.908911880862658,-0.156473560734968,-0.11322374127798
98.5,-0.40316641195346,0.247988815277138,0.863390943614314,0.0198602080541906,-0.0314852744340897,-0.068650149242318,-0.98091830224295,0.142326601908105,-0.0888979456883695,0.488318556280783,0.118554989281643,-0.224123278304853,-0.991765024854542,-0.100770321677177,0.142676214608017,-0.213613288899425,0.217691355170667,-0.0132947521402727,-0.966221063179318,0.176156633511201,0.0598336935579404,0.896280710517309,-0.18330772753239,-0.127233022582327
98.505,-0.394150311259795,0.251712982357002,0.863182346376835,0.0201702564954758,-0.0284950654824299,-0.0680300518870354,-0.979887544075728,0.135435038585142,-0.0909899024958468,0.457133838864295,0.137483806851682,-0.223950058221817,-0.998214573233718,-0.0830774485579278,0.139057382175481,-0.178318230261268,0.234662015791904,-0.00889655082224934,-0.952386654585595,0.17628628229977,0.0665197686082059,0.873944961818044,-0.201879341668568,-0.146345760241595
98.51,-0.39556831562868,0.245216886602604,0.867080364407179,0.0174229840343949,-0.0278201848268509,-0.0716930855583457,-0.976761696069606,0.132688285126187,-0.0911082541515909,0.410086042607689,0.153782271884931,-0.232028342260821,-1.00459449400476,-0.0710364145593024,0.13144432713919,-0.142050840105175,0.254100465930859,-1.68306970911294e-05,-0.938168333646467,0.178446545726314,0.0702453634031226,0.859232725253372,-0.211123330308454,-0.169474017380198
98.515,-0.398331719141235,0.253212380772485,0.864163018152547,0.0140218023580672,-0.0344425017762457,-0.0638111421685825,-0.979893767533384,0.128379451168793,-0.0976505969086815,0.348056793346988,0.162853475586301,-0.251138048503707,-1.00056083552189,-0.068270696556543,0.120543121310716,-0.0895005214550628,0.26986424538353,0.00244355490556033,-0.924438754976989,0.18333118032648,0.0744610354425261,0.85851720086848,-0.20805792334338,-0.198630345628415
98.52,-0.393087932740753,0.260820035960612,0.858413711821251,0.0113703711115516,-0.0456771871254358,-0.0543341768468063,-0.981546904711472,0.130470751947895,-0.102057186381485,0.303649392874971,0.165325820446014,-0.26870948447146,-0.987694959921225,-0.0690762129164115,0.107298277522675,-0.0452633511395473,0.280706815814189,0.00268088937988037,-0.912448970953829,0.183874055278765,0.0717987564787776,0.860365092754364,-0.19544816331515,-0.239023780543482
98.525,-0.39296570875668,0.261639737150558,0.860031342238882,0.00578718438738903,-0.0457643633186482,-0.0522433316931212,-0.98172288029881,0.135838048870286,-0.104731538649943,0.278001417475129,0.167248576214119,-0.277183979084297,-0.969603397829118,-0.0699823846808408,0.0919848898701963,0.00360730030344573,0.281971195574605,-0.00284781347589923,-0.904928630978272,0.185105639964042,0.070252923514342,0.860365092754364,-0.183579870084293,-0.271710683408376
98.53,-0.399920568481217,0.256002726153195,0.865569560074738,-0.00105851643545221,-0.0430008350664442,-0.0545310569803932,-0.978004565717174,0.132801479973038,-0.118931458979887,0.244485795000548,0.1723657817581,-0.275551434357959,-0.954681639343557,-0.0729179990121946,0.0757731614627841,0.0415694131538594,0.275204085899061,-0.0174367414882916,-0.899273635063918,0.184209183289783,0.0697229196926494,0.851137850191192,-0.170453901602699,-0.284474443018002
98.535,-0.406247735167346,0.247562780177562,0.868399560244426,-0.00224956540060732,-0.0424063186426429,-0.0563166211114632,-0.973176670657828,0.118902149939272,-0.139838861028506,0.204352855650461,0.181174817881055,-0.271110762909605,-0.948081210122471,-0.0820574279476854,0.0565331993362202,0.0419597611291391,0.267189151862932,-0.047023172717331,-0.895693233266704,0.180710349221515,0.063214117966654,0.832279429764042,-0.153610658547519,-0.288181464749068
98.54,-0.407800466224474,0.237785271374899,0.868684776913484,-0.00247917710951654,-0.0379290616138362,-0.0543756665657708,-0.975772537156523,0.106294721604043,-0.150847269832939,0.172970106903686,0.185982004914577,-0.272078460226869,-0.947595556019907,-0.10076664847667,0.0314339368147967,0.002474132358133,0.262184771499366,-0.0994554489049823,-0.901042151167924,0.186601932123246,0.0548553175019722,0.810315038070573,-0.146850025784374,-0.287487390856675
98.545,-0.405945133866747,0.225596334615517,0.868655660260716,-0.00679729323124252,-0.0359949067928788,-0.0500817752032301,-0.985915122094461,0.105506561122876,-0.152251946100028,0.153277898415012,0.173325449733011,-0.278485839657583,-0.952135450098402,-0.122111715033075,0.00596814261916667,-0.0935529260924609,0.264626113490189,-0.157252658489512,-0.909122870419938,0.192939851102227,0.0448995808786419,0.775703911426392,-0.159056949249954,-0.279044659416784
98.55,-0.407945997917427,0.22128607450807,0.868420990110289,-0.00517247016960208,-0.0351503491401672,-0.0509263277053833,-1.00024945188514,0.106004206650324,-0.150625604183662,0.15645783584757,0.149497975425124,-0.287393545692728,-0.955810395774328,-0.132690897307918,-0.0161630503931155,-0.219261779554962,0.27185403265754,-0.206597541346866,-0.91427353531844,0.194711138688301,0.0425288154815342,0.73173237887208,-0.190081022815501,-0.265478488818531
98.555,-0.405937950850783,0.229498061442351,0.862169793151941,-0.0074977964831391,-0.0334266635469592,-0.0494181021543257,-1.00349597231978,0.0980209463576044,-0.156150147248985,0.144665030428046,0.13454264098645,-0.291339415552496,-0.955694723621199,-0.133505654016452,-0.0365522523245235,-0.358207060840443,0.28366883618652,-0.252725122482872,-0.931290835827123,0.196505598847906,0.0377760971855515,0.668413633649856,-0.223581700104064,-0.249222102241239
98.56,-0.405916217061145,0.235761506922693,0.86472131858751,-0.00578465981224946,-0.0252271307920467,-0.0432724561766696,-1.00121636724821,0.0831151450514229,-0.174473120367203,0.102880298877216,0.140585932928984,-0.293411462642577,-0.950622084737195,-0.123487490533561,-0.0547738606025037,-0.477445495444976,0.290918424583421,-0.283961060201241,-0.943890501236734,0.206258628719948,0.033089018458147,0.628410015416708,-0.246239020218859,-0.237579454422054
98.565,-0.407123153069168,0.223069207657881,0.868071771383829,-0.00799981130972033,-0.0240129083630537,-0.0496335400081008,-0.999583466542744,0.0828245131553236,-0.179268703886203,0.106162109755802,0.147750653525044,-0.302400423641404,-0.948163003219478,-0.115638634216693,-0.0586589298481187,-0.591412508917953,0.288614088641836,-0.313862156761764,-0.958950207634617,0.210126945985501,0.0346739254750167,0.595849320381899,-0.261957993442912,-0.225228836515935
98.57,-0.408715953318354,0.222865894237332,0.863328190197521,-0.00913988078197489,-0.0217327694185446,-0.0484934670594523,-1.00074365251062,0.0803388472524028,-0.178576565811727,0.130099308058489,0.137491847300913,-0.308099749619065,-0.953784618843086,-0.108939108584209,-0.0544062216534931,-0.684665871250862,0.285202402592747,-0.354802639029027,-0.986696409069885,0.215391477156874,0.0281341034001147,0.567913747196343,-0.285030126269537,-0.211332488241268
98.575,-0.408865785859747,0.228233789140333,0.868100800746311,-0.0136595395700497,-0.0228389950397178,-0.0518647824622957,-0.992326046501483,0.0823370091246923,-0.177401632433393,0.1661817437274,0.13168559170077,-0.306030477753254,-0.96753391326072,-0.108859018200983,-0.041437360549039,-0.787915605772167,0.276403656646112,-0.395884013870362,-0.999384910560101,0.221737583714493,0.0237018945667657,0.563814797549788,-0.291982547177495,-0.193368296974939
98.58,-0.403961606855726,0.244458042278671,0.863005931253607,-0.00775375940943014,-0.0156027347554044,-0.0416756364558224,-0.995559326477881,0.0914827712717396,-0.16775972973159,0.210969889284696,0.132147330820185,-0.304774628036629,-0.975916362572223,-0.112037713972625,-0.0214877432043263,-0.868788408797583,0.267285961677428,-0.417052034227424,-1.00982464852021,0.224642842069859,0.0218914150718688,0.559588537376459,-0.291809901053198,-0.182987247373715
98.585,-0.408212496729811,0.237969428983221,0.865329157627978,-0.0105646503529029,-0.0153459553142738,-0.0466819239265605,-0.992637199341384,0.112561179527499,-0.160442928529798,0.255517876121075,0.124783518258019,-0.31119387224153,-0.982980172417679,-0.121041922635057,-0.000833149442611047,-0.939681712469815,0.247310376964801,-0.423431937445902,-1.01075523800254,0.225641155705235,0.0251109758592192,0.553257118847024,-0.286214980562097,-0.17210757825897
98.59,-0.414496810313137,0.240506002846288,0.866448690268622,-0.00986564142801177,-0.0121469270844819,-0.0467547772655667,-0.993060856976017,0.121336970883775,-0.160864712714786,0.2866358593819,0.135260349688444,-0.308056227363556,-0.984406704538649,-0.142499129434718,0.0274556036725427,-1.02302846574564,0.2207159768525,-0.426811889346878,-1.01583360000303,0.234225986217478,0.024479879117345,0.545795241836752,-0.282668200780709,-0.16645729611575
98.595,-0.413649288788465,0.231580066138095,0.866911029464368,-0.00685669744247991,-0.0107164680957794,-0.0536852674046064,-0.993289268941136,0.118969070524019,-0.171516585807777,0.2859408068543,0.119987567615895,-0.316255769207005,-0.980183949429068,-0.162862545606695,0.0505534472566919,-1.10232175396036,0.199810313213459,-0.440133285904441,-1.01544542689805,0.237656067326274,0.0282221029967343,0.523492739422147,-0.271488101790207,-0.148656881579894
98.6,-0.409794856845339,0.220966312966403,0.86987061170192,-0.00346468969015884,-0.0113900106837256,-0.0562358536033123,-0.984411091184284,0.11860733238853,-0.172303855559556,0.277796924263606,0.106028668449391,-0.328809678106398,-0.974672931936368,-0.173973125126957,0.0671489065465193,-1.1679184749174,0.182335395240819,-0.45556012339448,-1.01821240002564,0.236218386064453,0.0333410488256539,0.49773594754928,-0.245496825552063,-0.131627934985717
98.605,-0.410042097638549,0.224484242930657,0.869727663603101,-0.00480803432518903,-0.0107430400154803,-0.0569816410480385,-0.981393613698525,0.122852246844079,-0.160332741842529,0.28306174039987,0.108363812230522,-0.342605628633223,-0.97544412448592,-0.172335410871865,0.0829627311552782,-1.20545314677573,0.169378384994975,-0.459017702378989,-1.03091756925123,0.232091453369269,0.0349679180431278,0.487572818917268,-0.216352727564249,-0.133022778339823
98.61,-0.411975938562243,0.237542456388393,0.865992702913392,-0.011573463260783,0.00248082332639536,-0.0631229351755512,-0.985716818804381,0.127076438604913,-0.14956127714061,0.295281228058617,0.114585664457986,-0.357251975082395,-0.983640533854722,-0.160765464638078,0.0998358244475523,-1.19519257674178,0.164810228404714,-0.446964150688455,-1.0499842348307,0.222944950288068,0.0387778449520432,0.488063664286378,-0.1973957741112,-0.145692331209731
98.615,-0.410431671851398,0.246060086599056,0.866188070299058,-0.0151813969140419,0.0129744108063376,-0.0671639298482185,-0.986673632063257,0.12869412043547,-0.145948623158508,0.297201197823788,0.123455125609135,-0.370654493355471,-0.994344786485221,-0.149720248647653,0.115444480516568,-1.14343605155536,0.164435224753025,-0.421267626230301,-1.07184518240164,0.214544793554589,0.0468113982295585,0.494896663061868,-0.186758590433207,-0.15450994756146
98.62,-0.408492692154335,0.244426595775835,0.869383593980227,-0.0117730398988617,0.00341715261790541,-0.0690615220923119,-0.990768257063168,0.128700103989903,-0.150176866448545,0.285678399699845,0.133658998659294,-0.387386571493839,-1.00774993469546,-0.144709566631304,0.128322943570584,-1.07073721893811,0.164391171359275,-0.37723815370159,-1.08707691153314,0.209398999648565,0.0541395867318906,0.518557959656881,-0.182454578849061,-0.151154437212386
98.625,-0.410128141270257,0.236516370499642,0.869299366490603,-0.00966273524588154,0.00695870107700748,-0.0795967433481447,-0.991222887625795,0.134057485072389,-0.151749711789735,0.291137288083994,0.134137610194472,-0.400349331652302,-1.021360569734,-0.146446729492191,0.141459129835946,-0.981906526906656,0.162425981299245,-0.314245706420922,-1.09749598836118,0.199869205176169,0.0631186250129554,0.53511244058609,-0.185276985168457,-0.131215769511003
98.63,-0.410784427459013,0.233054069138725,0.871537581245858,-0.0107878627485943,0.0146845535801877,-0.0863554701209068,-0.985119698824141,0.144628723675925,-0.110521737345187,0.351162689544136,0.123777422902742,-0.403176028146945,-1.03616239538923,-0.153953155078884,0.151267518918458,-0.861648254794978,0.166826149056866,-0.233697822617011,-1.10796539588006,0.188144666679346,0.0679841826880024,0.55736540459725,-0.185823824180876,-0.0978938196301657
98.635,-0.408484846937088,0.245952282378023,0.8745115590158,-0.00478730388829098,0.0213268098414424,-0.0863554701209068,-0.983503201178915,0.133685585814639,-0.0671828649632825,0.409567453578099,0.144001103652362,-0.409698626336914,-1.04539073992866,-0.153517861473697,0.157503271323157,-0.765513137317365,0.170148641919669,-0.168772486169221,-1.1210002901953,0.161090841829254,0.0837140180680626,0.602648681949103,-0.192623828355947,-0.0820813195453894
98.64,-0.406240280770889,0.245487555924636,0.878954154598897,0.00639544368655372,0.0257999068254199,-0.0863554701209068,-0.989604104069033,0.123992517901132,-0.101552891415964,0.389404208125162,0.185447823440712,-0.410818800567413,-1.05878998745686,-0.145797315056695,0.170394901168276,-0.659030724157955,0.169027781608182,-0.0656526641977948,-1.14159121515927,0.135799608034698,0.0907485623519621,0.651857071664891,-0.206044290837929,-0.0943834306152634
98.645,-0.396457128834094,0.253001059776412,0.874598513937396,0.0143799663617105,0.0412310792114218,-0.0863554701209068,-0.984554102455043,0.112509934494442,-0.113624005261032,0.371307392034744,0.207726833792532,-0.4302055756351,-1.05741285615302,-0.136440528471566,0.172513093065587,-0.563725495199019,0.175176389205294,0.0293986778251076,-1.16417897388876,0.0978843214863785,0.0901032498773911,0.724922500833776,-0.227739238027639,-0.129283086659774
98.65,-0.404206831916658,0.250647990175747,0.86874685394904,0.021326138414442,0.0541163077715112,-0.0873625799179355,-0.983772584540859,0.111530205653549,-0.111252057950791,0.357081098828314,0.206572864940961,-0.455604846523767,-1.04917268756796,-0.128397287376099,0.170266333355404,-0.480981553329412,0.178145176786222,0.0962318561718019,-1.17207635581697,0.0575595921797564,0.0883151959063151,0.787021764086592,-0.251047568410666,-0.171749244526815
98.655,-0.408269641723897,0.239002054049143,0.868890147557742,0.0315783147915788,0.0654414075038541,-0.0866806974273178,-0.980718884075013,0.109024666389441,-0.0869691807785777,0.383283437325444,0.222336232968825,-0.475017310683344,-1.03784329946438,-0.117934169869969,0.160435625724541,-0.391737270031073,0.187091003093819,0.146283515813108,-1.17980014636068,0.0232325664856541,0.085955865932694,0.851336825665106,-0.268019462062126,-0.215454194387102
98.66,-0.406622432734369,0.238278511823985,0.865628674629502,0.0460640282590497,0.0951725022740553,-0.0815411410416635,-0.979172536429833,0.104457207178127,-0.0701752837664318,0.408719222863889,0.259437623666549,-0.489916275933042,-1.02996039178568,-0.107412659921144,0.147762502867622,-0.320708865378758,0.196253477025965,0.180277765047339,-1.18210043769268,-0.00266012101429927,0.0774224106995269,0.906228236319826,-0.276141570982772,-0.241997473557933
98.665,-0.398183949034212,0.255507702945107,0.866107481574966,0.0562824752964771,0.103936747775215,-0.0768512257787747,-0.982972040249667,0.090832746784368,-0.0828170373086825,0.410237697468943,0.299100805568959,-0.502935261766767,-1.02672452637629,-0.0979705649447812,0.131187595036708,-0.260060153385607,0.209663102478488,0.207643153723629,-1.17825556370961,-0.0259545982166185,0.060403445355686,0.959480583609908,-0.29408690330474,-0.253268875092146
98.67,-0.392979547079847,0.261079034568358,0.87096061023721,0.0605634722541534,0.111499171856456,-0.0773087104306762,-0.9830591631273,0.0645717233456806,-0.104812234357224,0.361987071580786,0.322546869644063,-0.509868987322965,-1.02589872094246,-0.0842830748364602,0.108442337173696,-0.180992647868793,0.228468502105,0.249691944572814,-1.16541151900626,-0.0473640220528095,0.0407294370834906,1.00442111720797,-0.311485642672265,-0.259022383244858
98.675,-0.399945735338783,0.243432831219176,0.875822933877759,0.0735731379732241,0.130266751324073,-0.0739401886380978,-0.985323198973277,0.0462400758736411,-0.0911591679287733,0.339391898440849,0.325195644850802,-0.513789146690187,-1.02751041199298,-0.0682220785097951,0.0843178808118557,-0.0966049601525429,0.24742256870849,0.29476882124516,-1.14322357496332,-0.0672950643789776,0.01658098885461,1.03214630057564,-0.326029393710614,-0.263122910217283
98.68,-0.408510816113217,0.218289463980142,0.88157953482031,0.0939717233069937,0.147853941681029,-0.0656699555082759,-0.99283165386672,0.0380756584920785,-0.0513705562744254,0.39836516707531,0.333183780377324,-0.516249386534603,-1.0303539553758,-0.0559121078628046,0.0618593534833315,-0.0343914545567009,0.265230920957556,0.326450983633503,-1.11210684487415,-0.0864320603800703,-0.0125622951605539,1.04846632525643,-0.339670753433184,-0.263717833138444
98.685,-0.405645392086544,0.205813085025052,0.884984884665495,0.108270241255918,0.165564277613383,-0.0577382118864868,-0.993141953323503,0.0187952593872728,-0.0446367084710325,0.454794454849305,0.360469182923857,-0.514352046065836,-1.03123534148463,-0.0438273739351391,0.0353386506710916,0.00796642129546312,0.285390763504969,0.354803200494661,-1.07128715462431,-0.0960060304885326,-0.0339924835472856,1.0487469639957,-0.336509022891856,-0.257026459991598
98.69,-0.397071123408474,0.216744407425854,0.883310385314442,0.119308211231353,0.178410066357332,-0.0490660668934994,-0.988667041796984,-0.00678847284882113,-0.0802703093085553,0.430888029517213,0.378346422444013,-0.515684068175316,-1.03087615187039,-0.0266646860492396,0.00234940507098895,0.0263760511240888,0.306925986103765,0.371907153373466,-1.03523231149389,-0.0927555963914359,-0.0470534347427007,1.02628938251031,-0.34766605617979,-0.242493248143724
98.695,-0.396245202464185,0.233482853385617,0.886185493711167,0.131310115347049,0.181222599723251,-0.048304127131579,-0.991485626741872,-0.0214126113905285,-0.0936316921083228,0.388673518132172,0.398795955519392,-0.524732235404868,-1.02917109502878,-0.00852407741989251,-0.0301288564728532,0.00902030679759232,0.324320495011831,0.374650206079919,-0.999546501872067,-0.0912938119436685,-0.0525111873128757,0.97729074888356,-0.35251585201439,-0.219761658843188
98.7,-0.417929148866877,0.251551684017624,0.860139996907881,0.150596031794786,0.219193644805639,-0.0346969871782365,-0.992901366708661,-0.0265063594464288,-0.0998700014043052,0.352011847211675,0.433214191071529,-0.533726689631835,-1.02553607781826,0.0187721544525977,-0.0576138581209896,-0.0287886613523895,0.344809553991799,0.365673295802825,-0.974038851763174,-0.0640856446804878,-0.0451378795234744,0.889998489219128,-0.350631946207658,-0.195364082584671
98.705,-0.414099302397156,0.224559688461982,0.879653937077468,0.160058035077997,0.222661452073687,-0.031432659920428,-0.992890458201113,-0.00333669585601707,-0.0872714140892366,0.396241350421147,0.423264666177605,-0.541599120837366,-1.02115804196204,0.0475057004568328,-0.0860400047086613,-0.107983900715781,0.365174049929253,0.358885121290776,-0.957358455287418,-0.0461919222135437,-0.0398321320014527,0.786160934153143,-0.332573245767146,-0.160375329831399
98.71,-0.426763077499331,0.209933139012911,0.876334950494923,0.186238865227253,0.27616140209141,-0.0337092532428002,-0.98716924237538,0.0100044509179067,-0.0583511088825503,0.452050141263505,0.444904808431419,-0.542738096165216,-1.02288645896055,0.068275528723968,-0.105775915421933,-0.172117768942122,0.374541321238411,0.349825790682899,-0.949390266576194,-0.0242040710941158,-0.023419517917693,0.660294759134916,-0.296743212251618,-0.129385856080459
98.715,-0.423858633516615,0.21508383233333,0.897813350794335,0.21443004511666,0.293882220873133,-0.0219920423243951,-0.988288599632808,0.0101448356458356,-0.0941055564198057,0.454631208433585,0.492831704212043,-0.547041062299899,-1.01993148631319,0.0830523844675974,-0.116542509910741,-0.230332449571703,0.382565623300048,0.338734605887724,-0.947874231379428,0.0179404741725625,-0.0126203470235018,0.515500775996137,-0.233301492364037,-0.0806774326044347
98.72,-0.405296871234756,0.22632229576025,0.89622177472718,0.243794004334617,0.33745916396838,-0.0233504142409206,-0.999681699210985,-0.00512272679321844,-0.094212300189817,0.379756950783638,0.522386018627735,-0.573896018755395,-1.02549882376022,0.0920034854985411,-0.124505444918488,-0.302161166261601,0.383027148724658,0.29656847456259,-0.950174793904779,0.0564405627242283,-0.00117211328257408,0.393069753145365,-0.163715173711839,-0.0462521516128831
98.725,-0.392917090375195,0.25277476280702,0.899090484486933,0.279160283327482,0.378327937900048,-0.0116138826309643,-1.01970641927425,0.00339618241729788,-0.0886772838539711,0.349984964978938,0.542050762233218,-0.59109611188149,-1.03566681504715,0.0916063144166498,-0.125889361636736,-0.364365520256199,0.38190831098115,0.237650097939561,-0.948307157265351,0.0893542859626364,0.00418034508213662,0.281106367365577,-0.0714998102083692,-0.0258415015373587
98.73,-0.379136443723425,0.265296260406186,0.906767643522861,0.309946720766611,0.420067930137207,-0.0109017203505248,-1.04210575592892,0.0296283311942688,-0.0682492214970502,0.374288994526929,0.547716200351715,-0.603062244467353,-1.05524438687439,0.0890963610183833,-0.120875488072463,-0.428061536683528,0.373426472953214,0.173864049407672,-0.945826009553972,0.105454550014716,0.00749503517393096,0.210018773792866,0.0045750970042846,-0.0233581428930411
98.735,-0.377662825165499,0.281628355346754,0.910691465402421,0.344134008164369,0.457094510165337,-0.0199440606364885,-1.06376819314633,0.0435468834321409,-0.0320988977559793,0.441203880783624,0.549726815651438,-0.597509080928789,-1.08218118279583,0.0845318342952507,-0.113503256372716,-0.496127311190799,0.361726802209599,0.127733895695406,-0.942079209093905,0.108675682964698,0.0109322424974345,0.178098821924876,0.0589322746989248,-0.0270839046412357
98.74,-0.380346795936913,0.297907254496213,0.917662721145158,0.386340595316188,0.505398287061711,-0.0323231916520939,-1.08691313850839,0.0491798370219981,-0.0251568503224918,0.500194681684306,0.548537877454604,-0.576157133110395,-1.11270353267853,0.0786549170637289,-0.105004548758159,-0.553843051502036,0.335573676875341,0.113930651591558,-0.936750681342525,0.106619168727808,0.0146712936704821,0.176244117545791,0.08846265170027,-0.0313396524872462
98.745,-0.383823138322951,0.303970405612451,0.9309859682733,0.424049753614865,0.552492683909832,-0.0511372573586157,-1.10139861893175,0.0570054337527949,-0.0424894630484298,0.585728950723889,0.534472814222374,-0.551810484922375,-1.14508871874668,0.0732799318245206,-0.0962262903898075,-0.587269652164842,0.293966982684093,0.145814195126095,-0.931538369623336,0.104413583200572,0.0190027850371978,0.201174756314168,0.0880933651369951,-0.0382778548687768
98.75,-0.39493958642972,0.306616706772508,0.934912381222122,0.450373899687472,0.569588422775269,-0.0776134964542205,-1.09520496349925,0.0522676490928095,-0.0517288637159964,0.728541584596225,0.545351655873554,-0.526728387486114,-1.17438188148202,0.0679873737094926,-0.0889196310554734,-0.596856543620582,0.256128352413036,0.222580458411223,-0.932886123679537,0.103089409994218,0.022020430893488,0.243066727418488,0.0733706296157111,-0.0429718233644962
98.755,-0.412524070575569,0.303690223784092,0.919494737191881,0.448059368900028,0.578545266718636,-0.113984854153945,-1.08287571022512,0.0272659378501584,-0.0731551223811827,0.836609094730973,0.601725819692808,-0.499813448586013,-1.19646066085893,0.0626978680736696,-0.0843342072704351,-0.596285900243334,0.217005974804999,0.325718690493999,-0.945408027566558,0.0969254102315329,0.022109679718031,0.304482428747034,0.0501063600553095,-0.0437855776814394
98.76,-0.43881505721461,0.283197864796463,0.898113135248913,0.388870011877555,0.606953783996814,-0.168668306752944,-1.07839608587243,-0.000836562646633511,-0.0977004772121781,0.893206100123588,0.618654320471838,-0.478249222497464,-1.21374438053308,0.0563378494094002,-0.0887688179118906,-0.595425021632135,0.164559500572579,0.46976734857234,-0.949276464875248,0.0960503276410964,0.023729842106551,0.379094538357516,0.0284185181385978,-0.049269505074064
98.765,-0.456953958127617,0.271093426095613,0.888156811584351,0.39116870044896,0.617978066198782,-0.210551907925136,-1.06380288149618,-0.0298605426403036,-0.104932451777675,0.887829479107048,0.649611191455079,-0.445501957621377,-1.21656766947592,0.0502578645161571,-0.095746920932342,-0.583532637585301,0.119734328517419,0.573139675133463,-0.944972822870303,0.0799236689313264,0.0274772233189178,0.458591666386404,0.0142226036559349,-0.0644118136631829
98.77,-0.467256713088718,0.268006088740088,0.917600140435091,0.471251135754549,0.582592807784916,-0.248730744153931,-1.05989984820665,-0.042652838390584,-0.125983911160412,0.961710428880671,0.693565692112069,-0.437085149510712,-1.20772937646688,0.047085241941813,-0.109795639862309,-0.56794579899398,0.0693826568226789,0.759680509501304,-0.940017102515381,0.0586799360323903,0.0326434017189755,0.5269259217559,0.0123553963865124,-0.0843180917637073
98.775,-0.477987349565847,0.243783270047748,0.996612619980831,0.618285373818328,0.550317767132779,-0.288801361245291,-1.06631547204796,-0.0595363771711326,-0.144531524218058,1.0492447847662,0.736598889478872,-0.428202685650761,-1.19592866776621,0.0431721369244669,-0.121605564554201,-0.577977976973672,0.0406096927162617,0.907969019850005,-0.94426956960846,0.0303527821191651,0.0423875593855259,0.552805587011245,0.00675689504772585,-0.092756576003938
98.78,-0.506644154657461,0.173521045128999,0.946575223915118,0.907502733301543,0.553787415679464,-0.36328150903283,-1.08402350006981,-0.0695093570397482,-0.180083769526426,1.05865737784384,0.774971140534766,-0.408680182937613,-1.18441987144899,0.0384300030373335,-0.139744062606275,-0.606828548997289,0.0156780769131031,1.04875032961515,-0.951291620915641,-0.00197809741458305,0.0468644149872835,0.552125785216879,-0.000422127861191854,-0.0935316983210132
98.785,-0.470237738284275,0.164723717211818,0.913052193270852,0.968703707037812,0.541179376445355,-0.406894644710723,-1.10819781753625,-0.0465609627952207,-0.20183861157922,1.14337517158096,0.814606706281413,-0.375842065942495,-1.18094714521983,0.0482559459197325,-0.163340585837178,-0.638431468243618,0.00385278642544045,1.17834005999353,-0.958419140658565,-0.0348359450384029,0.0533704977775335,0.535967656931471,-0.0201726141472444,-0.0849358129614685
98.79,-0.470645310169692,0.117130756609384,0.983198941787827,0.980157583412786,0.416752847150699,-0.538829522727758,-1.12222268438796,-0.0159093027624874,-0.205914236955743,1.31465618169296,0.849876375453904,-0.343349458646637,-1.19093447749781,0.064797620682858,-0.196176647351871,-0.608689987078834,0.00581510090831128,1.26973328053087,-0.971835363387709,-0.0627381982133828,0.0587239015663231,0.503780910818156,-0.043821441871221,-0.0713177432833813
98.795,-0.494262197572131,0.0908233627214643,1.05637272387779,1.27128267718725,0.233366898235421,-0.772372043640152,-1.13071140554669,0.00488730441757303,-0.244796605470196,1.41705405513049,0.879801356074027,-0.300682150902968,-1.20514185841879,0.0572266564792642,-0.225483708111705,-0.48890683523411,0.00787608902504315,1.3108664642711,-0.991987006078501,-0.0839359713726094,0.0615188502744268,0.463994988085742,-0.0585370609698494,-0.0712057045251374
98.8,-0.54255282175201,0.166473235231208,1.0603705314277,1.76709726151517,0.0617153367218142,-0.945931109287204,-1.13070656965805,0.0357362237762567,-0.258659097292707,1.45015954820044,0.897582059916685,-0.242724841490584,-1.20454123434961,0.013668225007495,-0.247808396824666,-0.265732876756061,0.00560524993657536,1.31270323188529,-1.01572804389208,-0.10309745106965,0.0680129577815957,0.41836525308991,-0.0635089815930921,-0.0861673622304269
98.805,-0.50622800130542,0.310322219420698,1.03686205733183,2.18261967573148,-0.085068107526932,-1.0291577769059,-1.11693592968839,0.0748069080547198,-0.194903981213331,1.50318705424608,0.881876870834497,-0.185592979560816,-1.17505561043616,-0.0489488485104374,-0.278950603624998,0.0435267796622983,0.000967808230736119,1.30655990707585,-1.0434753265659,-0.120882158606388,0.0732260234205421,0.358026646352742,-0.0602816168948899,-0.0965289337279799
98.81,-0.261063699347765,0.435491809365683,1.00191275940985,2.36521237911507,-0.195524931823381,-1.1645412891599,-1.11081571364397,0.0833083865407201,-0.18402010142729,1.53085063461589,0.836245861106233,-0.125913242366919,-1.12409918895934,-0.0977602607037563,-0.307040668794426,0.323140462077017,-0.00546616289085532,1.3117339491383,-1.07224282904773,-0.131267766831517,0.0717651651685254,0.296070428989924,-0.0503105722121416,-0.110440857523674
98.815,-0.26793692486987,0.34720341083456,0.934458124695606,2.31661641696128,-0.302330124136223,-1.32207601467753,-1.09961121180247,0.0614557469840101,-0.223064772764202,1.53086882708817,0.801650168928523,-0.0517824894715107,-1.0819275870729,-0.0675801574984449,-0.331314456773938,0.549113727382031,0.000994941306188144,1.34563752141806,-1.10031720533364,-0.147575981252295,0.0765010859032271,0.235416431626692,-0.0254877856384978,-0.144557835462478
98.82,-0.300669103970728,0.282913477378084,1.0824408465221,2.0763071242917,-0.393847775248881,-1.4158240561663,-1.05892490260099,0.019040147593307,-0.238894673649788,1.55090024962643,0.756195930291317,0.00195437338906752,-1.03609646485241,0.000750150941110877,-0.359636610388797,0.741948168370398,0.00483940706563983,1.52427681879749,-1.12377530538784,-0.151339303378479,0.0723055333290017,0.192762611976753,-0.00769667362659827,-0.164042272971876
98.825,-0.311031701801707,0.403672689258126,1.07831292449511,1.88465633331384,-0.605882282606769,-1.42068637458385,-1.0134569867236,-0.0475719907372657,-0.265490802473544,1.55722896255284,0.691844375446133,0.0362708866596222,-0.972234018188841,-0.0121049537619819,-0.363951043151749,0.935797473345919,-0.000795748187747207,1.80265340789757,-1.1469793505597,-0.14976336266649,0.0623138286607129,0.159986436362415,0.0228190706167004,-0.166302697450243
98.83,-0.241062822824271,0.322964561179381,0.996528264219142,1.85509215791887,-0.750292010992933,-1.49687102308369,-0.982186599646926,-0.0857646444457902,-0.255046980813256,1.6004938605664,0.623531372735446,0.0362708866596222,-0.909037223578486,-0.113742568313812,-0.344274298499952,0.892349069652529,-0.0211046604265576,1.90984857218306,-1.15146187323468,-0.145502409245374,0.0558276895248512,0.160218502957128,0.0269508483665556,-0.186271485859423
98.835,-0.260796318468742,0.317745818127484,0.95518887239955,1.61352966088054,-0.839710880161434,-1.55207044964993,-0.944017325267827,-0.0715562042939103,-0.241208602589129,1.63495872619607,0.533128394850752,0.0319909981432467,-0.848870168101709,-0.23820301915384,-0.329204697316088,0.693398669344445,-0.0238998289243619,1.86595089058928,-1.15349749976179,-0.130061416682483,0.0455906778862966,0.179742239142756,0.0293408009780537,-0.187331995676439
98.84,-0.293426917586706,0.513088322035841,0.872230127572708,1.32589705778089,-0.930658821346523,-1.58470480239247,-0.929665772974019,-0.0281154441569984,-0.292637773596615,1.58903275533879,0.485207646818568,0.073943700441708,-0.79155276448585,-0.386340218448971,-0.307579036696182,0.226463841870762,-0.017301142651797,1.64430402134358,-1.15526011233586,-0.116957966016758,0.0369321015886834,0.221701622357414,0.0288106191658058,-0.189923630815886
98.845,-0.267564050358118,0.528167149690174,0.886548818884253,1.13250477325334,-1.00080853823153,-1.63772935711097,-0.901389121411961,0.00193037582325424,-0.287149500044723,1.56534991448874,0.401174728505217,0.104889428447098,-0.745359663401032,-0.512159758046898,-0.273978406572966,-0.363606193785564,0.000292568010245727,1.31379346540367,-1.13079053580049,-0.0935587708686523,0.0388222131980111,0.301196760706652,0.00884990777319399,-0.193362475885408
98.85,-0.265316977146327,0.453277210208959,0.852666213429171,0.939041540740266,-1.07605703275512,-1.65688136133813,-0.884254838080083,0.014548715857749,-0.288047469198232,1.5072658641978,0.33491527343554,0.131442324398236,-0.721396538032135,-0.590933527945536,-0.235548030771537,-0.865119306009919,0.0177844688367009,0.996234491205969,-1.1093914785142,-0.0748652700396513,0.0517644856410059,0.37932280278715,-0.00354500410748573,-0.186530807658175
98.855,-0.268663637182355,0.429901822136527,0.803859235051048,0.778790899735972,-1.12431853461767,-1.68729695388681,-0.862256809530936,0.0216549949648508,-0.295055337357544,1.39847330492328,0.279534396211775,0.164969279402735,-0.707282436526731,-0.629620473190843,-0.192376466095666,-1.25907885932707,0.0294985224604272,0.724194491059308,-1.09010761987871,-0.0595941591596969,0.0716825651974276,0.450956385771754,-0.0202239087987789,-0.168435799587635
98.86,-0.244518740147506,0.536658895326586,0.767584889800238,0.587127987552882,-1.1679683913669,-1.65387197732057,-0.842429287284462,0.0260966716865229,-0.288255613591084,1.30456528405121,0.206484496663088,0.176415083840434,-0.696019618682855,-0.636249647775305,-0.127449389213288,-1.59554557878046,0.0193938891540694,0.453091738570086,-1.0702074032145,-0.0450642791521393,0.0889929794114657,0.501774458310456,-0.0483079140311082,-0.146042720063519
98.865,-0.187391437415701,0.573154429428524,0.719210183075772,0.35873119491642,-1.21254780224783,-1.61215627697301,-0.822518565192837,0.0289609096102341,-0.274138523117635,1.17517213779532,0.12337551264392,0.185120831571338,-0.689781970584718,-0.630662226122814,-0.0546802838481909,-1.8495253887592,-0.00814743432143006,0.224310655482343,-1.05240452197902,-0.0359032595752172,0.105039697954572,0.528326077028373,-0.0797532638916382,-0.117522321653887
98.87,-0.112991482414842,0.524359146561573,0.652625469931492,0.0881500829205967,-1.23792663116356,-1.58648800487269,-0.803697436385314,0.0325992781936749,-0.267327257718241,0.987654449157112,0.0286037054666697,0.208133494848501,-0.682763553470716,-0.626434968224845,0.0198717620279938,-2.02931200966557,-0.0425124130035883,0.061735032702404,-1.03634324711749,-0.027039163633062,0.122563716646173,0.529351184801599,-0.105155970236679,-0.0848116846912078
98.875,0.00103185358330922,0.520998168351549,0.602044718987787,-0.224630659710042,-1.22553059048085,-1.50473362958416,-0.795894707748608,0.0366622102249351,-0.241255639936401,0.807636944588667,-0.0812496897064566,0.229994830230008,-0.676587818213419,-0.62861223949297,0.096535672029344,-2.15249324096544,-0.071450245090308,-0.116486774992256,-1.01320660900568,-0.0134205586363789,0.134463047282904,0.497014228872551,-0.122377730074317,-0.0571908295270084
98.88,0.130679511938768,0.587796321591898,0.594306308496648,-0.500600183691362,-1.16826696626258,-1.34363502776113,-0.80003398834683,0.03610455044303,-0.16461202695444,0.642140515357032,-0.193939013785627,0.24305274298113,-0.691167046391775,-0.638975599051208,0.149494705182835,-2.17040854202079,-0.0744525707802107,-0.333357250462824,-0.979325785510535,-0.00492727612211638,0.136309307118594,0.444166870178968,-0.134881281249566,-0.0359446175349056
98.885,0.137205219347813,0.67300837940454,0.600272920739044,-0.715638546850199,-1.08007067709532,-1.18215028902278,-0.815078700926941,0.026591020828402,-0.105527038025979,0.413035591156242,-0.313784122842289,0.256527797524322,-0.722811808829648,-0.626705729749913,0.186316900341739,-2.11430493038141,-0.0693170425720921,-0.413109538523956,-0.970753555107805,0.000379917673775314,0.136572662508812,0.381626088284629,-0.126872030677753,-0.0175079949333967
98.89,0.118827901646689,0.566497555956727,0.608593098138315,-1.01829118820606,-0.987699347558825,-1.0975446092818,-0.837112262552344,0.0169183702637714,-0.107427197968582,0.201847971894614,-0.410882322345107,0.264990542569508,-0.746635853882495,-0.604981054138723,0.203522682237523,-2.00567739132379,-0.0857782930108766,-0.44387158438211,-0.9476847792774,0.00326480029019291,0.12423897558727,0.320360187033528,-0.110753633081913,-0.00998588036040205
98.895,0.103842055401172,0.503099590692014,0.618039239377877,-1.21459396988553,-0.929899045341196,-1.02883861175068,-0.847675186299803,0.00958106848266289,-0.117264172136487,-0.0451673470023655,-0.529314360645682,0.269502263899022,-0.756674646985934,-0.580436495949091,0.211257636440102,-1.88640328468138,-0.100135390838356,-0.471481368208974,-0.92303882520053,0.00781731665278445,0.119334365303241,0.22627860770786,-0.110753633081913,-0.0088523679394855
98.9,0.0891898784033776,0.457651190890202,0.59960641299931,-1.37753094556812,-0.818078954989546,-0.963516106141112,-0.860696343983385,0.0213642983220301,-0.136044185568786,-0.256442109046744,-0.627021682428499,0.278533121231473,-0.768743441490915,-0.544530431547022,0.218265893060647,-1.70227927176889,-0.0966658744289743,-0.521482860508642,-0.894854265129145,0.00548550363907747,0.109190654318032,0.156331347982702,-0.0805116221970307,-0.0109245214201332
