Header,foot_Accel_X,foot_Accel_Y,foot_Accel_Z,foot_Gyro_X,foot_Gyro_Y,foot_Gyro_Z,shank_Accel_X,shank_Accel_Y,shank_Accel_Z,shank_Gyro_X,shank_Gyro_Y,shank_Gyro_Z,thigh_Accel_X,thigh_Accel_Y,thigh_Accel_Z,thigh_Gyro_X,thigh_Gyro_Y,thigh_Gyro_Z,trunk_Accel_X,trunk_Accel_Y,trunk_Accel_Z,trunk_Gyro_X,trunk_Gyro_Y,trunk_Gyro_Z
0,-0.494585039119217,0.0474287334735762,0.86693278670663,0.0163572576423382,0.0125608522671906,0.00344641616309326,-0.990062318375168,0.068662064062191,-0.120360891219553,0.0175706490486153,-0.00973340308843169,0.00511939225747271,-0.964550960723508,-0.154030731608651,0.211208948405056,0.0225935264337688,0.00662699771231497,0.0281615627483394,-0.997913183286187,-0.0136394879196787,-0.0682761980038014,0.0155500066778858,-0.0267719208874352,0.0270653957655739
0.005,-0.494100868998516,0.0474467665123682,0.867048443243288,0.0166368652965516,0.012551415119124,0.00363256829109408,-0.990132059575479,0.0682350761562633,-0.120588444049226,0.0177816228534222,-0.0101487731466532,0.00516647607107201,-0.963971260844128,-0.156310329369135,0.21144307663867,0.0230015713889243,0.0067123043964589,0.0291870319715376,-0.997924713471904,-0.0143223435681147,-0.0712812864457122,0.0163225984133707,-0.0264143446533224,0.0278264507024336
0.01,-0.493235925705873,0.0471857339883246,0.86802722203989,0.0171987989653896,0.0124620574136715,0.00405722357543333,-0.99072325569787,0.067352423772629,-0.120389855779809,0.0182204603796838,-0.0109986906186648,0.0052129081987241,-0.96374225101213,-0.158383020101694,0.21192582338592,0.0238444882515077,0.00683832871247036,0.0312721823414723,-0.998093208386557,-0.0152790503678959,-0.0727864755998826,0.017983065293797,-0.0254902117332714,0.0294170494430228
0.015,-0.492655471650196,0.0467551640115654,0.869721163328389,0.0177567153439111,0.0122183513605687,0.00457389002670229,-0.99178493343237,0.0665332126067849,-0.119554760744338,0.0186584234527073,-0.0119005372808187,0.00518303691158753,-0.964492793557488,-0.157969872667579,0.21258775738133,0.0247051273611897,0.00688995523969589,0.0334202621884493,-0.998355184416941,-0.0154951223161386,-0.0698309131108822,0.019863298280635,-0.0241272400361893,0.0310759047583421
0.02,-0.492353098503379,0.0464185104007475,0.871380446256246,0.0182791465687097,0.0118176893600299,0.00513539774598094,-0.992876470301119,0.0658927148324099,-0.118828002880771,0.0190164360212062,-0.0128732126121828,0.00512436324581944,-0.965299962289464,-0.157830844078532,0.213635488445259,0.0255030986861622,0.00691146434303081,0.0356114241182267,-0.998483781786499,-0.0152370877616603,-0.0672826291494224,0.0219169191802847,-0.0223019044789399,0.0326449392552929
0.025,-0.492346259681663,0.0461682916255852,0.872930711951127,0.0187156183601206,0.0112929825713868,0.00566195208444982,-0.993979854526337,0.0654541728000124,-0.118212505714732,0.0192018925512138,-0.0139250423546934,0.0050939600701072,-0.966168682022617,-0.157888953350142,0.215068792135383,0.0261414504494623,0.00695594572012653,0.037816694898613,-0.998485971151467,-0.0144533223199572,-0.065254341708729,0.024075697277169,-0.0200144314529099,0.0339196060406627
0.03,-0.492580080623131,0.0459944322376868,0.874272515752859,0.0190281939479721,0.0106875557744355,0.00607480476336515,-0.995036080334098,0.0651879539761319,-0.11774172635894,0.0191447669583842,-0.0150587878048796,0.00514687148445876,-0.967058580524313,-0.158035778354081,0.216755731303488,0.0265430744897946,0.00707484656939795,0.0399924978242305,-0.99843472697701,-0.0132759295892478,-0.063934340260002,0.0262624627914893,-0.0173154699715051,0.034702297892168
0.035,-0.492947856368791,0.0458760337765676,0.875277056797463,0.01923036811476,0.0100550564730484,0.00632529590299387,-0.995966068533432,0.0650295719975775,-0.117459700964674,0.0188562106311671,-0.0162713409559062,0.00532124470201284,-0.967904592185494,-0.158129023574421,0.218478230159614,0.026710530585674,0.00730530771637544,0.0420874462670614,-0.998443364510416,-0.0119419606125519,-0.0635591128081532,0.0284202933652042,-0.0143498229669958,0.0348774147325369
0.04,-0.493364552797985,0.0458025848722594,0.875874220976024,0.0193890703013488,0.00946226373576324,0.00639636073506974,-0.996719500214891,0.0649223061006468,-0.117384676869472,0.01843421432291,-0.0175530874864394,0.00563582446846214,-0.968663064915895,-0.158054806577165,0.220075282466979,0.0267322310267219,0.00766790158429178,0.0440464787029935,-0.998581920805837,-0.0106080751631105,-0.0642272560790955,0.0305227383555938,-0.011356329908982,0.0344156049522051
0.045,-0.493791001569519,0.0457971178922926,0.876089524405872,0.0195890642565486,0.00896884844008869,0.00630224077470449,-0.997288078509189,0.0648310718568962,-0.117490401972703,0.017999838391647,-0.0188884429228527,0.00609721355480215,-0.969319791114595,-0.157758674249066,0.221492242729717,0.0267189426468994,0.00817170776743206,0.0458131140004086,-0.99884051013814,-0.00931868118314756,-0.0657899776026199,0.0325663780295397,-0.00859964405222361,0.0333190747956053
0.05,-0.49419776479477,0.0458928145217518,0.875978475997251,0.0199023002547392,0.00861528775699043,0.00610016853279765,-0.997679467712609,0.064729632715399,-0.117719351597217,0.0176424334049885,-0.0202524310312015,0.00670220681571368,-0.969867645180054,-0.157209631153761,0.22271449664675,0.0267502731976979,0.00881510822772696,0.04734231193417,-0.999168587355394,-0.00808509196831201,-0.0679675858116635,0.0345743396049077,-0.0063055772650961,0.0315968806919992
0.055,-0.494549332744505,0.0460871280930832,0.875578825694505,0.0203805255035077,0.00843255767676977,0.00587998552835,-0.997895613740786,0.0645987187446858,-0.118014867277047,0.0174168450987191,-0.0216107416081797,0.00743731186600377,-0.970295387150613,-0.156380870211311,0.223710748655118,0.0268725423821249,0.00958537557147304,0.0486052706505636,-0.999513618135006,-0.00691976391036166,-0.0704745914428605,0.0365920755535433,-0.0046516696709689,0.0292678066883692
0.06,-0.494817907570162,0.0463387989936889,0.874923221888772,0.0210617725543596,0.00844597873364767,0.00572757874279642,-0.997930598539332,0.0644302231147075,-0.118343522294618,0.0173687775349167,-0.0229266951310498,0.00828080246760311,-0.970586797311635,-0.155269314244272,0.224421697935121,0.0271244444599833,0.0104615312838165,0.0495850365044008,-0.999826742964218,-0.00585934705483258,-0.073001704778155,0.0386653675778036,-0.003765880288288,0.0263697898177311
0.065,-0.494982005860553,0.0466082717477013,0.874042608439612,0.021979807533224,0.00866595613601078,0.0057081776010149,-0.997781170770587,0.064218711634425,-0.118693753641019,0.0175529560669398,-0.0241665574558311,0.0092038215668782,-0.970727511731925,-0.153903743929174,0.224784394150406,0.0275563338432012,0.0114161939637292,0.0502796423189589,-1.00006853930206,-0.00495358610641858,-0.0752471308319644,0.0408292011216502,-0.0037043274876549,0.0229787159163384
0.07,-0.495013155106856,0.0468804850931366,0.872946837771251,0.0231676628771326,0.00909486337345073,0.00588031295513773,-0.997456234363401,0.0639520895097677,-0.11906807774516,0.0180312451512269,-0.0253028067721747,0.0101713365042549,-0.970717251165429,-0.152337730243864,0.224772300558407,0.0282279952296071,0.0124163179794249,0.0506962346886938,-1.00022178747952,-0.00419536518569539,-0.0770501369170348,0.0431144704855107,-0.00446684997304006,0.0191997323206434
0.075,-0.494886069307708,0.0471535534515772,0.871642197501888,0.0246577685218324,0.00974413991821202,0.00630575946526591,-0.996976893817242,0.0636194880969112,-0.119479565480762,0.0188661025936527,-0.0263212681720582,0.0111461715653502,-0.97057025082316,-0.150655472729077,0.224405636886792,0.0292000824319291,0.0134264254430627,0.0508292815852638,-1.00028207536809,-0.00351873518099027,-0.0783678444994085,0.0455591886870152,-0.0060500320459899,0.0151286775886388
0.08,-0.494606267671183,0.0474285783262129,0.870173025666712,0.0264818960148167,0.0106291330075227,0.00704157062875037,-0.996376873115601,0.0632305261927203,-0.119933553235151,0.0201170274907787,-0.0272263481369625,0.0120940550082805,-0.970308241491254,-0.148964977162589,0.223731711019184,0.030530673721251,0.0144134673467103,0.0506567848927604,-1.0002313932668,-0.00288419180373259,-0.0790887644475154,0.0482168379439724,-0.00844814674440078,0.0108366543382949
0.085,-0.494219090965374,0.047711478776577,0.868623258562923,0.0286605437015581,0.0117548984831283,0.00812730423134821,-0.995702146615185,0.0628245629192247,-0.120402620392949,0.0218263450793678,-0.0280329955385183,0.0129863233644209,-0.969958902580053,-0.147357494872926,0.222807788403011,0.0322638115295708,0.0153498612418896,0.0501697306056929,-1.00003621857595,-0.00231879310670495,-0.078990973242374,0.0511491897691102,-0.0115894048682129,0.00639042510876209
0.09,-0.493788697417563,0.0480139140539925,0.867084016973019,0.0311844196703738,0.0131135747798651,0.00957758657925498,-0.994999652547383,0.0624569497699636,-0.12083705563373,0.0239969404044416,-0.0287521382298571,0.0138001440843147,-0.969554576494996,-0.145888891148256,0.221695474746959,0.0344085746211699,0.0162136281954759,0.0493974265364934,-0.99967789010875,-0.00186886039879927,-0.0779175782469476,0.0543969672377691,-0.0152992896981993,0.00187155312618136
0.095,-0.493370321944145,0.0483477397557908,0.865631971423978,0.0340104723540505,0.0146861033988788,0.0113839419049026,-0.994305239185649,0.062175687543588,-0.121201720296992,0.026586194987588,-0.029389064568713,0.0145185221547401,-0.969126981704492,-0.144608350104586,0.220460180161427,0.0369311018219878,0.0169878547472227,0.0483949637980443,-0.999175534094862,-0.00154979028642455,-0.0759164808000114,0.0579572142856368,-0.0193427260910607,-0.00263113789167616
0.1,-0.49300557711097,0.0487167576544993,0.864331791392615,0.0370743839577342,0.0164409347272172,0.0135187037988511,-0.993640447096488,0.0620170685505012,-0.12148268989511,0.0295196496676018,-0.0299540219311224,0.0151312251488563,-0.968702108688268,-0.143567958822325,0.219167268850023,0.0397657472494881,0.0176613096283865,0.0472135592299893,-0.998576554598912,-0.00135336917931254,-0.0731989762256149,0.0617870379264295,-0.0234904052938601,-0.00704047722197551
0.105,-0.492735798507095,0.0491151796735797,0.863243223255701,0.0402968636154913,0.0183302392458791,0.0159307958983578,-0.993014873671589,0.06201940049256,-0.121663061679406,0.0327002535275944,-0.0304653847765022,0.015635491994321,-0.968299101217156,-0.142795148725619,0.21787460532395,0.0428232173832349,0.0182291668881044,0.045889155388748,-0.997933958936893,-0.00127694182995628,-0.0700290137734083,0.0658060076747693,-0.0275492907460681,-0.0112965511855216
0.11,-0.492605237603902,0.0495314207269168,0.862418836776014,0.0435795462997638,0.0202894205951862,0.018538648082498,-0.992434868778985,0.0622246856608618,-0.121718568102288,0.0360067055583377,-0.030943077465377,0.0160359109290047,-0.967934085951535,-0.142296099637601,0.216631714359743,0.0459888483231241,0.01869298963042,0.044448976313805,-0.997291520373306,-0.00132679162978879,-0.0666372233324838,0.0698903281270287,-0.0313617331400834,-0.0153515689540479
0.115,-0.492650888905564,0.0499506474271846,0.861900004063807,0.0468063686595899,0.022242309707766,0.021229946698605,-0.991913555155209,0.0626652251661769,-0.12163388791259,0.0392973445162276,-0.0314069456999703,0.0163439630270426,-0.96762441710143,-0.142089862787692,0.215483147519979,0.0491271287446078,0.0190605859300657,0.0429179100067107,-0.996677589162478,-0.00150568882747112,-0.0631634834380217,0.0738885619148232,-0.0347921794796894,-0.0191681766674218
0.12,-0.492896737167682,0.0503573679544225,0.861715224483007,0.0498507144605006,0.0241080880626161,0.0238689632859139,-0.991469024603412,0.0633596134074616,-0.121404246927289,0.0424194169470073,-0.0318804583652926,0.0165766656056744,-0.967386952331806,-0.142209510390759,0.214461423201488,0.052091794376399,0.0193450407500558,0.0413204467609551,-0.996107144175195,-0.00181021342676392,-0.0596597950892411,0.0776543200568812,-0.0377117980169656,-0.0227210871446482
0.125,-0.493355272646907,0.0507388856978312,0.861877752323678,0.0525781755947668,0.0258057238559793,0.0263046934471602,-0.991113246559234,0.0643166701697652,-0.121028213983713,0.0452133060923993,-0.0323903403176491,0.0167536574084764,-0.96723132084954,-0.142675189362006,0.213571696368867,0.0547303827871298,0.0195620007015247,0.0396829098903376,-0.995590752440438,-0.00223777603133453,-0.056149432585116,0.081066804426594,-0.0399933756945977,-0.02599414236261
0.13,-0.494017775220834,0.0510995568017077,0.86237468543005,0.0548499744117084,0.0272545410808205,0.0283823247882861,-0.990846196164142,0.0655234768347816,-0.120513974654271,0.0475170733203092,-0.0329623409311505,0.0168930202634775,-0.967154625831745,-0.143475683936208,0.212786790708663,0.0568885905187017,0.0197256756644268,0.0380358347154514,-0.995143285738407,-0.00279167545873108,-0.0526826694905464,0.08403944292992,-0.0415203553365082,-0.0289720324022798
0.135,-0.494834693560162,0.0514783224034338,0.863146320664448,0.0565422828343521,0.0283792818993781,0.0299773282057933,-0.990660746847159,0.066926676453084,-0.119888537185131,0.0491838577472807,-0.0336171459204146,0.0170067708936587,-0.967143626455495,-0.144559876304895,0.212061177660522,0.0584271696894756,0.0198448406242975,0.0364139626113198,-0.994786243301032,-0.00347398600085011,-0.0493614239949366,0.0865340904431994,-0.0422078534345138,-0.0316334334389552
0.14,-0.495726905788833,0.0519236022206654,0.864090399373287,0.0575751054077694,0.0291281782405896,0.03103479919069,-0.990551493263147,0.0684471546345705,-0.119185938052143,0.0501098456417758,-0.0343678154833347,0.0170990219911297,-0.967184586752175,-0.145841944866058,0.211351308243709,0.0592494374076034,0.0199218165701715,0.0348556290899449,-0.994541167576678,-0.00427043357493322,-0.0463205711840596,0.0885763716638005,-0.0420244837277147,-0.0339524951924192
0.145,-0.496629010300557,0.0524421506244614,0.865106708106741,0.0579142264047409,0.0294882989328225,0.0315580057864151,-0.990515137867795,0.0700190192816341,-0.118424284003286,0.0502436558845779,-0.035218446746667,0.0171680271072397,-0.967268431998825,-0.147224894125836,0.210625181793748,0.0593106630140518,0.0199548167015653,0.0334047933257372,-0.994420766543877,-0.00515217509216859,-0.0436815607136861,0.0902450438584021,-0.0409911475208292,-0.0359043513135969
0.15,-0.497500246262199,0.0530040512783276,0.86612384572316,0.0575455665686859,0.0294786710997363,0.0315637012794645,-0.990540067187935,0.0715922838704745,-0.117612446600374,0.0495676851560795,-0.0361637088815217,0.0172084789957228,-0.967382323870056,-0.148618267770242,0.209861503207859,0.0585994004844813,0.0199396297010853,0.0321116524944223,-0.994430027059138,-0.00609570514664049,-0.0415523203919142,0.0916418075810039,-0.03916337734595,-0.0374662541905327
0.155,-0.498296477005034,0.0535899452858072,0.867080390754348,0.0564748549815914,0.0291330785058972,0.0310774328510318,-0.990598833584586,0.0731035652082973,-0.116778318452966,0.0480948715259591,-0.0371912895645036,0.0172126267083061,-0.967500704215492,-0.149934349635352,0.209048307225101,0.0571334102604314,0.0198703734658291,0.0310239402684752,-0.994573825378002,-0.00709241930047009,-0.040070789720403,0.0928806986836588,-0.036635904314035,-0.0386187514368438
0.16,-0.498969520309257,0.0542000785628032,0.867918019584297,0.0547526285349333,0.0284908463654875,0.0301591796970595,-0.990657154716808,0.0744811776727037,-0.115963026401208,0.045887914914171,-0.038285473859126,0.0171717166731639,-0.967592260999966,-0.15109294295036,0.208186614852821,0.0549777277091949,0.0197412069328432,0.030175096490518,-0.994854429974662,-0.00814207400182407,-0.0393795174496353,0.0940895389587013,-0.0335622040826997,-0.0393494103776568
0.165,-0.499499114842717,0.0548304131377819,0.86860950495624,0.0524673755976637,0.0275935911880667,0.0289015229507422,-0.990692853708715,0.0756814050982614,-0.115190263755442,0.0430480206782196,-0.0394281835912083,0.0170773645148778,-0.967636246648258,-0.152055278027775,0.207298431034884,0.0522334596521533,0.019547333581057,0.0295836528122736,-0.995260487443869,-0.00924500185444632,-0.0395276094073501,0.0953968715616514,-0.0301399711954447,-0.0396539935716986
0.17,-0.499903290372919,0.0554634417499707,0.86917296159462,0.0497087915351728,0.0264792618179929,0.02740305149801,-0.990702462901806,0.0766978098155981,-0.114460876465632,0.0396727549346088,-0.0406007855119442,0.0169226703403043,-0.967628155473886,-0.152838562606156,0.206426319862123,0.0489968475200495,0.0192850106024334,0.0292598479020374,-0.995767159588483,-0.0104011200228097,-0.0404436226326591,0.0969199741900395,-0.0265653896292701,-0.0395372263648083
0.175,-0.500216951430228,0.0560754505441149,0.869648339520548,0.0465454572812579,0.0251747232606206,0.0257508478426398,-0.990691340908547,0.077540725458804,-0.113762712704685,0.0358301527056712,-0.0417864535724316,0.0167029644984991,-0.967572231530329,-0.153473787008637,0.205618288569827,0.0453341374166103,0.0189516045358603,0.0292085059514901,-0.996350339062918,-0.01161437908552,-0.0420213044244563,0.0987640032622605,-0.0230058911035238,-0.0390139748955345
0.18,-0.500470060075129,0.0566427136541434,0.870069182078783,0.0430218705059001,0.0236965618156507,0.0240178402143419,-0.990666314065886,0.0782202396963065,-0.113074476854383,0.0315567296711403,-0.0429672706147158,0.0164153681406802,-0.967475566437569,-0.153964181620917,0.204915696138403,0.0412795008875058,0.0185451571307415,0.0294313841635352,-0.99699592666001,-0.0128918572169214,-0.0441910860254179,0.10101789561435,-0.0196050489574625,-0.0381068243428912
0.185,-0.500681688087195,0.0571411424316135,0.870459814075394,0.0391630308895718,0.0220584247263159,0.0222642285923423,-0.990639007391494,0.0787386762586586,-0.112377388691686,0.0268655643926394,-0.0441208731273966,0.0160584349594682,-0.967349342098235,-0.154298849220589,0.2043568143979,0.0368430532176564,0.018064361218442,0.0299303758769008,-0.997694520369248,-0.014232313306916,-0.0468993796607399,0.103749806579237,-0.0164923809098446,-0.0368438765216462
0.19,-0.500863027556014,0.0575445231453641,0.870841097656679,0.03498552781292,0.0202740922703515,0.0205383187890003,-0.990628299493093,0.079087463694654,-0.111668040451914,0.0217608655199696,-0.0452237658757823,0.0156331957215391,-0.96720950228795,-0.154476760261698,0.203983456803945,0.0320257272510036,0.0175100655944778,0.0307066354652903,-0.998433331985837,-0.0156191937796194,-0.050070587367006,0.10701223440819,-0.0137811550671858,-0.0352618375856927
0.195,-0.501018777133557,0.0578268831896362,0.871222435781389,0.0305091058216816,0.0183591839940567,0.0188780352114287,-0.990655108196761,0.0792491997289784,-0.110956586918832,0.0162522784116882,-0.0462548613264959,0.0151444622189768,-0.967072757761822,-0.154498658960949,0.203838575166443,0.0268338327948065,0.0168870165114305,0.0317591148461547,-0.999194989210924,-0.0170275462441783,-0.053614492773728,0.110847276938256,-0.0115633247824627,-0.0334094508948277
0.2,-0.501149612933496,0.0579595737798055,0.871600979501899,0.0257650386245766,0.0163366819124072,0.0173136451378576,-0.990735091432,0.0792009606751157,-0.110266776275478,0.0103658321547291,-0.0471951814675222,0.0146015300441437,-0.966951445531664,-0.154361617450965,0.203958632018469,0.0212900413318646,0.0162049376916711,0.0330854861072652,-0.999957513678887,-0.0184328129479943,-0.0574320159540691,0.115285084625076,-0.00990898930352577,-0.0313469428822697
0.205,-0.501261241364326,0.0578973495784926,0.871977336312091,0.0208066806806825,0.0142333762311798,0.0158648676804243,-0.990870469097004,0.0789169811650617,-0.109644263142501,0.00415863768527656,-0.0480300009683995,0.0140189447920658,-0.966848507104621,-0.154061635506843,0.204362451113434,0.0154480220911806,0.0154797168881679,0.0346797605663071,-1.00069429107464,-0.0198170176121987,-0.0614097314799728,0.120339430082509,-0.0088639836652913,-0.0291430304448031
0.21,-0.501359252122334,0.0575851736188984,0.87234292855942,0.015722340986635,0.0120641766711506,0.0145293546511443,-0.991047524726627,0.0783694531166913,-0.109151291610714,-0.00226108225721872,-0.0487512741389266,0.0134170658850129,-0.966756609592074,-0.153576875788022,0.205043832475412,0.00941200020977056,0.0147344713516974,0.0365266051396627,-1.00137935517189,-0.0211678617011765,-0.0654489086273205,0.125992577002301,-0.00845014220257321,-0.0268674324169749
0.215,-0.501419544076853,0.0570047667896686,0.872637037886064,0.0106448298754248,0.00983747064364265,0.0132866241708294,-0.991253407516964,0.077524779847053,-0.108849514941032,-0.00872014612083619,-0.049355122404309,0.012821272477279,-0.966668175008927,-0.152872691720204,0.205985783619429,0.0033501717716653,0.0139991858056323,0.0386009169193638,-1.00198843712089,-0.0224587035296276,-0.0694744106099629,0.13218019685598,-0.0086746583213709,-0.0245840447815868
0.22,-0.501382015188202,0.0562020767098832,0.872750799877415,0.00575576691967055,0.00759101021084884,0.0121318701006634,-0.991491633864694,0.076348379076634,-0.108795193990952,-0.0149823649669619,-0.049841717702149,0.0122606679471889,-0.966583596718696,-0.151949034557203,0.207178408135153,-0.00250640689961117,0.0133095578143776,0.0408738936024706,-1.00248860861574,-0.0236381471600282,-0.0733708658898177,0.138810297585541,-0.00953030614698893,-0.022356141994714
0.225,-0.50118798109925,0.055252229879853,0.872585674098141,0.00128326993816045,0.00540764065157862,0.0110999660664053,-0.99176921668289,0.0748238315565524,-0.109040579644959,-0.0207607920344162,-0.0502210598819861,0.0117677368200949,-0.966503286334162,-0.150854701938675,0.208606382473741,-0.00787453891323872,0.0127064711247692,0.0433178802903504,-1.00283411494537,-0.0246553910241889,-0.0769485564213924,0.145801049185646,-0.0109769373034418,-0.0202530726685521
0.23,-0.500813286952143,0.05421458626783,0.872093673079614,-0.00251056486330661,0.00339400619889675,0.0102539276037966,-0.992076612238682,0.0729718699854464,-0.109612792923327,-0.0257331142334477,-0.0505146478012308,0.0113772083849118,-0.966417467175944,-0.149642989809286,0.210222790023943,-0.0124336785731211,0.0122344581371741,0.0459085400790481,-1.00297916303891,-0.025485409714318,-0.0800062304733977,0.15309121957731,-0.0129283226068948,-0.018342921385147
0.235,-0.500291691029233,0.0531171833855424,0.871308661599068,-0.00536411020426122,0.00165383150613107,0.00965897449447599,-0.992381075112542,0.0708785028540441,-0.110469323701354,-0.0295773748673572,-0.0507471946115377,0.0111214281501361,-0.966305157713417,-0.148347857278412,0.211940014177635,-0.0158620098097039,0.0119360130011298,0.048629656039463,-1.00289126137699,-0.0261388613222684,-0.082392199590701,0.160624935662867,-0.0152590038784422,-0.0166778209597635
0.24,-0.499737296579903,0.0519545888496689,0.870382831566346,-0.00709145815107003,0.000248485327198956,0.00934205671109682,-0.99262797176067,0.0687254527253119,-0.111474421498881,-0.032057803086681,-0.0509342412904044,0.0110230468382263,-0.96613767603538,-0.147022844089354,0.213640604163943,-0.0179227541992794,0.0118416370820649,0.0514801374574414,-1.00255377695903,-0.0266657133862731,-0.0839984092486085,0.168340737750049,-0.0178146156374862,-0.015280359971924
0.245,-0.499314080388294,0.0507019747513351,0.869548763528381,-0.00766937142968176,-0.000849900005231043,0.00924135365637651,-0.992756816875194,0.0667647910157399,-0.112437176058444,-0.0331268075648216,-0.0510784008888328,0.0110896910794184,-0.965890313755393,-0.145785843567009,0.215206179981056,-0.0185665789999704,0.0119611260166425,0.054472343655457,-1.00196605661196,-0.027120791338328,-0.0847464966124842,0.176170477590314,-0.02041643625959,-0.014138009214338
0.25,-0.499157232875988,0.0493489540841622,0.86901147195912,-0.00726864707214512,-0.00176207411761321,0.00918832781436458,-0.9927279120955,0.0652368768252587,-0.11318232760078,-0.032962495610343,-0.0511802793397293,0.0113141224542245,-0.965558314957041,-0.14479943103291,0.216547446814206,-0.0179697602581073,0.0122820368045076,0.057614952268161,-1.00114524635769,-0.0275089838110347,-0.084602443475618,0.184038671496635,-0.0228722484530284,-0.0132166267721948
0.255,-0.499313611559359,0.0479329316813424,0.868860390600559,-0.00621210226154815,-0.00265969999483141,0.00893938836915287,-0.992533194182719,0.0642936115999104,-0.113605254400469,-0.0319214728906079,-0.0512507246217748,0.0116784182398237,-0.965157977019918,-0.144191124179575,0.217609867242463,-0.0164876506166384,0.0127749257111265,0.0608963227803728,-1.00012364723698,-0.0277872764241956,-0.0835876313165223,0.191862954254468,-0.0249956183090357,-0.0124826572965933
0.26,-0.49972571634298,0.0465508391723311,0.869033897566432,-0.0048755246427347,-0.0037093290248032,0.00824302458038421,-0.992186392696552,0.0639618157119638,-0.113702348590515,-0.03042641248872,-0.0513126777460859,0.0121601753196955,-0.964712213831812,-0.143991066097251,0.218360258372762,-0.0145422634962161,0.013403177895825,0.0642853460689114,-0.998942405016416,-0.0279216107362245,-0.0817637752265372,0.199560051637214,-0.0266212196689402,-0.0119105939868201
0.265,-0.500264299863625,0.0453349459269194,0.869354187922421,-0.0035710912583395,-0.00502282555861289,0.00691217771558602,-0.991708225487067,0.0641638666038107,-0.113560090414041,-0.028832566204493,-0.0513978439679147,0.0127389708654407,-0.964238618559908,-0.144140401189229,0.218773290074009,-0.0124883460820158,0.0141340428401248,0.0677416404767621,-0.997648941187538,-0.0279297507800893,-0.0792089160171795,0.207056088451956,-0.0276114100655063,-0.0114735862233091
0.27,-0.500785029770507,0.0444129395247816,0.869612503364841,-0.00248267232381243,-0.00663818069831641,0.00486025339355561,-0.991117904479112,0.0647768778251545,-0.113300661846354,-0.0273526018694639,-0.0515427212515363,0.013399311565376,-0.963747984928538,-0.144536701246171,0.218825620828244,-0.0105381193047748,0.0149441956079421,0.071222323972286,-0.996297737281757,-0.027877322329461,-0.076014878365685,0.214295903135169,-0.027859369310203,-0.0111307738692776
0.275,-0.501156637296748,0.0438892925232201,0.86962559301775,-0.00166464809997698,-0.00852718754502232,0.00209980542557083,-0.99043360360073,0.0656728398825902,-0.113035532537398,-0.0260545603218544,-0.0517843104498359,0.01412967274717,-0.963248067707589,-0.145067105276844,0.218500637946108,-0.00875940886857438,0.0158189205402713,0.0746852062329044,-0.9949484505341,-0.0278474281265296,-0.0723014871315501,0.221246291035466,-0.0272938141739727,-0.0108212231291074
0.28,-0.501264326461745,0.0438445278583078,0.869245286030452,-0.00105914544302649,-0.0106058564735166,-0.00126735404601541,-0.98967575814387,0.0667261868936233,-0.112857231747365,-0.0248821488103596,-0.052157870213762,0.0149211944367326,-0.962746602419342,-0.145624619623548,0.217798752448378,-0.0070959854439513,0.0167501696003884,0.078090299009166,-0.993661232400737,-0.0279209885278272,-0.0682145504018306,0.227896123243875,-0.0258839141346701,-0.0104661532248478
0.285,-0.501016979451385,0.0443332451147326,0.868355555612723,-0.000510942833981939,-0.0127437497816573,-0.00506058804890037,-0.98886778831996,0.067814450930659,-0.112847234887816,-0.0236728085592655,-0.0526964491878328,0.0157676652037563,-0.96225255903711,-0.146114385866341,0.216743098813101,-0.00538572449404945,0.0177359058545699,0.0813993623772474,-0.992493485645796,-0.0281737438262582,-0.0639121195242816,0.234258420254872,-0.0236407271564318,-0.00997499327256563
0.29,-0.500352236890606,0.0453824894858512,0.866867121789333,0.000217022890475609,-0.0147735350561278,-0.0090337623555807,-0.988036682936214,0.0688199587387978,-0.113078950108505,-0.0221757058728244,-0.0534295753414268,0.0166660035853063,-0.961777588745427,-0.146451410494383,0.215379247051676,-0.00337887284815383,0.0187799133214451,0.084575098273249,-0.991498544328369,-0.0286674349996937,-0.0595651069862852,0.240371025363997,-0.0206165306005255,-0.0092519397918892
0.295,-0.499236480591521,0.046991494308459,0.86472184512685,0.00142785387561029,-0.0164965554249049,-0.0128885971726686,-0.987214451977085,0.0696318387871463,-0.113617358693609,-0.0200690639467919,-0.0543811116260524,0.0176166029473828,-0.961337156896265,-0.146567020928108,0.213772211809414,-0.000755647109176441,0.0198915057334272,0.0875812790328919,-0.990721769411246,-0.0294354631179307,-0.0553461602458664,0.24629119107512,-0.0169044355179393,-0.00820384356031486
0.3,-0.497693489210485,0.0491148121313646,0.861956306421188,0.0034734748064583,-0.0176946118713629,-0.0162903705911927,-0.986435315252793,0.0701746166208624,-0.114500806873198,-0.016979393825198,-0.0555699055011129,0.018623283409258,-0.9609483550127,-0.146452245275247,0.211997613977601,0.00285454274908241,0.0210847723559417,0.0903817694505104,-0.990189489065012,-0.0304931417517179,-0.0513485247576357,0.252089296852638,-0.0126307104345417,-0.00674826816253973
0.305,-0.495881745845831,0.0516143830379942,0.858830627615462,0.00669399314366117,-0.0181830149930298,-0.0189154734954059,-0.985727363761564,0.0704879827179018,-0.115667910270069,-0.0125518559989898,-0.0570134104759982,0.0196901307798113,-0.960626525610562,-0.146217604608913,0.21012589456894,0.00780346775390167,0.0223731891386561,0.0929403686546835,-0.989898191849363,-0.0318736056102005,-0.0474839330626245,0.257849898768557,-0.00791908526341792,-0.00481372606305547
0.31,-0.494116835776545,0.0542347598199285,0.855846259613925,0.0112568267020721,-0.0179100514274528,-0.0205610657814411,-0.98511094473947,0.0707669081682181,-0.116892561264633,-0.00663313980501892,-0.0587238679631911,0.020811306681228,-0.960388979477822,-0.146072079709921,0.208218073379834,0.0142424837116759,0.023754038015269,0.0952297608644324,-0.989824709409846,-0.0336174001989695,-0.043550722192768,0.263665899615403,-0.00283045363576246,-0.00232914940249289
0.315,-0.492716984430177,0.0566868756266806,0.853495483031676,0.0170014890116235,-0.0170051972252423,-0.021240420380756,-0.984614745535884,0.0712308750795985,-0.117880635865853,0.000558320850307658,-0.0606960994615413,0.0219606742751029,-0.960266116571647,-0.146194587831598,0.206348952724786,0.0219523136877283,0.025193184559735,0.0972403158915572,-0.989955244924123,-0.0356737481807192,-0.039485233458216,0.269602622558162,0.00265559454021971,0.000775387044665088
0.32,-0.491808347668369,0.0587833790559918,0.85198213766175,0.0234992070234173,-0.015692803440456,-0.0211352454729306,-0.984293153121427,0.0719318505945108,-0.118470440698714,0.00850722279771717,-0.0629079073485654,0.0230955833334127,-0.960305386424681,-0.146637038951028,0.204628723668143,0.0304157877977389,0.0266310988565607,0.0989659592295396,-0.990295297461026,-0.0378297043691569,-0.0354753520692586,0.275658553053094,0.00857686029155247,0.00453561548176526
0.325,-0.491321480925883,0.0604717041711812,0.851238101003548,0.0302763359852125,-0.0141640678691661,-0.0204480527786869,-0.984218116691551,0.0727355819970168,-0.118687355180324,0.0166541627700977,-0.065336807244495,0.0241715404105988,-0.960557883674538,-0.147348103411591,0.203184888000291,0.0390688603233801,0.0280048964652256,0.100379895922102,-0.990848795912452,-0.0397839054529437,-0.0317953827074895,0.281770617802331,0.014918474127931,0.00891531815456537
0.33,-0.491121640280366,0.0617617619813946,0.851109075693548,0.0369590971007571,-0.0125309348970183,-0.0193113809535844,-0.984451335144764,0.0734487607965329,-0.118632015724153,0.0245548923797039,-0.0679692807743231,0.025151106208454,-0.961059327918848,-0.148229120164493,0.202124429161761,0.0474603776099729,0.029262119768867,0.101432516758844,-0.99160314572904,-0.0412741372311284,-0.0286491592392308,0.287844654710891,0.0216084468104633,0.0138047544919745
0.335,-0.491083334664149,0.0626696837004749,0.851440763665722,0.0432884351733128,-0.0108377926612726,-0.017785964908181,-0.985025284897991,0.073907624867892,-0.11839385128986,0.0318977323354537,-0.0707953247375886,0.0260045341699274,-0.961822028917152,-0.149159360005212,0.201517661087325,0.0552706004174341,0.0303622129830482,0.102065819446752,-0.992534716020321,-0.0421237905251451,-0.0261777201888018,0.293761979264338,0.0285407723715728,0.019045585542022
0.34,-0.491096080171493,0.0632187395599197,0.852087104609934,0.0491062439711797,-0.00907181415708182,-0.0158820150830639,-0.985941668685714,0.0739941144748232,-0.118048583153202,0.0384920725733236,-0.0738043820242702,0.0267102057016244,-0.96283573040734,-0.150029874061942,0.201401651693802,0.0623001735698272,0.0312766943032423,0.102221101417485,-0.993608057738451,-0.0422339455852112,-0.0244531065539852,0.299373187670731,0.0355860816754682,0.0244515400230693
0.345,-0.491070268263284,0.0634539860071259,0.852929097760542,0.0543517278378975,-0.00718005368479063,-0.0135724276835999,-0.987174804551771,0.0736399406862128,-0.117665019472992,0.0442635290832875,-0.0769894099509648,0.0272565160426819,-0.964068489943678,-0.150771600980491,0.201782343833426,0.0684662836225833,0.0319908767675912,0.1018421158801,-0.994765842274727,-0.0415871083394198,-0.0234204923250216,0.304517011883387,0.0426126364704751,0.0298234839092044
0.35,-0.490951287857482,0.0634409875591459,0.853875411964306,0.0590509774856857,-0.00509541257259015,-0.0108037717577737,-0.988672914030414,0.0728337239243487,-0.117290406074223,0.0492379284790687,-0.0803479115518758,0.0276428433401479,-0.965469649179092,-0.151328024768795,0.202634756651697,0.0737881483329235,0.0325045086824397,0.100884865801957,-0.995934513122289,-0.040244437838477,-0.0229407549109495,0.309050103522808,0.0495177804184757,0.0349673260637103
0.355,-0.490732392441354,0.0632539188479678,0.854851428720472,0.0632937457702401,-0.00275065553395299,-0.00751203657969881,-0.990361990529612,0.0716228544838151,-0.116934814214146,0.0535140856027507,-0.0838726190369183,0.0278794899315289,-0.966977544598826,-0.151609541743016,0.203908548840641,0.078360250133681,0.032831100032021,0.0993304513702542,-0.997040812287074,-0.0383227484683902,-0.0228947328527118,0.312854087080017,0.0562373062323226,0.0397092792109065
0.36,-0.490460840894593,0.0629674514137991,0.85581120963171,0.0672021098403897,-8.87704227227198e-05,-0.00364199324311575,-0.992155171398492,0.0701091301791081,-0.11656779317963,0.057228810016941,-0.0875365071742407,0.0279870694946631,-0.968527628440793,-0.151491831741436,0.205538153363472,0.0823170321987428,0.0329964813393799,0.0971981651460834,-0.998018531353733,-0.0359726874692179,-0.023218205673872,0.315830738943422,0.0627390447887932,0.0439048870347284
0.365,-0.49022121103145,0.0626512968247961,0.856739138009784,0.0708985594905839,0.00292190547763761,0.000835133515840875,-0.993959288934279,0.0684352200102537,-0.116135787428756,0.0605193415660326,-0.091281957446781,0.0279955794775805,-0.970055168627535,-0.150862033620629,0.207450298295514,0.0857953434506366,0.0330369847970276,0.0945564101126144,-0.998811123054489,-0.0333608205102957,-0.0238979087995838,0.317908244006283,0.0690181630011959,0.0474424316049154
0.37,-0.490106586097565,0.0623549360066324,0.857630491134168,0.0744866979872612,0.00627929894551695,0.00590510180488198,-0.995670760683397,0.0667656362314429,-0.115591422624407,0.0635023027761615,-0.0950249357960492,0.027944221401807,-0.971489008174331,-0.149674652955089,0.209563313050088,0.0889134291737455,0.0329985296777366,0.0915180388290935,-0.999376539465764,-0.0306648948226027,-0.0249726713014614,0.319053985223145,0.0750851931333158,0.0502410136409697
0.375,-0.490192984540082,0.0620983966674294,0.858471797961221,0.0780408326807504,0.00994192839799495,0.0114895597080962,-0.997176215985917,0.0652645088867001,-0.11490730586588,0.0662671573628572,-0.0986710859977159,0.0278810295904643,-0.972748398992571,-0.147974607566989,0.211788582513403,0.0917642777653882,0.0329356305644647,0.088221938084055,-0.999691992298072,-0.0280709040953073,-0.0265365099798248,0.319279430196663,0.0809510620357561,0.0522524478504648
0.38,-0.490502221518905,0.0619040978827191,0.859206066134071,0.0815988546357941,0.0138360332274121,0.0174393734973129,-0.998377258705925,0.0640606224901028,-0.114080188882329,0.0688720387926948,-0.102132692974806,0.0278604972161262,-0.973760072602833,-0.145880333651753,0.21404650899566,0.0944112871451901,0.0329084418813333,0.084813045350554,-0.999764802658919,-0.0257294028053108,-0.028767289999276,0.3186356454427,0.0866111658574359,0.053462749164777
0.385,-0.49098209912956,0.0618387515587027,0.859718792179045,0.0851779305942126,0.0178947879516816,0.0235729952965608,-0.999215504742811,0.06321878123185,-0.113135825446838,0.0713572893922215,-0.105343554790245,0.0279404468766986,-0.974476285806914,-0.14354435135973,0.216277831316565,0.0969014663673317,0.0329795740928729,0.0814235026574363,-0.999637400291352,-0.0237291195639651,-0.0319249476938389,0.317219182349023,0.0920151163591514,0.0538775006074892
0.39,-0.491553450028071,0.0619910702133236,0.859901735009687,0.0888059086181185,0.0220898528212856,0.0297337330027281,-0.999663372789002,0.0627510312369166,-0.112117733390717,0.0737713568005891,-0.10826450083263,0.0281787635090834,-0.97486436887092,-0.141111847122633,0.218431565993756,0.0992915644643017,0.0332114833969677,0.0781683033983664,-0.999364483415354,-0.0221660660021404,-0.036240201517404,0.315197858784241,0.0970469781643933,0.0535110841414704
0.395,-0.492180145303058,0.0624030875603634,0.859733420049851,0.0925323787401667,0.02641028746345,0.035805762018913,-0.999701200093333,0.0626490469238678,-0.11106547091537,0.0761791920294285,-0.110874948675087,0.0286297515333914,-0.97488723148078,-0.138701043593802,0.220453052718392,0.10165771212481,0.0336635425630733,0.0751631877800389,-0.998978364906886,-0.0212159908642049,-0.0417807188545627,0.312831295913669,0.101552199965122,0.0524042827403613
0.4,-0.492875180007473,0.0630511747625645,0.859276175904086,0.096414835620171,0.0308172097290793,0.0416881643474925,-0.999317778826464,0.0628950096756437,-0.109992780986381,0.0786508286733806,-0.113160008352975,0.0293411796504971,-0.974505993282667,-0.136397884139406,0.222294238786588,0.104085318199647,0.0343893510015071,0.0725476919141873,-0.998479763428927,-0.0211008074485339,-0.0484564755725592,0.310466523531155,0.105393277887628,0.0506492677856163
0.405,-0.493645349996093,0.063893404774227,0.858601810767582,0.100493843163035,0.0352343291726838,0.0472841133409369,-0.998528090286939,0.0634503626141627,-0.108865809054782,0.0812353744990933,-0.115099179362276,0.0303502536763153,-0.973696900145382,-0.134245637301997,0.22393204949328,0.106643548204808,0.0354323116896541,0.0704998308541309,-0.997856477476914,-0.022004833529843,-0.0561440784237476,0.308514793371992,0.108482581524751,0.0483947139142647
0.41,-0.494461174863475,0.0648943975470798,0.857753091143378,0.104769916271148,0.0395842504557733,0.0525229567087123,-0.997382300787822,0.0642496544301249,-0.107608500455219,0.083931459761088,-0.116657492234626,0.0316785498760538,-0.972461554350578,-0.132247745450439,0.225373937939356,0.109355645320573,0.0368198389720178,0.0692432315402405,-0.997094073948927,-0.0240431918331613,-0.0647205953238834,0.307428500033092,0.110780746248605,0.0458331278764701
0.415,-0.495287801603045,0.0659911344733771,0.856785489251093,0.109197619205573,0.0438166281553693,0.0573692173433144,-0.995954541159295,0.0652095653894125,-0.106142216279301,0.0866819745261181,-0.117783365274391,0.0333305840899138,-0.970823389141023,-0.13039374741632,0.22664673565162,0.112193624922216,0.0385617411032574,0.0690485292168632,-0.996164765239807,-0.0272837765673187,-0.0739554525916368,0.307692933155548,0.11230254950559,0.0431867604859498
0.42,-0.496123455380719,0.0670676507527239,0.855816224541974,0.113694707104622,0.0478919986275629,0.0617989332023639,-0.99431889051207,0.066244683101332,-0.104420072373162,0.0893921029042032,-0.118414178002952,0.0352962244100937,-0.968817241711289,-0.128676797561953,0.227778728606626,0.115095561775198,0.0406527879681534,0.0702221670761652,-0.995022046363352,-0.0317584312874183,-0.08344889579715,0.309811623580665,0.1131432896071,0.0406997943747761
0.425,-0.496993024906284,0.0679819283734769,0.855015417047491,0.118152553748324,0.051741754079111,0.0657728507228048,-0.99253235780166,0.0672775281201644,-0.102433346880494,0.0919455735604795,-0.118484530721344,0.037553330233246,-0.96648432191235,-0.127098646871239,0.228785180403835,0.117979018185291,0.0430749707734465,0.0730769140789241,-0.993622071441479,-0.037435589262873,-0.0927165008148191,0.314257413086407,0.113492836510871,0.0386310021161289
0.43,-0.497894899896861,0.0686175968704887,0.854542159743289,0.12244070437158,0.0552432692225334,0.0692336135180491,-0.990640515619357,0.0682351265270844,-0.100200316709081,0.0942069174312943,-0.117938838347093,0.0400675019389424,-0.963880352000927,-0.125685824531695,0.229661396304953,0.12073876557987,0.045796031653299,0.0778843250457038,-0.991964989830587,-0.0441702569358283,-0.101347667358537,0.321403297138286,0.113610212625233,0.0372397510886767
0.435,-0.498765372533185,0.0689134619017579,0.854483786462029,0.126405727896462,0.0582403704765939,0.0721304767078927,-0.988701878093532,0.0690449827161091,-0.0977512633837611,0.0960145019992083,-0.116751319416051,0.0427882790511653,-0.961095431679591,-0.124481099646957,0.230384068255517,0.123235044399418,0.0487640060051423,0.0848167952013441,-0.990121825545714,-0.0516675680881985,-0.109096261906961,0.331469026760623,0.113755524105314,0.0367608174539803
0.44,-0.499521742363363,0.0688420540366408,0.854867389209945,0.129872574038223,0.0605911818211322,0.0744431659175036,-0.986805016141076,0.0696447258794293,-0.0951171368224072,0.0971820039949754,-0.114937265818223,0.0456466165602884,-0.958267066885908,-0.123469838292767,0.230915870227862,0.125291511018252,0.0519038875590747,0.0939088948472365,-0.988212211569174,-0.0595068158186518,-0.115794097543678,0.344501100662514,0.114123160262881,0.0373737168327395
0.445,-0.500134541994875,0.0683624727067815,0.855718241842304,0.132653756682212,0.062190914383271,0.0761755547490504,-0.985062088279753,0.0699914885147424,-0.0923248574196088,0.0975172095626088,-0.112539715566102,0.0485572468074235,-0.955571162631319,-0.122498115107525,0.231209934061895,0.126712226926134,0.0551207703568891,0.105059477347888,-0.986352120996429,-0.0672109130782188,-0.121174020188938,0.360362915675344,0.114831788310272,0.039185657328293
0.45,-0.500638331759378,0.0674062386234832,0.85708052531757,0.13456450372722,0.06296269705468,0.0773290766108927,-0.983596730582394,0.0700551241734423,-0.0894023957251814,0.0968507760644184,-0.109601664640161,0.0514239629812424,-0.953207600354515,-0.121276185642028,0.231219510133128,0.127309587077744,0.0583068085640126,0.118057635624066,-0.98463226189501,-0.0742698659586371,-0.12481517744754,0.378704448767886,0.115966593357857,0.0422327198253041
0.455,-0.501076784988161,0.0659188423593309,0.858982308726809,0.135437023794297,0.0628526427456579,0.0778898852576997,-0.982539747773943,0.069810781279583,-0.0863937206543876,0.0950577618447252,-0.106151328857311,0.0541439313162992,-0.951398492628318,-0.119482453653109,0.230908177988281,0.126924392430513,0.0613465000433222,0.132589895822857,-0.983157789967148,-0.0800795455410482,-0.126297147725436,0.398916353381745,0.117607559881259,0.0464748256880737
0.46,-0.501460342130332,0.0639174328265368,0.861396912546855,0.135124363490393,0.0618473018259653,0.0778453644602247,-0.982020437952474,0.0692568237715056,-0.0833709061920104,0.0920551030151465,-0.102216618784174,0.0566091481400212,-0.950387416125908,-0.116861726512366,0.23024476667369,0.125419780304614,0.0641171948968117,0.148199771155092,-0.982097578031693,-0.0838929822726752,-0.125384800492214,0.420092976692736,0.119783564353293,0.051764688915756
0.465,-0.501788480366338,0.0615147306171991,0.864247139112013,0.133501333874673,0.0599935608687,0.077205628212656,-0.982146139780511,0.0684518381282196,-0.0804327426090674,0.0877907706744561,-0.0978480238798977,0.0587092261534152,-0.950421152322308,-0.113224299770001,0.229182970872979,0.122666821268534,0.0664904689555231,0.164238507506151,-0.981669494575948,-0.0848885960210174,-0.122003913120379,0.441027801315321,0.122394662600552,0.0578116968066881
0.47,-0.50208680054325,0.0589167362015231,0.8674236835968,0.130479456364784,0.0573929629166195,0.0760044130576659,-0.982977037123376,0.0675384281989824,-0.0776957132672788,0.0822531646358705,-0.0931235766466993,0.0603398364951131,-0.951716462223038,-0.10840277472498,0.227644298502197,0.118553986154723,0.0683408882250369,0.179863459796101,-0.982083630747905,-0.0823022405814887,-0.116097644808906,0.460245343660005,0.125194217739398,0.0641765363868392
0.475,-0.502401510834808,0.0564290026972644,0.870766952124616,0.126031955212771,0.0541833670804727,0.0742926860891825,-0.984509649131211,0.0667428014290631,-0.0752779094208375,0.0754937943609979,-0.0881414880306125,0.0614140640795259,-0.954430552020712,-0.102249514263256,0.225524005184844,0.113013238285777,0.0695588639079988,0.194074832390719,-0.983506718572417,-0.0755105567830555,-0.107604198335563,0.476049850854693,0.127822607676227,0.0702955873077283
0.48,-0.502781779498237,0.0544574396840323,0.874051734324837,0.120208374443301,0.0505385599605816,0.072143571705958,-0.986678660436657,0.0663650363529852,-0.0732705570289733,0.0676340687388204,-0.0830119705721652,0.0618732310238463,-0.958644569108184,-0.0946720437395387,0.222726499990307,0.106032077579581,0.0700626502367079,0.205765774587945,-0.986036899945024,-0.0640717652210739,-0.0965004550106422,0.486583364227045,0.129843794032914,0.0755111762635125
0.485,-0.503279599235151,0.0534613247428381,0.877016109818354,0.113127124877897,0.0466748464755488,0.0696545370336401,-0.989364779433887,0.0667544536782091,-0.0717193308615111,0.0588436581290497,-0.0778482889262096,0.0616978977564312,-0.964349097083713,-0.0856677983947884,0.219198620257059,0.0976398084528893,0.0698101096251682,0.213791418823587,-0.989678209713775,-0.0477904159652494,-0.0828235552948888,0.489905430761233,0.130802145048299,0.0791009644715846
0.49,-0.503937028211628,0.0538621196040908,0.879380810322006,0.104964145866675,0.0428432745952431,0.066932023870419,-0.992390021494268,0.068243082190985,-0.070645723295576,0.0493214829468394,-0.0727583051970966,0.0609168337535812,-0.971418635304557,-0.0753270518534827,0.214916477169081,0.087898660244382,0.0688088681748366,0.217052299736851,-0.99435643754429,-0.02682551679134,-0.0667975489181061,0.484109771810438,0.130282935341414,0.0803192231084753
0.495,-0.504754612123745,0.0559559921063483,0.880847740031043,0.0959662379495025,0.039315603541707,0.0640781248724778,-0.995519351752371,0.071042524891229,-0.0700890520149373,0.0393191176251926,-0.067837069742052,0.0596070280457486,-0.979586567311316,-0.0638357455722614,0.209865124754984,0.0769377435244813,0.0671185461665577,0.214577840584238,-0.999953222054493,-0.00180609759335867,-0.048998943053043,0.467490601414012,0.127914008041619,0.0784677063735394
0.5,-0.505688741486081,0.0598405539036732,0.881163635543262,0.0864789623121225,0.0363710593628424,0.0612051089121446,-0.998498918554591,0.0751568977731731,-0.0701088303611295,0.0291827375874729,-0.0631607909051147,0.0578834233037204,-0.988444040159712,-0.0515335938119231,0.204089698485411,0.0650065784738775,0.0648432147495834,0.205614262147041,-1.00627937898448,0.0261010229513911,-0.0303041036054235,0.438746524084379,0.123344864354558,0.0729887802641286
0.505,-0.506701098670117,0.0653186693248535,0.880255323049189,0.0769357753942208,0.0342650290968795,0.0584512542615896,-1.00111374953958,0.080356274789237,-0.0707296029895402,0.0193425552023285,-0.0587817086291747,0.0558833435401363,-0.997464158235409,-0.038992684733538,0.19779355277951,0.0524787926064652,0.0621179302897473,0.189730415684222,-1.01299861195856,0.0551998384240002,-0.0116653274391193,0.397187555901183,0.116298268590938,0.0635540982402578
0.51,-0.507779267397336,0.0718266535061346,0.878282698173325,0.0677752593761936,0.0331755584573942,0.0559425488209696,-1.00322406718215,0.0861766562331344,-0.0719061632833365,0.0102248346648247,-0.0547218929578412,0.0537495022979786,-1.0060356451854,-0.0270374286801934,0.191387897748942,0.0397797457359213,0.0590929507427244,0.16693481167613,-1.01960461515287,0.0833630036082425,0.00596452483202029,0.342926513524367,0.106691949094482,0.0501283308583336
0.515,-0.508859566290752,0.0785076950763772,0.875527194105657,0.0593607704810815,0.0331757697871728,0.0537410780025897,-1.00475021016257,0.0919097365711324,-0.0735693451809505,0.00217690271773072,-0.0509763835863623,0.0516134792582267,-1.01348374440377,-0.0166551046021751,0.185420737340744,0.0273238447278997,0.0559185849438329,0.13775983405511,-1.02549990823932,0.108152067129923,0.0215038966726805,0.27704834402456,0.0947150721033984,0.0329997089327965
0.52,-0.509772339976205,0.08440471465027,0.872277227225936,0.0519940920491091,0.0342424116436289,0.0518725178299982,-1.00561856235553,0.0966699983385777,-0.0756718400645161,-0.00450608647173105,-0.0475227708703642,0.0495775750591023,-1.01909204065807,-0.00880453122430302,0.180410784765204,0.0155469104629141,0.0527295173267283,0.103291697637766,-1.03010116889096,0.126935137964187,0.0337586345478795,0.201713777155543,0.0808080068294156,0.0128205021412137
0.525,-0.510312485944498,0.0886404651409219,0.868817321222839,0.0459667601794542,0.0362462923532143,0.050387129561318,-1.00574093023587,0.0996066658160422,-0.0781639745361703,-0.00952088746938283,-0.0443160521428632,0.0476978315333824,-1.02220005335582,-0.00421706936199595,0.176721367555268,0.004963477510909,0.0496296403293666,0.0651541446612056,-1.03291614558766,0.137256853693176,0.0416995035011261,0.120105967073179,0.0656283346372494,-0.00933570672179513
0.53,-0.510324680733367,0.0905819754538325,0.865404451695623,0.0415652556887475,0.0389415711101862,0.049350999542184,-1.0050571022617,0.100154971898937,-0.0809518366868409,-0.0125447550323834,-0.0412821970581912,0.0459825573667499,-1.02237951957003,-0.0032705342192542,0.17453369276237,-0.00383790167724375,0.0466886521628618,0.0253973753156687,-1.03362701637383,0.137512252826122,0.0447175548096837,0.0361582439254451,0.050011920042585,-0.0320190325108099
0.535,-0.509725979272923,0.0900264596856583,0.862210025157376,0.0390425324556084,0.0420130615359472,0.0487979396475208,-1.0035734706805,0.0982026607034004,-0.0838690896513073,-0.0132641769073597,-0.0383310040657306,0.0444092244580373,-1.01955913578632,-0.00594902236676879,0.173847965829882,-0.0102530731642236,0.0439527898446176,-0.0137335150222757,-1.03215738517462,0.127423526701087,0.0427632061466771,-0.0458904637849837,0.0348745039560589,-0.0536017745443433
0.54,-0.508522372864651,0.0872992021473632,0.859333219164301,0.0385687889963146,0.0451442466869705,0.048719034900692,-1.00134053917375,0.0941370691020521,-0.0866623484212301,-0.0114507861779964,-0.0353720946895651,0.0429449024498398,-1.01400495556981,-0.0118926791406707,0.174475764467023,-0.0137718520449953,0.0414568764761595,-0.0500636169439903,-1.02866361106827,0.107975736202348,0.0363952241080539,-0.12198639428217,0.0211098461584979,-0.0725162181647378
0.545,-0.506823419821107,0.0831572013358591,0.856844876065463,0.0401705948089924,0.0480331552657236,0.0490746697528436,-0.998403429346531,0.0887599470107909,-0.0890287874591282,-0.00706690272200142,-0.0323226610248008,0.0415618310792284,-1.00620975525744,-0.0205082016236019,0.176060697358834,-0.0141115542175345,0.039231580793047,-0.0817031903707708,-1.02348084162266,0.0810363417399979,0.0266149006039006,-0.188680725490527,0.00952975143174165,-0.0874267213280761
0.55,-0.504804937071044,0.0785695469194377,0.854753353413393,0.0437027919795289,0.0503794378907203,0.049790170519946,-0.994798232156283,0.0830790617764004,-0.0907068139527967,-0.000319646962814122,-0.0291158493753559,0.0402507316783506,-0.996792556865514,-0.0310818976312871,0.178160747636985,-0.0112902879471,0.0373103696303639,-0.107197073952511,-1.01706889631868,0.0489879815571605,0.0145319355414842,-0.243404873289686,0.000802840950883422,-0.0973325605505123
0.555,-0.502633055715138,0.0745018595232761,0.852942312802988,0.0488812715724381,0.0519150382757316,0.0507547792314361,-0.990598877190469,0.0780416570547805,-0.0915650919799464,0.00837816516116098,-0.0257135283468573,0.0390321292819028,-0.986433736670588,-0.042873467544751,0.180366458907925,-0.00559806993729375,0.0357375301939118,-0.125610797622646,-1.00995376636637,0.0144412475186401,0.00110154202935704,-0.284573683532189,-0.00462454203734837,-0.10163701056786
0.56,-0.500419702297533,0.071742917899539,0.851204394818135,0.0553628702612649,0.0524691626901981,0.0518611940329802,-0.985955595515261,0.0743148616584045,-0.0916383102305872,0.0185095236194732,-0.0221181787877748,0.03795871323218,-0.975814386217072,-0.0551854714857393,0.182383739251874,0.00250257352022467,0.0345703136257588,-0.13655549068961,-1.00266266754004,-0.0200638900435041,-0.0129403703394459,-0.311549541616858,-0.00659166291000176,-0.100182271308794
0.565,-0.498253969993493,0.0707545078011021,0.849366205992861,0.0628243769158993,0.0520005834196995,0.0530648089776551,-0.981093036291436,0.0722082632760073,-0.0910841379672185,0.0295545228657297,-0.0183735548873558,0.0371034417091247,-0.965555932139367,-0.0673932036772566,0.184046492347373,0.0124827095476592,0.0338691742563174,-0.140151644316356,-0.995666033255929,-0.0523677799880215,-0.0269944827941747,-0.32453544853357,-0.00522857466438157,-0.0932188221568118
0.57,-0.496273556600283,0.0715780879966961,0.84740916927279,0.0709834609324652,0.0505760755912708,0.0543844091774073,-0.976282571689016,0.0717396358367607,-0.0900857132878559,0.0410392382138707,-0.0145472599250675,0.0365390133613437,-0.956181109547425,-0.0789554619426415,0.185294499192114,0.023806002741147,0.0336805500938727,-0.136936825414117,-0.989338613044112,-0.0808829308895272,-0.0405108457702917,-0.324441445958575,-0.000893194137226165,-0.0813104838479076
0.575,-0.494678484533444,0.0738893037720248,0.845503211421573,0.079545448935831,0.0483137677988787,0.055831585697917,-0.971817205695762,0.072731329983633,-0.088784056204957,0.0525086937590083,-0.0107042793921163,0.0363176037142555,-0.948104277814307,-0.089450025939303,0.186167928452353,0.0359143468228907,0.0340194105376967,-0.127747169674527,-0.983945250651098,-0.104573725391915,-0.0529935344999006,-0.312733266745519,0.00591978153572561,-0.0652242678155164
0.58,-0.493632150759577,0.0771863132047797,0.843885215881753,0.0881510878484646,0.0453339975518166,0.0573662403690193,-0.968001549520313,0.0748343361464684,-0.0873164346062856,0.0634807086926537,-0.00689394354853411,0.0364580722013977,-0.941641771671314,-0.0986048783544621,0.186815068751008,0.0481940620918626,0.0348586618229191,-0.113615783766305,-0.979649000179908,-0.122785607068724,-0.064076578190577,-0.291267268796389,0.0146483339808534,-0.0458577971053736
0.585,-0.493158652213483,0.0809530478892524,0.842689041704152,0.0964361598890068,0.0417783327878063,0.0589400558808354,-0.965130425134561,0.0775378593329958,-0.0858848236044825,0.0735083371492764,-0.00316163378808975,0.0369476303571008,-0.937015512150269,-0.106266349165702,0.187459683241261,0.0600493847541455,0.0361352330127497,-0.0957038528008142,-0.976533302907155,-0.135126877486936,-0.0735905764371382,-0.262120962521038,0.0246899840776762,-0.0242116318001791
0.59,-0.493196060505047,0.0847030978588964,0.841973962882836,0.10414497836996,0.0378559122780248,0.0605532515976767,-0.963431031700074,0.0803019719664908,-0.0846955715595172,0.0823070264856849,0.000437457604406612,0.0377516407175011,-0.934333119771723,-0.11235185886898,0.188319267246574,0.071039814875788,0.037766207274055,-0.0752375471496793,-0.974620232746112,-0.141518404018159,-0.0815415065059469,-0.227433507014027,0.0354076969264945,-0.00135698315708291
0.595,-0.493731159851687,0.087988499832051,0.8418818953047,0.111118424427818,0.0338053697233662,0.0622228652662265,-0.963011315702183,0.0827549537476687,-0.083825969818238,0.0897414797354062,0.00384637987307399,0.0388181283398697,-0.93357665291909,-0.116863606303363,0.189546855218537,0.080876330913022,0.0396563297041757,-0.0534297227642725,-0.973870683612243,-0.142239791370889,-0.0880113629730529,-0.189283045417143,0.0461590076459829,0.0216344371803758
0.6,-0.494818334648911,0.0904659823368155,0.842635459313649,0.11717858049426,0.0298075772462399,0.0638977560924688,-0.963863834033238,0.0847641720513225,-0.0832011991530915,0.0956866852135867,0.00701988607080495,0.0400811219722313,-0.934627861022739,-0.119922743660536,0.191234769013587,0.0892902087530385,0.0417003205748284,-0.0314087904843636,-0.974184482692191,-0.137813589446024,-0.093107153347734,-0.149608146656214,0.0563515948798223,0.0437550058216225
0.605,-0.496488906800103,0.0919757296298567,0.844386546102557,0.122061545528551,0.0259570737184569,0.0654234174608042,-0.965892614149745,0.0863577778348319,-0.0826811372898236,0.0999353260336893,0.00992376056969295,0.0414698985945415,-0.937293455380405,-0.121741424921764,0.193419756113508,0.0959461720534657,0.0437912242552754,-0.0101759923830022,-0.97541826717069,-0.128893247252082,-0.0969839332682728,-0.110137097478523,0.0654763317127551,0.0640827987889174
0.61,-0.498655686255458,0.092567821025788,0.84706969833314,0.125446039907729,0.0222903874575189,0.0665836067168172,-0.968926363254905,0.0875853572617382,-0.0821807617715119,0.102213095346124,0.012531549134704,0.0429176929824004,-0.941303995150048,-0.122528704000714,0.196055470472196,0.100462427790869,0.0458307806417004,0.00942850615427689,-0.97739988344301,-0.116297143955938,-0.0998001204279293,-0.0723074715947262,0.0731140572687364,0.0818068926433649
0.615,-0.501070243685618,0.0924730865749896,0.850341092316285,0.127099144496497,0.0188462867949408,0.0672045616057704,-0.97273459540981,0.0884146512351238,-0.0817589119112449,0.102335107055151,0.0148251332722294,0.0443699222656976,-0.946322480437951,-0.122417504483631,0.199006497478663,0.1025717830867,0.0477430695646695,0.026765172949173,-0.979935830474475,-0.101017987671066,-0.101651406176521,-0.0372169386051254,0.0789634731437156,0.0962936364715375
0.62,-0.503413128121273,0.0920137275726891,0.853723681304922,0.127047096038352,0.0157295096543867,0.0672540888496057,-0.977049258726374,0.088788032763445,-0.0815475820269606,0.100398670235427,0.0167902227461637,0.0457941370050739,-0.951981900217624,-0.121497035652915,0.202090376447859,0.102316671223826,0.0494896729883958,0.0414112246748011,-0.982832498557379,-0.0840967489411408,-0.102641888559358,-0.00563045758074253,0.0828621588606434,0.107139411115858
0.625,-0.505466299274303,0.0914895201860277,0.856868774719846,0.125552121138473,0.0130983192258157,0.0668306904223838,-0.981586443902445,0.0887622534411479,-0.0815874790054944,0.0967537609920005,0.018415094329597,0.0471810489708954,-0.957925092660496,-0.119893432186096,0.205128217560498,0.100017483817835,0.0510684560619956,0.0531426808891243,-0.985905298694954,-0.0665119033680855,-0.102924333282179,0.0219912003505994,0.0847588200907865,0.11416360066653
0.63,-0.507158455843223,0.0911202624052187,0.859613201808494,0.122942038790046,0.0110883744885419,0.0660753840307427,-0.986077916388641,0.088501055034901,-0.0818152335164723,0.0918038448430007,0.0197014178359425,0.0485364037864557,-0.963828552641866,-0.117784607280045,0.20797191118741,0.096070011938264,0.0524986975924634,0.0619162882843019,-0.988961642502034,-0.0491617837442109,-0.102570036765671,0.0454653221323245,0.0847008604842965,0.117377917863192
0.635,-0.508463339453748,0.0910539278256814,0.861827840206124,0.119533050356822,0.00978410839364299,0.0651261508412729,-0.990297818490981,0.0881489054498445,-0.0821769936162364,0.0859209040300914,0.0206700264275314,0.04987598829745,-0.96941451694153,-0.115360168343725,0.210506911189269,0.0908580934822409,0.0538128756778661,0.0678555082642252,-0.991811464674174,-0.0328375721834886,-0.101539066798425,0.0648475126574867,0.0828637480313048,0.116967916615092
0.64,-0.509339198509793,0.0913855046004716,0.863351652870833,0.115650712401662,0.00925447870587,0.0641276963183147,-0.994070446208362,0.0877827415533371,-0.0826637130817904,0.0794783006334196,0.0213522322512511,0.0512232693100669,-0.974462540415411,-0.112791933934354,0.212648227710399,0.0847828009371498,0.0550537564610781,0.0712133768860816,-0.994315800397839,-0.0181497379830951,-0.0998598665041553,0.0803791305873163,0.0795368088262326,0.113267967076253
0.645,-0.509765180671138,0.0921552522030626,0.864070320342599,0.111623090596574,0.00957502101444325,0.0632369881053885,-0.997272252878514,0.0874485770936189,-0.0832698797633848,0.072847102882744,0.0217813374530705,0.0526042793160232,-0.978820535291434,-0.110223043878625,0.214341290500228,0.0782528777709464,0.056267481079839,0.0723184328771782,-0.996410679874961,-0.00549429217939582,-0.0977224302674344,0.0924402127081544,0.0750450132990621,0.106712740053622
0.65,-0.509774441326079,0.0933364127455608,0.863973909787642,0.107744621650254,0.0108118247402334,0.062606027440939,-0.999833442002606,0.0871835695472949,-0.0839810721896899,0.0663564446383119,0.0219918246511085,0.0540423045129303,-0.982406070448744,-0.107769903592605,0.215562453837862,0.0716396713015925,0.0574961023786707,0.071532149575256,-0.998090001706062,0.00492063834728251,-0.0953858146193034,0.101507125008821,0.0696868195155514,0.0977889040582066
0.655,-0.50944835354154,0.0948314246002827,0.863152614807423,0.104256238832536,0.0130002601035087,0.0623557195552462,-1.00173436511067,0.0870143524351542,-0.0847936974200448,0.0602763129295228,0.0220166894677408,0.05555571765984,-0.985201298887159,-0.10554067478956,0.216319181960807,0.0652559850021387,0.0587743091168412,0.0692163998781804,-0.999388717070822,0.0130620657714158,-0.0931035014916333,0.108099658579419,0.0637135016048384,0.0869995258573584
0.66,-0.508899041059835,0.0964877404290196,0.861780378796577,0.101341419648101,0.0161251586815292,0.0625469461564414,-1.00299559573122,0.0869566895221347,-0.085720548872228,0.0548198840033891,0.0218770169875649,0.0571591367801613,-0.987239824329277,-0.103647235773206,0.216640987361212,0.0593547994974081,0.0601299093800868,0.0656957717233135,-1.00037035006656,0.0190450684086275,-0.0910954440093528,0.112721535151108,0.0573131703681431,0.0748261852027569
0.665,-0.508240737042356,0.0981363155946263,0.860076457624112,0.099126775444992,0.0201033208774712,0.0631649155055128,-1.00366362784608,0.0870121522951343,-0.0867683918377916,0.0501483129988706,0.0215751495108128,0.0588631771937142,-0.988579821405769,-0.102183716020944,0.216552503034782,0.0541322901801948,0.0615834470983955,0.0612373141979501,-1.00110117158353,0.0230320158248499,-0.0894774612387212,0.115834912282408,0.0506087349014776,0.0617070500690438
0.67,-0.507566916940303,0.0996350932876646,0.858261552012079,0.0976833799337168,0.0247858909834096,0.0641342035486686,-1.00380440370223,0.0871664735090705,-0.0879141487861135,0.046372000345041,0.0211017370864998,0.0606693518108897,-0.989288625719726,-0.101194449030711,0.216064893500689,0.0497302468756584,0.0631438181484529,0.0560663030921874,-1.00162998159675,0.0251726758731346,-0.0882277282874956,0.1178758853511,0.0436870355880104,0.0480495035942025
0.675,-0.506953213776358,0.100894543128142,0.856545384488499,0.0970273676761066,0.0299739075130277,0.0653484549595738,-1.00350970102187,0.0873961064011015,-0.0891030146265107,0.0435450691642469,0.0204480595452194,0.0625663252480149,-0.989452230304748,-0.10066705768993,0.215204887066941,0.0462316834744777,0.064805195267043,0.0503876689117589,-1.00198461192835,0.0256553273545287,-0.0872355260758288,0.119259369776867,0.0366293159206376,0.0342380050021641
0.68,-0.506460146003442,0.101872481787406,0.855112574058755,0.0971223814874359,0.0354353720198148,0.0666977495686351,-1.00289198532423,0.0876736399780698,-0.0902580327184481,0.0416576880502373,0.0196149841075661,0.064531437773263,-0.989175665221504,-0.100543876883975,0.214028907398653,0.0436530691527572,0.0665488239356238,0.0443953240426017,-1.00217716596504,0.0247407727560282,-0.0863653062892955,0.120359463727106,0.0295299747390724,0.0206158752574767
0.685,-0.506125928135315,0.10254239961139,0.854096101172786,0.0978798816071848,0.040927731523414,0.0680841593755434,-1.00205575405324,0.0879742284424578,-0.0912914928117126,0.0406316092321497,0.0186180735542038,0.0665320639808327,-0.988561379904692,-0.100739806086639,0.212596674694598,0.0419393919899523,0.0683445037314603,0.0382744022828967,-1.00222179705011,0.0227286997539382,-0.0855295484287132,0.121483628459964,0.022501276362494,0.00747252723041334
0.69,-0.505970465361353,0.102878284254875,0.853579390385937,0.0991550113155021,0.0462150840100953,0.0694157633846648,-1.00107792976915,0.0882862714597741,-0.0921226151520604,0.0403199032794056,0.0174858032501318,0.0685253321734935,-0.98769601560031,-0.101170123239695,0.210951815668293,0.0409626403224806,0.0701501175325232,0.0321900665471352,-1.00214488064981,0.0199349333546788,-0.0847221721456136,0.122845537967193,0.0156508109246979,-0.00495606378712428
0.695,-0.506005381726486,0.102875132465715,0.853611860257857,0.100751668789138,0.0510707684185967,0.0705981846356661,-1.00001451483084,0.0886148892898728,-0.0926948538629669,0.0405151138312283,0.0162525538093315,0.0704605715221091,-0.986654038190665,-0.101773273278173,0.2091296846496,0.0405289535858615,0.0719139294402922,0.0262729427615422,-1.00196716505493,0.016682923069163,-0.083950827659654,0.124558905223802,0.00905934982075133,-0.0164918838651694
0.7,-0.50623561339213,0.1025620269719,0.854199857848204,0.102441560388688,0.0552800561496582,0.0715401293409733,-0.99890792166363,0.0889761730643541,-0.0929827432441445,0.0409679819144003,0.0149533485022981,0.0722843165149144,-0.985498513296457,-0.102510132398344,0.207162386811117,0.0403979064042446,0.0735799722345303,0.0206184163408012,-1.00168616285797,0.0132724907127495,-0.0831628528185738,0.126658204429925,0.0027889588984152,-0.0270191598845327
0.705,-0.506657891578512,0.101992314816878,0.855292156526785,0.103985179203847,0.0586516248954076,0.0721609131513942,-0.997784187338024,0.0893909280551671,-0.0929934867003142,0.0414105119465736,0.0136224400357461,0.0739445633174186,-0.984276714851729,-0.103353660369133,0.205074921805102,0.0403066532006265,0.075092916632448,0.0152938270708505,-1.00127843138826,0.00995068311076912,-0.0822437030705164,0.129117439403342,-0.00309709437370546,-0.0364769381649107
0.71,-0.50725945032928,0.101233643688374,0.856784783875075,0.105152710740829,0.0610294788415634,0.0723939687145863,-0.996653906714421,0.0898786505705289,-0.0927709227395996,0.0415813038585564,0.0122920711594074,0.0753946421251048,-0.9830209014667,-0.104290268585817,0.202887325835571,0.0399960106103552,0.0764024851125001,0.0103433467284521,-1.00070754195673,0.00690697157605126,-0.0810375600494862,0.13186019551991,-0.00852064893202393,-0.0448477424346588
0.715,-0.50801459111399,0.100356278627546,0.858534936072854,0.105749553443949,0.0623010527154776,0.0721894089305573,-0.995516769312866,0.0904494470355932,-0.0923881992788783,0.0412562073203614,0.0109881404034185,0.0765977450552488,-0.981750512520393,-0.105313745770612,0.200616846839648,0.0392418795909649,0.0774685144660641,0.00578974927839951,-0.999935270531276,0.00426659858917576,-0.0793799229848404,0.134771390131655,-0.0133783432611992,-0.052148864147387
0.72,-0.508885233538494,0.0994200156628822,0.860377190645018,0.105633708083911,0.062404301035125,0.0715144101545191,-0.994363831172107,0.091100072923633,-0.091919000425473,0.0402714734177029,0.00972915896476241,0.0775288500309935,-0.980471853371967,-0.106394058605306,0.198274399296075,0.0378791385179937,0.0782633353344987,0.0016391624321158,-0.998938879395027,0.00207763447705569,-0.0771705627016474,0.137705266231683,-0.0175412694424756,-0.058418111637578
0.725,-0.509828313724431,0.0984781031938101,0.862147546923281,0.104714637005874,0.0613322702512227,0.0703540307217203,-0.993185730635841,0.0918171311273712,-0.0914188811177494,0.038525187132731,0.00853383753034584,0.0781727413031787,-0.979185278210244,-0.107466374212458,0.195870086273567,0.0358035331115808,0.0787700152478122,-0.00210764646758552,-0.997719138554941,0.00033009493345429,-0.0744181383596731,0.140490813052762,-0.020872164660471,-0.0636963649536344
0.73,-0.510799958409374,0.0975878979805627,0.863705069565465,0.102950875642956,0.0591312506635654,0.0687162106731055,-0.991985709159516,0.0925799291161357,-0.0909371001417563,0.035972644263459,0.0074264440346258,0.078523062780382,-0.977898569836556,-0.108464053485123,0.193427004118365,0.0329675072533218,0.0789814944004042,-0.00544639795567781,-0.996294312870755,-0.00100342102072459,-0.0712004471891973,0.142950980996973,-0.0232447930274072,-0.068024353279219
0.735,-0.511754020240528,0.0968050003240322,0.864938165275976,0.100357549910091,0.0558950107822579,0.0666347740159231,-0.99078081427596,0.0933616422569831,-0.0905276477346123,0.0326321402792982,0.0064324103891324,0.0785841358695616,-0.976630010234829,-0.109341654208217,0.190981132636547,0.0293865580184682,0.0789024773108709,-0.00836969971238302,-0.994697090865247,-0.00195875987846294,-0.0676182097412796,0.14492954348991,-0.0245523311741605,-0.071450280469532
0.74,-0.512644504546284,0.0961709689985577,0.865763565336163,0.0970106040125922,0.0517573325740331,0.0641643750301458,-0.989591673750709,0.0941337915553496,-0.0902413301527089,0.0285906407401988,0.00557280315346151,0.0783717954905955,-0.975400859374896,-0.110063228738478,0.188567606880858,0.0251451791228787,0.0785502716058072,-0.0108708968351133,-0.992978322707462,-0.0025954462667009,-0.0638019734470441,0.14630460913703,-0.0247137326438608,-0.0740303816738392
0.745,-0.513430428531725,0.0957111340419431,0.866126835025692,0.0930407763324493,0.0468816903105353,0.0613722566074464,-0.98843617729127,0.0948699879655822,-0.0901154660472987,0.0239990664378747,0.00486366431688846,0.0779119276654801,-0.974230033098399,-0.110588692141373,0.186212403156001,0.0203920461770133,0.0779532121390912,-0.0129457329173929,-0.991206934184065,-0.00299728010388389,-0.0599300206093739,0.146989535646137,-0.0236847936586375,-0.0758223954242382
0.75,-0.514076383445186,0.0954357803760609,0.866004510684098,0.0886224294013706,0.0414505266394478,0.0583333485485223,-0.987331548586268,0.0955428234284124,-0.090171969348053,0.0190603420540493,0.00431767520206201,0.0772377653028944,-0.973134689260722,-0.110876631112138,0.183935452243132,0.0153278889465406,0.0771477802342133,-0.0145922440468247,-0.989463714433905,-0.00325634975134047,-0.0562170782833329,0.146931296889933,-0.0214693069314115,-0.0768798644595167
0.755,-0.51455342962553,0.0953380570551729,0.865409475471152,0.0839619624240839,0.0356552388745176,0.0551280890658835,-0.986301616379076,0.0961222437917202,-0.0904207935729396,0.0140159254888759,0.00394438820272995,0.0763869170205095,-0.972136292359257,-0.110902918240737,0.181762036720542,0.0101918626903818,0.0761754101704774,-0.0158120830426528,-0.98783085470572,-0.00344479692401618,-0.0528739750582136,0.146110066991889,-0.0181251388172199,-0.0772510978368141
0.76,-0.514843009479895,0.0953927609575135,0.864390632050155,0.0792842579218403,0.0296869520601133,0.0518352408412247,-0.985383887705403,0.0965867621044998,-0.0908538509967637,0.00912994985610939,0.00374604826536032,0.0753999341709598,-0.971268858234587,-0.110676984483842,0.179733537034971,0.00524557810655481,0.0750806945695364,-0.0166161075129382,-0.986382589708438,-0.0035853336332286,-0.0500743377830875,0.144542582755664,-0.0137613664458784,-0.0769890313374637
0.765,-0.514937208834448,0.0955582445447423,0.863015880924438,0.0748062247758444,0.023735346513583,0.048515735142854,-0.984621738817458,0.0969331694176182,-0.0914302084701849,0.00465976747850486,0.00371350674155595,0.0743195520052287,-0.970572867126278,-0.110224783194333,0.177897135240009,0.000743554210579025,0.0739100221878732,-0.0170297593050451,-0.985188006807146,-0.00366820748951329,-0.0479762927070247,0.142281723551653,-0.00853064816834648,-0.0761672753234463
0.77,-0.514834690684092,0.0957863417611878,0.861358717648049,0.0707050172468696,0.0179905750424358,0.0452026913464625,-0.984041100634879,0.0971623994760887,-0.0920904760501619,0.000821055339051422,0.00383040687132205,0.0731865416430858,-0.970071295501333,-0.109561899824792,0.17627864728724,-0.00310195966566133,0.0727068707365024,-0.017091330629297,-0.98431649863733,-0.00371031085015567,-0.0467585568717752,0.139400279769206,-0.0026288456506792,-0.0748768815886638
0.775,-0.514538556982154,0.0960441914342429,0.85950561793788,0.0671158312696495,0.0126272516673956,0.0419150822143179,-0.983644024752991,0.0972575057355834,-0.0928014526225905,-0.00221747598089019,0.00407933337852429,0.072034437347416,-0.969760450481803,-0.108707302464759,0.174881455348484,-0.00612649012720853,0.0715065360333706,-0.016847414652591,-0.983823102979736,-0.00375901516611234,-0.0465855815914075,0.135975409450262,0.0037028798852812,-0.0732035677039157
0.78,-0.514064286313592,0.0963266053367751,0.857563986472592,0.0641608991963842,0.0077799415105023,0.038684240620313,-0.98342912810358,0.0971944730978407,-0.0935626710847416,-0.00430941392151221,0.00443941045529922,0.0708898066536597,-0.969629937246251,-0.107714176952615,0.173716955224852,-0.0081883209504717,0.0703368357170399,-0.0163525253141387,-0.983725760190573,-0.00383079545100927,-0.0475381883957792,0.132097933838165,0.0101898510343686,-0.0712231939037404
0.785,-0.513470280321532,0.0966335788903243,0.855677104421549,0.0619525799813918,0.00353556679716426,0.0355587353597874,-0.983404820489927,0.0969967310939715,-0.0943451366465085,-0.00533385281241069,0.00488293007790353,0.0697758123603039,-0.969680683713521,-0.106679275609679,0.172824375879529,-0.00917104271512893,0.0692216450752378,-0.0156674872945719,-0.98399768527706,-0.00388897463018916,-0.0495860347099917,0.127886182217526,0.016550099816585,-0.0690205961918956
0.79,-0.51288223059007,0.0969397847795918,0.854046300894044,0.0605264317016742,-7.23823273189733e-05,0.03256275868488,-0.983582107871104,0.0967743072692784,-0.0950424718798534,-0.00527207705958082,0.00538038558867545,0.0687130643395018,-0.969923142638444,-0.10573980668964,0.172264903595225,-0.00905961683523898,0.0681805818730558,-0.0148502244677014,-0.984577899997779,-0.00387517522491712,-0.0526144458691937,0.123478180930457,0.0225310675432201,-0.0667055573013796
0.795,-0.512441764340899,0.0972084241821578,0.852878337778051,0.0597659439416056,-0.0030787382276843,0.029645854454147,-0.98396196429983,0.096667993853534,-0.0955212972088892,-0.00429138683632094,0.00590568524043697,0.0677186266348725,-0.970363903141951,-0.10503564027591,0.172092155192304,-0.00802396004720021,0.0672266139035596,-0.0139494269585756,-0.985412634301805,-0.00374279684499901,-0.0565431161888016,0.119020427720594,0.0279325600841203,-0.0644194863257682
0.8,-0.512211094639766,0.0974340669742604,0.852261200400371,0.0594290105379516,-0.0055753356860771,0.0267006323084927,-0.984530451177406,0.0967457879478928,-0.0957114732215569,-0.00271316585420351,0.00643492342764753,0.0668048078229756,-0.970994723533188,-0.104631013236934,0.172316811698615,-0.00638794292535805,0.0663651430040015,-0.0130124486629357,-0.98650492400848,-0.00348288354001799,-0.0614626108015653,0.114671569127353,0.0325691933915035,-0.062326347806259
0.805,-0.512162031556312,0.0976493989421166,0.852133063816865,0.0592492866406693,-0.00765887379338971,0.0236335473450319,-0.985277210455124,0.0969856657583865,-0.0956181373022113,-0.000893589451656242,0.0069469840892405,0.0659780205058685,-0.971804466567861,-0.104501039575546,0.172923433872624,-0.00451141955048254,0.0655947621380357,-0.0120930731718935,-0.987892306405019,-0.00310604609730709,-0.0675451003565741,0.110603425628887,0.0362062417073246,-0.060588062785154
0.81,-0.512255727384421,0.0978911396537528,0.852399018631423,0.0589939316626257,-0.00938416348194854,0.0203962783575439,-0.986218432222523,0.0973395688477515,-0.0952814959916126,0.000846358385032863,0.00742529929689162,0.065242437836484,-0.972799617977891,-0.104625732968847,0.173927956526929,-0.0027196956494249,0.0649123967404196,-0.0112443462469532,-0.989564906572393,-0.00257429403994136,-0.0747893186050047,0.106986353604073,0.0385745589705462,-0.0593597923663242
0.815,-0.512491968630788,0.0981764472233959,0.853034689522379,0.0584658561825431,-0.0107732553639545,0.0169664077563012,-0.987379630488804,0.0977697953587281,-0.0947606909601559,0.00222274380248902,0.00785087748033835,0.0646074980353174,-0.973992364748101,-0.105049818651365,0.175378073244498,-0.00129993272710755,0.0643210943774973,-0.0105124935084198,-0.991445251866183,-0.00178626356920041,-0.0829898549735951,0.103981765117202,0.0394469850469626,-0.0588141284636123
0.82,-0.512890966248852,0.0985049491369118,0.854064519618084,0.0575016159254186,-0.0118596174689986,0.0133346591455243,-0.988767512654591,0.0982472343683311,-0.0941177080637549,0.00298309877389255,0.00819545017501136,0.0640892204390869,-0.975379073963745,-0.105834623774266,0.177306975374447,-0.000506545714403429,0.0638311317477485,-0.00994290329409387,-0.993437246567217,-0.000632679706869794,-0.0919116819498386,0.101754930139961,0.0386583222196381,-0.0591522502163359
0.825,-0.513469541053832,0.0988626269650039,0.855496811736097,0.0559630175832612,-0.0126986109610045,0.00950100312479319,-0.990376216128618,0.0987560716685963,-0.093388324546554,0.0028992814036884,0.00842574078589902,0.0637065614923895,-0.976946649471564,-0.107010045778116,0.179722843137462,-0.000568856869909517,0.0634562454845771,-0.00957980244642326,-0.995448607924926,0.000973100546984731,-0.101339005773863,0.100478410050468,0.0360874526597463,-0.0605943180419209
0.83,-0.514233330964635,0.0992275568942833,0.857308411088603,0.0537187313799082,-0.0133460762583546,0.00546010345321509,-0.992186744864686,0.0992927611361429,-0.0925867635477381,0.00175390699897088,0.00851005883919643,0.0634797233070386,-0.978672838899034,-0.108571875547265,0.18260447544097,-0.00170433520616308,0.0632119273662743,-0.00945706011299247,-0.997393189689045,0.00309266848621113,-0.111072234699683,0.100315888575853,0.0316663637609328,-0.0633697178987766
0.835,-0.515170829846698,0.0995903778999852,0.859450553602405,0.0506455958944519,-0.0138582704979291,0.00120148035770335,-0.99415360355268,0.0998514564151968,-0.0917336263468842,-0.000654282072003638,0.0084210818118315,0.0634272498262048,-0.980516616735264,-0.110474266620915,0.18588427324522,-0.00411374955841855,0.0631125459277808,-0.00959932743463202,-0.999201535294089,0.00577468295303941,-0.120982971256367,0.101416389715448,0.0253639522890278,-0.067703192063982
0.84,-0.516255729657712,0.0999667290102695,0.86183909957533,0.0466493433353777,-0.0142962452983187,-0.00327094704096808,-0.996224168615464,0.100423928661189,-0.0908605880785017,-0.00448742147557993,0.00813957205204447,0.0635634086312697,-0.982435142190996,-0.112631670475066,0.189467666858328,-0.00795935391903517,0.0631689396102908,-0.0100267638685149,-1.00080538414683,0.00908975428229446,-0.130950887702019,0.103917670316243,0.017152682572001,-0.0738072003456359
0.845,-0.517454336251557,0.100386353027236,0.864352398244169,0.0416761540776277,-0.0147049461177329,-0.00793350756387323,-0.998360099960252,0.10101203319939,-0.0899980152485122,-0.00985338407083827,0.0076574315882746,0.0639002179959753,-0.984399929492661,-0.114946627499409,0.193259226359035,-0.0133495328904614,0.0633907883689981,-0.0107497621640314,-1.00211602973965,0.0131279818178399,-0.140749317815212,0.107932474664637,0.00702767828387484,-0.0818855672254945
0.85,-0.518722157910597,0.100886089710486,0.866848598969749,0.0357114570683242,-0.0150931724361152,-0.0127513878071249,-1.00052825530239,0.101629388800079,-0.0891661727946664,-0.0168026829210152,0.00697754264162033,0.0644495604401308,-0.986386497571228,-0.117321744761093,0.197155676108649,-0.0203347047911041,0.0637889256047956,-0.0117614823010648,-1.00303302522138,0.0179587120431993,-0.150070958626741,0.113525467662027,-0.00495392477909724,-0.0921281084440657
0.855,-0.519988153730649,0.101508208824394,0.869185066888033,0.0287796433213088,-0.0154300548550632,-0.0176788328167544,-1.00267452194298,0.102286559348693,-0.0883847648129829,-0.0253271877034887,0.00611360435482967,0.0652223922172606,-0.988349991606737,-0.119658268427482,0.201015772532759,-0.0289053348412759,0.0643746449800556,-0.013032927785879,-1.0034766400628,0.023575408321359,-0.158644214539289,0.120701808369376,-0.0186617987895491,-0.104696613232806
0.86,-0.521141887298971,0.102283845847573,0.871229103304698,0.0209603956168199,-0.015663850301271,-0.022650251002375,-1.00469813476488,0.102971432393621,-0.0877016325765133,-0.0353396904105221,0.00508449409860017,0.0662246408266195,-0.990202062812335,-0.12187477296714,0.204633383873059,-0.0389714280490479,0.0651557812178165,-0.0145187521812118,-1.00342304104163,0.0298274279717912,-0.166315721181964,0.129408600309579,-0.0339188841153308,-0.119691845751631
0.865,-0.522050866514001,0.103223434694701,0.872865431191227,0.012415318729028,-0.0157534957275559,-0.0275745498296649,-1.00648102602209,0.103655671911551,-0.0871812771324046,-0.0466392518533033,0.00390057005638777,0.0674523002195413,-0.991836468656396,-0.123927522931258,0.207788708430185,-0.0503283775479652,0.0661319633870709,-0.0161759328507405,-1.00288607672578,0.0364619137369075,-0.172978962304792,0.139537534114742,-0.0505434348428247,-0.137107258325781
0.87,-0.522594330517115,0.104334690606128,0.874002818325926,0.00337890724234875,-0.015665127705248,-0.0323482035398051,-1.00795170824792,0.10432092778699,-0.0868480980971747,-0.0589214396388765,0.00255629323791771,0.0688943511623385,-0.993183819708951,-0.125793388718028,0.21034153347256,-0.0626667030417775,0.0672973402657854,-0.0179678574496768,-1.00185838629428,0.0432415795087972,-0.178423409401475,0.150916594044144,-0.0683327510938225,-0.156832563290816
0.875,-0.52266846539149,0.105644441079937,0.874578219043166,-0.00587561364916904,-0.0153442323274059,-0.0368678470312811,-1.00906638457903,0.104957650869123,-0.0866721555062783,-0.07182382762346,0.0010372766382032,0.0705395660329562,-0.994193498562762,-0.127418379754701,0.212211414697737,-0.0756160628516429,0.0686471967779907,-0.0198455123057843,-1.0003169756513,0.0498982126036798,-0.182385219858985,0.163306568220674,-0.0870078233504455,-0.178687953347553
0.88,-0.522201901767161,0.107188301773248,0.87460178853549,-0.0150477693005352,-0.0147314726754398,-0.0410115543570461,-1.00974201329544,0.10557956688326,-0.0865693115195841,-0.0849491117900886,-0.000665437665919665,0.0723735328831536,-0.994780131488691,-0.128713430007664,0.213306782209162,-0.0887684513074466,0.0701750684727113,-0.0217333708143472,-0.998265950827048,0.0560288037065194,-0.184701734785868,0.176429171077709,-0.106227390434809,-0.202408549888688
0.885,-0.521203661161198,0.108974623923111,0.874217569329352,-0.0238692343807884,-0.0138254195998186,-0.0446494181148891,-1.00986640469375,0.106283714579871,-0.0863653521390773,-0.0979444334226096,-0.00254477506719995,0.0743706147470865,-0.994843348110021,-0.129632371364707,0.213558239815587,-0.101759243778437,0.0718632684975083,-0.0235327806579726,-0.995719725656389,0.061174008726444,-0.185255665128434,0.190001785694973,-0.125634317438985,-0.227625685000834
0.89,-0.519723582037383,0.110990820317953,0.87360780393989,-0.032214509020181,-0.0127228064167339,-0.0477116708602165,-1.00934929239702,0.10721600426577,-0.0858507427746335,-0.110634197434658,-0.00457976109366369,0.0764948918910364,-0.994313034042452,-0.130187764176242,0.212967092246949,-0.114401204244209,0.0736810548488851,-0.0251348102018957,-0.992685038378858,0.0649199483055567,-0.183863441898855,0.203736975284222,-0.144843921191245,-0.253901119761813
0.895,-0.517739939611669,0.113257579050232,0.872797870454644,-0.0400742357341183,-0.0115755944131513,-0.050193897117527,-1.00812790236594,0.108436222522509,-0.0849171100273973,-0.122986170498201,-0.00674687829492858,0.0787104984815915,-0.993142328599064,-0.130341936029059,0.211572280467128,-0.126651070619768,0.0755951627708409,-0.0264345940728308,-0.989188028675186,0.0668674264239633,-0.180322636756067,0.217315962860938,-0.163424903018577,-0.280750951471365
0.9,-0.515181256400593,0.115822166101297,0.87168667123065,-0.0474101324469646,-0.0105144658820447,-0.0520775005805598,-1.00613116933042,0.109908023231404,-0.0835507028841997,-0.134942046988074,-0.00902155615956082,0.080990624005724,-0.991272043166818,-0.129955599627021,0.209414063832125,-0.138441015346906,0.0775818779800461,-0.0273364434665955,-0.98526835116827,0.0665816385572236,-0.1744473680846,0.230370343698157,-0.180915185362611,-0.307633098112523
0.905,-0.512047385996509,0.118679282959952,0.870242943931946,-0.0541388419389652,-0.00966174392511054,-0.0533096405905784,-1.00324467611127,0.111608568514493,-0.0817220942195103,-0.146403163144386,-0.0113635803703368,0.0833157765119758,-0.988607549523812,-0.128873374825454,0.206535086167045,-0.149666041188989,0.0796257041450611,-0.0277506503095294,-0.980942622600736,0.063589495937137,-0.166006154452005,0.242483449250443,-0.196829675601324,-0.333939153958525
0.91,-0.508390934628701,0.121747470457718,0.868474821425951,-0.0602219898637445,-0.00920472788095943,-0.0538574264969166,-0.999319143358217,0.113511533675689,-0.07942391645315,-0.157336425081122,-0.0137095424185229,0.0856672017100071,-0.985027808507108,-0.126977877462387,0.202988072538992,-0.16029215135688,0.0817103801536801,-0.0276041485362086,-0.976210950095026,0.057416186487794,-0.154696025607419,0.253185123918944,-0.210651667507287,-0.358996865718155
0.915,-0.504193713278597,0.124920487486427,0.866208926389191,-0.0656262546826372,-0.0093823568354801,-0.0537024508893171,-0.99421452801805,0.115439813214452,-0.0768175274008481,-0.167721961712385,-0.0159849640211667,0.0880285866757259,-0.980413948696819,-0.124109820075034,0.198843144106828,-0.170306408451118,0.0838207702824739,-0.026870544768773,-0.971085456611114,0.0476467366577933,-0.140177571783335,0.261915860128483,-0.221834197585211,-0.382071783438121
0.92,-0.499369969875048,0.128077509408556,0.863058022964785,-0.0701543188343847,-0.0103906132860048,-0.0527490841368809,-0.987822484829042,0.117018363806758,-0.0742493333325919,-0.177351128766637,-0.0181097012872896,0.0903926633646066,-0.974663358559134,-0.119978195352827,0.194199602604581,-0.179517434154207,0.0859531957189612,-0.0255909099713008,-0.965583908584442,0.0339744607030129,-0.122106694730748,0.267991586700131,-0.229814432289397,-0.402371251809048
0.925,-0.493924928610466,0.130995364382397,0.858652903161189,-0.073359803538544,-0.0123373778994667,-0.0507614871662758,-0.980049821439052,0.117816888915568,-0.0721052484506837,-0.18572738586059,-0.0199782254390221,0.0927603917285403,-0.967689275360908,-0.114240072597056,0.189206267979797,-0.187459429881904,0.0881171025387815,-0.0238745005060425,-0.959704270033787,0.0162520271219887,-0.100166179897121,0.270604846191224,-0.234034026876926,-0.419065316100564
0.93,-0.48808603324185,0.133250532665992,0.85286406568729,-0.0746727798456506,-0.0153025918036598,-0.047439672890005,-0.970801472976152,0.117526133700384,-0.0706834038515813,-0.192207480332017,-0.021445395526881,0.0951323626263626,-0.959428153396708,-0.106712498509132,0.184081441971709,-0.193537963493863,0.0903232971658303,-0.0219204329621778,-0.953421602712372,-0.00544065058945717,-0.0741075834473403,0.268830105870192,-0.233968961320717,-0.431343049279396
0.935,-0.482261529226001,0.134256914289088,0.845771085178431,-0.073622886247212,-0.0194339172807222,-0.0425819340621128,-0.960001985039688,0.1159549187035,-0.0702250517099711,-0.196247401320398,-0.0223425754555854,0.0975006659038789,-0.949856998438643,-0.0974355978659503,0.179102400668542,-0.197280894476306,0.0925688496158477,-0.0200759875285235,-0.946707262206032,-0.0307830705492368,-0.0437698835823497,0.261599658428981,-0.229163973153235,-0.438488981098067
0.94,-0.476891215746954,0.133415998192159,0.837455739567464,-0.069917670326853,-0.0249721694823101,-0.0361382711445283,-0.947641024360559,0.11287497648267,-0.0710315659156942,-0.197487524611109,-0.0224930754429978,0.0998449430731514,-0.93900522398454,-0.0864951849943991,0.1745574767211,-0.198425666795419,0.0948297501362414,-0.0188702902050314,-0.939544700107883,-0.059284519858069,-0.00907980942981296,0.247692113301744,-0.219255690984362,-0.439929862411709
0.945,-0.472359152799006,0.130188600625864,0.82788765688806,-0.0633453551426273,-0.0321964085386863,-0.0281228018728347,-0.933795658049255,0.107952904173451,-0.0734902564523976,-0.195642454018685,-0.0216988085685714,0.102130027030222,-0.926953781024927,-0.0738919863593606,0.170700492314053,-0.196806905932998,0.0970612719308506,-0.0189816565009864,-0.93193021540841,-0.0903559366124379,0.0299306419761869,0.225781072379748,-0.203982296585025,-0.435236250505685
0.95,-0.468981351686968,0.12406276918691,0.81696762854691,-0.0536944402415691,-0.0413576206120675,-0.0185574209525972,-0.918626377795286,0.100820057978599,-0.0780019570727574,-0.190397294228777,-0.0197252603922687,0.104303589826057,-0.913829967386299,-0.0596281880834058,0.167735515166869,-0.192247157490455,0.0991993601605098,-0.0211792051200705,-0.923872629556933,-0.12333694766013,0.0730971969660913,0.194515745266826,-0.183183541989952,-0.424112739057203
0.955,-0.466954882954714,0.114582418367022,0.804568859561635,-0.0407468208077611,-0.0526309153265144,-0.00748846933308841,-0.902377649332571,0.0911008138744326,-0.0849413832325715,-0.181377831507305,-0.0163138306650361,0.106294261022821,-0.899799438431065,-0.0437977814712938,0.165797392759125,-0.184519188882594,0.101160871700619,-0.0262778187434305,-0.915409056824038,-0.15755250561056,0.120100843192893,0.152585599824801,-0.15678731512837,-0.406389543385528
0.96,-0.466273332463128,0.10145668570082,0.790545374704003,-0.0242184208739657,-0.0660648617384235,0.00505719606798921,-0.885384407073782,0.0783715351023414,-0.0946441094309784,-0.168072196951723,-0.0112003913439921,0.108007476308004,-0.88504956024571,-0.0265386071594603,0.164906607162303,-0.173256309103151,0.102843577617886,-0.0350740191088394,-0.90661734863425,-0.192428561320986,0.170461407764044,0.0987911926777643,-0.124781046850135,-0.381979336506588
0.965,-0.466722537269599,0.0846054666354473,0.774850994675235,-0.00365135587612594,-0.0815414356640984,0.0191841298006993,-0.868068113088368,0.0622260386532352,-0.107299964846048,-0.149711524046554,-0.00411840580630928,0.109316956248815,-0.869777313108914,-0.00804584265810272,0.1649524858515,-0.157817273418567,0.104124593928004,-0.0482331977825738,-0.897589584386897,-0.227550993317386,0.223592062693385,0.0321538531390395,-0.087159401440852,-0.350794567514369
0.97,-0.467936167798624,0.0641391027741911,0.757719690359912,0.0215713633848407,-0.0987954168447892,0.0351503465525412,-0.850928533524577,0.0424620105173246,-0.122783811570198,-0.125290097743665,0.00518792022473656,0.110056559045821,-0.854202069144811,0.0112891097835128,0.165712437073271,-0.137287951318915,0.104856336019945,-0.0661701226795858,-0.888406858648275,-0.262611655179242,0.278832366121376,-0.0479713124168606,-0.043832391487879,-0.312681777505676
0.975,-0.469373286175845,0.0404317655351943,0.739681498949381,0.0520898426750649,-0.117463450597291,0.0532776767776665,-0.834542903448507,0.0191995264805371,-0.140572925677054,-0.0937144962153894,0.0169252598628766,0.110018300163876,-0.838596996732875,0.0308842443123919,0.166830599016078,-0.110611978514801,0.104864521003715,-0.0889578525263419,-0.87919152637661,-0.2973294318554,0.335261665392504,-0.141794201885217,0.00545573262096244,-0.267396467052756
0.98,-0.47023024240273,0.0143201415175814,0.721442730645407,0.0884956672867653,-0.137089578391724,0.0739021632399052,-0.819564173528468,-0.00709608717356202,-0.159760664427159,-0.0538797490189549,0.0312158440603662,0.108957921542828,-0.823317569745398,0.0501387275160068,0.16776706267092,-0.0766502129160321,0.103954842022903,-0.116244460891036,-0.870182659687669,-0.331392867871731,0.39143740524876,-0.248961446352341,0.0611060462134829,-0.214590330858408
0.985,-0.469429255843985,-0.012705324622918,0.703829274216027,0.13135747477881,-0.157098283299824,0.0974078357719345,-0.806704062041899,-0.0355333422135849,-0.179069381015779,-0.00465325739999336,0.0480717822126513,0.106611694750234,-0.808821888086547,0.0684835674487288,0.167807523498375,-0.0341498235907229,0.101932641990678,-0.147170015585223,-0.86172548543279,-0.364384003366208,0.445401484697096,-0.368419832329811,0.123582996315785,-0.153808085265788
0.99,-0.465730730633174,-0.0383931377303305,0.687789933177751,0.181225427580278,-0.176784369685818,0.124249147861823,-0.796689053013286,-0.0646323248763427,-0.196857781773849,0.0550939034592739,0.0673574577481735,0.102730958653618,-0.795684716502395,0.0853113413554165,0.166124109832634,0.0182363596323267,0.0986372183932774,-0.180314643138852,-0.854216036097712,-0.395671783031528,0.494817228787416,-0.498329343734161,0.193364299722338,-0.0845237465251413
0.995,-0.457920634310901,-0.0597149639722003,0.674350681933978,0.238576617721743,-0.195331812846785,0.154928806968758,-0.790190690038185,-0.0922070284082471,-0.211197581313506,0.126369052677388,0.0887507985486391,0.0971330707919849,-0.784598142219533,0.099978185925279,0.161830503261596,0.0818360930987244,0.0939867617251416,-0.213701673129462,-0.84808861166881,-0.424317440445082,0.536943779238826,-0.63602389449063,0.270870826367537,-0.00622916104360427
1,-0.445038858734017,-0.0729934469177851,0.664501881199971,0.303738976106258,-0.211855049676825,0.189956862767769,-0.787761942445153,-0.115388850929833,-0.220068085119853,0.209901433550747,0.111727100952649,0.089761483644882,-0.776355133448975,0.111832961697079,0.154077043591841,0.157793455506581,0.0880268794329734,-0.244860942049453,-0.843794275314948,-0.449012234904399,0.568617930464366,-0.778004115522531,0.356309818697317,0.0814386250398
1.005,-0.426642908992667,-0.0742162136168745,0.659047504142478,0.376818513346045,-0.225444768302102,0.229793302734376,-0.78980899411527,-0.130818774533258,-0.221661855715842,0.305983017007151,0.135565981642584,0.0807520911884256,-0.771818024174002,0.120165951238244,0.142263819311615,0.246890361904584,0.0809806615586206,-0.270947894228896,-0.841683781671047,-0.468018700649643,0.586473091835754,-0.919991305741888,0.449503461601518,0.178536593895005
1.01,-0.403090508916791,-0.0595417312561694,0.658455975809262,0.457634497434216,-0.235199880590419,0.274777027150481,-0.796592345611627,-0.134992623912194,-0.214758969023261,0.414313556057434,0.159383350603544,0.070502783402674,-0.771877434200359,0.124120286143478,0.126297838345709,0.349362029036849,0.0732980950948021,-0.288909262606412,-0.841885149036128,-0.479152399005952,0.587248937104394,-1.05707309684483,0.549791886041124,0.284609430518301
1.015,-0.375749451705915,-0.0260068757253467,0.662753123002236,0.545649311831904,-0.240251202597611,0.325035648841934,-0.808248138786037,-0.124771585696201,-0.199127017281671,0.533852680747356,0.182191867001723,0.0597240700303846,-0.777406933033327,0.122667098894905,0.106717419505082,0.464707359542101,0.0656836385085054,-0.29571282303336,-0.844362325037852,-0.479957023197607,0.568003369167804,-1.18393206951886,0.655972577858962,0.398472628513102
1.02,-0.347036333145402,0.0276409392966749,0.671535704739895,0.639929252399088,-0.239784324420166,0.380383858626429,-0.824840374777032,-0.0980463869744178,-0.175827147666542,0.662763376429212,0.202981892593734,0.0494343827403228,-0.789204897851894,0.114675416361075,0.0847014041302994,0.591578865724751,0.0590702715642587,-0.288659090850591,-0.849093651634754,-0.468069277522117,0.526330385923464,-1.29511885981366,0.766193808248781,0.51808851695692
1.025,-0.320327190705825,0.100166182135679,0.684231704538966,0.739133705675907,-0.233082684564822,0.440222630216188,-0.846439955752646,-0.0543535065956216,-0.1472058685854,0.798453772324143,0.220815862522915,0.0408846626554756,-0.807920700895163,0.0989648702750402,0.0621472593838024,0.727767298942284,0.0545298572946256,-0.265730262779867,-0.856130039289398,-0.441499988372517,0.460692639392974,-1.38534881194478,0.877852056218371,0.640561624325672
1.03,-0.299716857893639,0.187330022915875,0.700474318779588,0.84136920847447,-0.219636698221601,0.503382386010688,-0.873195305417962,0.00469728218015193,-0.116567847151734,0.937497696280942,0.234924726219654,0.0354201166522461,-0.833973657322693,0.0743282034993973,0.0417785717284106,0.870071233723684,0.0531270978975107,-0.225919997113352,-0.86554971854598,-0.398749169723115,0.370706714840215,-1.44983326607836,0.9875926978079,0.762159629059731
1.035,-0.289440729929634,0.281887986782888,0.720251854970699,0.943945587263283,-0.199268164971003,0.567956080904151,-0.905349025846879,0.0751399800620216,-0.0877433151114954,1.07546256711076,0.244781980805791,0.0342914485052843,-0.867458859593363,0.0397182666449509,0.0270348272792072,1.01408657707905,0.055736315062393,-0.169514329086927,-0.877488424005048,-0.338982908657119,0.257255820934339,-1.48463805022831,1.09140143369854,0.878347318173988
1.04,-0.293096133405281,0.374222327365311,0.743930402649529,1.04330835156168,-0.172166694857991,0.631294726573465,-0.943160347740333,0.150741285746821,-0.064508870000124,1.20696019462828,0.250131718525557,0.0384388478568813,-0.908043146715591,-0.00542522766711698,0.0216568279502788,1.15423913168845,0.0628588710963689,-0.0982695971787124,-0.892206484143612,-0.262299612659851,0.122556222560277,-1.48701495846476,1.18474957205082,0.983924981369928
1.045,-0.313059113581682,0.453491815156212,0.772389666042595,1.13509356493048,-0.138909157744385,0.690138351666361,-0.98672436149586,0.223764144998407,-0.0497796071820359,1.32583415043191,0.250972638701149,0.048279026451693,-0.954880775912586,-0.0609406919059076,0.0290749987670634,1.28398036546107,0.0744702644276673,-0.0154113023571288,-0.910059648370132,-0.169904503613875,-0.0297391100514139,-1.45562787809854,1.26283462554877,1.07328858220652
1.05,-0.350092812930846,0.509186979697578,0.806918188250725,1.21412799072644,-0.100546490422319,0.740759330560136,-1.03573825691518,0.286181602818862,-0.0449344541081477,1.42525392952684,0.247517349310078,0.063531378172985,-1.00658214187568,-0.125809473114942,0.0517203338335949,1.39591589208696,0.0899230828416471,0.074587714877598,-0.931403888488241,-0.0641438697313865,-0.194570302939681,-1.39062375223803,1.32094963552813,1.14077514042992
1.055,-0.402988779456906,0.53295194429506,0.848587611740628,1.27458108992403,-0.0586097541781626,0.779196758376027,-1.08930042325763,0.330948188245765,-0.049619279319389,1.49795528910307,0.240121026379046,0.0831386386273773,-1.06126825136703,-0.19805575155031,0.0903978419539775,1.48209924879146,0.107955961652678,0.166415770125555,-0.95650234205749,0.0516054715854,-0.365772724649704,-1.29356645296426,1.35490927176143,1.18107853622819
1.06,-0.468474034733783,0.520265510645255,0.897567015421424,1.31046822713699,-0.0149172702144769,0.801659240824566,-1.1458031611357,0.353226723144544,-0.0619160067604489,1.53685469272029,0.229169500294359,0.105330772918394,-1.1167175763009,-0.274781891008998,0.143901167361444,1.53471016714884,0.126839946098618,0.254435907978419,-0.98538988464457,0.173194654855253,-0.536497174481573,-1.16728153601297,1.36143849225808,1.18968798945809
1.065,-0.54160310645052,0.471503451950821,0.952809896467609,1.31633776713809,0.0286925323444385,0.804977109159721,-1.20292609841008,0.351414348330846,-0.0787074815852065,1.5358261096424,0.214964671095994,0.127836285976858,-1.17054507050977,-0.352357343641513,0.208958409708692,1.54689782990997,0.144635630571355,0.333240477137154,-1.01767666891696,0.295943848015519,-0.699610741575905,-1.01563611325122,1.33850675338831,1.16328156678587
1.07,-0.616437619725178,0.392142558619232,1.01201449631822,1.2879424320047,0.0705562665396895,0.786982783715439,-1.25772727734886,0.327577317236999,-0.0962596133655903,1.49041301166428,0.197670330172372,0.148202645359126,-1.22033931611191,-0.426612385536476,0.280489453429617,1.51355618527086,0.159500470090086,0.398204825505241,-1.05239800845696,0.414692885815265,-0.848197377582297,-0.84325364622202,1.285581827354,1.1000727052854
1.075,-0.686750624474537,0.292083591201721,1.07175609786577,1.2228781090323,0.109294614846005,0.746819914976824,-1.3068792488732,0.287089766145484,-0.110957542346037,1.39849004197654,0.177348603953561,0.164167704515228,-1.26378484002915,-0.493064015813993,0.352185122935538,1.43204101442573,0.169981771130491,0.445980552623846,-1.08800396692092,0.523844871847356,-0.976162987579161,-0.655178029171085,1.20371088046854,1.00013783748058
1.08,-0.746698858451631,0.184180577304889,1.1278965833626,1.12112440612079,0.143864029946142,0.685159112460612,-1.34707673560177,0.237648307240986,-0.119943310692511,1.26081645459707,0.154048896826891,0.174018492223961,-1.29884730919013,-0.547367477902729,0.417410284333407,1.30276543549126,0.175238701906802,0.474821682625904,-1.12246960928829,0.617756876767583,-1.07866905347632,-0.456566574805678,1.0953978850323,0.865644417495686
1.085,-0.791480045825127,0.0822125871539945,1.17627880193796,0.985293191843334,0.173561685985549,0.604220359961402,-1.37549907364563,0.187977725729389,-0.121430995963008,1.08124848517086,0.127884541303476,0.176870412973593,-1.32398681578286,-0.585930921559387,0.47022373523086,1.12943542161337,0.17515371503921,0.484650815678633,-1.15348421649283,0.691426436211169,-1.15225404687923,-0.252501751979579,0.964359045909236,0.700831454723679
1.09,-0.81792736800481,-0.00128762668064188,1.21354115823974,0.820420655455528,0.197955018145649,0.507527319944173,-1.39015945219858,0.14647724056857,-0.114687033649918,0.86641558410793,0.0990794824355312,0.172802635798196,-1.33829132847586,-0.6064090378682,0.506194470231303,0.918725912481693,0.170316000259262,0.476874405096262,-1.1787186046766,0.741099579373543,-1.19479469769813,-0.0479111769875354,0.81523630957283,0.511703085864965
1.095,-0.824780958630009,-0.0568466843624876,1.23760181475875,0.633311876528603,0.21670196735802,0.399445264365088,-1.39008095560729,0.119808795283234,-0.0999676473401434,0.624883570306542,0.0680005222716783,0.162811992661896,-1.34146409001888,-0.607800793679325,0.522849483276954,0.679418172188256,0.161885115545711,0.454027041609895,-1.19615832177878,0.764538895506894,-1.2054902253853,0.152472621652137,0.653292088593489,0.30551636371497
1.1,-0.812427673056592,-0.0791351519210178,1.24740134246737,0.43187126566604,0.229425604669216,0.284786327389002,-1.37532716689732,0.111513994071851,-0.0786573861012622,0.366352120893302,0.0351787814932607,0.148613728730667,-1.33368540675965,-0.590108284797929,0.519771409510856,0.421550278366529,0.151377153065962,0.419348523000491,-1.2044231504522,0.760953990233927,-1.18487052278559,0.344141488973843,0.484073100114853,0.090228457636361
1.105,-0.782544675472677,-0.0673469466671335,1.2424553428504,0.224831719601871,0.235859220048794,0.168681654466532,-1.34693193461514,0.121375821363508,-0.0532552614179264,0.101389109808598,0.00130929092430089,0.132367320038032,-1.31549940711276,-0.554039838721005,0.498451136991097,0.156093954194053,0.140432036577575,0.376381810380465,-1.20294233136782,0.730917079034499,-1.13465302178119,0.522828680695086,0.313067719920706,-0.125971968572178
1.11,-0.738154550367415,-0.0251091604695132,1.22305318494318,0.0214773338625266,0.236084442558752,0.0564214617571719,-1.30674895469902,0.146027903772453,-0.0268183534417067,-0.158828813467316,-0.0327722927997879,0.116371430198883,-1.28782732823405,-0.501173671582613,0.461968262883881,-0.105366739183732,0.130597218351782,0.328608789594111,-1.19194178088562,0.676485890007209,-1.05746993735861,0.684534764789214,0.14545191973293,-0.335129647645493
1.115,-0.683715114670011,0.0401232048221179,1.19073330330707,-0.169177979864216,0.230526696351133,-0.0470472280770228,-1.25723042083768,0.180192049671879,-0.00225457952181243,-0.40344731160759,-0.0661213100924599,0.102737193078265,-1.25200024327016,-0.434269727569172,0.41450409582755,-0.351629345652508,0.123139320514546,0.279116391384136,-1.1723488407516,0.601254826692516,-0.956749726911163,0.82560387335476,-0.0140607468709345,-0.53006736031804
1.12,-0.62464425626012,0.118355904035345,1.14814465634811,-0.339472032249176,0.219748463698766,-0.137737735300871,-1.20119903410553,0.217720570253003,0.0179621896908164,-0.623193814768689,-0.0977303783466039,0.0930882682276275,-1.20971202440142,-0.357234945488821,0.36076320207911,-0.573184724928976,0.11890095017955,0.230321063299163,-1.1456857848136,0.510046686519575,-0.836769463447127,0.942858854195227,-0.161354202148826,-0.704891508286774
1.125,-0.566428724155028,0.198776981905443,1.09831857455826,-0.483802066566454,0.204333612236161,-0.212967173417702,-1.14166949041829,0.252356980990644,0.0317163912283066,-0.811202863151251,-0.126598542291172,0.0883700582582823,-1.16292223705206,-0.274660901366905,0.305430499080575,-0.763068009662532,0.118231574763872,0.183814645586319,-1.11390906350606,0.408354210290885,-0.702670950796585,1.03377555309869,-0.293052988492487,-0.855304322105806
1.13,-0.513863036220534,0.271390461550029,1.04408408524984,-0.598751691802201,0.184963741285897,-0.271364658788222,-1.08169149375095,0.278522289866575,0.0372486759506972,-0.963152640635623,-0.151794925505283,0.088809495190023,-1.1137599562255,-0.191260436753263,0.252704684938896,-0.916987352728563,0.121005231950193,0.140386151922223,-1.07919605597298,0.301804262715883,-0.560395019016599,1.09669557687313,-0.406647752719919,-0.978689223635891
1.135,-0.470640214571745,0.328280000297211,0.988016057812716,-0.682923707718344,0.162518193602959,-0.312740622176348,-1.02420216012644,0.292197805551135,0.0334148547444772,-1.07705731973747,-0.172507439296266,0.0939955482949482,-1.06446879047434,-0.111579691249267,0.205927911632919,-1.03308188602401,0.126704203380495,0.100184809881153,-1.04375207184218,0.195813714329447,-0.416476111681671,1.13105788743618,-0.500596416011254,-1.07403996091607
1.14,-0.439149416177264,0.364456281449933,0.932618262832596,-0.736780312861079,0.138058092295624,-0.337955833487078,-0.971905150926541,0.291588403195569,0.0200069202690419,-1.15309659409146,-0.188110236313781,0.103028807521131,-1.01736673505295,-0.0398988935947358,0.16735688758171,-1.11170165256465,0.134537824728762,0.0629301625117404,-1.00966025440758,0.0953766732211229,-0.277618106862023,1.13757339570678,-0.574359201843074,-1.14182076232826
1.145,-0.420343804695047,0.378224431244587,0.880330415334596,-0.762470196631098,0.112735884357982,-0.348764627890764,-0.927139452469971,0.277233641031898,-0.00211605612197635,-1.19345664580928,-0.198250820022732,0.114708600039171,-0.974719521780233,0.0200565199961227,0.138075605739383,-1.15519365752995,0.143576692901406,0.0281274560008307,-0.978752148687272,0.00479826776725188,-0.150186638741647,1.11828642887101,-0.628338586901029,-1.18377690951308
1.15,-0.413723032357734,0.371008358958396,0.833335900255558,-0.763489755671707,0.0877170448582104,-0.347568384477367,-0.891715428522665,0.251583292576279,-0.0311310424017366,-1.20197319117965,-0.202910656479205,0.127732408953265,-0.938512612847156,0.0655934859498278,0.118036267608519,-1.16749461485194,0.152886011534384,-0.00470626799964163,-0.952501879904022,-0.0726460032620937,-0.0397584868124678,1.07652978436577,-0.663764825744987,-1.20266722468223
1.155,-0.417532420465613,0.346687898925897,0.793374183452753,-0.744184783258922,0.0641339628439063,-0.337092824193581,-0.866766101015468,0.218312140440228,-0.0644995196264145,-1.1835715790092,-0.202414139225207,0.140873542836744,-0.910224353542065,0.0953797124226538,0.106232973210543,-1.15353498263446,0.161638257540652,-0.0358319258138992,-0.93195565543334,-0.134949861973384,0.0492866844471342,1.01677982881408,-0.682557616720104,-1.20192546996994
1.16,-0.429171143647945,0.310631481543188,0.76164632976288,-0.70924007052921,0.0430429179214067,-0.320076430448958,-0.852660061303041,0.181604746149483,-0.0992973599482782,-1.1436814761945,-0.197392842510032,0.153107930605974,-0.89067848514776,0.10947254101323,0.100985843573867,-1.11863827642129,0.169189145879079,-0.0651468729464925,-0.91768990941836,-0.181403778483546,0.114136959042863,0.944395556012691,-0.68715589960811,-1.18530699000479
1.165,-0.44567621785527,0.268680356179551,0.738765296734333,-0.663259938663665,0.0253684782332745,-0.299037960047973,-0.848991252781608,0.145500110971846,-0.132605665331616,-1.08774898732124,-0.188715978154346,0.16368185327408,-0.879988675772956,0.10913068909118,0.100287850163359,-1.06803986591276,0.175113197129688,-0.0921423471867097,-0.909794469482322,-0.212461778611107,0.153835488925506,0.865246084765695,-0.680310660055671,-1.15657357844313
1.17,-0.464160938954038,0.226291716675437,0.724726697502018,-0.610446776272379,0.0118457571488206,-0.276114310727722,-0.854646311887021,0.113351418181784,-0.161913589904668,-1.0208612493743,-0.177402162490247,0.17212964795223,-0.877587521967864,0.0965092226844463,0.102152663525474,-1.00653730806914,0.179205367087606,-0.115966171903123,-0.90788844088825,-0.229525318667828,0.169421110491948,0.785252722934874,-0.664847727608535,-1.11924377839721
1.175,-0.48217863080549,0.187890501620629,0.718941984366796,-0.554368927121372,0.00296940951711261,-0.252942311703946,-0.867938235709987,0.0874981303491913,-0.185413255310957,-0.947479107209091,-0.164525319151685,0.178253619066675,-0.882326444522828,0.0742990393887028,0.104883540712905,-0.938262242020879,0.181456531515195,-0.135573951875036,-0.911173134072483,-0.234703457237222,0.163842669161926,0.709887733187792,-0.643422100459768,-1.07641708136557
1.18,-0.497969087540236,0.156449257780021,0.720337386457339,-0.497873666870096,-0.00104857247802009,-0.230634955815016,-0.886790329436828,0.0691893158960081,-0.20210507656204,-0.871327666195161,-0.151119745575136,0.182073982375539,-0.892628257595407,0.0453929238386002,0.107207679383461,-0.866614797992186,0.18200726276698,-0.149916774744242,-0.918532733313373,-0.230591424858919,0.14155569265957,0.64372517294997,-0.618293920154004,-1.03066203123812
1.185,-0.510498749374762,0.133397969699996,0.727448536525844,-0.443128943142972,-0.000291449105969954,-0.209870301712202,-0.908967186462217,0.0586377297994718,-0.211790198546855,-0.79540867531696,-0.1380904049904,0.183763686398786,-0.906684317327801,0.0126824061967457,0.108304380206375,-0.794314560069528,0.181091143228391,-0.158103662726935,-0.928696708900937,-0.220020819862726,0.107774228365415,0.590148199529787,-0.591181907911785,-0.983952724876879
1.19,-0.519359867296697,0.118832775845864,0.738580868220465,-0.391642807306977,0.00491440660760042,-0.190980564991547,-0.932343858585552,0.0551708149819075,-0.214976008157284,-0.721971073533201,-0.126140435881476,0.183589733133403,-0.922694264017433,-0.0211266439465201,0.107794898369219,-0.723398795029412,0.178986576983879,-0.159511192044044,-0.940422444369951,-0.205724602750312,0.0676287868129311,0.551235947828225,-0.563251861641232,-0.937662098766799
1.195,-0.524664172728525,0.111860159663102,0.75213224557399,-0.34431339035977,0.0140744065134231,-0.174031336998686,-0.955146490357669,0.0575619568034508,-0.212625144679826,-0.65252636888683,-0.115739589892211,0.181862963920492,-0.939099274908767,-0.0538267765972008,0.105697038421859,-0.655252114099107,0.175978486161987,-0.153847541712728,-0.952630144852952,-0.189998220334602,0.0255447431445582,0.52781773908665,-0.535202754353868,-0.892636322676289
1.2,-0.526876096957301,0.111010194283022,0.766831801964393,-0.301616324368379,0.0265598087598255,-0.158948679581329,-0.976094045434887,0.0643704615682533,-0.20588888114756,-0.588043949682904,-0.10714731159657,0.178893867771996,-0.954735141564494,-0.0838891478934309,0.102336223554889,-0.590802152202989,0.172324947532164,-0.141181184360357,-0.964490647545644,-0.174472610453546,-0.0151661249912721,0.519671852683909,-0.507391965394923,-0.849338311831176
1.205,-0.526606284004041,0.114621605433871,0.781770023987093,-0.263744309483114,0.0416601197579834,-0.145606352062642,-0.994427128046516,0.0741454295528123,-0.195925170091313,-0.529104405824837,-0.100466320567914,0.174970189029789,-0.968882706043961,-0.110344280926587,0.0982568493220956,-0.530664298751108,0.16824298593404,-0.121939774429483,-0.975462537477725,-0.160040784168393,-0.0524860250417753,0.525776789762675,-0.480011238521825,-0.808020818126324
1.21,-0.524534296882805,0.121087777882072,0.796481213183178,-0.230700243617697,0.0586503077366722,-0.133876354032458,-1.00980513087035,0.0856520051895337,-0.183664731610055,-0.476008289034484,-0.0956910570681014,0.17035228157344,-0.981208427082397,-0.132625957851684,0.0941307303625303,-0.475239763266221,0.163910190048673,-0.0968889309283923,-0.985232991448031,-0.146972202653655,-0.085470667618233,0.544539900971947,-0.453275915421653,-0.768903006052955
1.215,-0.52135877045001,0.129034569010921,0.810969316773712,-0.20252992099086,0.076751892860929,-0.123726417119253,-1.02209667484959,0.0980489142349144,-0.169646649981475,-0.429067787713507,-0.0927390538938684,0.165266181606582,-0.991607062802209,-0.150428851311274,0.090630107679625,-0.424998190436422,0.159460246837935,-0.0671071152571496,-0.993602954082676,-0.135182271742462,-0.113750845498552,0.573981391460542,-0.427550753872259,-0.732312179116422
1.22,-0.517618487277312,0.137463338532636,0.825376964544886,-0.179497576031565,0.0950550693424955,-0.115270057536999,-1.03118108370102,0.110802138220216,-0.154147844854062,-0.388843341536567,-0.0914711532908783,0.159903544847275,-1.00002407093304,-0.163463707563683,0.0882963248623808,-0.38070786581695,0.154982623030455,-0.03396696703188,-1.00039322075747,-0.12453159312877,-0.137026347231139,0.611813687669188,-0.403397347856199,-0.698738186323758
1.225,-0.513532059297564,0.145778486042305,0.839545212224218,-0.161989355718455,0.112548468119521,-0.108697748633348,-1.03683746415202,0.123468839193601,-0.137450827028964,-0.356044068986184,-0.0917037713096528,0.154439182658584,-1.00632175606709,-0.171264007293686,0.0874313878277996,-0.343329747216162,0.150542844368182,0.000897019456358186,-1.00537603120665,-0.115094261175517,-0.154651365789935,0.655402280071751,-0.381528243540861,-0.668778358360033
1.23,-0.50899733424443,0.153699634149512,0.852806333391136,-0.150245877253486,0.128229393869392,-0.104147760758341,-1.03872479106035,0.135540000599023,-0.120035500870351,-0.33120248465219,-0.0932068232087437,0.14905135873372,-1.01020521502891,-0.173179455271641,0.0880101418975095,-0.313680404240202,0.146211219117384,0.0356791899704775,-1.00824149052828,-0.107386017508823,-0.165403942907049,0.701710969513389,-0.362643066906062,-0.64297612698065
1.235,-0.503726461821527,0.161101663414037,0.864048612117738,-0.144056584505183,0.141226248959847,-0.101562466748829,-1.03645068059078,0.146377477716147,-0.102642859523647,-0.314287353336723,-0.0956814900405271,0.143928365626385,-1.01122896024907,-0.168550236090674,0.0896580271204441,-0.292024421678935,0.142082252801596,0.0685785383722385,-1.00862419971096,-0.102443005311523,-0.167559584334275,0.747346058716188,-0.347177714871116,-0.621577312434966
1.24,-0.497457420365489,0.167834991474326,0.872006881067593,-0.142568573479078,0.15089129650437,-0.100591674320581,-1.02971317074867,0.155270648908132,-0.0861992612638488,-0.304446075946928,-0.098732541843924,0.139253664681575,-1.00890465274196,-0.15703729452354,0.091755103200184,-0.277790268749823,0.13827197322068,0.0980209408660317,-1.00618011647332,-0.101598736684133,-0.159285994087429,0.788746877140635,-0.3350538010401,-0.604294973949096
1.245,-0.490148880793857,0.17360396571647,0.875639280442848,-0.144326552187688,0.156831131775499,-0.100598373616356,-1.01846655866232,0.161565706175989,-0.0716709264598493,-0.300031448798447,-0.101866538816017,0.135176100729182,-1.00287915557757,-0.13894643887202,0.0936299356256291,-0.269572087587318,0.134893588343487,0.122837103441582,-1.00070142420671,-0.106033633401211,-0.139235562936047,0.822470879643444,-0.325534490508993,-0.590210782865737
1.25,-0.482058014099151,0.177933346552401,0.874374580602981,-0.147496388625407,0.158882872383854,-0.100753224535827,-1.00302717980845,0.164766125555846,-0.0599360363449136,-0.298861275075523,-0.104526431935721,0.131779338336202,-0.993082412503703,-0.115327626786884,0.0947170299516269,-0.265372395766589,0.132024449102166,0.142339881340048,-0.9922465838739,-0.116426218928042,-0.107095241684264,0.845480984615519,-0.317251626847911,-0.577851725586024
1.255,-0.473653036612835,0.180215878268345,0.868093752967756,-0.150148392188575,0.157076431624004,-0.100167090272706,-0.984071374424387,0.164535930319466,-0.051724874314967,-0.298552376986143,-0.106143043808881,0.129057937286856,-0.979771294398074,-0.0877762406624581,0.0946205663703093,-0.262928295034132,0.129675309317252,0.156317684554772,-0.981213063966819,-0.132876347419306,-0.0638440118690455,0.855398697199956,-0.308393296683058,-0.565363592526882
1.26,-0.465450738904162,0.179825401110696,0.856978973746029,-0.1504359705197,0.151645261312183,-0.0979936642915022,-0.962563152394791,0.160653496045226,-0.0476085739242268,-0.296725199460941,-0.106182662356646,0.126911842309486,-0.963499492804892,-0.05808974717789,0.0931427810822977,-0.259915325971922,0.127778813186943,0.164984761846932,-0.968284386111607,-0.154941612058726,-0.0116016214330681,0.850692204576663,-0.296971755953011,-0.550705055644875
1.265,-0.457943036816462,0.176260795704224,0.841527374391429,-0.146657564430118,0.143055311989931,-0.0934919963476546,-0.939642215104389,0.15307601347736,-0.0479066202606388,-0.291076650088943,-0.104185491398709,0.125164434830054,-0.94505253452835,-0.0280401009611155,0.0902947278304153,-0.254025188960729,0.126203352855392,0.168904344737772,-0.954274860533729,-0.181682033550824,0.0468304151083657,0.83074189108723,-0.281065959530163,-0.53185399662762
1.27,-0.451586193826363,0.169298236130588,0.822675119024468,-0.13737727623994,0.131939667526536,-0.0860988064871763,-0.916482266793989,0.14209143965596,-0.0525211319241532,-0.279546715577183,-0.0997955800850257,0.123587161647533,-0.925347259189499,0.000712416539524874,0.0862444068276059,-0.243141046823976,0.124771894160782,0.168892854663168,-0.939971130447999,-0.21179996343395,0.108496747640582,0.795782766692711,-0.2589758503503,-0.507007462993752
1.275,-0.446692016755652,0.159132786786029,0.801686121550161,-0.121605334000932,0.118959587434559,-0.0754859910838497,-0.894170612254923,0.128334198243319,-0.0609051896148088,-0.260576723153512,-0.092779595895626,0.121919623657248,-0.905325007471744,0.0267448184030595,0.0812256759861853,-0.2256051077581,0.123274751648481,0.165930417153705,-0.92605602136762,-0.243854617890937,0.170631422543724,0.746779017616764,-0.229288772682377,-0.474720571920756
1.28,-0.443249615862164,0.146451058082354,0.779782859717296,-0.0988413833947685,0.104739877082331,-0.0615279236803739,-0.873638735319581,0.112630389022869,-0.0722297080980036,-0.233205879098445,-0.0830392791022022,0.119894827069384,-0.885877138074569,0.0490768119750951,0.0754698910732424,-0.200324099975553,0.121489655126829,0.161083955956175,-0.913119571850988,-0.276418919030718,0.230687741675123,0.685271010215227,-0.190923477412081,-0.433970529669271
1.285,-0.440910697070177,0.132389447091964,0.757925969903622,-0.0689070647919985,0.0899242038841472,-0.0441991329885999,-0.855623037916655,0.0958974602430423,-0.0855499169381677,-0.196901069901997,-0.0706199825330169,0.117279523303038,-0.867803719805679,0.0672931825366458,0.0691753636506273,-0.166608815571622,0.119220326007539,0.155433613647858,-0.901665404047318,-0.308158418560143,0.286271991539851,0.613215188023117,-0.143216676468092,-0.384174934822642
1.29,-0.439228701624549,0.118407205253613,0.737015767721775,-0.0317619319670877,0.0752076437366248,-0.0235094592022896,-0.840655624120736,0.0792464669378998,-0.0997789160554855,-0.151356580128043,-0.0557011799992093,0.113918430619116,-0.851805939944174,0.0814016006439759,0.0625144242354073,-0.123983525333901,0.116339346832891,0.150020106934289,-0.892058484269058,-0.337853689137372,0.335237252139357,0.532841747930895,-0.0859971214929308,-0.325189801404513
1.295,-0.437903424398433,0.106139788011777,0.718175641345393,0.0124331288309004,0.0612271422011738,0.000453807561606082,-0.829100029262704,0.0641027864603999,-0.113600711751076,-0.0965956658206627,-0.0385740109741865,0.109757205495251,-0.838514828699665,0.0915262646269854,0.0556762099158396,-0.0722964291678835,0.112805330864433,0.145806857180001,-0.884504509449579,-0.364345448900596,0.375745805565614,0.446549618848113,-0.0195894725904303,-0.257317696349826
1.3,-0.436767204715372,0.0972802651372103,0.702608423028247,0.0631028520799676,0.0484224946696632,0.0274416591747454,-0.821221316066141,0.0520309010269872,-0.125642035920971,-0.0332516615370762,-0.0196316537344991,0.104846089024937,-0.828526294273112,0.0977977721167556,0.0489224944102153,-0.0120102362953647,0.108657939046094,0.143619928566375,-0.879117026422626,-0.38646294947803,0.406119509866838,0.356829074598976,0.0551797138770648,-0.181342489163271
