Header,foot_Accel_X,foot_Accel_Y,foot_Accel_Z,foot_Gyro_X,foot_Gyro_Y,foot_Gyro_Z,shank_Accel_X,shank_Accel_Y,shank_Accel_Z,shank_Gyro_X,shank_Gyro_Y,shank_Gyro_Z,thigh_Accel_X,thigh_Accel_Y,thigh_Accel_Z,thigh_Gyro_X,thigh_Gyro_Y,thigh_Gyro_Z,trunk_Accel_X,trunk_Accel_Y,trunk_Accel_Z,trunk_Gyro_X,trunk_Gyro_Y,trunk_Gyro_Z
45.615,-0.509544545027536,0.208630658182993,0.797231828210138,0.290797850255936,0.132881320291421,0.200998059388946,-0.825264030667909,0.339755865776876,-0.237193289676354,0.434907426888731,1.40025429941474,-0.0602972299577653,-0.968604733111441,-0.483491727209405,0.06198028079746,0.0946504159078267,-0.134538441967041,-0.859084455705681,-1.08491623278054,-0.291749624623349,-0.371516323231211,0.787931371283179,0.160439894566623,-0.414724071482801
45.62,-0.5158338648787,0.199186421758849,0.789846702301071,0.309544707363957,0.0975824435742802,0.184268619644097,-0.829081380467705,0.341026645503706,-0.23440896157958,0.433386237819529,1.30366653414626,-0.042752932931737,-0.976617459652466,-0.455797035308807,0.054920670110399,0.0991464820095167,-0.122762719044153,-0.943191419510802,-1.07524527309154,-0.231354653997549,-0.372123651910927,0.779623778864309,0.12891143765171,-0.383261431298439
45.625,-0.522669180172597,0.187830837585424,0.785748103380237,0.320011139334952,0.0660885154641596,0.167016267202466,-0.839483896721655,0.33815804645827,-0.233486710715881,0.426403710492516,1.21307044778538,-0.0277367925271305,-0.987364797463433,-0.425494076776233,0.0483294652164477,0.0973251697305706,-0.111957089535648,-1.02531984044193,-1.06709238167683,-0.168447453833273,-0.368833179705266,0.768094468634807,0.094414834960875,-0.363552420276473
45.63,-0.52947212553376,0.175221918019184,0.784615744251748,0.324373563394692,0.0391538423833844,0.150735060250043,-0.855433753862617,0.331726199098532,-0.234193257384482,0.416040861466172,1.1286414706208,-0.015346131251983,-1.0002844302313,-0.39421103743222,0.0422182205686681,0.0912239776150311,-0.102578476145117,-1.1047404252958,-1.06046603313651,-0.106018146822145,-0.361110657630561,0.754548132962475,0.0573309410659754,-0.355048742330943
45.635,-0.535777484918363,0.161875491199462,0.786043074754443,0.324591344847004,0.0173882395508014,0.136614514826472,-0.87575356032001,0.322367807492428,-0.236261708561226,0.404228998755007,1.05032879273196,-0.00561304343677926,-1.0147337398802,-0.363433981420873,0.0365507720716445,0.0827873564696825,-0.0950313374605739,-1.18072597748644,-1.05528932476545,-0.0469697256102153,-0.348574103800267,0.740363165119525,0.018319204540151,-0.356647354210661
45.64,-0.541241750016356,0.148271102238059,0.789566367902356,0.322359484011458,0.00122448285931309,0.125509262182941,-0.899170208363985,0.310817180671001,-0.239369227359443,0.392689292618068,0.977898782326406,0.0014871446167713,-1.03001137496516,-0.334438925295412,0.0312239713751292,0.0738024446513168,-0.0896451135839728,-1.25255829710856,-1.0514173138977,0.00605598725863628,-0.33105317014846,0.727038609703802,-0.0217153860718602,-0.366757429117516
45.645,-0.545641622785923,0.134942288163626,0.794687558510768,0.31908013314603,-0.00910838459204566,0.117937304664865,-0.924352046963298,0.297926659214477,-0.243130547647758,0.382877584466155,0.910977740013145,0.00603045744011166,-1.04538007693596,-0.308248323402666,0.0260630917993261,0.0658381298339772,-0.0866529663300003,-1.31954225179073,-1.04865470704267,0.0508320350572705,-0.308622964488523,0.716134399115395,-0.0616784103567668,-0.383399052301497
45.65,-0.54887726958193,0.122511324168708,0.800891937328369,0.315859471589064,-0.0136045096793678,0.114102126558706,-0.949949765720411,0.284662210668493,-0.247103993427632,0.37594522002982,0.849091231502663,0.00814358813880525,-1.06008707926611,-0.285587983195023,0.0208336547958777,0.0601985181324261,-0.0861734729188031,-1.38102794718622,-1.04676327910698,0.0856466989064876,-0.281604229519799,0.709201685228863,-0.100357174273509,-0.404324721753931
45.655,-0.550976215350699,0.111656988192011,0.807670410610751,0.313519032491483,-0.0124885667202637,0.113913599649294,-0.974649329421672,0.272066160113036,-0.250803132619419,0.372720479179007,0.791706110149208,0.00800743029347475,-1.07338663410056,-0.266847065038575,0.0152665106866863,0.0578960850134446,-0.0881965494683557,-1.43642785314061,-1.04546191167023,0.109351442491175,-0.250535985670743,0.707705971142062,-0.136491790301951,-0.427146437753637
45.66,-0.552055080577661,0.103070422251549,0.814532225859565,0.312611852786832,-0.00620966909930734,0.117007782219273,-0.997229556697411,0.261170937132331,-0.253727809451201,0.373705339245304,0.738274744987759,0.00585963294285369,-1.0845762639884,-0.252094511706783,0.00909903394506341,0.0596387106992307,-0.0925773782492248,-1.48522693509717,-1.0444448155792,0.121393159638282,-0.216151946389302,0.712952229688189,-0.168841537268067,-0.4494604162807
45.665,-0.552249568422738,0.0974179780289129,0.821001601067981,0.313451137576584,0.00458203176215577,0.122808137884233,-1.01662004165931,0.252881004704307,-0.255420092556942,0.37908156470891,0.688267492334382,0.00199016353615569,-1.09304672858276,-0.241148919930968,0.0021277388257802,0.0658230943341053,-0.0990433983981183,-1.52700583370502,-1.04341933873453,0.121837151457649,-0.179372861372826,0.726022474151505,-0.196258936489608,-0.468975675539831
45.67,-0.551690722634693,0.0952486557997198,0.826635856104008,0.316155644370194,0.0190779074941106,0.130625272256616,-1.03196633402237,0.247870666641521,-0.255518283671893,0.388733556864136,0.641191456067655,-0.00326936073888615,-1.09832900078958,-0.23361775598793,-0.00574640326885633,0.0765426540417682,-0.107214338648918,-1.56147855429546,-1.0421260757108,0.111352238986111,-0.14128430478946,0.747728384087595,-0.217772216564082,-0.483642232526789
45.675,-0.550537548937855,0.0968505376266972,0.831080971536604,0.320694354347476,0.0363618949735515,0.139734539445346,-1.04269502922488,0.246520258131981,-0.253785119053856,0.402292937148451,0.596612253815726,-0.00955929265225218,-1.10012804184352,-0.228891298288759,-0.0144928597642609,0.0916173171051614,-0.116630698522142,-1.58851799398066,-1.04032976663561,0.0911544752389407,-0.103087243366721,0.778576592611965,-0.232656551151786,-0.491762458955766
45.68,-0.548991126304852,0.102155636346681,0.834123561155438,0.32691578040447,0.0554598676568195,0.149411901655508,-1.0485519593458,0.248885436524528,-0.250120096972504,0.419193593451432,0.554183641226239,-0.0165090216843992,-1.09835077776069,-0.226190988214335,-0.0239449490586481,0.110635395811224,-0.12678731676357,-1.60815854317852,-1.03781883452293,0.0629188087310452,-0.0660315585314084,0.818749708811766,-0.240484403194871,-0.492077619892657
45.685,-0.547265382823235,0.110726959814572,0.835716506600138,0.334562977885852,0.0753850259588877,0.158954973167901,-1.04960253275863,0.254696955084461,-0.244570130828208,0.438721322623411,0.513663455860362,-0.0237582990617084,-1.09313137448207,-0.224714726152016,-0.0338063393839549,0.132992385856083,-0.137170074239305,-1.62059824071595,-1.03443232270195,0.0286570035824018,-0.0313249314621889,0.868096280862828,-0.241152685185907,-0.483826525880921
45.69,-0.545561088317658,0.121789347675814,0.835986864749373,0.343276703106251,0.0951750424289699,0.167696719624568,-1.04621162251455,0.26338961164002,-0.237326181413914,0.460051165739278,0.47490204896288,-0.0309809665766718,-1.0848331658005,-0.223758763143077,-0.0436720670753677,0.157920687328284,-0.147292847155687,-1.62621514401079,-1.03008047919352,-0.00941784035862643,-4.75469963112861e-05,0.92611760677799,-0.234879752531296,-0.46677169939466
45.695,-0.544055671525587,0.134316879076356,0.83520661834046,0.352597664852563,0.113924074700294,0.175011677726793,-1.03900960373265,0.27416189150619,-0.228692749430131,0.482284017674169,0.437823441060057,-0.0379069693763129,-1.07400940466227,-0.22272192517668,-0.0530734464323475,0.184522900317545,-0.15673121472036,-1.62557392715858,-1.02473879736545,-0.0490193403596184,0.0268774830486093,0.991974147422586,-0.222183328286615,-0.441193944699521
45.7,-0.542887104423579,0.147196748589588,0.833717982715536,0.36198799406671,0.130825077496817,0.180334863088277,-1.02882829405283,0.286075671789162,-0.219041204602011,0.5044993318075,0.402417099309013,-0.0443377625794752,-1.06133771786875,-0.221068719927439,-0.0615467686276765,0.211826458056463,-0.165149558278958,-1.61940014420645,-1.01843815387361,-0.087920129118409,0.0486928276236504,1.06454148119587,-0.203857362668639,-0.407854929133422
45.705,-0.542148613837296,0.15940731443082,0.83186632840566,0.370871850004274,0.145220251385601,0.183198162743927,-1.01660687198349,0.298190208410335,-0.208761260933229,0.525816602796285,0.368732901371336,-0.0501524890142459,-1.04755351397497,-0.218331461563498,-0.0687039235093051,0.238852051477156,-0.172317681765795,-1.60853378788674,-1.011260251866,-0.124085687414067,0.0648525344627544,1.14249431244323,-0.180940824128386,-0.367926148035415
45.71,-0.541909640777868,0.170143349631506,0.829975068282631,0.378675895074826,0.156633680322153,0.18325940987094,-1.0032915811111,0.309694671686232,-0.198218396510681,0.545442841973387,0.336872330538332,-0.0553048797803289,-1.03339100472951,-0.214136829890604,-0.074281716909717,0.264671477182739,-0.178113657851836,-1.59388052865216,-1.00332744478658,-0.155786047979208,0.0750916308693665,1.22437710226799,-0.154663171124828,-0.322893685368848
45.715,-0.542231862065699,0.178890279767276,0.828334562652689,0.384861837524604,0.164773158973178,0.180309206898736,-0.989751864880539,0.320002015714562,-0.187719305688103,0.562699770430338,0.30697560273821,-0.0598118727178343,-1.01953045460061,-0.208228288781009,-0.0781670946566225,0.288447099884557,-0.182513592460436,-1.57636730484509,-0.994789067268021,-0.181676829462516,0.0794771493465481,1.30865515639817,-0.126366999143262,-0.27445116019552
45.72,-0.543143003522242,0.185476122438577,0.827201533485822,0.388955028850645,0.169513836603291,0.174264309289754,-0.976735900728617,0.328794681587938,-0.177455668617343,0.5770390876675,0.279206020940031,-0.063736444005718,-1.00655151387841,-0.20046390599911,-0.0804064174920023,0.309460178474693,-0.185572769612417,-1.55690109570858,-0.98581017007021,-0.200848265215687,0.078413334946819,1.3937629418993,-0.0974199108470096,-0.224387470302592
45.725,-0.544634989548643,0.190061686969834,0.82674616748702,0.39057039782269,0.170878497759993,0.165159695824145,-0.964819438368644,0.336018783868266,-0.167515483891806,0.588051474915237,0.253737300710189,-0.0671683548140709,-0.994895231410804,-0.190785835750244,-0.0812007268922215,0.327132397803196,-0.187403020479512,-1.53632689232644,-0.976565367006916,-0.212847337777475,0.0725953620066222,1.47815675527942,-0.0691297338440485,-0.174474922682249
45.73,-0.546706896773559,0.193056797435688,0.826952621757085,0.389439108286324,0.169017939294072,0.153143355277796,-0.954343050282395,0.341830466515622,-0.157982928797657,0.595476497108829,0.230746478233103,-0.0702055715761924,-0.98484255222481,-0.179188972889715,-0.0808796957111704,0.34104645030296,-0.188150405328265,-1.51538694435941,-0.967235825802274,-0.217673755603046,0.0629377016229712,1.56036663450889,-0.0426746794033616,-0.126361470094653
45.735,-0.549331832665366,0.195052895601474,0.827647240213254,0.38543406534524,0.164194356455711,0.138474210827614,-0.945448856416593,0.346524217578026,-0.148921131637463,0.599214187760645,0.210409804861785,-0.0729385051129433,-0.976522313635151,-0.165714503306224,-0.0798430688830332,0.350965631080818,-0.187975843436957,-1.49468795647737,-0.957990987627016,-0.215720357496833,0.05052548531111,1.63903995160965,-0.019048649974825,-0.0814759337796768
45.74,-0.552394818567116,0.196758068622393,0.828595585268555,0.378574827358869,0.156773586463003,0.121525590814485,-0.938166163318928,0.350452029590653,-0.140302126073902,0.599316080291988,0.192899376273412,-0.0754399173169661,-0.969940385236651,-0.150459246201385,-0.0784818961398753,0.356830123374206,-0.187039006618995,-1.47467913865564,-0.948954668268298,-0.207664837498407,0.0365827413625469,1.71297282159707,0.00099276255038043,-0.0409678267795895
45.745,-0.555692853536958,0.198874744832761,0.829528962269199,0.369015758450697,0.147218683184124,0.102792418517715,-0.932438162468019,0.353921781972012,-0.13205025569916,0.59595875993963,0.17837938593714,-0.0777607926366346,-0.964995874047913,-0.133567346685729,-0.0771232854316204,0.358733597076,-0.185486699458422,-1.45563905490836,-0.940197326123804,-0.194393656704081,0.0223821614104619,1.78113552487282,0.0169819286277023,-0.00568414489003171
45.75,-0.558966566441941,0.201949299466553,0.830155992065778,0.35705805723907,0.136072352122961,0.0828921573353547,-0.928127613700321,0.357107037102051,-0.124122888410447,0.589452073248445,0.167002065523182,-0.0799290451149439,-0.961489153297621,-0.115218907629277,-0.0760124475140808,0.356932457359496,-0.183448923226768,-1.43767064378409,-0.931765178086068,-0.176966561359008,0.00910718207800865,1.84269836913194,0.0287539747936118,0.0238462041832778
45.755,-0.561963149853533,0.20624126228498,0.830224981605187,0.34316375121175,0.123927468064171,0.0625363839427758,-0.925047234367157,0.36003202904042,-0.116534710684504,0.580267085498952,0.158901557592275,-0.0819526239028933,-0.959164093405216,-0.0956699502728767,-0.075302787669196,0.351872057863029,-0.181041894568777,-1.4207135635187,-0.923699553245936,-0.156525120403899,-0.00223197825413782,1.89704710002106,0.0364244712306496,0.04742011257324
45.76,-0.564491594790758,0.211679341186902,0.829601933571524,0.327894801108375,0.111384261642136,0.0424519766273619,-0.923006982482265,0.362609122529422,-0.109332082171329,0.568994948923265,0.154181984893979,-0.083831443378536,-0.957767850150063,-0.0752963455560848,-0.0750443231725927,0.344141206399864,-0.178372975037673,-1.40458004303847,-0.916033079982839,-0.134154319167554,-0.0108323570605701,1.94377741196467,0.0403573497499465,0.0651265718105101
45.765,-0.566404866711762,0.217930136020036,0.828257793963933,0.311824227109113,0.0990072798892313,0.0232993438552351,-0.921851620854114,0.364623319792874,-0.10260306483526,0.556270831649729,0.152904446377089,-0.0855714327750724,-0.957073794830813,-0.0545417537388059,-0.0751764843756725,0.334391410276592,-0.175545466565406,-1.38899645168718,-0.908793310841917,-0.110807066808549,-0.0161568851164079,1.9826807858315,0.0411253175763913,0.0772824698794417
45.77,-0.567559632973001,0.224496770734602,0.826184007036524,0.295536126840618,0.0873134273202259,0.00566375194820955,-0.921477513478833,0.365683682732148,-0.0965313417123255,0.542781066092103,0.155082993223564,-0.0871902906022698,-0.956877893178785,-0.0338266765915831,-0.0755280922218059,0.323340286535655,-0.172664191355248,-1.37363190533239,-0.902016205099448,-0.0872903874211675,-0.0179967995231952,2.01373501567975,0.039448667544229,0.0843748401739551
45.775,-0.567847081109912,0.230768654527701,0.823385007888155,0.279678655250594,0.0767852352428831,-0.00990727903241033,-0.921831966432592,0.365282064219097,-0.0913888801316554,0.5293220496843,0.160687661931928,-0.0887182028687372,-0.957013000457419,-0.013556903153083,-0.0758430702265434,0.31182668635444,-0.169840299942083,-1.35812183236207,-0.895752588937595,-0.0642357167175629,-0.016481237439214,2.03709651647134,0.0361197627955778,0.0870074784317225
45.78,-0.567275254835223,0.236060584842735,0.819972147388836,0.264935378201003,0.0678652300044679,-0.0229157705808547,-0.922899788836085,0.362979565209144,-0.0874337780303386,0.516772852686028,0.169642769335562,-0.090203149333503,-0.957380184674595,0.0057812031276719,-0.0758373381165583,0.300778853241079,-0.167192953576615,-1.34210284712701,-0.890067242395557,-0.0420509787373131,-0.0120415509521834,2.05308735474113,0.0319297852181051,0.0858319576599623
45.785,-0.565995656034517,0.239723717902468,0.816212458124759,0.251887534190403,0.0609166273655781,-0.0329970676606048,-0.924682417166244,0.358566311221084,-0.0848155438546521,0.505946574522549,0.181815739055169,-0.0917188586690632,-0.957955827142869,0.0235923825305495,-0.0752554462292862,0.291061770332542,-0.164846178077346,-1.32525751530878,-0.885032607794076,-0.0209241250502457,-0.00534941772907037,2.0621754198124,0.0276050567742907,0.0814653269387391
45.79,-0.564236311211526,0.241296238071912,0.812445803867559,0.240900927354468,0.0561869589896823,-0.0399885688065363,-0.927174411113683,0.352062840786885,-0.0835822751612442,0.497454699669304,0.197007500129039,-0.0933623061082315,-0.958754406869804,0.0392805539633421,-0.073897228142372,0.283339767417727,-0.162919978232676,-1.30734516281305,-0.880716264276074,-0.000900777470260272,0.00276293840929497,2.06495253365148,0.0237590697266551,0.0744273868629661
45.795,-0.562218448127541,0.240587137708245,0.808965407688844,0.232141055625605,0.0538028093207366,-0.0439141061028381,-0.930346735928336,0.343631718257003,-0.0837388626900343,0.491698191332562,0.214956090763604,-0.0952378201880159,-0.959784858932416,0.0523741707864378,-0.0716217650892854,0.278067579601611,-0.161519217425596,-1.28820612200054,-0.877170389446075,0.0180320613558895,0.0113827732094405,2.06211197013358,0.0208599324638258,0.0651185885231564
45.8,-0.560103883316724,0.23767978112689,0.805939898970923,0.225649898781573,0.0537889897706689,-0.0449211424142498,-0.934142912264499,0.333514091680028,-0.085273455757216,0.488925490963816,0.235349028140116,-0.0974391502214041,-0.961032330131371,0.0625743103474477,-0.068352201712169,0.275548337135501,-0.16072438019785,-1.26775192295432,-0.874435322705005,0.0358786826957326,0.0196019345660287,2.05442612898028,0.0192111420646183,0.0538228819263918
45.805,-0.557973069175155,0.23287309592394,0.803372561873467,0.221423785451683,0.056113329474046,-0.0432079398219653,-0.938474303689772,0.321990982573303,-0.0881691338936621,0.489301607106313,0.257837812300273,-0.100036285150538,-0.962451422118746,0.0697465363782559,-0.0640870972075007,0.276002702915566,-0.160585676122119,-1.24594779086941,-0.872559874030103,0.0525626204516629,0.0265860762826751,2.04273208003338,0.0189505626659193,0.040731730021914
45.81,-0.555882801106211,0.226565519529084,0.801157486364501,0.219473853717895,0.0607358249634225,-0.0389707244075248,-0.943202268114521,0.309404220076214,-0.0924014893691292,0.4929735465382,0.282049624953626,-0.103069349746049,-0.963970058093116,0.0738457416145693,-0.0589117072159987,0.279633095250096,-0.161122493147504,-1.22280321157984,-0.871612822306575,0.0679127170980563,0.0315987229874817,2.02791602121846,0.0200512405165561,0.0259864360599371
45.815,-0.553976568059312,0.219179685295889,0.799228990316974,0.219799573743647,0.0676029438537691,-0.0324305845218741,-0.948131270498744,0.296246467772436,-0.0978930172327975,0.500047366027447,0.307589376034805,-0.106550052866157,-0.965512477940785,0.0748176791569965,-0.0529871667630082,0.286596849040979,-0.162325774018978,-1.19839195456181,-0.871641962183731,0.0817493423028186,0.0340645610954034,2.01087716241347,0.0223156222352963,0.00970354719004909
45.82,-0.552507606605585,0.211185207034381,0.797655455267337,0.222296829330517,0.0765886396207472,-0.0239033841917221,-0.953038342027563,0.283181228608089,-0.104461136178279,0.510478297564206,0.334040849878127,-0.110462727540088,-0.967021806915864,0.0726051173596214,-0.0465022879996113,0.296892492278477,-0.164156612178357,-1.17287615447681,-0.872599191585614,0.0939881925115052,0.0337018722703611,1.99247851994136,0.0254034279734457,-0.00803681581239934
45.825,-0.551735436384923,0.203131294567896,0.796595154998692,0.226699458177178,0.0874464919128896,-0.0138217384468705,-0.957711711217115,0.270936414027565,-0.111809263109153,0.523980757194943,0.360979323551938,-0.114761585164003,-0.968461693529401,0.0672448106457602,-0.0396312119871175,0.310268213533074,-0.166542803495035,-1.14650275041884,-0.87432107875884,0.104647990697191,0.0305827760535916,1.97350199541658,0.0289011024484923,-0.0272194788997366
45.83,-0.551792711327721,0.195623728607379,0.796163484025895,0.232589263163527,0.0998139757151308,-0.00269865432963117,-0.961961921540225,0.260151017709937,-0.119590287913956,0.540020560915474,0.387988009603842,-0.119369257905265,-0.969795830529056,0.0589360908915477,-0.0325331896867627,0.326213996940972,-0.169380085347996,-1.11958370955884,-0.876586812284711,0.11374053841803,0.02508786555258,1.95461414112476,0.0323845733749333,-0.0478995503322196
45.835,-0.552631207916032,0.189248043984278,0.796337210036476,0.239486199423109,0.113263260866691,0.00894769658782115,-0.965613998866336,0.251255675454782,-0.127510527291061,0.557915860399971,0.414667396626446,-0.124177141084041,-0.97096552002562,0.0480357027463221,-0.0253640595265468,0.344063274305521,-0.172537792595074,-1.09247705027957,-0.879177621619652,0.121166240008427,0.0178458164450327,1.93634802512578,0.0354607824585268,-0.0701620562017874
45.84,-0.554084119437303,0.184459876051041,0.796990503984739,0.246964892059062,0.127351571452391,0.0206671546814473,-0.968503197474067,0.244464847306975,-0.135363799106332,0.57698234460559,0.44063918731096,-0.129049429163135,-0.971892200367825,0.0349984731078407,-0.0182821976753697,0.363138363791497,-0.175867358961573,-1.06557736721991,-0.881899643649543,0.126725206383044,0.00965207490057988,1.91908952784954,0.0377973690861202,-0.0940652536403745
45.845,-0.555970057203373,0.181511960811416,0.797989908245088,0.254685427784235,0.141636757997231,0.0320864099451818,-0.970482004356822,0.239859217386225,-0.142987548336898,0.596593285048736,0.465550667675122,-0.133835982416962,-0.972500846077455,0.0203019178027219,-0.0114549640699644,0.382809026303244,-0.179215094150525,-1.03931984122007,-0.884591113082762,0.130192886666623,0.00136477879397367,1.90305070101063,0.0391327159622006,-0.119603533333693
45.85,-0.55814555350727,0.18046850951786,0.799236558749549,0.262348124557216,0.15567529567737,0.0428733805076577,-0.971437760176485,0.23743760375641,-0.150246803917772,0.616155672063512,0.48908094897799,-0.138389474761343,-0.972738484307957,0.00438800830341895,-0.0050499144524167,0.402467165745424,-0.182436153454847,-1.01418419005921,-0.887119288346137,0.131386299051151,-0.00616285239974876,1.88824756235968,0.0392766757749582,-0.14669090996492
45.855,-0.560500279884796,0.181258769528933,0.800654081368875,0.269665594526736,0.169022996926145,0.0527227473746944,-0.971309161325791,0.237110346831018,-0.15706252113491,0.635094862077392,0.510946143084015,-0.142577999114486,-0.972577010435443,-0.0123649626843082,0.000781025548901955,0.421512459519938,-0.185404197081224,-0.990683989169464,-0.889374404626932,0.130210858319982,-0.0121344845145719,1.87450924469486,0.0381207687106943,-0.175158952533048
45.86,-0.562938583002947,0.183707271314708,0.802156757161987,0.276372563474279,0.181245478316528,0.0613648426616723,-0.970089697580964,0.238691585720181,-0.163429141464198,0.652877820868958,0.530902299717418,-0.146292599546747,-0.972005704089328,-0.0296444443090135,0.00589952420117247,0.439378997649884,-0.188016881562477,-0.969341058801465,-0.89127829025967,0.12667724069808,-0.0158916908249615,1.86151687515028,0.0356491807856751,-0.204761532530215
45.865,-0.56537238079055,0.187547629535378,0.803622631652288,0.282245209230844,0.191942357237266,0.0685713905772789,-0.967823024217538,0.241909058472433,-0.169412914420005,0.669053889204069,0.548748243370652,-0.149452753155003,-0.971023187414739,-0.0471964765753665,0.0101743704199828,0.455580635514888,-0.190199614885657,-0.950650418787982,-0.892797445141738,0.120892755685238,-0.0169890613906493,1.84885847812963,0.0319382197703553,-0.235177796752673
45.87,-0.56772227690854,0.192445531268237,0.804886992141134,0.287120700415053,0.200777803979868,0.0741580410672015,-0.964600379875713,0.246418640331518,-0.175144998848014,0.683297274892929,0.564328900986755,-0.152009752021629,-0.969636265814403,-0.0648169699838339,0.0134893360978018,0.469758256664091,-0.191907441409311,-0.935042410628196,-0.893945922934491,0.113049199364273,-0.0152233382182773,1.83609051442038,0.0271478439778106,-0.266017067645922
45.875,-0.569920437923664,0.198029868202429,0.805753406138329,0.290917856104059,0.207510365566538,0.0779899796128488,-0.960561360419005,0.251822232716017,-0.180808055324044,0.69544597826495,0.577538108071346,-0.153947253642099,-0.967866911859336,-0.0823365147187543,0.0157601269864771,0.481722760953189,-0.193124605895016,-0.92284970901735,-0.894782872478014,0.103408436828669,-0.010625174048774,1.82279541533029,0.0215087030011501,-0.296830802757432
45.88,-0.571917284935224,0.203925210024932,0.806019376745208,0.293653846794335,0.21201845122963,0.0799886720855209,-0.955895024908326,0.257694235400309,-0.186612793850805,0.705529623423914,0.588320597632348,-0.155279115369532,-0.965764183343357,-0.0996012096953929,0.0169527345764313,0.491485453880791,-0.193862029740765,-0.914285582465441,-0.895408706072899,0.0922821276841906,-0.00343251527869137,1.80862489731829,0.0153031008250004,-0.327131848060381
45.885,-0.573689075198849,0.209782858890238,0.80550908139726,0.295450319376394,0.214315824094365,0.0801361644994081,-0.950838442011654,0.263615138387865,-0.192766879185222,0.713776906598715,0.596673217085911,-0.156044820904456,-0.963415759658712,-0.116454886562197,0.017096905085004,0.499266278441433,-0.194152874952678,-0.909435729387285,-0.895959613234154,0.0800097120558573,0.00594319721408136,1.79332525236991,0.00883966514464752,-0.35642071478067
45.89,-0.575238953289269,0.215307417494462,0.804097633518398,0.296526737393218,0.214556695999542,0.0784740538472358,-0.945669165427732,0.269204796656852,-0.199443908135059,0.72060123956999,0.602645201109919,-0.156303168865397,-0.960952969873802,-0.132725634910373,0.0162883041571713,0.505478757071709,-0.194046675242338,-0.908262068720984,-0.896601192894519,0.0669350775038928,0.016952799038749,1.77674595498397,0.00242264457014594,-0.38421576533798
45.895,-0.576591721839582,0.220276264438897,0.80172383180575,0.29718403763798,0.21303268762361,0.075097025893256,-0.940689945809672,0.27414848161708,-0.206760601156381,0.7265704235478,0.606336863459785,-0.156125035278167,-0.958545585824584,-0.148221970200373,0.0146808853438349,0.510698010055606,-0.19360267217496,-0.910615465221408,-0.897518231906097,0.0533826003266339,0.028950570972796,1.758835319337,-0.00368141278493742,-0.410081714610738
45.9,-0.577786611210029,0.224549679134465,0.798397600303731,0.297783180436245,0.210160225902995,0.0701428531328855,-0.936207718822605,0.278212992281112,-0.214763260782201,0.732366451298413,0.60789613080708,-0.155585839919712,-0.956387066390055,-0.162738421293379,0.01247394725265,0.515618578027831,-0.192882780883902,-0.916253527689446,-0.898897805858834,0.039636740252633,0.0412450498972527,1.73962895062478,-0.00927348158750398,-0.43365306549276
45.905,-0.578870047839064,0.228072137992619,0.794201328375064,0.298721322016925,0.206456988718557,0.0637802455894132,-0.932509945317949,0.281253828574869,-0.223421477260193,0.73873976952275,0.607513597770384,-0.154758528614772,-0.954674087805153,-0.176062476552036,0.00989320482038626,0.521006925940428,-0.191944798572601,-0.924858747196115,-0.900910406880153,0.0259258893635926,0.0531545126561522,1.71923676305819,-0.0142421559958017,-0.454650681758536
45.91,-0.579889545521756,0.230865820980601,0.789280533785773,0.300407286988667,0.202509622280101,0.0561967071938598,-0.929841492047253,0.283213710497081,-0.232631451322291,0.746461939822899,0.605417617120232,-0.15370822625798,-0.953585162444769,-0.18797946615531,0.00716683172726227,0.527652667412358,-0.190836966159105,-0.936054441504963,-0.903695654872619,0.0124106531999777,0.0640553266303135,1.69782970164712,-0.0185724228257127,-0.472888725411735
45.915,-0.580888669362748,0.233014335857059,0.78382723413186,0.303239200010355,0.198937246036559,0.0475880525816233,-0.928384725313894,0.284110870721133,-0.242230443122591,0.756282377416566,0.601869887632878,-0.15248910328811,-0.953260603493823,-0.198280900757221,0.00450445770566717,0.536324044493295,-0.189594576983501,-0.949418900615262,-0.907351159771707,-0.000821089848219011,0.073419843799364,1.67562470409526,-0.0223452202827923,-0.488271091091784
45.92,-0.581901657258363,0.234639519473943,0.778063629358485,0.307587463195627,0.196352671618302,0.0381487881692196,-0.928244768331835,0.28401986138051,-0.252017201149963,0.768894601508874,0.597160238694741,-0.151142996010541,-0.953785207024438,-0.206780417848416,0.00208502549911,0.547733223504388,-0.188238366159151,-0.964498126391442,-0.911920596489924,-0.0137507276644001,0.0808501848477747,1.6528706833877,-0.025727957580013,-0.500779979846482
45.925,-0.582947468924516,0.235879749407478,0.772226392987831,0.313783945890561,0.195322790649275,0.0280628179852665,-0.929442855191347,0.283051227345115,-0.261771660844366,0.784913323328364,0.591599157267978,-0.149699106234243,-0.955177853822968,-0.213330854814478,5.19278522945256e-05,0.562512908541447,-0.186774147373184,-0.980817422414069,-0.917383753810477,-0.0264154771696958,0.0861063117192311,1.62983823600348,-0.0289551571493411,-0.510460664008606
45.93,-0.584025988701248,0.236874525046103,0.766553400850502,0.322116179821594,0.196333267019957,0.0174956818305308,-0.931915388845815,0.281332817810587,-0.271269278000582,0.804860988496583,0.585508557788125,-0.148174549476458,-0.957386348007556,-0.217832453053158,-0.00149035381326884,0.581202773242012,-0.185193563515232,-0.997892140039541,-0.923652058242423,-0.0388934808771115,0.0891235602115562,1.60681104988365,-0.0323015824405261,-0.517405793400617
45.935,-0.585121303012737,0.23775333517463,0.761277291861677,0.332823177500357,0.199755979239343,0.00659273155352669,-0.935514258139721,0.278994945101827,-0.280289038760411,0.82915784601245,0.579213742145015,-0.146576869449346,-0.960283720674033,-0.220229076394878,-0.00248140027684425,0.604239557268993,-0.18347705789471,-1.01523601639618,-0.930570958746,-0.0512989749335593,0.0900152604001906,1.58408055245453,-0.0360509800268415,-0.521737828051672
45.94,-0.586213229516041,0.238620187740232,0.756614771572333,0.346089129906368,0.205817388509759,-0.0045176849564176,-0.940017580303455,0.276164050616604,-0.288621013573304,0.85811071606205,0.573039118782901,-0.144908799905206,-0.963677583972616,-0.220495273480292,-0.00290440623305432,0.631945734897905,-0.181599372250051,-1.03236636818345,-0.937933211675248,-0.0637735209258017,0.0890426772648548,1.56194505553057,-0.0404655678435332,-0.523588147107863
45.945,-0.587289244364112,0.239538376098832,0.752748490358066,0.362035988286535,0.214582307924109,-0.0157307623670483,-0.945155277562455,0.272963779393761,-0.296075836992967,0.891907847666926,0.567306421084186,-0.143171890548607,-0.967336259390454,-0.218627900901103,-0.00277429887223743,0.664523948968558,-0.179534389615217,-1.04880924014265,-0.945499183754919,-0.0764601015959481,0.0865601580358228,1.54070351535392,-0.0457650991705139,-0.523080093715176
45.95,-0.588347424745336,0.240540142781857,0.749823465964289,0.380715889305077,0.225956840715389,-0.0269806521054634,-0.950632115714037,0.269517126736683,-0.30248765303395,0.930618966252319,0.562332343301543,-0.141367817969928,-0.971009629474981,-0.214661688426362,-0.0021248728368171,0.702056533847236,-0.177258156806607,-1.06410627947469,-0.953010549724392,-0.0894784612964393,0.0829872486422916,1.52064136921644,-0.0521146187300434,-0.520320967538351
45.955,-0.589392722780079,0.241656575051421,0.747956758991731,0.402098656364888,0.239693317596494,-0.0382404741388451,-0.956142255844775,0.265949707914884,-0.307708514183385,0.974181453550417,0.558424275136974,-0.139501171701485,-0.974439217930235,-0.208698561679439,-0.00100185415611641,0.744491531446226,-0.174753650654094,-1.07782130346352,-0.960198013973729,-0.102912361439694,0.0788098430639983,1.50202258148987,-0.0596092203510604,-0.515398571313388
45.96,-0.590437210014339,0.242929890299458,0.747233816793484,0.426053297449229,0.255397817544331,-0.049508330259796,-0.96138692282036,0.262397250690013,-0.311605043631704,1.02237168260732,0.555874597139874,-0.137583630922412,-0.977374705987892,-0.200915776838387,0.000544776930662223,0.791614206212449,-0.172017180667095,-1.08954632492838,-0.966795966121575,-0.116799536656972,0.0745482786942341,1.48508893488701,-0.0682567682941647,-0.508380988389942
45.965,-0.591505619338461,0.244401941268672,0.747693426784615,0.452330400646099,0.272553436586194,-0.0608044829226096,-0.966093672127699,0.259011196775376,-0.314062431544956,1.07478201844635,0.554955114179598,-0.135635274827189,-0.979594899627821,-0.191547442806161,0.00246784750798765,0.843024076756041,-0.169062215460934,-1.09890897361636,-0.972563350998845,-0.13112147109016,0.0706843168121237,1.47005154738364,-0.0779725724940844,-0.499321346339079
45.97,-0.592636079897913,0.246103278180736,0.749313811224474,0.480550488430547,0.290555557789376,-0.0721808267002135,-0.970031856270258,0.255951550916416,-0.314994462954337,1.13081152795071,0.555913250878191,-0.13368336603962,-0.980922082187224,-0.180858287200627,0.00472377530687816,0.898125353362021,-0.165920701605942,-1.10558035399716,-0.977300202089483,-0.145788412994959,0.0675991347318476,1.4570734328706,-0.0885896500497681,-0.488265009600798
45.975,-0.59385709716961,0.248058872264184,0.751970456612608,0.510205328986202,0.308756387311886,-0.0837275755269808,-0.973029970764534,0.253348445842791,-0.314377102296472,1.18967576635817,0.558970737273408,-0.131760523880395,-0.981231556459849,-0.169100296176899,0.00727750024719444,0.956136414856735,-0.162643335219765,-1.10928018483751,-0.980852972630004,-0.160618566319189,0.0655512134387705,1.44625206767343,-0.0998775252368509,-0.475258622417309
45.98,-0.595130659021957,0.250314850069684,0.755357635732038,0.540710945784873,0.326538375631933,-0.0955556509570549,-0.974990241585211,0.251220121178647,-0.312314434853759,1.25048534712576,0.564324739072284,-0.12989816675717,-0.980449221494383,-0.156451544994689,0.0101154879137897,1.01616852873866,-0.159294036633401,-1.10977483863059,-0.983109265921483,-0.175340749485919,0.0647059123288141,1.43760305724649,-0.111559538403184,-0.460361823705438
45.985,-0.59633637504215,0.252948679941569,0.759006625508504,0.571534493978896,0.343414670517392,-0.107727743028158,-0.975883060208809,0.249435750564586,-0.309051750129862,1.31241785437394,0.572149933650105,-0.128116194936448,-0.978533137265976,-0.1430264609115,0.0132413637420492,1.0773990360789,-0.155938929724588,-1.10686413937969,-0.984000655974526,-0.189642107900795,0.0651884529015068,1.43105236591325,-0.123313858220243,-0.443650911753331
45.99,-0.597374198818473,0.256024178486082,0.762480126789544,0.602268427770914,0.359079104474929,-0.120191682505498,-0.975729245175072,0.247829216487646,-0.304864735438814,1.37481404965784,0.58259853037289,-0.126424969175331,-0.975469956122646,-0.129001230234099,0.016651058507273,1.13916887538045,-0.152646732720397,-1.10036969544379,-0.983524302275229,-0.20321356650284,0.0670779931767411,1.42644829333094,-0.134766710798017,-0.425208701793591
45.995,-0.59824749704006,0.259556555245759,0.765498643624972,0.632544022110743,0.3733659157511,-0.132805496386979,-0.974604202693012,0.246313372933888,-0.299972072139702,1.43706136569753,0.5957968573063,-0.124841497619171,-0.971300483863837,-0.11468226968535,0.0203338533846559,1.2008655905543,-0.149504274576847,-1.09014278039955,-0.981752262581813,-0.215743289805923,0.0703654762828628,1.42357959161125,-0.145506731042883,-0.405121629647185
46,-0.598990068041017,0.263542112449451,0.76784312799185,0.661957471722299,0.386224318645306,-0.145388380344069,-0.972664353917547,0.244813450637952,-0.294595670990557,1.49849594534745,0.611840132682505,-0.12339533222028,-0.966140163673925,-0.100416298799265,0.0243066237280753,1.26182462863805,-0.146621655181172,-1.07607662494041,-0.978816170504276,-0.226899932921312,0.0749696952182441,1.42218196970844,-0.155108659714363,-0.383494995894452
46.005,-0.599596422439061,0.267978844709618,0.769303975562299,0.690135548563425,0.397759856163927,-0.157706602178312,-0.970157964411183,0.243191485166946,-0.289006728532947,1.55848887444806,0.630785174841763,-0.1221198088671,-0.960180581876255,-0.0865319009951317,0.0286257019102905,1.32141614767363,-0.144120976316961,-1.05810823315321,-0.974904567888914,-0.236354052452512,0.0807670244045486,1.42193934359847,-0.163145307994787,-0.360466644429373
46.01,-0.600087532070837,0.272828193269126,0.769828290764088,0.716777216057779,0.408244887153863,-0.169464176944708,-0.967408035401226,0.241336153440147,-0.283435636429106,1.61649871533527,0.652638686191072,-0.121049894373916,-0.95369067036758,-0.0734223495649149,0.0333581171737477,1.37909749123578,-0.142131439992747,-1.0362288783135,-0.970281622853192,-0.243806585466969,0.0875545919545314,1.42248886821801,-0.169208421124561,-0.336211423071347
46.015,-0.600586457814322,0.277974302274041,0.76963873979337,0.741562106650459,0.41805079167097,-0.180369095108545,-0.964785143223408,0.239277020394724,-0.277975244862197,1.6719468980992,0.677341729351793,-0.120233209749927,-0.947015068204694,-0.0616191294034534,0.0385459152767448,1.43428670057091,-0.140798624933376,-1.01051418669806,-0.965293684187219,-0.248996935194469,0.0949999728244271,1.42343037932225,-0.172956601019914,-0.310947027906802
46.02,-0.601267640477989,0.283243437296004,0.769122276458494,0.76402547705057,0.427565574604786,-0.190228718467392,-0.962684533478169,0.237135719018182,-0.272627731861272,1.72404985774849,0.704755996232973,-0.119742741248028,-0.940550591093306,-0.0517107970760714,0.044194891572659,1.48619228682999,-0.140294547719486,-0.981156433864199,-0.960332800554614,-0.2517018101639,0.1027075230655,1.42434189614973,-0.174172683801269,-0.284940028061202
46.025,-0.602227693288009,0.288450873903793,0.768598932039092,0.783571896803316,0.437183242380703,-0.198973238543863,-0.961513497338341,0.234951022928127,-0.267449406025915,1.77183838532879,0.734660028370813,-0.119675740673487,-0.934708389610795,-0.0441725314196362,0.0502908162538477,1.53383223620151,-0.140810394026755,-0.948468374614648,-0.955772485461484,-0.251723645044878,0.110388360544631,1.42480156642356,-0.17277843119515,-0.258504245193371
46.03,-0.603456980823898,0.293386588567961,0.768267167979838,0.799627083115702,0.447358898288151,-0.206601594468563,-0.961676771097247,0.232620656951745,-0.26258757083531,1.814367556575,0.766753311417177,-0.12014186186636,-0.929892896244622,-0.0393214580893891,0.0568042606744264,1.57624569333214,-0.142536035834011,-0.912859297039652,-0.951942951371581,-0.248882716540597,0.117910844225501,1.42441271852937,-0.168800910708746,-0.231994146979984
46.035,-0.60493556416471,0.297769684282297,0.768332295281121,0.811708447735772,0.458622719895313,-0.213170006624915,-0.963543214109504,0.230019103014178,-0.258185785788599,1.85082316863429,0.800657984005353,-0.121261945755337,-0.926496114867027,-0.0374115823192233,0.0636638631147486,1.612599480253,-0.145651901104172,-0.874826324486857,-0.949153327653776,-0.243043046326922,0.125185186490807,1.422830676005,-0.16236458375277,-0.205799388019349
46.04,-0.606664085352614,0.301283231044107,0.769010834127038,0.819376635274399,0.471530855504939,-0.218836359666096,-0.967408209631318,0.22703762415057,-0.254379877273709,1.88046549737162,0.835919885042596,-0.123177672741785,-0.924875388898629,-0.0386399537195826,0.0707400832391882,1.64212925959306,-0.150333931708744,-0.834968697506134,-0.947690138298946,-0.234150334256249,0.132109292197867,1.41979341766874,-0.15372767189295,-0.1803360617697
46.045,-0.608585152058156,0.303676299248692,0.770357628443558,0.822272767927233,0.486645091826584,-0.223839057582004,-0.973475459405862,0.223475623379028,-0.251425311435311,1.90268340889252,0.872017780475516,-0.126050657621441,-0.925317844510512,-0.0430206531219981,0.0778712895585983,1.66419170391152,-0.156748529906435,-0.793988106096793,-0.94777051587957,-0.222236407203989,0.138658191607758,1.41515240225369,-0.143302319610282,-0.156027501866757
46.05,-0.610568736155073,0.304815784933,0.772202680573197,0.820287913378983,0.50457265505394,-0.228397770793845,-0.981850645915579,0.219029749692831,-0.249725430535845,1.91722689207656,0.908381948109358,-0.130043168299306,-0.928023387435733,-0.0503341422315024,0.0849028982103223,1.67849761120606,-0.165031907008974,-0.752659717565828,-0.949502200226152,-0.207406183273302,0.144958656412128,1.40889682292972,-0.131626642371815,-0.133284962504466
46.055,-0.612516863300289,0.304661305732486,0.774301132017675,0.813662294065769,0.525981661305351,-0.23266325657473,-0.992528293771232,0.213462905529552,-0.249685827767972,1.92434464267908,0.944416762535264,-0.135297667816123,-0.933109513015299,-0.0602349384608141,0.0916984561026078,1.68525069510205,-0.175273733422276,-0.711797620198472,-0.952892156797874,-0.189859092537551,0.151227563661977,1.40116997272102,-0.119322953134792,-0.112501096338167
46.06,-0.614445008935381,0.303250929441231,0.776471653916791,0.802916455914157,0.551544365518337,-0.236758597638868,-1.0053765496792,0.20674490502778,-0.251588493779895,1.92468833001311,0.979521341714661,-0.141928514550944,-0.940615168689438,-0.0723721507375937,0.0981315678286898,1.68505155678719,-0.187516724459032,-0.672239031820175,-0.957881754960634,-0.16994014367327,0.157646296501197,1.39227117025216,-0.107084104152856,-0.0940460446244243
46.065,-0.616482038650936,0.30072485552216,0.778616159354889,0.788734305287371,0.581859273929442,-0.240827542419433,-1.02013084619036,0.199072657497885,-0.255568693460778,1.9191418757719,1.01310632220509,-0.150018521095135,-0.950496682353543,-0.0864397964381876,0.104082447562704,1.67872592613423,-0.201761392646785,-0.634842267454808,-0.964371395819546,-0.14817446914421,0.164275647958651,1.38263794454225,-0.0956808089019756,-0.0782538602354669
46.07,-0.618830525359746,0.297345904621517,0.780671302497311,0.771851708008066,0.617378761048808,-0.245061034141088,-1.03639991267446,0.190829465967026,-0.261636395488096,1.90865078537529,1.04460795314924,-0.159616985793438,-0.962620548218736,-0.102178496558953,0.109442051757172,1.66715330382086,-0.217969834868692,-0.600487653557482,-0.972222580196476,-0.125255809276841,0.171056229623528,1.37281728982728,-0.0859731508357561,-0.0654040776739072
46.075,-0.621696488241852,0.293509008127629,0.782507788763152,0.752984829119495,0.658370360130108,-0.249697977464977,-1.05369098932495,0.18250068048633,-0.269725581716385,1.89410469259611,1.0735034337983,-0.17073481973165,-0.976754935410401,-0.119328699598206,0.114128014102351,1.65115103645776,-0.236064087169789,-0.570063937440707,-0.98123094823142,-0.101970608634496,0.177947246765236,1.36342709799331,-0.0788933720613505,-0.0557043695395777
46.08,-0.62527861477997,0.28969251681961,0.783949060421079,0.732836207710281,0.704933996602152,-0.254995272079679,-1.07144854802188,0.174657467904687,-0.279663015691035,1.87632959373495,1.09933152708789,-0.183331447547133,-0.992578739733051,-0.137644290212826,0.11809168822905,1.63147280521641,-0.255915341349457,-0.544417432134597,-0.991105627029891,-0.0790822064948562,0.185088838178471,1.35510217158726,-0.0753503352132347,-0.0492822095657855
46.085,-0.629792333580065,0.28635380111993,0.784890102676966,0.712013542520346,0.756988665323367,-0.261259818852452,-1.08908989534429,0.167967452931385,-0.291085118125693,1.85596592730468,1.12171353077194,-0.197315234328732,-1.00969941556962,-0.156961941940822,0.121307087954971,1.60869505908253,-0.277340733675871,-0.524285910667373,-1.00149836875552,-0.0572788690508628,0.192789647508039,1.34843784053587,-0.076094003339661,-0.0461984935077199
46.09,-0.635323730158376,0.283936311990102,0.785148188565085,0.690917948538376,0.814250487010449,-0.26888986358328,-1.10603457655559,0.162976532308384,-0.303578830411599,1.83331363270362,1.14036765802638,-0.212556768584119,-1.02763591476623,-0.177076877643424,0.123783139652168,1.58306989753944,-0.300108582255482,-0.510242314199548,-1.01205542156431,-0.0372493891028513,0.201393962897846,1.34394776964981,-0.0816152256991569,-0.0464542325078637
46.095,-0.641687976453259,0.282973430138815,0.78424620608459,0.669910177922812,0.876337534666397,-0.278246898323241,-1.12173031059597,0.159911679150625,-0.316893725128401,1.80856625271793,1.1551188206314,-0.228875930080402,-1.04580896094289,-0.19757079939463,0.125581340975546,1.55476822699432,-0.323931098802693,-0.502634846372575,-1.02246331831885,-0.0197609900998699,0.211147502036435,1.34202650651577,-0.0920863890618685,-0.0499438955071607
46.1,-0.648614316634994,0.284034600809927,0.781656896365487,0.649539737556487,0.942890880147715,-0.28950414956677,-1.13567256230396,0.158904892963356,-0.330813438017219,1.78213096301511,1.16590516052948,-0.246017821878516,-1.06360605898654,-0.217968705684633,0.126776823516599,1.52420759031428,-0.348456624438377,-0.501538489701752,-1.03249693315127,-0.00560308007410984,0.222050567020109,1.34289688531059,-0.107337455221245,-0.056396562611272
46.105,-0.656032133772201,0.287512637150221,0.777233876133199,0.630425213292286,1.01352538067269,-0.302714050199875,-1.14741867784967,0.160310235756791,-0.344869791934756,1.75447206113605,1.17278061059939,-0.263668813950655,-1.08046515101476,-0.238016163987852,0.127392603215431,1.49189727882616,-0.373285029498611,-0.506747136095387,-1.04205970379139,0.00451172428906478,0.233738543767357,1.34655457862735,-0.126881562024932,-0.0653704900844824
46.11,-0.664056232782411,0.293517685740642,0.771213071912628,0.612927993272818,1.08769025314897,-0.318003465221465,-1.15661466260091,0.164613060153212,-0.358357905113279,1.72568661735832,1.17591690335571,-0.281505607515199,-1.09589695238037,-0.257662168680371,0.127406668868228,1.4580103547082,-0.397994680683053,-0.51779187343852,-1.05118290291911,0.00997072973450413,0.245532421990586,1.3527353256151,-0.149979964891243,-0.0762798270512406
46.115,-0.672702402319566,0.30197917784068,0.763811581505154,0.597038188051152,1.16465099874744,-0.335643753922137,-1.16304361370177,0.172014760858528,-0.370651407167006,1.69538127406508,1.17560154278229,-0.299225142327171,-1.10945712646622,-0.276803515111238,0.126861386594931,1.42225749607931,-0.422156975892354,-0.533952463209485,-1.05997134182333,0.0102582324445482,0.256712623946308,1.36090094004628,-0.175687945583793,-0.0884065887739616
46.12,-0.681736355394011,0.312755203394839,0.755010111363621,0.582605108173698,1.24364713668361,-0.35590621969918,-1.16666272955031,0.182204519202932,-0.381407149678573,1.66301048050955,1.17222405254577,-0.316531312152992,-1.12074151962758,-0.295138523451322,0.125949552214093,1.3842263960953,-0.445337578312513,-0.554251967780057,-1.0685500967742,0.00499198624011513,0.266776873218479,1.37024503592611,-0.202837530248543,-0.100897171855928
46.125,-0.690863283825022,0.325558544515973,0.744794533427273,0.569571848368087,1.32403224132642,-0.378917440433656,-1.16760179221286,0.194558983645136,-0.390442073376315,1.62821429136352,1.16625750229296,-0.333119316564184,-1.12944613887343,-0.312264578370066,0.124961699354311,1.34371839876148,-0.467105767091643,-0.577467160210064,-1.07707021150598,-0.00602506899970229,0.27542830893627,1.37974499983226,-0.230028406502313,-0.112779858350785
46.13,-0.699949626094933,0.339838535284647,0.733406241437931,0.557933166752147,1.40526236996549,-0.404703130580906,-1.16613849656878,0.208403277245926,-0.397568158073939,1.59079223270562,1.15824556456721,-0.348696788425992,-1.1354302443205,-0.327805815621339,0.124179832540542,1.30071185780782,-0.487061319903389,-0.602186982759707,-1.08572895609551,-0.0227725278570524,0.282455490796014,1.38826680577524,-0.255714723929663,-0.123018772018913
46.135,-0.709021295315266,0.354819673695545,0.72126174150701,0.547609540386411,1.48685047768184,-0.43329519996047,-1.16266516805588,0.223040964952778,-0.402630684337352,1.55056962965914,1.1487892896639,-0.363017569929117,-1.13871560971816,-0.341416848398238,0.123839043157085,1.25521292016335,-0.504864007481454,-0.626901162888564,-1.0947376857216,-0.044977052319298,0.28774163210084,1.39469713641711,-0.278344620116641,-0.130578910427354
46.14,-0.718176903266238,0.36964280274494,0.708768877456458,0.5384345863786,1.56837840883776,-0.464767981202097,-1.15764635330326,0.237721338191307,-0.405607551221386,1.50740525269883,1.13852838441227,-0.375897085062897,-1.13944752245511,-0.352757354445927,0.124138940046092,1.2072499026038,-0.520252468934322,-0.650083083175541,-1.10426251695376,-0.0720597558893902,0.291297504374052,1.39807042457318,-0.296472070609867,-0.134490245253442
46.145,-0.727538973029755,0.383501475069481,0.696235511522223,0.530205407744402,1.64953116769731,-0.499230607466349,-1.15157081442016,0.251695677245516,-0.406622668472996,1.46126330713885,1.12811982683927,-0.387211489629481,-1.13786210243015,-0.361531349670949,0.12524789123034,1.15693585046992,-0.533051579745327,-0.670257231211661,-1.11439228160365,-0.103112358217371,0.293185399061618,1.39766218763418,-0.308837532052302,-0.133916100220152
46.15,-0.737218598050178,0.395752219467355,0.683840810563781,0.522725166406306,1.73012622698981,-0.536804712010482,-1.14489676226937,0.264296402710312,-0.405910806113682,1.41224869290477,1.11821074008794,-0.396891514668161,-1.13424424019231,-0.367536843689764,0.127290287618968,1.10449749374736,-0.543171411784699,-0.686060032933098,-1.12512588819433,-0.136946925709092,0.2934446470039,1.39303352841789,-0.31443591051427,-0.128219224622186
46.155,-0.747294998872175,0.405971765006093,0.671633855416378,0.515845492818347,1.81012248416732,-0.577583696734692,-1.13799674793667,0.274968225730358,-0.4037979898629,1.36062998341756,1.10941391392725,-0.40491174908432,-1.12885868017873,-0.37063440113346,0.130328043271267,1.05029614827077,-0.550599639334879,-0.696277835165023,-1.13635666599885,-0.17221237598466,0.29210292537751,1.38404295060837,-0.312546961897557,-0.117004324185405
46.16,-0.757828805389214,0.413943177544097,0.659547749394829,0.509531449280961,1.88960321384338,-0.621593269957199,-1.13113329019306,0.283300392791017,-0.400681637304289,1.30690288748114,1.10230008129025,-0.411272108045722,-1.12191708408854,-0.370712194566757,0.134346209514604,0.9948934432815,-0.555389024156805,-0.699845202749135,-1.14788391650117,-0.207511365354276,0.289140198008298,1.37084736650801,-0.302718886188435,-0.100124304774331
46.165,-0.768895263871111,0.419611553571656,0.647435928404752,0.503898360373581,1.9687522653577,-0.668795180141145,-1.12446906207157,0.289105405609743,-0.396975363500394,1.25181564715121,1.09739222149985,-0.415980766149718,-1.11361230654371,-0.367739622948673,0.139243333576909,0.939079362681773,-0.557642907032718,-0.695843828734897,-1.15945814133179,-0.241476984475004,0.284365374364606,1.35387791953771,-0.284765022663927,-0.0776710026262803
46.17,-0.780607516209221,0.423057334671948,0.635124640110589,0.499179679999424,2.04782261836362,-0.719135683887938,-1.11808023259337,0.292453955703969,-0.393063410588428,1.19629326949093,1.09515240648856,-0.419046608906126,-1.10414140069843,-0.36180121559942,0.144835235733049,0.883797382199079,-0.557499778124533,-0.683525886108974,-1.17080409224833,-0.272846730177029,0.277406612077926,1.33377963004496,-0.258792051663478,-0.0499640397710582
46.175,-0.793112411341995,0.424483357924301,0.62244611418294,0.495684196111106,2.12709111300463,-0.772586942344512,-1.11197303146887,0.29360615577107,-0.389306786718653,1.14135401910924,1.09597616682415,-0.420473716175511,-1.09369164156209,-0.353061214956142,0.150889139482287,0.830062709522411,-0.55511746951373,-0.662327216717327,-1.18161692865266,-0.300541703666242,0.267850032463203,1.31134161749968,-0.225198087037186,-0.0175246214618165
46.18,-0.806574719350782,0.424189252531667,0.60925270465053,0.493782251017314,2.20681886538097,-0.829155448362261,-1.10611678487137,0.292915850521354,-0.386065386187314,1.08807189826651,1.10019244418918,-0.420253916907042,-1.08244073763011,-0.341747901185042,0.157174442782786,0.778928194478383,-0.550659746688218,-0.631863693614243,-1.19157679628877,-0.323716281049416,0.255342658650683,1.28743492471595,-0.18462970170142,0.0189641086564357
46.185,-0.821178389514641,0.422534545957633,0.59544586998739,0.493900350291025,2.28722504401928,-0.888874556944635,-1.10047567512807,0.290766146936666,-0.383705379029191,1.0375511595989,1.10805912941782,-0.418361262625001,-1.0705675951239,-0.328163650609997,0.163499017002216,0.731462509523004,-0.544287201451287,-0.591929556815222,-1.20037515039682,-0.341777220766553,0.239650074543657,1.26295456798726,-0.137933713052774,0.0586990249621678
46.19,-0.837159860244591,0.419890215990097,0.581047347654399,0.496509401031608,2.36845594676793,-0.951792875732212,-1.09502508573148,0.287537534364717,-0.382586495190515,0.990899566793134,1.11975997378673,-0.414749918659327,-1.05825148628624,-0.31269023884004,0.169720858383974,0.688727394140741,-0.5361525027167,-0.542489548557207,-1.20772864259118,-0.354382910495257,0.220745762408737,1.23876763100221,-0.0860919616461761,0.100801132511993
46.195,-0.854844140838102,0.416567990363633,0.566269401149113,0.50207928147664,2.45052627059244,-1.01797860484064,-1.08976309677461,0.283594021379629,-0.38304089793782,0.949174539929406,1.13540760300139,-0.409358992773804,-1.04568088433953,-0.295792813910305,0.175753687772458,0.651727692454787,-0.52639984325365,-0.483659884168969,-1.21340027133039,-0.36142964225201,0.198781375846816,1.21566776173914,-0.0301307060906295,0.144358840168048
46.2,-0.874606297861407,0.412786135486439,0.551485808267333,0.511009105400903,2.53325540598092,-1.08755069951466,-1.08472561196975,0.279254686072603,-0.385372246864773,0.913310460593327,1.15504366098708,-0.402121336057034,-1.03307373265177,-0.277996896167126,0.18158840567664,0.621340523538105,-0.515166867506386,-0.41570390782751,-1.2172315109839,-0.36303093250372,0.173869958461189,1.19433680898222,0.0289212718654319,0.188462848079121
46.205,-0.89677164409142,0.408723482707456,0.537183523466213,0.523606551293955,2.61624934819759,-1.16069374193977,-1.08000101105431,0.274782834660953,-0.389825325147996,0.884101492623315,1.17863010812931,-0.392962912681448,-1.02067476344144,-0.259846053065195,0.187302150746637,0.598298958204004,-0.502585575495477,-0.339049606451504,-1.21914043866737,-0.359464210581903,0.146024711252577,1.1753168302607,0.0899970384745181,0.232231885920195
46.21,-0.921619171408595,0.404555815957417,0.523989832542029,0.540086317150259,2.69889340922493,-1.23764563578027,-1.07570531053074,0.270433957045189,-0.396542443886533,0.862201818416864,1.2060447704836,-0.381797745750024,-1.00873268236025,-0.241889401116006,0.193023333815628,0.583195598192759,-0.488780979106919,-0.254287036616512,-1.21908882490785,-0.351085527948804,0.115373177464258,1.15899374961972,0.151994398091744,0.274826977214855
46.215,-0.949422969684437,0.400417826278217,0.512670430678559,0.560499991886226,2.7803044489376,-1.31870957169906,-1.071934957239,0.266481658371955,-0.405560501478287,0.848053696145089,1.23708945353137,-0.36853416732779,-0.99748428582358,-0.224671643571211,0.198894925161412,0.576415961862866,-0.473869004576581,-0.162131171458766,-1.21707237028778,-0.338297729609827,0.0822461245483774,1.14560251345523,0.213852313909588,0.315450353049012
46.22,-0.980332136076099,0.396406072561573,0.50403568336076,0.584664352584094,2.85929738325414,-1.40427155163166,-1.06875932446935,0.263155519127758,-0.41681070682963,0.841822854519045,1.27149605559763,-0.35308358008328,-0.987132900208466,-0.208671564954321,0.205078472775071,0.578077941439989,-0.457955688991901,-0.0633924471260852,-1.21312460631885,-0.321601748268228,0.047040740942802,1.13524913806943,0.274591917984388,0.35334817685872
46.225,-1.01425507622434,0.392634843099017,0.498825340776669,0.612195108756344,2.93441700260804,-1.49476046182962,-1.0662163582537,0.260581231409093,-0.430148271791315,0.843452661169867,1.30892365171978,-0.335354593698439,-0.977817823522982,-0.19422062656607,0.211767955952727,0.588089207600073,-0.44113854680168,0.0410321907317839,-1.20730341566795,-0.301629531559186,0.0101447848294682,1.12792757911161,0.333304602411892,0.387835572549293
46.23,-1.05090064279374,0.389253737253164,0.497700086901307,0.64259905301539,3.00398824119267,-1.59058904428837,-1.06429666522419,0.258828319511348,-0.445366505382548,0.85278042041575,1.34896189460562,-0.315235956899401,-0.969608599503696,-0.181488162423237,0.219163294159901,0.606268090082503,-0.423507019347958,0.150179037311073,-1.19968485520623,-0.279107143252502,-0.0280208505037701,1.12353964359453,0.389148091986589,0.41832496092298
46.235,-1.08984283277806,0.386425676545274,0.501313060885507,0.675306942257333,3.06613296821419,-1.69214179446241,-1.06293709957344,0.258000941065051,-0.462149434780409,0.869583441840116,1.39114354922755,-0.292587564708676,-0.962525872270883,-0.170561996189473,0.227417428447979,0.632394423569122,-0.405140529286631,0.263051299588967,-1.19037431400646,-0.254802397433553,-0.0669481056081566,1.1219307294576,0.441362631179652,0.444339700936394
46.24,-1.13051567299234,0.384308859482169,0.510323872720759,0.709635204142803,3.11877109394228,-1.7997837013583,-1.06201675758646,0.258250476884682,-0.480049448471574,0.893538417887032,1.43494897883099,-0.267247598882441,-0.9565588304097,-0.161534812999339,0.23661760371538,0.666172100017296,-0.386107188126107,0.378641784239701,-1.17951041271265,-0.229483092229902,-0.106033213545473,1.1229225385377,0.489294073808775,0.465518532020319
46.245,-1.17218516438503,0.383045525563343,0.52534793022919,0.744756020642961,3.15964182501427,-1.913847904484,-1.06136076985108,0.259723734815051,-0.498517819452228,0.924185056051001,1.47979919258887,-0.239042957181146,-0.951670538315476,-0.15451714892952,0.246808535048832,0.707195165127905,-0.366463617380982,0.495941753067748,-1.16725801592875,-0.203882565752478,-0.14461817064297,1.12633286088949,0.532410222719021,0.481613460835472
46.25,-1.21394695004194,0.382745870995631,0.546892678375283,0.779712925773464,3.18635210270218,-2.03461192398264,-1.06074769198897,0.262519695898423,-0.516946238158851,0.960937668283515,1.52504724693923,-0.207793373993347,-0.947800539191929,-0.149613896331263,0.25801611362263,0.754962061910032,-0.346254571922017,0.613947018082129,-1.15380164523781,-0.178683085254011,-0.182031980830141,1.13199045237402,0.57030539106363,0.492482796543202
46.255,-1.25473994323651,0.383481378859163,0.575314655665314,0.813466888319327,3.19644652676416,-2.16227594755918,-1.0599139927695,0.266672451518996,-0.534689195476209,1.00312370959012,1.56997059462974,-0.173311657311233,-0.944869027902837,-0.146917060249928,0.270250643340704,0.808916555131915,-0.325513210340329,0.731662349111767,-1.13934528067783,-0.15451298128819,-0.217613731689978,1.13974587787134,0.602698992396603,0.498084756523641
46.26,-1.29336806358442,0.38529479061673,0.610810803059356,0.844951656192511,3.1874854659925,-2.29693623018516,-1.05855670912802,0.272148434629635,-0.551067301459455,1.05002268877645,1.61376339974875,-0.135405705874001,-0.942781064476592,-0.146514538986063,0.28349307364709,0.868488059738482,-0.30426386122651,0.848103934392006,-1.12411896827509,-0.131949810598086,-0.250737990382966,1.14947699915646,0.629430735832584,0.498475466240692
46.265,-1.32853036694219,0.388212225283239,0.6534106793866,0.873124390087129,3.15711875801638,-2.43855067269938,-1.05633746312006,0.278846375150926,-0.565372115954259,1.10089132385192,1.65553018040397,-0.0938857199092461,-0.941431316571966,-0.148497959018706,0.297685838127813,0.933116580515633,-0.282527742260425,0.962301757011125,-1.10838236680867,-0.111517288522542,-0.280840735298973,1.16109171644262,0.650452277214978,0.493813209585316
46.27,-1.35885279204511,0.392260108595875,0.702930151165349,0.897023213647739,3.10316341048356,-2.58690313115927,-1.05289014288544,0.286593994801754,-0.576888626957838,1.15498607426767,1.69428129434407,-0.0485720154369853,-0.940708324081564,-0.152960173413297,0.312744920425507,1.00227369727599,-0.260329556371734,1.07330157697698,-1.0924122581594,-0.0936533143213085,-0.307421781031541,1.17452756742275,0.665816124108715,0.484361418323293
46.275,-1.38292611221775,0.397501019608971,0.758910944623785,0.915849245548901,3.02369771623272,-2.74156495319264,-1.04783012672926,0.295150542367506,-0.58492539482115,1.21159822296197,1.72893191991462,0.00070222922600216,-0.940496097858661,-0.159984284750755,0.328576108885957,1.07549575043709,-0.237703726371645,1.18017050558345,-1.07648066672972,-0.0786672984985389,-0.330030413411045,1.18974243714104,0.675674211253658,0.470482596170638
46.28,-1.3993718195931,0.404082298977459,0.82060024377432,0.929061225821167,2.91716093251897,-2.9018494222426,-1.04077383799692,0.304234812417996,-0.588842314323846,1.27009050383085,1.75830779390283,0.0540911770860851,-0.940685253136451,-0.169638689600726,0.345074771711624,1.15241761024764,-0.214700626283873,1.28200697413769,-1.06085810556468,-0.0667290451505795,-0.348332883791316,1.20669887902193,0.680283760473673,0.452626663148991
46.285,-1.40692831030666,0.412282392161697,0.886968693449314,0.9364498855908,2.78243883460185,-3.0667699971352,-1.03137047635322,0.31357507744928,-0.588072076022898,1.32990706683208,1.7811557803091,0.11173406444512,-0.941188612344587,-0.181979099410385,0.362110153639666,1.23277697384554,-0.191390292882097,1.3779412274244,-1.04583226027582,-0.0578800113999946,-0.362219301388663,1.22535832134858,0.679973178807908,0.431314561201229
46.29,-1.4044545258336,0.422517029323865,0.956691591946074,0.938178972370023,2.61893147138759,-3.23500550278412,-1.01926443289168,0.322925926011383,-0.582093201156071,1.39055004850269,1.79616143614366,0.173748069896788,-0.941929030210972,-0.197034797736531,0.379511895018171,1.31638322921061,-0.167860691363676,1.46713451224711,-1.03167601282381,-0.0520294531770436,-0.371714183927741,1.2456807974493,0.675091592517865,0.407116000272492
46.295,-1.39090876449407,0.43531029338234,1.02812264712997,0.934811581497286,2.42661196100776,-3.40485825713156,-1.00406467783626,0.332044763362346,-0.570407991213189,1.4515488261139,1.80198125959075,0.240217932594451,-0.942822004098941,-0.214785467693791,0.397080729248903,1.40307927882121,-0.144212712605743,1.54880477359395,-1.01858870314503,-0.0489266653921402,-0.376797696509249,1.26760835253171,0.666031791545338,0.380625509611162
46.3,-1.36544070815018,0.451266787666966,1.09933744610581,0.927332976158079,2.20608579497128,-3.57422070339221,-0.985442773396444,0.340688797886381,-0.55260583366101,1.51243918800015,1.79728149241575,0.311186302198985,-0.943793803813972,-0.2351481249689,0.414612685865569,1.49271304720119,-0.120553583901405,1.62226217012106,-1.00668945507113,-0.0481351538942934,-0.377446252197945,1.29103780948997,0.653284527033093,0.352429783802024
46.305,-1.32746759560008,0.471031147571733,1.1681988656829,0.917156714785266,1.95864393704523,-3.74057891966517,-0.963201293031882,0.348631218973762,-0.528411260698664,1.57274676722935,1.78077378811241,0.386646489314569,-0.944799463320827,-0.257953563071901,0.431897120943528,1.58511154986491,-0.0969871236985204,1.68692538148337,-0.996040418940631,-0.049063076036381,-0.373778986644919,1.31579901829711,0.637435601205123,0.323063243800514
46.31,-1.27668728856377,0.495243636321534,1.23242847266077,0.906097058798893,1.68628902626569,-3.90103629401656,-0.937276336448334,0.355660955165902,-0.497684985323563,1.63196584555686,1.75125652195463,0.46653164008178,-0.945812047366794,-0.282910790730239,0.448687177123484,1.68004760855685,-0.0736025554257421,1.7423295616603,-0.986656222420236,-0.0510586755860739,-0.366083350091309,1.34164300665169,0.619127967483555,0.292974114544416
46.315,-1.21309973501408,0.524486420973416,1.28969500410361,0.896304413848875,1.39173375958384,-4.05233459719206,-0.907763351018192,0.361564956136232,-0.460443817244616,1.68953218548414,1.70766561944831,0.55069529263245,-0.946810870694574,-0.309594274236515,0.464681946733308,1.77719720365777,-0.0504647187719462,1.78813811389368,-0.97850871789457,-0.0534974814721833,-0.354761050087092,1.36824237105138,0.599028011881333,0.262512888106584
46.32,-1.13702787348689,0.559199614640917,1.33771397622279,0.890174848601503,1.07838081381208,-4.1908856081619,-0.874944281686084,0.366107166247264,-0.416898226151495,1.74480125348223,1.64912668775831,0.638888238283538,-0.94777601635528,-0.337455341951085,0.479532559583327,1.87610021938624,-0.0276058650795427,1.82415504341702,-0.971529895009151,-0.0558271204569427,-0.340277568450727,1.39519896529005,0.577801416465851,0.231931688216706
46.325,-1.04916692845438,0.599556876587491,1.37427284372422,0.890242798434507,0.750274774863824,-4.31282979339355,-0.839231466369412,0.369008287313631,-0.367570788074781,1.79704381162392,1.57500477280361,0.73073801187081,-0.948677883958955,-0.365840948345707,0.492858837901487,1.97613801827839,-0.00502005673337047,1.85033618303391,-0.965611050117322,-0.0576010861831861,-0.323130731343964,1.42205346613124,0.556098433350876,0.201391043925522
46.33,-0.950671407568175,0.645290863590828,1.39705909107917,0.899063270524639,0.412019422579401,-4.41413110877328,-0.800941123591495,0.369925366801932,-0.31355827299756,1.84546403561977,1.484948515633,0.825735786210646,-0.949467626471056,-0.394023381990807,0.504273919677871,2.07653423472618,0.0173381346950975,1.86679637516386,-0.960606053182714,-0.058508073235669,-0.303835297007411,1.44829720334461,0.534542809324367,0.170976557787032
46.335,-0.842928944965568,0.695799551447475,1.40433618393123,0.919090061735033,0.068664326658801,-4.49071330278641,-0.760636449293656,0.368524756081655,-0.256059988573562,1.88923943108885,1.37892236238794,0.923235757705798,-0.950072901368431,-0.421240881430894,0.513409392851786,2.17638054897815,0.0395507415421463,1.87380892028625,-0.956340984566502,-0.0583944265579767,-0.282912831877688,1.47338611046298,0.513721054017483,0.140722015333762
46.34,-0.727348712668406,0.750371333901027,1.39582950956192,0.95254863692989,-0.274447167487029,-4.53862450998398,-0.719636940406036,0.364596630872342,-0.195783270688193,1.92757091856946,1.25722660461448,1.02246626609008,-0.950396010058507,-0.446740179964011,0.51993092754246,2.27467712795686,0.0617303125624606,1.87179838943507,-0.952628110549818,-0.0572879113477281,-0.260883323643768,1.49675979200825,0.494172100514232,0.110638379719228
46.345,-0.605683952689388,0.807958066187328,1.37206654572596,1.00130493493671,-0.611874462597312,-4.55421637839025,-0.679440294150903,0.35801791202489,-0.133619575897939,1.95973209596328,1.12050675284098,1.12254968562874,-0.950317035405987,-0.469820270888835,0.523553172453935,2.3703771886954,0.0840114118062196,1.86132839760635,-0.949281738168942,-0.0554064848286461,-0.238258518826418,1.51786863049392,0.47637653763531,0.0807483141462257
46.35,-0.480184134110281,0.867003139612539,1.3338676817158,1.06674205048443,-0.938306136500868,-4.53434107253649,-0.641230634010029,0.348723951068113,-0.0710578884595004,1.98511607815232,0.969748275826375,1.22253246854374,-0.949704385404766,-0.489876708847795,0.524061267876708,2.46243597231202,0.106540924689481,1.84308237946543,-0.946133087495497,-0.0531343629737278,-0.21553548335038,1.53620445209085,0.460744940317277,0.0511192678840331
46.355,-0.353417760330667,0.925588601946433,1.28266848979009,1.14965559245824,-1.24879579090646,-4.47656367520598,-0.606015522072129,0.336778600645004,-0.00981870608349882,2.00327651719044,0.806254037562239,1.32142544239115,-0.948428890745762,-0.506439028662471,0.521332197052249,2.54986232485334,0.129469148953696,1.81783603152084,-0.943041859085605,-0.0509728702594329,-0.193188592813256,1.55132802326773,0.447605570959799,0.0218875349792823
46.36,-0.228169710620316,0.981556667045615,1.22057845481039,1.25017454757958,-1.53898765869966,-4.37936974928788,-0.574643707011092,0.322404822242463,0.0483427329707773,2.01395541576536,0.631606237765728,1.41824991511721,-0.946378669454176,-0.519195693598978,0.515351052251966,2.63176519355615,0.152943418235161,1.78642316352392,-0.939904117405078,-0.0494781510613601,-0.171656361131425,1.56289058112016,0.437192705225954,-0.00673122654081648
46.365,-0.107357864427905,1.03261829203369,1.15026294650602,1.36771453963931,-1.8053092966163,-4.24234281625423,-0.54776143076347,0.305976887795918,0.101742702456871,2.0170929616718,0.447615324637753,1.51208383331203,-0.943474933444323,-0.528003452582359,0.506221918684471,2.70738872201125,0.177105054044915,1.7496977597374,-0.936657983303513,-0.049194203877381,-0.151321155962427,1.57064921662848,0.429637589146109,-0.0344476961341857
46.37,0.00607322709654191,1.07647209647429,1.07477908368536,1.50096847588703,-2.04511266415812,-4.06629210692068,-0.525794395807223,0.287990227042816,0.14887420153549,2.01281859446798,0.256258821209517,1.60210274605792,-0.939686283054621,-0.532878653582017,0.494171890154268,2.77613276082915,0.20208957110408,1.70849516182822,-0.933287612847762,-0.0505918823146508,-0.13248687254955,1.57447506760711,0.424963887264151,-0.0609204359378976
46.375,0.109278894888966,1.11092287840455,0.997378661295409,1.64793773706164,-2.25675165466559,-3.85331884579851,-0.508953509635155,0.269014627639918,0.188498625668317,2.00142733835275,0.0596137543721334,1.68761208380015,-0.935036427115669,-0.533972891543825,0.479545636531619,2.83755999358681,0.228028868475727,1.66359577312516,-0.929823705672256,-0.0540217205122224,-0.115365621903511,1.57435333549239,0.423088415689335,-0.0857889201819015
46.38,0.199652831609652,1.1339939857601,0.921293445429331,1.80600577137252,-2.43959011028483,-3.60681453904354,-0.497259705917306,0.24963721163592,0.219710745852541,1.98334952467664,-0.140213388818471,1.76806917040502,-0.929602524617885,-0.531539573343987,0.462787365946473,2.89139480812125,0.255052633882281,1.61569541802704,-0.926338785296486,-0.0596832938374556,-0.100081662284329,1.57037718051968,0.423826669977409,-0.108710873343356
46.385,0.274961926252901,1.14402697604332,0.849524982583859,1.97205269656851,-2.59394248541546,-3.33138674624899,-0.490580830288953,0.230401489093835,0.241966353773729,1.95912233691021,-0.341154308717649,1.84309401528148,-0.92350571528203,-0.525900307157761,0.444411809948499,2.93751906310971,0.283285441199134,1.56538640085949,-0.922937548892272,-0.0676125811361474,-0.0866901238994143,1.56274091155004,0.426901550332898,-0.129395507463402
46.39,0.333460080584963,1.13975789796793,0.784670627241955,2.14260512335449,-2.72095930027809,-3.03271235146006,-0.488668785386773,0.211751857331428,0.255072368142676,1.92936863519014,-0.541239562405903,1.91246893459008,-0.916897101394604,-0.517421650868119,0.424972785024474,2.97596766487998,0.312837468065457,1.51315100250117,-0.919742244000813,-0.0776840156525801,-0.0752013531672275,1.55173697276911,0.431954417007681,-0.147626450064156
46.395,0.37396880224499,1.1203647321497,0.728811225049367,2.31400964061678,-2.82248380432237,-2.71732972525755,-0.491190178597726,0.193994684708602,0.25915028653453,1.89478280780266,-0.738649535884713,1.97612866807265,-0.909943056884148,-0.506504244192477,0.405034311749945,3.00692332571089,0.343790572268441,1.45936574442522,-0.916874165629335,-0.0896203511050088,-0.0656047202301521,1.53775303385837,0.438560074878301,-0.163274127874616
46.4,0.395926276528605,1.08549293737058,0.683450092803675,2.48261571524458,-2.90090471314932,-2.39238646751004,-0.497757344680122,0.177276275078509,0.254584260635487,1.8561204451644,-0.931754140801271,2.03414301911556,-0.902814607565298,-0.493572514763901,0.385147162481675,3.03070828743461,0.376183105126044,1.4043138556435,-0.914439066810168,-0.103014376979342,-0.0578877406488538,1.52126275034059,0.446246576511172,-0.17629958777183
46.405,0.39941036394693,1.03526508057189,0.649480818925536,2.6449576870274,-2.95900682304288,-2.06535372098617,-0.50796258204079,0.161570717952575,0.24196174207298,1.81419242057839,-1.11914039036107,2.08669471453848,-0.895679701706514,-0.479052164317104,0.365836439876365,3.04777468814508,0.409994705450261,1.34820320258134,-0.912523944145963,-0.117371165890266,-0.0520560213688289,1.50281090339992,0.454516496683488,-0.186749236308363
46.41,0.385129662685677,0.970270683670978,0.627190450981594,2.7979256882715,-2.99981625054298,-1.74371918879617,-0.521404571943431,0.146682603097555,0.222016811942936,1.76986440864475,-1.29962710411349,2.13405569798168,-0.888693343465089,-0.463338773667823,0.347593781358782,3.05869581665533,0.445132058208822,1.29118414444743,-0.911202461266076,-0.132162642840796,-0.048157901323717,1.48299913213914,0.462857998078954,-0.194741944535903
46.415,0.354372382727198,0.891532386439943,0.616314426372238,2.93890871249756,-3.02645117944633,-1.43468095296697,-0.537699843142086,0.132276283919866,0.195581969907074,1.72405632491684,-1.47226710752347,2.17656288313339,-0.881992980140447,-0.446784193392095,0.330864718605174,3.06415439780441,0.481418837481785,1.23336230730148,-0.910535005890403,-0.14687224845525,-0.0462490462961777,1.46247436628351,0.47073981238608,-0.200452849219601
46.42,0.308913126825174,0.800451888655244,0.61613207497166,3.06589373429339,-3.04199413454037,-1.14487028410678,-0.556484287229394,0.117927847468657,0.163544812757352,1.67773388767222,-1.6363418139765,2.2145943509037,-0.875710340473744,-0.429716145124825,0.316037771501234,3.06492376921139,0.518594368359495,1.17480788482527,-0.910557003385365,-0.161009273519107,-0.0462644891540911,1.44189769550857,0.477626023321701,-0.20409598628372
46.425,0.250896657580309,0.698746027583591,0.625567405109497,3.17751407680537,-3.04938998130817,-0.88012316082708,-0.577414176510011,0.103179257350278,0.126811899248995,1.63188896761826,-1.79135310030068,2.24854786110861,-0.869985341691689,-0.412453581825026,0.303434016583274,3.06184169656799,0.556323409012194,1.11556282208853,-0.911276031309705,-0.1740959200838,-0.0479638861711365,1.42188121963096,0.483032940676197,-0.205911664216619
46.43,0.182712512139266,0.588378383396346,0.643283478370878,3.27304989341273,-3.0513572772633,-0.645301380927704,-0.600169865827613,0.0875814982932907,0.0862831085110444,1.58751262570892,-1.93700992961428,2.27882066961397,-0.864952886726825,-0.395286402395929,0.293280625873162,3.05577845978476,0.594213078835337,1.0556426877596,-0.912678731725361,-0.185677543082652,-0.0510260734987698,1.40293832242875,0.486568193882072,-0.20616649513674
46.435,0.106849387858852,0.471472733668721,0.667785452116426,3.35239455686319,-3.05031366324823,-0.444164442659186,-0.624450951073585,0.0707290651961238,0.0428197865161105,1.54557423895584,-2.07320486319628,2.30579092756217,-0.860706641635313,-0.378461184756004,0.285673989595095,3.04761002514319,0.631828286876796,0.995042044088825,-0.914716863713617,-0.195393339487881,-0.0550966091063918,1.38547014884752,0.487932635413742,-0.205146814282958
46.44,0.0257406135704067,0.350201363843668,0.697513938592214,3.41599983038079,-3.04833386493925,-0.279306426972838,-0.649957387067415,0.0522898921987141,-0.00279638242648371,1.50701561519973,-2.199982727085,2.3298038396992,-0.857283879717484,-0.362206521713318,0.280564615674837,3.03820682094293,0.668701405726893,0.933754177805595,-0.917294541847077,-0.203026749281535,-0.0597707200377076,1.36975071355991,0.486945661701134,-0.203118979804882
46.445,-0.0583563090462822,0.226677339733867,0.730904308048682,3.46479142122218,-3.04713205180729,-0.152164826592244,-0.676380355446193,0.0320355445231551,-0.0498778431498879,1.4727422521646,-2.31750930287115,2.35116116965972,-0.854691203781642,-0.346751659888485,0.277778228222846,3.02842228932465,0.704344480738261,0.871788819063133,-0.920297248011416,-0.20845034966732,-0.0646856306217412,1.35591480373504,0.483572975054101,-0.200290908908157
46.45,-0.143435863711559,0.102881177132208,0.766437150995258,3.50004626726016,-3.04804263101109,-0.0630921908186295,-0.703416322355003,0.00986561308023826,-0.0978115342533814,1.4435905720139,-2.42604320746372,2.37011108133089,-0.852925534886721,-0.332299543145455,0.277050550651476,3.01906092296516,0.738274051440633,0.809172193770914,-0.923620160758983,-0.211575200658967,-0.0696100970469981,1.3439822196664,0.477896484595542,-0.196823308639013
46.455,-0.22779640433719,-0.0193854486887775,0.802691561311957,3.52326035400288,-3.0520059505368,-0.0114696306942879,-0.730776798350168,-0.0141953207707204,-0.146049551059265,1.42028836618947,-2.52590630528802,2.38684165682853,-0.851954406079141,-0.318988191856625,0.278056780594603,3.01084199411184,0.770040701942559,0.745944270850959,-0.9271523101072,-0.21242575436619,-0.0743469917742103,1.33389180104321,0.470072938546615,-0.192854923692814
46.46,-0.31006861123088,-0.13854055060023,0.838371878190468,3.53604215746635,-3.05957600713224,0.0041604040303227,-0.758183405761644,-0.0400236095822373,-0.194122787540433,1.40343542822576,-2.61745093803824,2.40148199972745,-0.851698706766143,-0.306876811071144,0.28044387017677,3.00438312018014,0.799249355765484,0.682162996339864,-0.930761609986131,-0.211210576760459,-0.0786049919972044,1.32550685869904,0.460339125121719,-0.188491674155217
46.465,-0.389208610058408,-0.253252727726516,0.872305954627455,3.5400257378247,-3.07093725038026,-0.0140520751144471,-0.785373062249515,-0.0674146526044234,-0.241643840764056,1.39349539437521,-2.70103051263608,2.41410809831846,-0.852057544801375,-0.295945749538207,0.283863519163684,3.00019387199236,0.825572911567036,0.617901929898513,-0.934319570034946,-0.208249738314094,-0.0820350948468501,1.31860925236199,0.449024497189292,-0.183792699968708
46.47,-0.464459390251569,-0.362443860749211,0.90344472337236,3.53678855552677,-3.08591376873628,-0.0634218510549154,-0.812112620242958,-0.0960891771997423,-0.288289798709049,1.39078324484456,-2.77697841976477,2.42474904555209,-0.852938010856871,-0.286094009922472,0.28797873588254,2.99866430288563,0.848765371186621,0.553236370879743,-0.937737562257345,-0.203868603032615,-0.0843590641103322,1.31290969417249,0.436525370054759,-0.178791158396377
46.475,-0.535304639408588,-0.465266926604034,0.93088159907122,3.5277825194985,-3.10398168037173,-0.14087927600885,-0.838198591222483,-0.125700285403307,-0.333784492414958,1.39545579381061,-2.84559267890353,2.43339104913233,-0.85425226836787,-0.277144949740137,0.292435517345673,3.00005354852132,0.868668744112583,0.488228823841058,-0.940978434053559,-0.198384272882962,-0.085441613028872,1.30807060160427,0.423250633456207,-0.173520857057871
46.48,-0.601431299777867,-0.56107575265183,0.953876370935219,3.51428350810434,-3.12430699993405,-0.24310059787388,-0.863451516355885,-0.155845841824386,-0.377890337889945,1.40750804442434,-2.9071222057714,2.43997713250663,-0.855903393532394,-0.268874475544852,0.296842609286344,3.00448063737618,0.885211068268334,0.422923809181978,-0.944022011574357,-0.192131087122325,-0.0852321076688594,1.30372730244492,0.409572948153868,-0.168018199873093
46.485,-0.662672207422919,-0.649393672987757,0.971843301310546,3.49735528676416,-3.14579679390588,-0.366615513316973,-0.887732137160877,-0.18611159886064,-0.420407125643103,1.42677029593998,-2.9617548126387,2.44440530526556,-0.857780392662773,-0.261034952230123,0.300797090537759,3.01191706459516,0.89840111173725,0.357362211005748,-0.946813755835301,-0.185468484098566,-0.0836561646402916,1.2995038863993,0.395830406147439,-0.16231062512242
46.49,-0.718913061593143,-0.729888514993214,0.984308279749566,3.47783874122902,-3.16712538315584,-0.507875374057582,-0.910956574714784,-0.216147045199171,-0.461168035836624,1.4529215207026,-3.00960837887485,2.4465292456885,-0.859748656041432,-0.253344359226047,0.303914225924472,3.02219626589697,0.908313668200896,0.291612158089049,-0.949276207511981,-0.178805638293126,-0.0806633800797946,1.29503424971743,0.382357769007959,-0.156395212581012
46.495,-0.770034001346353,-0.802381899892089,0.990904223277546,3.4563634488555,-3.18674413010741,-0.663278576121681,-0.933082511399914,-0.245692846933259,-0.50001556542717,1.48552165562582,-3.05072480629069,2.44615646539911,-0.861656236182792,-0.245488401423203,0.305824564669311,3.03503675882404,0.915060136180987,0.225792602587915,-0.951359558125887,-0.172586551207683,-0.0763598035379188,1.28999435233057,0.369466099333341,-0.150198943265447
46.5,-0.815915565504672,-0.86686978586704,0.991425036752107,3.43332697072246,-3.20291368715901,-0.829214521426522,-0.954098353522388,-0.274537166805777,-0.536760460663553,1.52400835721633,-3.08506971391742,2.44303732374987,-0.863379213034135,-0.237166592549882,0.306186509176871,3.05003073744142,0.918770545612322,0.160080857705438,-0.953036281160563,-0.167176203937613,-0.0709749135845108,1.28413296644572,0.357397112237693,-0.143567353480201
46.505,-0.856419772407086,-0.923462856014456,0.985856024949376,3.40883931565098,-3.21375958938684,-1.00213337654947,-0.974022882041285,-0.302519330443516,-0.571173306797501,1.56764615474564,-3.1125404484758,2.43685219607678,-0.864835318035943,-0.228113045489882,0.304732524657791,3.06659343927328,0.919598298684612,0.094716981336982,-0.954275555384616,-0.162830277896523,-0.0647640237047784,1.27728841972178,0.346323318106652,-0.136307321327688
46.51,-0.891340489549763,-0.972292163593472,0.974342532130127,3.38272478374795,-3.21733386205326,-1.17854055012878,-0.99288622275233,-0.329597237663414,-0.603021641815768,1.61551066694506,-3.13297571038128,2.42720909093445,-0.865940730194559,-0.218077715445867,0.301297241289376,3.08394691761578,0.917710821618698,0.0300092054441556,-0.955062329687175,-0.159813529805825,-0.0580153786913118,1.26939095733353,0.336357159937338,-0.128201334446852
46.515,-0.920417475795724,-1.01351395738877,0.957164364045144,3.35457624211099,-3.21167827546179,-1.35493804488871,-1.0107135495127,-0.355842935358935,-0.632086665117048,1.66651680989787,-3.14616321358662,2.41364869999666,-0.866608168392146,-0.206833747212903,0.295821800545232,3.10114397385955,0.913261263431243,-0.0336653178936747,-0.95541274962659,-0.158404626682567,-0.0510573540181762,1.26045560194244,0.327539866766224,-0.118974379350525
46.52,-0.94339444695033,-1.04735574458621,0.934741590679175,3.32377238572575,-3.19488397451362,-1.52783246597133,-1.02752401806213,-0.381367680091941,-0.658147371938753,1.71941872662774,-3.15185209553115,2.39565090515536,-0.866790280592726,-0.194208074556698,0.288363852620178,3.11706964305908,0.906377021035003,-0.0958688672237112,-0.955359028616812,-0.158757884668399,-0.0442299639166307,1.25056963329236,0.319841074878973,-0.108303220001514
46.525,-0.960063821744117,-1.07410487467519,0.90764494500109,3.28947694522916,-3.16515406823649,-1.69378790342105,-1.04331171957316,-0.406277408263393,-0.680986359886443,1.7727909681607,-3.14977166357842,2.37264733135073,-0.86648355637318,-0.180103716109103,0.279095459547273,3.13042941711069,0.897163131046337,-0.156120947932284,-0.954940319688914,-0.1608650000091,-0.0378851853964152,1.23987275175143,0.313165318123758,-0.0958686439748073
46.53,-0.970315947674301,-1.0940848986799,0.876599162851631,3.25066571512418,-3.12089315520883,-1.84946864661232,-1.0580216985564,-0.430653726300751,-0.700420843967399,1.82502749798638,-3.13965091317223,2.34403994582209,-0.865709509969778,-0.164522075229087,0.268280880422287,3.13975424761783,0.885702170768202,-0.213921077494056,-0.954202507834679,-0.164622417946613,-0.0323575594681781,1.22852884727184,0.307355172366117,-0.0813878682930378
46.535,-0.97417962411303,-1.10765113782748,0.842451944748353,3.20616781260897,-3.06080752888779,-1.99168724773539,-1.07155941825028,-0.454540749923048,-0.716331482901451,1.87435197139012,-3.12123805830498,2.30922305110731,-0.864520414346845,-0.147577725566,0.256272029770499,3.14341627161114,0.872053703160183,-0.268771500136871,-0.953193572333478,-0.169865175543488,-0.0278802835763097,1.2167030392697,0.302209590106135,-0.0646288136596995
46.54,-0.971875631446588,-1.11521827549122,0.806051908163806,3.15471980639024,-2.9839726829691,-2.11745850005085,-1.08376661155146,-0.477953575515163,-0.72874186497013,1.91884524912366,-3.09432278602536,2.26761169823496,-0.863009178886934,-0.129488968230668,0.243522294364749,3.13966255249209,0.856254338555938,-0.320199375308062,-0.951962477819695,-0.176354913918508,-0.0245454903805031,1.20455627984173,0.297516397443463,-0.0454279265840392
46.545,-0.963862701886204,-1.11729795572133,0.768169510270992,3.09503643562702,-2.88986921050772,-2.22406156881731,-1.09440524027665,-0.500880804970998,-0.737872802863443,1.95649950732764,-3.05876021932429,2.21867706271861,-0.861303645042603,-0.110555164749155,0.230581942822961,3.12667474822475,0.838316464565611,-0.367783222584347,-0.950564628105493,-0.183760628885481,-0.0223436943431793,1.19224716516463,0.293074416011387,-0.0237136786752531
46.55,-0.950710398373655,-1.11443851505421,0.729705912596949,3.02588686437841,-2.77840793856939,-2.30912461219906,-1.10334545412982,-0.523248858227154,-0.74392885565301,1.98529240986394,-3.01449405499158,2.16198529096187,-0.859556252506413,-0.0911389918512506,0.218067412132626,3.10264724760018,0.818228372621452,-0.411184942626921,-0.949064928101999,-0.191657966778717,-0.0212052313814375,1.17992858685541,0.288696767737386,0.000467196203432857
46.555,-0.933027940381373,-1.10719964264488,0.69176982339521,2.94616782121731,-2.64994752134214,-2.37072649583809,-1.11064294815298,-0.544899435215237,-0.746985475417232,2.00327265683741,-2.96157818695984,2.09723515841465,-0.857937148310393,-0.0716564690967468,0.20661856870875,3.06587505736853,0.795957462417914,-0.450180871688207,-0.947534347270369,-0.199559875652939,-0.0209975150750478,1.16774237174634,0.284210241482605,0.0269288940377707
46.56,-0.91161741018496,-1.09626204559672,0.655403292254934,2.85496665940969,-2.50529992511499,-2.4075041664996,-1.11634401153044,-0.565616245365583,-0.747219396647777,2.0086487154138,-2.90019610680604,2.02429030955948,-0.856628224219662,-0.0525634553370086,0.196854520038159,3.01484332003783,0.771456914068499,-0.484685254911942,-0.946044986406857,-0.206961369221674,-0.0215135233761404,1.15581715276828,0.279462271027741,0.0553379860277639
46.565,-0.887490218587765,-1.0824339772817,0.621495516781508,2.75161323622128,-2.34571748911062,-2.41875294236274,-1.12044999237225,-0.58514327209813,-0.744966588983053,1.99987829860803,-2.83067621274446,1.94320456015327,-0.855812718333399,-0.0343279169758118,0.18933967410667,2.94831598975034,0.744674829658184,-0.514763698098302,-0.944667959008239,-0.213370889543924,-0.0224931846694036,1.14426906006849,0.274331634077185,0.0852178110925015
46.57,-0.861751321449822,-1.06655034652378,0.590850468990523,2.63573409104468,-2.17286340795124,-2.40449395440802,-1.12299613141821,-0.603199892629706,-0.740629652892126,1.9757648547525,-2.75350084174133,1.85424163861507,-0.855657865226992,-0.0173900271486528,0.18456543830108,2.86542972873252,0.71556317159363,-0.540638453158164,-0.943473103779453,-0.218321176156173,-0.0236770823979727,1.13319964789554,0.268731977785183,0.115961553927686
46.575,-0.835522605389111,-1.04938928481775,0.564171421853472,2.50732075222492,-1.98877383164005,-2.36548395030999,-1.1240565025684,-0.619518486834966,-0.734671641061872,1.93556260657188,-2.669307491666,1.75788951134685,-0.856296906153606,-0.00212196091812632,0.182937589311133,2.76579434885165,0.684084903993107,-0.562688444418698,-0.942530367363969,-0.221379368137882,-0.0248546259248996,1.12268564702683,0.262602195910031,0.14685029353519
46.58,-0.809867416990499,-1.03160193543352,0.542035340013488,2.36680968091466,-1.79580996785435,-2.30316034592404,-1.12374491796663,-0.63387413053293,-0.727609805653417,1.8790832598767,-2.57888194971708,1.6548671378075,-0.857820637453182,0.0112022737609258,0.18475462065056,2.64959324243224,0.650219006718333,-0.581442503026036,-0.941912668251012,-0.222174127553044,-0.0258707032860488,1.11276299093637,0.255890109729293,0.177079295400283
46.585,-0.78573852759283,-1.01368730950049,0.524894072829737,2.21515327103851,-1.59659446372397,-2.21953822819982,-1.12221497011228,-0.646070168833605,-0.71997079167352,1.80678601846012,-2.48314323917439,1.54611905322088,-0.860280850126477,0.0224125328550793,0.190153946449437,2.51766615211767,0.613964474769183,-0.597560326683288,-0.941695657830605,-0.220437932889113,-0.026603363295252,1.10341492673879,0.248541648245288,0.205797129451783
46.59,-0.763963598882228,-0.995994728800876,0.513096010477927,2.05382608353344,-1.39394847874477,-2.11710809669365,-1.11963930857092,-0.655881614612958,-0.712220670496873,1.71979652526505,-2.38311969685248,1.43278676584983,-0.863685577721271,0.0314319125972633,0.199037157917847,2.37152012786758,0.575349922201834,-0.611798082370161,-0.941951368644289,-0.216071002790045,-0.0269620367638007,1.09457526870173,0.240500653173148,0.232155239266403
46.595,-0.745224315186636,-0.978684980341038,0.506847485528922,1.88477037387701,-1.19083872307382,-1.99873960674126,-1.11617680908541,-0.663053943116747,-0.704755792356536,1.61985360897644,-2.27991386416606,1.31616169403763,-0.867966130337175,0.0383010456458689,0.211056819356374,2.21326826449175,0.534447185352136,-0.624958972698856,-0.942740052134462,-0.209227672973609,-0.0269110413755416,1.08614538735928,0.231710014968588,0.25537396931975
46.6,-0.730028680391526,-0.961688594819559,0.506158545633186,1.71038083892329,-0.990301441472166,-1.86752742814847,-1.11196502218283,-0.667358316461819,-0.697943551203038,1.50928018419567,-2.1746555854962,1.1976445448394,-0.872977263112494,0.0431948680465218,0.225683677112136,2.04559391788312,0.491373682865118,-0.637832234628978,-0.944106749136994,-0.200306034798187,-0.0264548582844546,1.07801086345644,0.222106820711363,0.27483392650977
46.605,-0.718738357413543,-0.944733575923814,0.510915567567245,1.53349042657881,-0.79535560582001,-1.726609585059,-1.10714418004251,-0.668561573148365,-0.692098663493115,1.39093502998608,-2.0684579469727,1.07870493216573,-0.878592809236064,0.0463313344087594,0.242269262686897,1.87169648063026,0.446293163136069,-0.65114656239452,-0.946080183856659,-0.189746274834795,-0.0255652325134224,1.07004814434495,0.211627166774534,0.290131536020144
46.61,-0.711595488926151,-0.927372078796258,0.520963368117452,1.35724554604068,-0.608952818547791,-1.5790422742244,-1.10188275423457,-0.666373970238928,-0.687433331985274,1.26802844251505,-1.96239200602337,0.960823417602878,-0.884777525874537,0.0478878424023218,0.260086330200519,1.69510120081899,0.39943511270354,-0.665557510797345,-0.948664676500091,-0.177885819539176,-0.0241318980838919,1.06212460287351,0.200235581347226,0.301040771879108
46.615,-0.708681517365397,-0.90900217387874,0.536048547984791,1.18497602100511,-0.433918086751724,-1.42768179597745,-1.09637611414236,-0.660515067573295,-0.68406132332296,1.14393177154831,-1.85746644259089,0.8454389928976,-0.891529529864066,0.0480497642685047,0.278366918220804,1.51946463592989,0.351108540900287,-0.681631199589851,-0.951831401684088,-0.165069073450847,-0.0220157631739693,1.05410321255576,0.18796099650033,0.307474111525463
46.62,-0.709899741159426,-0.888971622736121,0.555784854295698,1.0201147144686,-0.27285329100069,-1.27506018730718,-1.09080717501516,-0.650750061616492,-0.681961855453461,1.02206587120053,-1.75459719042354,0.733907903665727,-0.898823197158016,0.0470370828128182,0.296304000918982,1.34845950354852,0.301691975950474,-0.699802754625321,-0.955524114106351,-0.151741566819898,-0.0191629980073533,1.04585247294812,0.174909325436206,0.309511408096704
46.625,-0.715014692343372,-0.866667607589341,0.579712022018599,0.866024739671955,-0.128067553805585,-1.12335304261757,-1.08532576797745,-0.63682620879528,-0.680909807537621,0.90571813605546,-1.65458204533824,0.627450980806219,-0.906639983411782,0.0450431831564709,0.313060875408702,1.18558706464006,0.251626434120056,-0.720347376734994,-0.959671813193813,-0.138367578027749,-0.0156511297511654,1.03725297909078,0.161253551738997,0.307411496278921
46.63,-0.723645031626194,-0.841501733928115,0.607293962496355,0.725775832660353,-0.00152068244472179,-0.974402837798604,-1.08008739225944,-0.618495528071009,-0.680502532596848,0.79781871703987,-1.55809221454808,0.527106898587047,-0.914995224999537,0.0422284359785564,0.32786022764431,1.03395078972041,0.201415293879017,-0.743375246687449,-0.964197659941733,-0.125363728031881,-0.0116345778590746,1.02820198921261,0.147225781707293,0.301575323377906
46.635,-0.735214011665678,-0.812903596578664,0.637866175950948,0.602012956726344,0.105273769491414,-0.829705086815253,-1.0752812426146,-0.595617083035039,-0.680228619224476,0.70082917777573,-1.46567522784351,0.433715033926572,-0.923927298577443,0.0387673742063813,0.340081668915668,0.896145767351073,0.15161112246404,-0.768833182233532,-0.969032874929987,-0.113100212631427,-0.0072951990637009,1.01861904483883,0.133114471916299,0.292510172412729
46.64,-0.748957120258318,-0.7803828761519,0.67065535365428,0.496873996217869,0.191350265275754,-0.690397884468625,-1.07111927269857,-0.568182425440357,-0.679483335852126,0.616703202328994,-1.37776507214493,0.347913595699789,-0.933494044964211,0.0348509880632528,0.349288654412042,0.774220622189829,0.102794171602949,-0.796517762592026,-0.974133398133283,-0.101885154112571,-0.00283715901246576,1.00844967428913,0.119249571960856,0.280794110476044
46.645,-0.763977784386502,-0.743588381670248,0.704844653786584,0.411885248292938,0.256357333490627,-0.55730333918346,-1.06782233039486,-0.536279831974362,-0.677566318725776,0.546838307363232,-1.29469880989111,0.270139550142278,-0.943777493726645,0.0306519592799351,0.355220645932447,0.669630285973338,0.0555546147799249,-0.82610254400155,-0.979482565301706,-0.0919490743559172,0.00153996053200199,0.997667251924816,0.105980863893506,0.267027340125476
46.65,-0.779291353773581,-0.702327578161094,0.739609571074627,0.347857381569065,0.300591526405225,-0.430999978079846,-1.0656048238555,-0.500083854886362,-0.673711310152128,0.49203122109076,-1.21673779395501,0.20063382149944,-0.954870047113137,0.026312123385671,0.357788765942596,0.583193787791295,0.0104781516396106,-0.857168543947121,-0.985085160435611,-0.0834491006429446,0.00565855250588284,0.986274259773421,0.0936692822871052,0.251784724080397
46.655,-0.793858988780299,-0.656567189207472,0.774120237588518,0.304832864084819,0.325004365946894,-0.311890590915937,-1.06464531073592,-0.459877060255709,-0.667150906604973,0.452478728526603,-1.14408852414988,0.139456200107148,-0.966836707967057,0.0219708534637614,0.357060941856584,0.515098248955928,-0.0318703999716819,-0.88923509016578,-0.990971063377475,-0.0764698848218562,0.00928857366359334,0.974303706460094,0.0826700091614953,0.235578702457916
46.66,-0.80665234471754,-0.606444174865738,0.807565368497279,0.282106146734895,0.33117753167574,-0.200249893131888,-1.0650578586149,-0.416047473641955,-0.657179300179523,0.42783621785483,-1.07691711195623,0.0865079955451278,-0.979687465810619,0.0177748201791382,0.353228097209596,0.464959580802827,-0.0709674426953141,-0.921793275748699,-0.99719292834429,-0.0710322894724937,0.0121017816164405,0.961822235182098,0.0732782886216231,0.218833294279548
46.665,-0.816757381922418,-0.552290897456109,0.839237390043985,0.278270064110006,0.321252090943177,-0.0962775400492283,-1.06689044859904,-0.369037870845915,-0.643183223613636,0.417278413444525,-1.01535769092423,0.0415545404417258,-0.993387247587131,0.0138220076225536,0.346575831107576,0.431885501586353,-0.106347040271936,-0.954334349726255,-1.00379097387037,-0.067126628934787,0.0138074707312078,0.948933606955988,0.0656880486614348,0.201871195876886
46.67,-0.823450536259624,-0.494641823735532,0.868600189181132,0.291255442208081,0.297808200194539,-0.000169814350983177,-1.07013684979334,-0.319322601435746,-0.624677597986512,0.419522443414798,-0.959518065025204,0.00424473943277019,-1.00786737678417,0.0101191819770315,0.337475261289264,0.414503037264113,-0.137607880271884,-0.986363512277379,-1.01075622692702,-0.0647452523546724,0.014300330261973,0.935779492357665,0.0600220981648721,0.184914087688748
46.675,-0.826209298713538,-0.434211990584609,0.895262104820113,0.318424152114128,0.263722498053796,0.0878350655317065,-1.07472989698614,-0.267461646944568,-0.601385137026976,0.432876778836486,-0.909480113048432,-0.0258665435854942,-1.02300187319535,0.0066247825218287,0.326366667409042,0.411012163088605,-0.164420171037678,-1.0174051725303,-1.0180412124982,-0.0638906245366754,0.0135943964826561,0.92253302904781,0.0563825317395764,0.168097586465011
46.68,-0.82472029691254,-0.371876413226177,0.918932803251663,0.356757000386586,0.222024543544763,0.167470839365371,-1.08052404230543,-0.214149543137621,-0.573309627263435,0.45536619811179,-0.865290793804322,-0.0492934441848981,-1.03858160482936,0.00330197856986725,0.313723380759646,0.419312389395594,-0.186540865676155,-1.04701228177172,-1.02558666855461,-0.0645649865272943,0.0116828177647308,0.909382699570791,0.0548476444583692,0.151501377500993
46.685,-0.8189238846344,-0.308660831870652,0.939438340299743,0.403064823834224,0.175741385877078,0.238482938653494,-1.08729321335423,-0.160181769407987,-0.540735993529559,0.484864028431531,-0.826945284773244,-0.0665998023919774,-1.05432143216845,0.000113640951808844,0.300020572866124,0.437134154485221,-0.203828713682067,-1.0747787885275,-1.03330792692147,-0.0667553600183189,0.00854200810919811,0.896515473255396,0.055445031799648,0.135180104840496
46.69,-0.809041809572467,-0.245731232203086,0.956731293087893,0.454149213680825,0.127738797630253,0.300644002504695,-1.09473780873381,-0.106379964278347,-0.504175434940642,0.519171652111941,-0.794367681613704,-0.0783858217684038,-1.06987912407023,-0.00298949587858562,0.285711631356253,0.462118065926352,-0.216248890834986,-1.10034682154389,-1.04106965844309,-0.0704241150352832,0.00418595209529248,0.884107137894841,0.0581532529455656,0.119181203194658
46.695,-0.795558276318501,-0.184358242256968,0.970869372719326,0.506915085617071,0.0805912324849863,0.353731744384581,-1.10248672501516,-0.053534655816064,-0.464308794898731,0.556071649968356,-0.767394277041026,-0.0852757935382361,-1.08486709605259,-0.00605633538206998,0.271193314280547,0.491868619719903,-0.22387040545986,-1.12341181052228,-1.0487000501272,-0.0755032063403591,-0.00137700436380019,0.872311854058447,0.0629083988487515,0.103555382786033
46.7,-0.779171836589896,-0.125819693526228,0.982007237299065,0.558454902034201,0.0364755737268129,0.397501698026547,-1.11010859687644,-0.00237583212384411,-0.421945149531144,0.59337082359003,-0.745762139654547,-0.0879087071194711,-1.09886725326822,-0.00912448011983859,0.256779732214402,0.523997027406869,-0.226862672870799,-1.14373426012672,-1.05602126191798,-0.0818891807607012,-0.00820793835945845,0.861245658786616,0.0695834128988817,0.0883656638695527
46.705,-0.760647886717378,-0.0712283732924202,0.990430169287049,0.606130568141914,-0.00291876272423358,0.431703671341312,-1.11718943049298,0.0464228907427682,-0.377908163550015,0.628941993468655,-0.729103218704608,-0.0869297215445067,-1.11144701879798,-0.0121984196787484,0.242715444974789,0.556162978764169,-0.225491130048107,-1.16115345296704,-1.06285479135104,-0.0894595499824911,-0.0164204912168275,0.850974509327312,0.0779581743466845,0.0736932801992878
46.71,-0.74069250843637,-0.0214364318728291,0.996453495788347,0.647685500041998,-0.0364199427771293,0.456149627930407,-1.12336820423209,0.0922016627141707,-0.333012301952359,0.66081283837172,-0.716944745664802,-0.0829740433438672,-1.12217037837197,-0.0152086630735895,0.229209086487127,0.58616640577273,-0.220109925918427,-1.17558821779634,-1.06900889926616,-0.0981132150882998,-0.0261130879300309,0.84151532679184,0.0877072454662255,0.059649304566379
46.715,-0.720058897320339,0.0228793296344896,1.00016282098074,0.681368424935863,-0.0633281325714631,0.470796517753113,-1.12822446459634,0.134286088160781,-0.28828864598809,0.687302669344095,-0.708717038884154,-0.0766454254840793,-1.13062115636592,-0.0179991961269366,0.216450854123143,0.612090440473684,-0.21115124845005,-1.1870207685918,-1.07427160843637,-0.107772343849381,-0.0373152393430053,0.832844130237102,0.0984119608489042,0.0463962661744173
46.72,-0.699555470509511,0.0612107944075647,1.00150702508884,0.705996694100854,-0.0833623255472438,0.475805546625664,-1.13130821705747,0.172048347863292,-0.244906732818522,0.707116368903333,-0.703766896010489,-0.0685019782955823,-1.13644505189673,-0.0203592243346986,0.204605166944813,0.632401919174319,-0.199110471486119,-1.19547738159293,-1.07841916130284,-0.118318593496752,-0.0499832098623832,0.824900239577141,0.109587193971058,0.0341546252638289
46.725,-0.679842478503344,0.0933362382736494,1.00059834248578,0.720936151930934,-0.0966333144804523,0.471565617579012,-1.13231278064375,0.204992796597916,-0.203807110811434,0.7193566052097,-0.701375187737791,-0.0590516872128021,-1.13938318735278,-0.0220509720670195,0.193795296171551,0.645969275270435,-0.184527648075462,-1.20101445076971,-1.08123943176492,-0.129550209514225,-0.0640338655515319,0.817585406326572,0.120706602380855,0.0231823868346983
46.73,-0.661365927549027,0.11932772076,0.997665961606812,0.726053849359223,-0.103591986576545,0.458696197767406,-1.131087624674,0.232766998970743,-0.165657542970941,0.723521977112064,-0.700779161330751,-0.0487487915768662,-1.1392818509917,-0.0228100447091294,0.184097926349824,0.652067029162785,-0.167967885224427,-1.20370213991685,-1.08255587649831,-0.141213144522673,-0.0793613382288547,0.810766002698913,0.131222444870445,0.013754846005542
46.735,-0.644383314272616,0.139498469682206,0.992918571725918,0.721678063871917,-0.104937527687274,0.438047041412773,-1.12758833152322,0.255141994496748,-0.130945408111113,0.719523012009028,-0.701196347834836,-0.0379886075281912,-1.13609336354912,-0.022343199910401,0.175546562285956,0.650399065905858,-0.150001629439115,-1.20360021368528,-1.08223910328881,-0.153045641178804,-0.0958163478924384,0.804281658712302,0.140591087466065,0.00615927905060248
46.74,-0.628978808348686,0.154355469997798,0.986554225047987,0.70855280424339,-0.101520327394471,0.410697447060098,-1.12187278514817,0.272023369948853,-0.0999652033360206,0.707685312504536,-0.701845526529935,-0.0271054563370721,-1.1298835216959,-0.0203520346723339,0.168132670635994,0.641108509974714,-0.131185614123254,-1.20073022751914,-1.08021333261815,-0.164771191489429,-0.11319409809687,0.797956060973926,0.148307751731182,0.000694130239123361
46.745,-0.615126379722926,0.164520737658715,0.978820313755987,0.687751405640683,-0.0942639590043787,0.377926349275806,-1.11409449521252,0.283500525245257,-0.0727899118739063,0.688698624949865,-0.701965831262001,-0.01637731892106,-1.12084756397802,-0.0165887381922053,0.161804948579925,0.624731525618711,-0.112045743479936,-1.19505566298104,-1.07646372410304,-0.176038949916196,-0.13125070885782,0.791600495195207,0.153939563229044,-0.00234418270314092
46.75,-0.602750652850716,0.170672220923494,0.970045634978077,0.660528277267233,-0.0841191532137374,0.341129050708035,-1.10448880767476,0.289883556749057,-0.0492667656628611,0.663488287309488,-0.700835855585527,-0.00603577378075648,-1.1093136073485,-0.0108972170152199,0.15647316176255,0.602070802879702,-0.0930620661757558,-1.18647943775728,-1.07104076800427,-0.186386959104006,-0.149721877830969,0.785004605910053,0.157150709936006,-0.00269840590266042
46.755,-0.591716519849929,0.173530426512898,0.960561858396818,0.628174020020548,-0.0720280577718777,0.30172576745785,-1.09334955979757,0.291653240407876,-0.0290767846013654,0.63307571070031,-0.697789972215339,0.00372571765842651,-1.09570943503273,-0.00319224373029566,0.152012812441627,0.574056244217879,-0.0746573036949183,-1.17485080086012,-1.06406555613114,-0.195310016639227,-0.168335795038619,0.777928602899125,0.15771669021225,-0.00019010328858185
46.76,-0.581793922083009,0.173839957669687,0.950589966391577,0.591954086681569,-0.0588593124474697,0.261115978280497,-1.08100179686788,0.289361854337815,-0.0118260116969519,0.598521372216152,-0.692229669874138,0.012748897547072,-1.0805116479117,0.00657737768100575,0.148270170497275,0.541687699207754,-0.0571907792985868,-1.15996796535528,-1.05572964073676,-0.202381496657612,-0.186806071584539,0.77011747309241,0.155523652395538,0.00527405151758613
46.765,-0.572699547187724,0.172317165736666,0.94025101786076,0.553102611125278,-0.0453353798539354,0.220660285722999,-1.06778136295981,0.283592282017721,0.00290047785498308,0.560923285602211,-0.683630774484846,0.0209092553503468,-1.06421671627626,0.0184078030448431,0.145077690868498,0.506032659236829,-0.0409560159998234,-1.14157745837779,-1.04627263088128,-0.207291357624284,-0.204798065935687,0.761332887250705,0.150567000045472,0.0137224584279201
46.77,-0.564195995054549,0.169600604367452,0.929680264021884,0.512790819482087,-0.0320111813022707,0.181642527879991,-1.05402185873456,0.274983376681692,0.0155256170012936,0.521376638502555,-0.671549331903795,0.0281123362569397,-1.04733425098688,0.0321793276758072,0.142276045952181,0.468183427684589,-0.0261795488720368,-1.11938332125137,-1.0359485100108,-0.209781442505371,-0.221920974483983,0.751379655858448,0.14295974132238,0.0251247372874157
46.775,-0.556148038815703,0.166233794713499,0.919089420184494,0.472062570392557,-0.0193086587727275,0.145208574214596,-1.0400432011275,0.264238427264767,0.0264581283231852,0.480886884381091,-0.655628821634534,0.0342900412108737,-1.03037390628413,0.0476234339110346,0.139726771100934,0.429165806634148,-0.0130209947949775,-1.09307184960374,-1.02500510554333,-0.209593753049496,-0.237763423108784,0.740118149024468,0.132935925317504,0.0393719317810508
46.78,-0.548509418230302,0.162656553948986,0.90872882769605,0.431790308740148,-0.00756080591545508,0.112312884692935,-1.02613732727538,0.252089835157677,0.0360524463493454,0.440305481042576,-0.63560957117722,0.0394001266406475,-1.01381496797953,0.0643223681004222,0.137305274611632,0.389869751661711,-0.0015751094672098,-1.0623430081016,-1.01368260524319,-0.206498152753499,-0.251938105051555,0.727471498876037,0.120841242486257,0.0562573846908137
46.785,-0.541291590645369,0.15918736637133,0.898822565311095,0.392657049568914,0.00296494216958676,0.0836741397592539,-1.01255151629292,0.239265851972966,0.0445809436261254,0.400306353962369,-0.611342000708117,0.0434262166924888,-0.998072554868275,0.0817054550189818,0.13487939282968,0.351020966175766,0.00812266319243771,-1.02694312693458,-1.00222242292966,-0.200349616407707,-0.264130996636341,0.713436385858366,0.10711031107431,0.0754795867014286
46.79,-0.534537103042792,0.156033042902806,0.889523719165044,0.355139720942613,0.0120602611203169,0.0597303809788159,-0.99948645947965,0.22645424529923,0.0522058454437783,0.361375400547352,-0.58280351880172,0.0463757432510103,-0.983479267521055,0.0990577735563584,0.132303104658317,0.313165657477689,0.0160870721940603,-0.986700637503037,-0.990866612687402,-0.191101433242332,-0.274133702443578,0.698096034094556,0.0922289280474743,0.0966616735385349
46.795,-0.528284380706778,0.153331769852728,0.880889699657274,0.319530906817786,0.019581658107314,0.040633395840324,-0.987120386682729,0.214225118521623,0.0589357224101767,0.323839562352187,-0.550114334731471,0.0482792324871957,-0.970286054456788,0.115575797570191,0.129442630301561,0.27669510497752,0.0223747898799712,-0.941560148011778,-0.979839243748714,-0.178775502736681,-0.281826949863943,0.681618127222215,0.0766983070777636,0.119371990984684
46.8,-0.522552505527004,0.151174293735305,0.872900301353362,0.286024708835821,0.0254657022898312,0.0263076422978684,-0.975635752967777,0.202964430476586,0.0646181369447735,0.287957175597957,-0.513545040680187,0.0491911664507509,-0.958670013002003,0.130451101140034,0.126207201929361,0.241932153658708,0.0270796609132603,-0.89160404338368,-0.96932857006663,-0.163457449964973,-0.287146968496366,0.664235713537721,0.0610165738959945,0.143141423395241
46.805,-0.517376726350211,0.149579733863203,0.865534314123247,0.254803038678473,0.0297321044053963,0.0165260621829532,-0.965220438265691,0.192892144121145,0.0690088526887576,0.254005020700479,-0.473508003554319,0.0491876170170282,-0.948739812563419,0.142927579756222,0.122560719991191,0.209215077255027,0.0303285894041371,-0.837053724372535,-0.959481928874125,-0.145325780975855,-0.29007233423301,0.646238997060403,0.0456701313053788,0.167482705373134
46.81,-0.512846911996262,0.148469352153739,0.858845528251509,0.226044922453872,0.0324552194180828,0.0109451158110155,-0.956046854355581,0.184134741447346,0.0718720826342198,0.222280992646125,-0.430535951162731,0.0483584642367182,-0.940540099224479,0.152308504150964,0.118527242850818,0.178896904064392,0.0322731771985892,-0.778262748887571,-0.950407196327618,-0.124650961145611,-0.290633465782537,0.627978851047343,0.0311224650387891,0.191905659114773
46.815,-0.509078254026172,0.147696302732569,0.852937805571236,0.199864446186082,0.0337216218861228,0.00910257903702603,-0.948254385625386,0.176747958153092,0.0730170407665816,0.193027021746948,-0.385262555298374,0.0467979034715329,-0.934060209463675,0.157986184775421,0.114199059569599,0.151263803175738,0.0330764337008008,-0.715726776778098,-0.942183907409722,-0.101764698049114,-0.28894544626392,0.609845924067974,0.0177905008232899,0.215915588796079
46.82,-0.506136963520683,0.147110500726896,0.847838386183367,0.176294637504681,0.0336204738343112,0.0104493808399688,-0.941945163120765,0.17065557867163,0.0722443212862996,0.166400062754238,-0.338405252003942,0.0446005065386225,-0.929247851133468,0.15956219323013,0.109734900301246,0.126500866953041,0.0329031592921758,-0.650104154930978,-0.934886547897487,-0.0770588881721869,-0.285251259476642,0.592216535690757,0.00600365183181345,0.239005211773615
46.825,-0.504003663800605,0.146581474407584,0.843466112239124,0.155374713549148,0.03227775741248,0.0144404846444031,-0.937189196615922,0.165631313172742,0.0693642873435441,0.14255926127304,-0.290736625971928,0.0418631505359443,-0.926024296913015,0.156955385909738,0.105355501494748,0.10477474760381,0.0319196792901473,-0.582219374537716,-0.928594265630791,-0.0509940930674542,-0.279935953107102,0.575398875436688,-0.00404892325179088,0.260657840426133
46.83,-0.502633698939081,0.145969353360728,0.839757868923262,0.137203935981815,0.0298756293518874,0.0205871661863792,-0.934016941494563,0.161409895424959,0.0643211952525427,0.121721629580481,-0.243043703563446,0.0386880109808269,-0.924300322673718,0.150385797046345,0.101354793760264,0.0862853797382897,0.0302961009397025,-0.513050730460357,-0.923370844202762,-0.0240531634317156,-0.273498810185776,0.55959436944653,-0.0123653781618155,0.280343013015972
46.835,-0.502045061849951,0.145123718085443,0.836729340443181,0.121876549121537,0.0266180385801968,0.0284190886406273,-0.932385847432196,0.157799736886152,0.0572222412667787,0.10408509589633,-0.196087946577917,0.0351875047249794,-0.923985673889302,0.140306090938301,0.0980958279505032,0.0711849697793659,0.0282059352045115,-0.443722205403132,-0.91925093508634,0.0033170168439008,-0.266519772726011,0.544851312339794,-0.0191616722374374,0.29748281819081
46.84,-0.502284611545085,0.143959787613569,0.834401405821851,0.109407127518494,0.0226857500812913,0.0374465623055818,-0.93216443349934,0.154695384499008,0.0482854292800798,0.0897333985808399,-0.150573999325796,0.0314911508422232,-0.924985828097092,0.127361186961022,0.0959582088612999,0.0594800921695657,0.0258252866452953,-0.375496434405914,-0.916257382924712,0.0307019802756917,-0.259624911501852,0.53101528298587,-0.0248931661902979,0.3114192718724
46.845,-0.503333611318193,0.142533934406158,0.832718908521365,0.0997271936836034,0.0182301640699022,0.047178988611733,-0.933152787646138,0.152056458691382,0.0378102652100413,0.0786187838813184,-0.107128516309613,0.0277512976079785,-0.927199498961433,0.112337743871114,0.0952721864303243,0.0510152001269166,0.023334260657112,-0.30975174409023,-0.914417775001083,0.0576978012756903,-0.2534096688322,0.51770958741321,-0.0302624504397877,0.321414889224726
46.85,-0.505090823263033,0.141052489030444,0.831547655425195,0.0927174823254936,0.0133990069489473,0.0571587306204659,-0.93511286384449,0.149915129081376,0.0261620232803877,0.070591823985918,-0.0662889377299328,0.0241474262251931,-0.930522388149478,0.096065076522475,0.0962698028042052,0.0455075725343505,0.0209211294498441,-0.247938082251418,-0.913758014556626,0.0839085897919556,-0.248306853953239,0.504349663659358,-0.0361890379726431,0.326676721690158
46.855,-0.507417298206557,0.139829081275546,0.830752290944157,0.088223540249907,0.00835173484718776,0.0669819887018668,-0.937795666511755,0.148397504034739,0.0137691578939866,0.0654170279753157,-0.0284982384737704,0.0208848291149423,-0.93484485834853,0.0792896420309766,0.0990316016742776,0.0425726069901382,0.018782780932068,-0.191507939591611,-0.914293907111109,0.108921658794843,-0.244449442727453,0.490185893510311,-0.0437219617403152,0.326404124653749
46.86,-0.510184695642008,0.139199770397794,0.830268967296218,0.0860318922662539,0.00324252318192462,0.076299347939871,-0.940968572464815,0.147721408006263,0.00110933084281122,0.0627497724863787,0.00589834417438483,0.018181181489053,-0.940048772280361,0.0625752096129094,0.103427513740078,0.0417150048282733,0.0171133264820524,-0.141820365767037,-0.916040380731437,0.132282317655503,-0.241628616388987,0.474383669521277,-0.0539067705429297,0.319874648359005
46.865,-0.513294933095736,0.139427222444159,0.830102101569113,0.0858313594894087,-0.00180463369823641,0.0847911495112392,-0.944450331381129,0.14814162456388,-0.0113491355049627,0.0621133420624639,0.0366540060116804,0.0162428896388282,-0.946017105919388,0.0462587316609671,0.109103258568747,0.0423221722885885,0.016083769878852,-0.100035004596401,-0.919018941822844,0.153531108404457,-0.239365575674365,0.456136282625302,-0.0676541413462119,0.306549550971299
46.87,-0.516665688634158,0.140646446264539,0.83028033685378,0.0872041517599646,-0.00669618254252427,0.0921443771653929,-0.948145729012272,0.149853220995803,-0.0232259845690967,0.0629211901325443,0.0636151407945726,0.0152400576749084,-0.952646168312928,0.0304365716153761,0.115548203723837,0.0437012874543636,0.0158230088785272,-0.0670214649076763,-0.923233979120493,0.17226573045268,-0.236981820116116,0.434783669594034,-0.0856364485922627,0.286158308716241
46.875,-0.520212209331527,0.142844823822057,0.830846755451339,0.0896539693365092,-0.0113489608149346,0.0980629069433683,-0.952053911094798,0.152907945696694,-0.034274376181719,0.0645323194149494,0.0867067769254683,0.0152859361368804,-0.95983990096046,0.0149684185536614,0.122192449884722,0.0451457405050645,0.0164046477849142,-0.0433007583438846,-0.928641048208385,0.188140600099839,-0.233644572793628,0.409899758436265,-0.108196897155274,0.258747223343959
46.88,-0.523857277377449,0.145839752338328,0.831881119271824,0.092639503735101,-0.0156841636340887,0.10229652654865,-0.95624046859609,0.157189211028224,-0.0443780966518392,0.0662998439053653,0.10591452370656,0.0164190675024187,-0.967489494829402,-0.000463972374341322,0.128461521475888,0.0459901056239733,0.0178351045184765,-0.0290202902134126,-0.93514815518859,0.200823162984332,-0.228502799884647,0.381330557381988,-0.135281582945642,0.224711522273846
46.885,-0.527552660515933,0.149272523091802,0.833493846238691,0.0955946397975656,-0.019642966595993,0.104652129623323,-0.96079822478631,0.162436344085373,-0.053527309978668,0.0676040920578097,0.121274845228816,0.0185885320670324,-0.975461215045662,-0.0162427658259934,0.133802990634609,0.0456446006503846,0.0200425987557788,-0.0239533450887591,-0.942636546985886,0.209992288823742,-0.220895519511826,0.349203740513355,-0.166436530910986,0.184813451417039
46.89,-0.53128298244023,0.15264918175548,0.83578906306054,0.097949554981689,-0.0231978980451803,0.104984487375492,-0.96581601272671,0.168285929449188,-0.0617949451826936,0.0678892048230914,0.132874975289901,0.0216489344566422,-0.983596845972788,-0.0327043330524497,0.137720956481669,0.0436284018298302,0.0228745000963043,-0.0275173260928888,-0.950971489871425,0.215365570297509,-0.210460683312007,0.313930033709662,-0.200870322820961,0.14016612777737
46.895,-0.535053558863866,0.155417839062705,0.838836397642407,0.0991630602487646,-0.0263558693730342,0.103182768820189,-0.97135287603617,0.174320801206154,-0.0693125433965158,0.0667074673795718,0.140855697800226,0.0253674016343524,-0.991717868256248,-0.0500730181943085,0.139812650054796,0.0396072848001121,0.0261055522410372,-0.0388100519422749,-0.960005812712765,0.216715276511216,-0.197101737374269,0.276188496564169,-0.237538887980074,0.0921885816317446
46.9,-0.53886547161305,0.157077770791214,0.842651746776268,0.0987591290495053,-0.0291599551380583,0.099160170096587,-0.977422620778052,0.180129105402035,-0.0762368927474571,0.0637578874367861,0.145410594702288,0.0294409162100553,-0.999639289529109,-0.0684403298372124,0.139811670463224,0.0334228297013801,0.0294547263574134,-0.0566684839018885,-0.969584875256572,0.2139180359565,-0.180928837370956,0.236886759266319,-0.2752323957851,0.0425376906557112
46.905,-0.542681632700363,0.157309315212716,0.847181753959941,0.0963561144589802,-0.0316790522283862,0.0928602802689441,-0.983991278256764,0.18536653237265,-0.0827047292307033,0.0588982963152874,0.14677576426955,0.0335236900626157,-1.00719007425311,-0.0877794865466826,0.137632126625681,0.0250925846772328,0.0326096255255161,-0.0797573543368095,-0.979551632364015,0.207006361877534,-0.162192554183431,0.197099594795126,-0.312673222650155,-0.00700154738559143
46.91,-0.546409723408472,0.156054940300645,0.852308345218006,0.0916800324341633,-0.0339866659510269,0.0842878470895637,-0.990971709264879,0.189805143588672,-0.0887886213922395,0.0521195872242194,0.145212436239984,0.0372600294359712,-1.01421773354025,-0.107955087504527,0.13336710680891,0.0147720213481872,0.0352543127375571,-0.106670677233339,-0.989750480292744,0.196109006750845,-0.141142441822807,0.157990869510757,-0.348598399996925,-0.0546419489490019
46.915,-0.549916141846363,0.153500775855508,0.857863963128455,0.0845677645090326,-0.0361491827944626,0.0735389858389431,-0.998209099713813,0.193352895497263,-0.0944791267813812,0.0435064543328077,0.140995988361253,0.0403152171428515,-1.02057676504515,-0.128692432112043,0.127238270683997,0.0027057737811658,0.0370955249425544,-0.13600960005168,-1.00003106485955,0.181353290406185,-0.11793270912376,0.120728945510642,-0.381790035739318,-0.098678347103547
46.92,-0.553044723993267,0.15000589979339,0.863631524711494,0.0749742871880161,-0.0382273112627318,0.0608038863384025,-1.00547295184396,0.196040914190856,-0.0997015214029665,0.0332182624978989,0.13441618606532,0.0424025557931745,-1.02612218518359,-0.149551177103311,0.119548326372999,-0.0107989821298304,0.037887052804437,-0.166435669835681,-1.01025371920992,0.162888063167449,-0.092728011847472,0.0864123478198698,-0.411097310254105,-0.137541460658398
46.925,-0.555624028626877,0.146034659540944,0.869340573759837,0.062983747158851,-0.0402761230635194,0.0463537683986164,-1.01246849668816,0.197989403106492,-0.104347707511994,0.0214870985674368,0.125777144300037,0.0433056980175273,-1.03071156111264,-0.169962031149839,0.110651776530304,-0.0253820653596466,0.0374505711975252,-0.196726203169933,-1.02028771111288,0.14096910956578,-0.0658505612053994,0.0560134585547815,-0.435505975693,-0.169864043354251
46.93,-0.557484686575711,0.142083731502873,0.874687655862371,0.04881340478495,-0.0423416501145953,0.0305278857015647,-1.01886630977134,0.199366562760023,-0.108302713882006,0.00861493245876453,0.115392589461654,0.0428921464464596,-1.03420781297766,-0.189301833835157,0.100926991401389,-0.0406391116261356,0.0356882008191096,-0.225823949887739,-1.02998837869957,0.115972778196632,-0.0377436983460417,0.0303387850120504,-0.454214616697074,-0.194542747085363
46.935,-0.558482581590734,0.138606485599389,0.87936608328814,0.0328058083946113,-0.0444608119864086,0.0137137021455637,-1.02433858220808,0.200344579093452,-0.11146840060058,-0.00503239027124413,0.103584265423114,0.0411166414946941,-1.03648263493438,-0.206964129820773,0.090746134705424,-0.0561292336186348,0.0325861236111052,-0.252851830398898,-1.03917287582269,0.0883524186329583,-0.0088393746150528,0.0100084674633008,-0.466649247876388,-0.210763507501184
46.94,-0.558495812978468,0.135967508174071,0.883071245028693,0.0154173820363128,-0.0466606801450997,-0.0036718118631773,-1.02859064704952,0.201050812806227,-0.113795306118634,-0.0190266377298187,0.0906818608316447,0.0380150255053414,-1.03742395813984,-0.222418682197112,0.0804464971654253,-0.0713747067210101,0.0282099046384637,-0.277100466700687,-1.04763036827682,0.0586144623621146,0.0204620486784603,-0.00454687493159953,-0.472432334655535,-0.217992301814341
46.945,-0.557415056541768,0.134430201160423,0.885504048088474,-0.00278528173010873,-0.0489467602479238,-0.0211809014425804,-1.03139533520152,0.201533768829944,-0.11530132941553,-0.0328672705005791,0.077016325573911,0.0336897387834489,-1.03695667380487,-0.235255824967493,0.0703265042635775,-0.0858486281792313,0.0226921670072478,-0.298018265244556,-1.05514564976252,0.0273499609087357,0.0497340103378643,-0.013081348319648,-0.471365593613505,-0.215952521456302
