Header,foot_Accel_X,foot_Accel_Y,foot_Accel_Z,foot_Gyro_X,foot_Gyro_Y,foot_Gyro_Z,shank_Accel_X,shank_Accel_Y,shank_Accel_Z,shank_Gyro_X,shank_Gyro_Y,shank_Gyro_Z,thigh_Accel_X,thigh_Accel_Y,thigh_Accel_Z,thigh_Gyro_X,thigh_Gyro_Y,thigh_Gyro_Z,trunk_Accel_X,trunk_Accel_Y,trunk_Accel_Z,trunk_Gyro_X,trunk_Gyro_Y,trunk_Gyro_Z
0,0.850534419998667,-15.7698631959474,1.71132543004978,-5.96853717641258,1.49833292471841,-1.46777344639078,-1.23926490692065,-9.72862160882181,5.76749152657719,5.53014355271494,2.74915696553606,-4.1797422761868,2.04995817348254,-1.39597008802861,0.684222171592118,9.33159426112381,2.71516197186116,-2.66639190923576,5.10395944049856,6.24317006789729,-0.166757509155701,-6.41900468604066,11.5497763689873,10.2525810156507
0.005,0.849655471703272,-15.7590728519027,1.71071811665206,-5.96452625065381,1.49733019366091,-1.46677071533328,-1.23909804841014,-9.72204147174478,5.76365160546158,5.52639823513281,2.74728430674499,-4.17693328728642,2.04792047465253,-1.39516962292453,0.683740781228792,9.32531069490998,2.7133666680107,-2.66459660538529,5.09984031269937,6.23894031015188,-0.166624223091127,-6.41469069431226,11.5420111859809,10.2456786291484
0.01,0.848776523407764,-15.7482825078579,1.71011080325422,-5.96051532489503,1.49632746260342,-1.46576798427579,-1.23893118989963,-9.71546133466775,5.75981168434596,5.52265291755067,2.74541164795392,-4.17412429838603,2.04588277582275,-1.39436915782048,0.683259390865473,9.31902712869616,2.71157136416023,-2.66280130153483,5.09572118489996,6.23471055240646,-0.166490937026559,-6.41037670258385,11.5342460029745,10.238776242646
0.015,0.84789757511237,-15.7374921638131,1.70950348985639,-5.95650439913625,1.49532473154593,-1.4647652532183,-1.23876433138912,-9.70888119759073,5.75597176323033,5.51890759996853,2.74353898916285,-4.17131530948565,2.04384507699297,-1.39356869271643,0.682778000502147,9.31274356248233,2.70977606030977,-2.66100599768436,5.09160205710077,6.23048079466106,-0.166357650961977,-6.40606271085544,11.5264808199681,10.2318738561437
0.02,0.847018626816862,-15.7267018197683,1.70889617645867,-5.95249347337748,1.49432200048844,-1.4637625221608,-1.23859747287838,-9.7023010605137,5.75213184211471,5.5151622823864,2.74166633037179,-4.16850632058526,2.04180737816318,-1.39276822761238,0.68229661013882,9.30645999626851,2.7079807564593,-2.6592106938339,5.08748292930136,6.22625103691564,-0.16622436489741,-6.40174871912704,11.5187156369617,10.2249714696413
0.025,0.846139678521467,-15.7159114757235,1.70828886306094,-5.9484825476187,1.49331926943094,-1.46275979110331,-1.2384306143681,-9.69572092343667,5.74829192099909,5.51141696480426,2.73979367158071,-4.16569733168488,2.0397696793334,-1.39196776250833,0.681815219775501,9.30017643005468,2.70618545260884,-2.65741538998343,5.08336380150195,6.22202127917023,-0.166091078832835,-6.39743472739864,11.5109504539553,10.218069083139
0.03,0.845260730226073,-15.7051211316788,1.70768154966311,-5.94447162185992,1.49231653837345,-1.46175706004582,-1.23826375585736,-9.68914078635964,5.74445199988348,5.50767164722212,2.73792101278964,-4.16288834278449,2.03773198050362,-1.39116729740425,0.681333829412168,9.29389286384086,2.70439014875837,-2.65562008613296,5.07924467370276,6.21779152142481,-0.165957792768268,-6.39312073567023,11.5031852709489,10.2111666966366
0.035,0.844381781930565,-15.694330787634,1.70707423626538,-5.94046069610115,1.49131380731596,-1.46075432898833,-1.23809689734685,-9.68256064928261,5.74061207876787,5.50392632963999,2.73604835399858,-4.16007935388411,2.03569428167384,-1.3903668323002,0.680852439048849,9.28760929762703,2.7025948449079,-2.6538247822825,5.07512554590357,6.21356176367941,-0.165824506703686,-6.38880674394182,11.4954200879425,10.2042643101342
0.04,0.843502833635284,-15.6835404435892,1.70646692286743,-5.93644977034237,1.49031107625846,-1.45975159793083,-1.23793003883634,-9.67598051220558,5.73677215765225,5.50018101205785,2.73417569520752,-4.15727036498372,2.03365658284406,-1.38956636719612,0.680371048685522,9.2813257314132,2.70079954105744,-2.65202947843203,5.07100641810416,6.20933200593399,-0.165691220639118,-6.38449275221342,11.4876549049361,10.1973619236319
0.045,0.842623885339776,-15.6727500995444,1.70585960946971,-5.93243884458359,1.48930834520097,-1.45874886687334,-1.23776318032583,-9.66940037512855,5.73293223653663,5.49643569447572,2.73230303641645,-4.15446137608333,2.03161888401428,-1.3887659020921,0.679889658322203,9.27504216519938,2.69900423720697,-2.65023417458156,5.06688729030498,6.20510224818858,-0.165557934574544,-6.38017876048501,11.4798897219297,10.1904595371295
0.05,0.841744937044382,-15.6619597554997,1.70525229607199,-5.92842791882482,1.48830561414348,-1.45774613581585,-1.23759632181509,-9.66282023805152,5.72909231542101,5.49269037689357,2.73043037762537,-4.15165238718295,2.02958118518427,-1.38796543698803,0.679408267958877,9.26875859898556,2.69720893335651,-2.6484388707311,5.06276816250579,6.20087249044317,-0.165424648509969,-6.37586476875661,11.4721245389233,10.1835571506272
0.055,0.840865988748988,-15.6511694114549,1.70464498267415,-5.92441699306604,1.48730288308599,-1.45674340475836,-1.23742946330458,-9.65624010097449,5.7252523943054,5.48894505931144,2.72855771883431,-4.14884339828256,2.02754348635472,-1.38716497188398,0.678926877595558,9.26247503277173,2.69541362950604,-2.64664356688063,5.05864903470615,6.19664273269776,-0.165291362445394,-6.3715507770282,11.4643593559169,10.1766547641248
0.06,0.839987040453479,-15.6403790674102,1.70403766927643,-5.92040606730726,1.48630015202849,-1.45574067370086,-1.23726260479407,-9.64965996389746,5.72141247318979,5.4851997417293,2.72668506004324,-4.14603440938218,2.02550578752493,-1.38636450677993,0.678445487232224,9.25619146655791,2.69361832565558,-2.64484826303017,5.05452990690696,6.19241297495235,-0.16515807638082,-6.3672367852998,11.4565941729105,10.1697523776225
0.065,0.839108092158085,-15.6295887233654,1.7034303558786,-5.91639514154849,1.485297420971,-1.45473794264337,-1.23709574628333,-9.64307982682043,5.71757255207415,5.48145442414717,2.72481240125217,-4.14322542048179,2.02346808869515,-1.38556404167585,0.677964096868905,9.24990790034408,2.69182302180511,-2.6430529591797,5.05041077910778,6.18818321720693,-0.165024790316252,-6.36292279357139,11.4488289899041,10.1628499911201
0.07,0.838229143862577,-15.6187983793205,1.70282304248076,-5.91238421578971,1.48429468991351,-1.45373521158587,-1.23692888777282,-9.6364996897434,5.71373263095853,5.47770910656503,2.7229397424611,-4.14041643158141,2.02143038986537,-1.3847635765718,0.677482706505579,9.24362433413025,2.69002771795464,-2.64125765532923,5.04629165130837,6.18395345946153,-0.164891504251678,-6.35860880184299,11.4410638068977,10.1559476046177
0.075,0.837350195567183,-15.6080080352758,1.70221572908304,-5.90837329003093,1.48329195885601,-1.45273248052838,-1.23676202926231,-9.62991955266637,5.70989270984292,5.4739637889829,2.72106708367003,-4.13760744268102,2.01939269103536,-1.38396311146772,0.67700131614226,9.23734076791643,2.68823241410418,-2.63946235147877,5.04217252350918,6.17972370171611,-0.164758218187103,-6.35429481011458,11.4332986238913,10.1490452181154
0.08,0.836471247271788,-15.597217691231,1.7016084156852,-5.90436236427216,1.48228922779852,-1.45172974947089,-1.2365951707518,-9.62333941558934,5.70605278872731,5.47021847140076,2.71919442487896,-4.13479845378064,2.01735499220558,-1.3831626463637,0.67651992577893,9.2310572017026,2.68643711025371,-2.6376670476283,5.03805339570999,6.1754939439707,-0.164624932122528,-6.34998081838617,11.4255334408849,10.142142831613
0.085,0.83559229897628,-15.5864273471862,1.70100110228748,-5.90035143851338,1.48128649674103,-1.4507270184134,-1.23642831224106,-9.6167592785123,5.70221286761169,5.46647315381862,2.7173217660879,-4.13198946488025,2.0153172933758,-1.38236218125962,0.676038535415604,9.22477363548878,2.68464180640324,-2.63587174377784,5.03393426791058,6.17126418622529,-0.164491646057961,-6.34566682665777,11.4177682578785,10.1352404451107
0.09,0.834713350680886,-15.5756370031414,1.70039378888964,-5.8963405127546,1.48028376568354,-1.44972428735591,-1.23626145373078,-9.61017914143527,5.69837294649606,5.46272783623649,2.71544910729683,-4.12918047597987,2.01327959454625,-1.38156171615555,0.675557145052284,9.21849006927495,2.68284650255278,-2.63407643992737,5.02981514011117,6.16703442847988,-0.164358359993386,-6.34135283492936,11.4100030748721,10.1283380586083
0.095,0.833834402385492,-15.5648466590966,1.69978647549192,-5.89232958699583,1.47928103462604,-1.44872155629841,-1.23609459522004,-9.60359900435824,5.69453302538045,5.45898251865435,2.71357644850576,-4.12637148707948,2.01124189571624,-1.38076125105152,0.675075754688955,9.21220650306113,2.68105119870231,-2.6322811360769,5.02569601231198,6.16280467073446,-0.164225073928815,-6.33703884320096,11.4022378918657,10.121435672106
0.1,0.832955454090097,-15.5540563150519,1.69917916209408,-5.88831866123705,1.47827830356855,-1.44771882524092,-1.23592773670953,-9.59701886728122,5.69069310426484,5.45523720107222,2.71170378971469,-4.12356249817909,2.00920419688646,-1.37996078594745,0.674594364325635,9.2059229368473,2.67925589485185,-2.63048583222644,5.02157688451257,6.15857491298906,-0.164091787864237,-6.33272485147255,11.3944727088593,10.1145332856036
0.105,0.832076505794703,-15.5432659710071,1.69857184869636,-5.88430773547828,1.47727557251106,-1.44671609418343,-1.23576087819902,-9.59043873020419,5.68685318314922,5.45149188349007,2.70983113092363,-4.12075350927871,2.00716649805668,-1.3791603208434,0.674112973962309,9.19963937063348,2.67746059100138,-2.62869052837597,5.01745775671338,6.15434515524364,-0.163958501799666,-6.32841085974415,11.3867075258529,10.1076308991012
0.11,0.831197557499195,-15.5324756269623,1.69796453529852,-5.8802968097195,1.47627284145356,-1.44571336312593,-1.23559401968851,-9.58385859312716,5.6830132620336,5.44774656590794,2.70795847213256,-4.11794452037832,2.0051287992269,-1.37835985573932,0.673631583598986,9.19335580441965,2.67566528715091,-2.62689522452551,5.0133386289142,6.15011539749823,-0.163825215735095,-6.32409686801574,11.3789423428465,10.1007285125989
0.115,0.8303186092038,-15.5216852829175,1.6973572219008,-5.87628588396072,1.47527011039607,-1.44471063206844,-1.23542716117777,-9.57727845605013,5.67917334091797,5.44400124832581,2.70608581334148,-4.11513553147794,2.00309110039711,-1.3775593906353,0.67315019323566,9.18707223820583,2.67386998330045,-2.62509992067504,5.00921950111479,6.14588563975282,-0.163691929670524,-6.31978287628734,11.3711771598401,10.0938261260965
0.12,0.829439660908292,-15.5108949388728,1.69674990850297,-5.87227495820195,1.47426737933858,-1.44370790101095,-1.23526030266748,-9.5706983189731,5.67533341980236,5.44025593074367,2.70421315455042,-4.11232654257755,2.00105340156733,-1.37675892553122,0.672668802872341,9.180788671992,2.67207467944998,-2.62330461682457,5.0051003733156,6.14165588200741,-0.163558643605942,-6.31546888455893,11.3634119768337,10.0869237395942
0.125,0.828560712612898,-15.500104594828,1.69614259510513,-5.86826403244317,1.47326464828109,-1.44270516995345,-1.23509344415675,-9.56411818189607,5.67149349868674,5.43651061316153,2.70234049575935,-4.10951755367717,1.99901570273755,-1.37595846042717,0.672187412509011,9.17450510577818,2.67027937559952,-2.62150931297411,5.00098124551641,6.137426124262,-0.163425357541371,-6.31115489283053,11.3556467938273,10.0800213530918
0.13,0.82768176431739,-15.4893142507833,1.69553528170741,-5.86425310668439,1.47226191722359,-1.44170243889596,-1.23492658564624,-9.55753804481903,5.66765357757113,5.43276529557939,2.70046783696829,-4.10670856477678,1.99697800390777,-1.37515799532312,0.671706022145692,9.16822153956435,2.66848407174905,-2.61971400912364,4.99686211771677,6.13319636651658,-0.1632920714768,-6.30684090110212,11.3478816108209,10.0731189665895
0.135,0.826802816021996,-15.4785239067385,1.69492796830957,-5.86024218092562,1.4712591861661,-1.44069970783847,-1.2347597271355,-9.550957907742,5.6638136564555,5.42901997799726,2.69859517817722,-4.1038995758764,1.99494030507799,-1.37435753021904,0.671224631782366,9.16193797335053,2.66668876789858,-2.61791870527318,4.99274298991759,6.12896660877118,-0.163158785412225,-6.30252690937371,11.3401164278145,10.0662165800871
0.14,0.825923867726601,-15.4677335626937,1.69432065491185,-5.85623125516684,1.47025645510861,-1.43969697678098,-1.23459286862499,-9.54437777066497,5.65997373533989,5.42527466041512,2.69672251938615,-4.10109058697601,1.99290260624798,-1.37355706511502,0.670743241419039,9.1556544071367,2.66489346404811,-2.61612340142271,4.9886238621184,6.12473685102576,-0.163025499347654,-6.29821291764531,11.3323512448081,10.0593141935847
0.145,0.825044919431093,-15.4569432186489,1.69371334151413,-5.85222032940806,1.46925372405111,-1.43869424572348,-1.23442601011448,-9.53779763358795,5.65613381422428,5.42152934283299,2.69484986059508,-4.09828159807562,1.9908649074182,-1.37275660001094,0.670261851055717,9.14937084092288,2.66309816019766,-2.61432809757224,4.98450473431899,6.12050709328035,-0.162892213283079,-6.29389892591691,11.3245860618017,10.0524118070824
0.15,0.824165971135699,-15.4461528746041,1.69310602811618,-5.84820940364929,1.46825099299362,-1.43769151466599,-1.23425915160374,-9.53121749651092,5.65229389310866,5.41778402525085,2.69297720180401,-4.09547260917524,1.98882720858842,-1.3719561349069,0.66978046069239,9.14308727470905,2.66130285634718,-2.61253279372178,4.9803856065198,6.11627733553494,-0.162758927218508,-6.2895849341885,11.3168208787953,10.04550942058
0.155,0.823287022840191,-15.4353625305594,1.69249871471845,-5.84419847789051,1.46724826193613,-1.4366887836085,-1.23409229309345,-9.52463735943389,5.64845397199304,5.41403870766871,2.69110454301294,-4.09266362027485,1.98678950975886,-1.37115566980282,0.669299070329068,9.13680370849523,2.65950755249672,-2.61073748987131,4.97626647872062,6.11204757778953,-0.162625641153934,-6.28527094246009,11.3090556957889,10.0386070340777
0.16,0.82240807454491,-15.4245721865145,1.69189140132062,-5.84018755213173,1.46624553087864,-1.43568605255101,-1.23392543458272,-9.51805722235686,5.64461405087742,5.41029339008658,2.68923188422187,-4.08985463137447,1.98475181092908,-1.37035520469877,0.668817679965741,9.1305201422814,2.65771224864626,-2.60894218602085,4.9721473509212,6.10781782004411,-0.162492355089363,-6.28095695073169,11.3012905127825,10.0317046475753
0.165,0.821529126249402,-15.4137818424697,1.6912840879229,-5.83617662637296,1.46524279982114,-1.43468332149351,-1.2337585760722,-9.51147708527983,5.64077412976179,5.40654807250444,2.6873592254308,-4.08704564247408,1.98271411209907,-1.36955473959472,0.668336289602422,9.12423657606758,2.65591694479578,-2.60714688217038,4.96802822312179,6.10358806229869,-0.162359069024781,-6.27664295900329,11.2935253297761,10.024802261073
0.17,0.820650177954008,-15.402991498425,1.69067677452517,-5.83216570061418,1.46424006876365,-1.43368059043602,-1.23359171756169,-9.5048969482028,5.63693420864618,5.4028027549223,2.68548656663974,-4.0842366535737,1.98067641326929,-1.36875427449064,0.667854899239092,9.11795300985375,2.65412164094533,-2.60535157831991,4.96390909532283,6.0993583045533,-0.162225782960217,-6.27232896727487,11.2857601467697,10.0178998745706
0.175,0.819771229658613,-15.3922011543802,1.69006946112734,-5.8281547748554,1.46323733770616,-1.43267785937853,-1.23342485905118,-9.49831681112577,5.63309428753057,5.39905743734016,2.68361390784867,-4.08142766467331,1.97863871443951,-1.36795380938659,0.667373508875773,9.11166944363992,2.65232633709486,-2.60355627446945,4.95978996752342,6.09512854680787,-0.162092496895639,-6.26801497554647,11.2779949637633,10.0109974880682
0.18,0.818892281363105,-15.3814108103355,1.6894621477295,-5.82414384909663,1.46223460664867,-1.43167512832103,-1.23325800054045,-9.49173667404874,5.62925436641494,5.39531211975803,2.6817412490576,-4.07861867577292,1.97660101560973,-1.36715334428254,0.666892118512447,9.1053858774261,2.65053103324439,-2.60176097061898,4.95567083972401,6.09089878906246,-0.161959210831068,-6.26370098381807,11.2702297807569,10.0040951015659
0.185,0.818013333067711,-15.3706204662907,1.68885483433166,-5.82013292333785,1.46123187559117,-1.43067239726354,-1.23309114203016,-9.48515653697171,5.62541444529933,5.39156680217589,2.67986859026653,-4.07580968687254,1.97456331678018,-1.36635287917846,0.666410728149128,9.09910231121227,2.64873572939393,-2.59996566676852,4.95155171192482,6.08666903131705,-0.161825924766493,-6.25938699208966,11.2624645977505,9.99719271506352
0.19,0.817134384772203,-15.3598301222459,1.68824752093394,-5.81612199757907,1.46022914453368,-1.42966966620605,-1.23292428351942,-9.47857639989468,5.62157452418371,5.38782148459375,2.67799593147546,-4.07300069797215,1.97252561795017,-1.36555241407441,0.665929337785798,9.09281874499845,2.64694042554346,-2.59817036291805,4.94743258412541,6.08243927357164,-0.161692638701922,-6.25507300036125,11.2546994147441,9.99029032856116
0.195,0.816255436476808,-15.3490397782011,1.68764020753622,-5.8121110718203,1.45922641347619,-1.42866693514856,-1.23275742500891,-9.47199626281765,5.6177346030681,5.38407616701162,2.6761232726844,-4.07019170907177,1.97048791912039,-1.36475194897037,0.665447947422479,9.08653517878462,2.64514512169299,-2.59637505906758,4.94331345632622,6.07820951582623,-0.161559352637347,-6.25075900863285,11.2469342317377,9.98338794205881
0.2,0.815376488181414,-15.3382494341564,1.68703289413838,-5.80810014606152,1.45822368241869,-1.42766420409106,-1.2325905664984,-9.46541612574062,5.61389468195247,5.38033084942948,2.67425061389332,-4.06738272017138,1.96845022029061,-1.36395148386632,0.664966557059149,9.0802516125708,2.64334981784253,-2.59457975521712,4.93919432852681,6.07397975808082,-0.161426066572776,-6.24644501690444,11.2391690487313,9.97648555555645
0.205,0.814497539885906,-15.3274590901116,1.68642558074066,-5.80408922030274,1.4572209513612,-1.42666147303357,-1.23242370798789,-9.45883598866359,5.61005476083686,5.37658553184735,2.67237795510226,-4.064573731271,1.96641252146082,-1.36315101876227,0.664485166695822,9.07396804635697,2.64155451399206,-2.59278445136665,4.9350752007274,6.06975000033541,-0.161292780508205,-6.24213102517604,11.2314038657249,9.96958316905409
0.21,0.813618591590512,-15.3166687460668,1.68581826734282,-5.80007829454397,1.45621822030371,-1.42565874197608,-1.23225684947715,-9.45225585158656,5.60621483972125,5.37284021426521,2.67050529631119,-4.06176474237061,1.96437482263082,-1.36235055365819,0.664003776332503,9.06768448014315,2.6397592101416,-2.59098914751619,4.93095607292832,6.06552024258999,-0.161159494443631,-6.23781703344763,11.2236386827185,9.96268078255174
0.215,0.812739643295117,-15.305878402022,1.68521095394499,-5.79606736878519,1.45521548924621,-1.42465601091858,-1.23208999096664,-9.44567571450953,5.60237491860562,5.36909489668308,2.66863263752013,-4.05895575347023,1.96233712380126,-1.36155008855414,0.663522385969173,9.06140091392932,2.63796390629113,-2.58919384366572,4.92683694512903,6.06129048484459,-0.161026208379056,-6.23350304171923,11.2158734997121,9.95577839604938
0.22,0.811860694999723,-15.2950880579772,1.68460364054727,-5.79205644302641,1.45421275818872,-1.42365327986109,-1.23192313245613,-9.4390955774325,5.59853499749001,5.36534957910094,2.66675997872906,-4.05614676456984,1.96029942497148,-1.36074962345009,0.663040995605854,9.0551173477155,2.63616860244066,-2.58739853981525,4.9227178173295,6.05706072709917,-0.160892922314481,-6.22918904999082,11.2081083167057,9.94887600954702
0.225,0.810981746704215,-15.2842977139325,1.68399632714954,-5.78804551726764,1.45321002713123,-1.4226505488036,-1.23175627394539,-9.43251544035547,5.59469507637438,5.3616042615188,2.66488731993799,-4.05333777566946,1.9582617261417,-1.35994915834601,0.662559605242528,9.04883378150167,2.6343732985902,-2.58560323596479,4.91859868953043,6.05283096935376,-0.16075963624991,-6.22487505826241,11.2003431336993,9.94197362304466
0.23,0.81010279840882,-15.2735073698877,1.68338901375159,-5.78403459150886,1.45220729607374,-1.42164781774611,-1.23158941543488,-9.42593530327844,5.59085515525877,5.35785894393667,2.66301466114692,-4.05052878676907,1.95622402731192,-1.35914869324196,0.662078214879202,9.04255021528785,2.63257799473973,-2.58380793211432,4.91447956173101,6.04860121160835,-0.160626350185336,-6.22056106653401,11.1925779506929,9.93507123654231
0.235,0.809223850113426,-15.262717025843,1.68278170035387,-5.78002366575008,1.45120456501624,-1.42064508668861,-1.23142255692437,-9.41935516620141,5.58701523414315,5.35411362635453,2.66114200235585,-4.04771979786868,1.95418632848191,-1.35834822813791,0.661596824515879,9.03626664907402,2.63078269088927,-2.58201262826386,4.91036043393171,6.04437145386294,-0.160493064120764,-6.2162470748056,11.1848127676865,9.92816885003995
0.24,0.808344901817918,-15.2519266817982,1.68217438695615,-5.77601273999131,1.45020183395875,-1.41964235563112,-1.23125569841386,-9.41277502912438,5.58317531302754,5.35036830877239,2.65926934356478,-4.0449108089683,1.95214862965213,-1.35754776303386,0.661115434152556,9.02998308286019,2.6289873870388,-2.58021732441339,4.90624130613253,6.04014169611753,-0.16035977805619,-6.2119330830772,11.1770475846801,9.9212664635376
0.245,0.807465953522524,-15.2411363377534,1.68156707355831,-5.77200181423253,1.44919910290126,-1.41863962457363,-1.23108883990312,-9.40619489204735,5.57933539191191,5.34662299119026,2.65739668477371,-4.04210182006791,1.95011093082235,-1.35674729792979,0.66063404378923,9.02369951664637,2.62719208318833,-2.57842202056292,4.90212217833312,6.03591193837211,-0.160226491991619,-6.20761909134879,11.1692824016737,9.91436407703524
0.25,0.806587005227016,-15.2303459937086,1.68095976016059,-5.76799088847375,1.44819637184376,-1.41763689351613,-1.23092198139284,-9.39961475497032,5.5754954707963,5.34287767360812,2.65552402598264,-4.03929283116753,1.94807323199279,-1.35594683282574,0.660152653425907,9.01741595043255,2.62539677933786,-2.57662671671246,4.89800305053382,6.0316821806267,-0.160093205927044,-6.20330509962039,11.1615172186673,9.90746169053288
0.255,0.805708056931621,-15.2195556496638,1.68035244676275,-5.76397996271498,1.44719364078627,-1.41663416245864,-1.2307551228821,-9.39303461789329,5.57165554968068,5.33913235602598,2.65365136719158,-4.03648384226714,1.94603553316301,-1.35514636772169,0.659671263062585,9.01113238421872,2.6236014754874,-2.57483141286199,4.89388392273463,6.02745242288129,-0.159959919862473,-6.19899110789198,11.153752035661,9.90055930403052
0.26,0.804829108636227,-15.208765305619,1.67974513336492,-5.7599690369562,1.44619090972878,-1.41563143140115,-1.23058826437159,-9.38645448081626,5.56781562856507,5.33538703844385,2.65177870840051,-4.03367485336676,1.943997834333,-1.35434590261761,0.659189872699258,9.00484881800489,2.62180617163693,-2.57303610901153,4.88976479493533,6.02322266513588,-0.159826633797895,-6.19467711616358,11.1459868526546,9.89365691752817
0.265,0.803950160340719,-15.1979749615742,1.6791378199672,-5.75595811119743,1.44518817867129,-1.41462870034366,-1.23042140586108,-9.37987434373924,5.56397570744943,5.33164172086171,2.64990604960944,-4.03086586446637,1.94196013550322,-1.35354543751356,0.658708482335935,8.99856525179107,2.62001086778647,-2.57124080516106,4.88564566713592,6.01899290739047,-0.159693347733324,-6.19036312443517,11.1382216696482,9.88675453102581
0.27,0.803071212045325,-15.1871846175295,1.67853050656936,-5.75194718543865,1.44418544761379,-1.41362596928616,-1.23025454735057,-9.3732942066622,5.56013578633382,5.32789640327957,2.64803339081837,-4.02805687556599,1.93992243667356,-1.35274497240951,0.658227091972613,8.99228168557725,2.618215563936,-2.5694455013106,4.88152653933673,6.01476314964506,-0.159560061668749,-6.18604913270677,11.1304564866418,9.87985214452345
0.275,0.80219226374993,-15.1763942734847,1.67792319317164,-5.74793625967987,1.4431827165563,-1.41262323822867,-1.23008768883983,-9.36671406958517,5.5562958652182,5.32415108569744,2.6461607320273,-4.0252478866656,1.93788473784366,-1.35194450730546,0.657745701609286,8.98599811936342,2.61642026008554,-2.56765019746013,4.87740741153743,6.01053339189964,-0.159426775604178,-6.18173514097836,11.1226913036354,9.87294975802109
0.28,0.801313315454536,-15.1656039294399,1.67731587977391,-5.7439253339211,1.44217998549881,-1.41162050717118,-1.22992083032955,-9.36013393250814,5.55245594410259,5.3204057681153,2.64428807323624,-4.02243889776521,1.93584703901388,-1.35114404220138,0.657264311245964,8.97971455314959,2.61462495623507,-2.56585489360966,4.87328828373813,6.00630363415423,-0.159293489539603,-6.17742114924996,11.114926120629,9.86604737151873
0.285,0.800434367159028,-15.1548135853951,1.67670856637608,-5.73991440816232,1.44117725444132,-1.41061777611368,-1.22975397181881,-9.35355379543111,5.54861602298698,5.31666045053316,2.64241541444517,-4.01962990886483,1.93380934018398,-1.35034357709736,0.656782920882637,8.97343098693577,2.61282965238461,-2.5640595897592,4.86916915593883,6.00207387640882,-0.159160203475032,-6.17310715752155,11.1071609376226,9.85914498501638
0.29,0.799555418863633,-15.1440232413504,1.67610125297824,-5.73590348240354,1.44017452338382,-1.40961504505619,-1.22958711330807,-9.34697365835408,5.54477610187135,5.31291513295103,2.6405427556541,-4.01682091996444,1.93177164135432,-1.34954311199328,0.656301530519311,8.96714742072194,2.61103434853414,-2.56226428590873,4.86505002813954,5.99784411866341,-0.159026917410458,-6.16879316579314,11.0993957546162,9.85224259851402
0.295,0.798676470568239,-15.1332328973056,1.67549393958052,-5.73189255664477,1.43917179232633,-1.4086123139987,-1.22942025479779,-9.34039352127705,5.54093618075574,5.30916981536889,2.63867009686303,-4.01401193106406,1.92973394252454,-1.34874264688921,0.655820140155988,8.96086385450812,2.60923904468367,-2.56046898205826,4.86093090034024,5.993614360918,-0.158893631345887,-6.16447917406474,11.0916305716098,9.84534021201166
0.3,0.797797522272731,-15.1224425532608,1.67488662618268,-5.72788163088599,1.43816906126884,-1.40760958294121,-1.22925339628705,-9.33381338420002,5.53709625964012,5.30542449778675,2.63679743807197,-4.01120294216367,1.92769624369464,-1.34794218178516,0.655338749792666,8.95458028829429,2.6074437408332,-2.5586736782078,4.85681177254094,5.98938460317259,-0.158760345281312,-6.16016518233633,11.0838653886034,9.8384378255093
0.305,0.796918573977337,-15.1116522092161,1.67427931278496,-5.72387070512721,1.43716633021134,-1.40660685188371,-1.22908653777654,-9.32723324712299,5.53325633852451,5.30167918020462,2.6349247792809,-4.00839395326329,1.92565854486497,-1.34714171668111,0.654857359429339,8.94829672208047,2.60564843698274,-2.55687837435733,4.85269264474164,5.98515484542717,-0.158627059216741,-6.15585119060793,11.076100205597,9.83153543900695
0.31,0.796039625681829,-15.1008618651713,1.67367199938712,-5.71985977936844,1.43616359915385,-1.40560412082622,-1.2289196792658,-9.32065311004596,5.52941641740888,5.29793386262248,2.63305212048983,-4.0055849643629,1.92362084603508,-1.34634125157706,0.654375969066017,8.94201315586665,2.60385313313228,-2.55508307050687,4.84857351694234,5.98092508768176,-0.158493773152163,-6.15153719887952,11.0683350225906,9.82463305250459
0.315,0.795160677386434,-15.0900715211265,1.67306468598929,-5.71584885360966,1.43516086809636,-1.40460138976873,-1.22875282075552,-9.31407297296893,5.52557649629325,5.29418854504035,2.63117946169876,-4.00277597546252,1.9215831472053,-1.34554078647298,0.653894578702694,8.93572958965282,2.6020578292818,-2.5532877666564,4.84445438914315,5.97669532993635,-0.158360487087592,-6.14722320715112,11.0605698395842,9.81773066600223
0.32,0.794281729090926,-15.0792811770817,1.67245737259157,-5.71183792785088,1.43415813703886,-1.40359865871123,-1.22858596224478,-9.3074928358919,5.52173657517764,5.29044322745821,2.62930680290769,-3.99996698656213,1.91954544837552,-1.34474032136896,0.653413188339368,8.92944602343899,2.60026252543135,-2.55149246280594,4.84033526134374,5.97246557219094,-0.158227201023017,-6.14290921542271,11.0528046565778,9.81082827949987
0.325,0.793402780795532,-15.0684908330369,1.67185005919373,-5.70782700209211,1.43315540598137,-1.40259592765374,-1.22841910373427,-9.30091269881487,5.51789665406203,5.28669790987607,2.62743414411662,-3.99715799766174,1.91750774954573,-1.34393985626488,0.652931797976045,8.92316245722517,2.59846722158088,-2.54969715895547,4.83621613354444,5.96823581444553,-0.158093914958446,-6.13859522369431,11.0450394735714,9.80392589299752
0.33,0.792523832500251,-15.0577004889922,1.67124274579601,-5.70381607633333,1.43215267492388,-1.40159319659625,-1.22825224522376,-9.29433256173784,5.51405673294641,5.28295259229394,2.62556148532555,-3.99434900876136,1.91547005071595,-1.3431393911608,0.652450407612722,8.91687889101134,2.59667191773041,-2.547901855105,4.83209700574525,5.96400605670012,-0.157960628893875,-6.1342812319659,11.037274290565,9.79702350649516
0.335,0.791644884204743,-15.0469101449474,1.67063543239829,-5.69980515057455,1.43114994386639,-1.40059046553875,-1.22808538671325,-9.28775242466082,5.51021681183079,5.2792072747118,2.62368882653448,-3.99154001986097,1.91343235188617,-1.34233892605678,0.651969017249396,8.91059532479752,2.59487661387995,-2.54610655125454,4.82797787794584,5.9597762989547,-0.1578273428293,-6.1299672402375,11.0295091075586,9.7901211199928
0.34,0.790765935909349,-15.0361198009026,1.67002811900034,-5.69579422481578,1.43014721280889,-1.39958773448126,-1.22791852820251,-9.28117228758379,5.50637689071517,5.27546195712966,2.62181616774342,-3.98873103096059,1.91139465305639,-1.34153846095271,0.651487626886073,8.90431175858369,2.59308131002948,-2.54431124740407,4.82385875014654,5.95554654120929,-0.157694056764729,-6.12565324850909,11.0217439245522,9.78321873349045
0.345,0.789886987613841,-15.0253294568578,1.66942080560273,-5.691783299057,1.4291444817514,-1.39858500342377,-1.22775166969222,-9.27459215050676,5.50253696959956,5.27171663954753,2.61994350895235,-3.9859220420602,1.9093569542265,-1.34073799584866,0.651006236522747,8.89802819236987,2.59128600617901,-2.5425159435536,4.81973962234736,5.95131678346388,-0.157560770700155,-6.12133925678069,11.0139787415458,9.77631634698809
0.35,0.789008039318446,-15.0145391128131,1.66881349220478,-5.68777237329822,1.42814175069391,-1.39758227236628,-1.22758481118149,-9.26801201342972,5.49869704848395,5.26797132196539,2.61807085016128,-3.98311305315982,1.90731925539683,-1.33993753074458,0.650524846159421,8.89174462615604,2.58949070232855,-2.54072063970314,4.81562049454806,5.94708702571847,-0.157427484635583,-6.11702526505228,11.0062135585394,9.76941396048573
0.355,0.788129091023052,-15.0037487687683,1.66820617880705,-5.68376144753945,1.42713901963642,-1.39657954130878,-1.22741795267098,-9.26143187635269,5.49485712736832,5.26422600438326,2.61619819137021,-3.98030406425943,1.90528155656693,-1.33913706564056,0.650043455796098,8.88546105994222,2.58769539847808,-2.53892533585267,4.81150136674864,5.94285726797306,-0.157294198571005,-6.11271127332387,10.998448375533,9.76251157398337
0.36,0.787250142727544,-14.9929584247235,1.66759886540933,-5.67975052178067,1.42613628857892,-1.39557681025129,-1.22725109416047,-9.25485173927566,5.49101720625269,5.26048068680112,2.61432553257914,-3.97749507535904,1.90324385773715,-1.33833660053648,0.649562065432775,8.87917749372839,2.58590009462761,-2.53713003200221,4.80738223894946,5.93862751022764,-0.157160912506434,-6.10839728159547,10.9906831925266,9.75560918748102
0.365,0.786371194432149,-14.9821680806787,1.6669915520115,-5.67573959602189,1.42513355752143,-1.3945740791938,-1.22708423564973,-9.24827160219863,5.48717728513708,5.25673536921898,2.61245287378808,-3.97468608645866,1.90120615890737,-1.33753613543243,0.649080675069449,8.87289392751457,2.58410479077715,-2.53533472815174,4.80326311115016,5.93439775248223,-0.15702762644186,-6.10408328986706,10.9829180095202,9.74870680097866
0.37,0.785492246136641,-14.9713777366339,1.66638423861366,-5.67172867026312,1.42413082646394,-1.39357134813631,-1.22691737713922,-9.2416914651216,5.48333736402147,5.25299005163685,2.61058021499701,-3.97187709755827,1.89916846007759,-1.33673567032838,0.648599284706126,8.86661036130074,2.58230948692668,-2.53353942430128,4.79914398335086,5.93016799473682,-0.156894340377288,-6.09976929813866,10.9751528265138,9.7418044144763
0.375,0.784613297841247,-14.9605873925892,1.66577692521594,-5.66771774450434,1.42312809540644,-1.39256861707881,-1.22675051862871,-9.23511132804457,5.47949744290584,5.24924473405471,2.60870755620594,-3.96906810865789,1.89713076124781,-1.3359352052243,0.648117894342803,8.86032679508691,2.58051418307622,-2.53174412045081,4.79502485555156,5.92593823699141,-0.156761054312714,-6.09545530641025,10.9673876435074,9.73490202797395
0.38,0.783734349545739,-14.9497970485444,1.6651696118181,-5.66370681874556,1.42212536434895,-1.39156588602132,-1.22658366011819,-9.22853119096754,5.47565752179023,5.24549941647257,2.60683489741487,-3.9662591197575,1.89509306241791,-1.33513474012025,0.647636503979477,8.85404322887309,2.57871887922575,-2.52994881660034,4.79090572775226,5.921708479246,-0.156627768248143,-6.09114131468185,10.959622460501,9.72799964147159
0.385,0.782855401250345,-14.9390067044996,1.66456229842038,-5.65969589298679,1.42112263329146,-1.39056315496383,-1.22641680160746,-9.22195105389051,5.47181760067461,5.24175409889044,2.60496223862381,-3.96345013085712,1.89305536358825,-1.33433427501618,0.647155113616154,8.84775966265926,2.57692357537529,-2.52815351274988,4.78678659995296,5.91747872150059,-0.156494482183568,-6.08682732295344,10.9518572774946,9.72109725496923
0.39,0.781976452955064,-14.9282163604548,1.66395498502254,-5.65568496722801,1.42011990223397,-1.38956042390633,-1.22624994309717,-9.21537091681348,5.467977679559,5.2380087813083,2.60308957983274,-3.96064114195673,1.89101766475835,-1.33353380991215,0.646673723252832,8.84147609644544,2.57512827152482,-2.52635820889941,4.78266747215366,5.91324896375518,-0.156361196118997,-6.08251333122504,10.9440920944882,9.71419486846688
0.395,0.781097504659556,-14.91742601641,1.66334767162482,-5.65167404146923,1.41911717117647,-1.38855769284884,-1.22608308458643,-9.20879077973646,5.46413775844339,5.23426346372616,2.60121692104167,-3.95783215305635,1.88897996592857,-1.33273334480808,0.646192332889505,8.83519253023162,2.57333296767435,-2.52456290504895,4.77854834435436,5.90901920600976,-0.156227910054422,-6.07819933949663,10.9363269114818,9.70729248196452
0.4,0.780218556364161,-14.9066356723653,1.66274035822698,-5.64766311571046,1.41811444011898,-1.38755496179135,-1.22591622607592,-9.20221064265943,5.46029783732776,5.23051814614402,2.5993442622506,-3.95502316415596,1.8869422670989,-1.33193287970403,0.645710942526183,8.82890896401779,2.57153766382389,-2.52276760119848,4.77442921655506,5.90478944826436,-0.156094623989848,-6.07388534776822,10.9285617284754,9.70039009546216
0.405,0.779339608068653,-14.8958453283205,1.66213304482926,-5.64365218995168,1.41711170906149,-1.38655223073386,-1.22574936756519,-9.1956305055824,5.45645791621214,5.22677282856189,2.59747160345953,-3.95221417525558,1.88490456826901,-1.33113241459998,0.645229552162856,8.82262539780396,2.56974235997343,-2.52097229734801,4.77031008875588,5.90055969051894,-0.155961337925273,-6.06957135603982,10.920796545469,9.6934877089598
0.41,0.778460659773259,-14.8850549842758,1.66152573143142,-5.63964126419291,1.41610897800399,-1.38554949967636,-1.2255825090549,-9.18905036850536,5.45261799509652,5.22302751097975,2.59559894466846,-3.94940518635519,1.88286686943923,-1.3303319494959,0.64474816179953,8.81634183159014,2.56794705612295,-2.51917699349755,4.76619096095646,5.89632993277353,-0.155828051860702,-6.06525736431141,10.9130313624626,9.68658532245744
0.415,0.777581711477865,-14.874264640231,1.6609184180337,-5.63563033843413,1.4151062469465,-1.38454676861887,-1.22541565054416,-9.18247023142833,5.4487780739809,5.21928219339762,2.59372628587739,-3.9465961974548,1.88082917060945,-1.32953148439185,0.644266771436207,8.81005826537631,2.5661517522725,-2.51738168964708,4.76207183315717,5.89210017502812,-0.155694765796127,-6.06094337258301,10.9052661794562,9.67968293595509
0.42,0.776702763182357,-14.8634742961862,1.66031110463598,-5.63161941267535,1.41410351588901,-1.38354403756138,-1.22524879203365,-9.1758900943513,5.44493815286528,5.21553687581548,2.59185362708632,-3.94378720855442,1.87879147177966,-1.32873101928777,0.643785381072885,8.80377469916249,2.56435644842202,-2.51558638579662,4.75795270535798,5.8878704172827,-0.155561479731556,-6.0566293808546,10.8975009964498,9.67278054945273
0.425,0.775823814886962,-14.8526839521414,1.65970379123814,-5.62760848691658,1.41310078483152,-1.38254130650388,-1.22508193352314,-9.16930995727427,5.44109823174966,5.21179155823334,2.58998096829525,-3.94097821965403,1.87675377294977,-1.32793055418375,0.643303990709558,8.79749113294866,2.56256114457155,-2.51379108194615,4.75383357755868,5.88364065953729,-0.155428193666982,-6.0523153891262,10.8897358134434,9.66587816295037
0.43,0.774944866591454,-14.8418936080966,1.65909647784031,-5.6235975611578,1.41209805377402,-1.38153857544639,-1.2249150750124,-9.16272982019724,5.43725831063405,5.20804624065121,2.58810830950419,-3.93816923075365,1.8747160741201,-1.32713008907967,0.642822600346236,8.79120756673484,2.56076584072109,-2.51199577809568,4.74971444975927,5.87941090179188,-0.155294907602411,-6.04800139739779,10.881970630437,9.65897577644802
0.435,0.77406591829606,-14.8311032640518,1.65848916444247,-5.61958663539902,1.41109532271653,-1.38053584438889,-1.22474821650189,-9.15614968312021,5.43341838951844,5.20430092306907,2.58623565071312,-3.93536024185326,1.87267837529021,-1.32632962397562,0.642341209982913,8.78492400052101,2.55897053687062,-2.51020047424522,4.74559532196008,5.87518114404647,-0.155161621537836,-6.04368740566939,10.8742054474306,9.65207338994566
0.44,0.773186970000665,-14.820312920007,1.65788185104475,-5.61557570964025,1.41009259165904,-1.3795331133314,-1.22458135799138,-9.14956954604318,5.42957846840282,5.20055560548694,2.58436299192206,-3.93255125295288,1.87064067646043,-1.32552915887157,0.641859819619587,8.77864043430719,2.55717523302016,-2.50840517039475,4.74147619416078,5.87095138630106,-0.155028335473265,-6.03937341394098,10.8664402644242,9.6451710034433
0.445,0.772308021705157,-14.8095225759623,1.65727453764703,-5.61156478388147,1.40908986060154,-1.37853038227391,-1.22441449948087,-9.14298940896616,5.4257385472872,5.1968102879048,2.58249033313098,-3.92974226405249,1.86860297763076,-1.32472869376753,0.641378429256264,8.77235686809336,2.55537992916969,-2.50660986654429,4.73735706636137,5.86672162855564,-0.15489504940869,-6.03505942221257,10.8586750814178,9.63826861694094
0.45,0.771429073409763,-14.7987322319175,1.65666722424919,-5.60755385812269,1.40808712954405,-1.37752765121642,-1.22424764097013,-9.13640927188912,5.42189862617158,5.19306497032266,2.58061767433992,-3.9269332751521,1.86656527880086,-1.32392822866345,0.640897038892941,8.76607330187954,2.55358462531923,-2.50481456269382,4.73323793856218,5.86249187081023,-0.154761763344116,-6.03074543048417,10.8509098984114,9.63136623043859
0.455,0.770550125114369,-14.7879418878727,1.65605991085135,-5.60354293236391,1.40708439848656,-1.37652492015892,-1.22408078245985,-9.12982913481209,5.41805870505597,5.18931965274053,2.57874501554885,-3.92412428625172,1.86452757997108,-1.32312776355937,0.640415648529615,8.75978973566571,2.55178932146876,-2.50301925884335,4.72911881076288,5.85826211306482,-0.154628477279545,-6.02643143875576,10.843144715405,9.62446384393623
0.46,0.769671176818974,-14.777151543828,1.65545259745352,-5.59953200660514,1.40608166742906,-1.37552218910144,-1.22391392394911,-9.12324899773506,5.41421878394034,5.18557433515839,2.57687235675778,-3.92131529735133,1.86248988114119,-1.32232729845535,0.639934258166292,8.75350616945189,2.5499940176183,-2.50122395499289,4.72499968296358,5.85403235531941,-0.15449519121497,-6.02211744702736,10.8353795323986,9.61756145743387
0.465,0.768792228523466,-14.7663611997832,1.6548452840558,-5.59552108084636,1.40507893637157,-1.37451945804394,-1.2237470654386,-9.11666886065804,5.41037886282471,5.18182901757625,2.57499969796671,-3.91850630845095,1.86045218231152,-1.32152683335127,0.639452867802966,8.74722260323806,2.54819871376782,-2.49942865114242,4.72088055516429,5.849802597574,-0.154361905150399,-6.01780345529895,10.8276143493922,9.61065907093151
0.47,0.767913280228072,-14.7555708557384,1.65423797065807,-5.59151015508759,1.40407620531408,-1.37351672698645,-1.22358020692809,-9.11008872358101,5.4065389417091,5.17808369999412,2.57312703917565,-3.91569731955056,1.85841448348162,-1.32072636824722,0.63897147743964,8.74093903702424,2.54640340991737,-2.49763334729196,4.71676142736499,5.84557283982859,-0.154228619085824,-6.01348946357055,10.8198491663858,9.60375668442916
0.475,0.767034331932678,-14.7447805116936,1.65363065726024,-5.58749922932881,1.40307347425659,-1.37251399592895,-1.22341334841758,-9.10350858650398,5.40269902059349,5.17433838241198,2.57125438038458,-3.91288833065018,1.85637678465184,-1.31992590314317,0.638490087076317,8.73465547081041,2.5446081060669,-2.49583804344149,4.71264229956569,5.84134308208318,-0.154095333021253,-6.00917547184214,10.8120839833794,9.5968542979268
0.48,0.76615538363717,-14.7339901676489,1.65302334386251,-5.58348830357003,1.40207074319909,-1.37151126487146,-1.22324648990684,-9.09692844942695,5.39885909947787,5.17059306482984,2.56938172159351,-3.91007934174979,1.85433908582218,-1.31912543803912,0.638008696712994,8.72837190459658,2.54281280221643,-2.49404273959102,4.7085231717665,5.83711332433777,-0.153962046956678,-6.00486148011374,10.804318800373,9.58995191142444
0.485,0.765276435341775,-14.7231998236041,1.65241603046468,-5.57947737781125,1.4010680121416,-1.37050853381397,-1.22307963139656,-9.09034831234992,5.39501917836226,5.1668477472477,2.56750906280244,-3.90727035284941,1.85230138699228,-1.31832497293505,0.637527306349668,8.72208833838276,2.54101749836597,-2.49224743574056,4.70440404396709,5.83288356659235,-0.153828760892107,-6.00054748838533,10.7965536173666,9.58304952492209
0.49,0.764397487046267,-14.7124094795593,1.65180871706696,-5.57546645205248,1.40006528108411,-1.36950580275647,-1.22291277288582,-9.08376817527288,5.39117925724663,5.16310242966557,2.56563640401137,-3.90446136394902,1.8502636881625,-1.31752450783097,0.637045915986345,8.71580477216893,2.5392221945155,-2.49045213189009,4.70028491616779,5.82865380884694,-0.153695474827533,-5.99623349665693,10.7887884343602,9.57614713841973
0.495,0.763518538750873,-14.7016191355145,1.65120140366912,-5.5714555262937,1.39906255002662,-1.36850307169898,-1.22274591437531,-9.07718803819585,5.38733933613102,5.15935711208343,2.5637637452203,-3.90165237504863,1.84822598933272,-1.31672404272695,0.636564525623022,8.70952120595511,2.53742689066503,-2.48865682803963,4.6961657883686,5.82442405110153,-0.153562188762958,-5.99191950492852,10.7810232513538,9.56924475191737
0.5,0.762639590455365,-14.6908287914698,1.6505940902714,-5.56744460053493,1.39805981896912,-1.36750034064149,-1.22257905586457,-9.07060790111882,5.38349941501541,5.1556117945013,2.56189108642923,-3.89884338614825,1.84618829050294,-1.31592357762287,0.636083135259696,8.70323763974128,2.53563158681457,-2.48686152418916,4.69204666056919,5.82019429335612,-0.153428902698383,-5.98760551320012,10.7732580683474,9.56234236541501
0.505,0.76176064215997,-14.680038447425,1.64998677687356,-5.56343367477615,1.39705708791163,-1.366497609584,-1.22241219735406,-9.06402776404179,5.37965949389979,5.15186647691916,2.56001842763816,-3.89603439724786,1.84415059167304,-1.31512311251882,0.635601744896373,8.69695407352746,2.5338362829641,-2.48506622033869,4.68792753276989,5.8159645356107,-0.153295616633812,-5.98329152147171,10.765492885341,9.55543997891266
0.51,0.76088169386469,-14.6692481033802,1.64937946347573,-5.55942274901737,1.39605435685414,-1.3654948785265,-1.22224533884355,-9.05744762696477,5.37581957278415,5.14812115933702,2.55814576884709,-3.89322540834748,1.84211289284337,-1.31432264741477,0.635120354533051,8.69067050731363,2.53204097911364,-2.48327091648823,4.6838084049707,5.81173477786529,-0.153162330569238,-5.97897752974331,10.7577277023346,9.5485375924103
0.515,0.760002745569182,-14.6584577593354,1.648772150078,-5.5554118232586,1.39505162579664,-1.36449214746901,-1.22207848033281,-9.05086748988774,5.37197965166854,5.14437584175489,2.55627311005603,-3.89041641944709,1.84007519401359,-1.31352218231069,0.634638964169724,8.68438694109981,2.53024567526317,-2.48147561263776,4.67968927717141,5.80750502011988,-0.153029044504667,-5.9746635380149,10.7499625193282,9.54163520590794
0.52,0.759123797273787,-14.6476674152906,1.64816483668017,-5.55140089749982,1.39404889473915,-1.36348941641152,-1.22191162182253,-9.04428735281071,5.36813973055293,5.14063052417275,2.55440045126496,-3.88760743054671,1.8380374951837,-1.31272171720664,0.634157573806398,8.67810337488598,2.5284503714127,-2.4796803087873,4.67557014937199,5.80327526237447,-0.152895758440092,-5.97034954628649,10.7421973363218,9.53473281940558
0.525,0.758244848978279,-14.6368770712459,1.64755752328244,-5.54738997174104,1.39304616368166,-1.36248668535402,-1.22174476331179,-9.03770721573368,5.36429980943731,5.13688520659061,2.5525277924739,-3.88479844164632,1.83599979635403,-1.31192125210259,0.633676183443075,8.67181980867216,2.52665506756224,-2.47788500493683,4.67145102157281,5.79904550462906,-0.152762472375521,-5.96603555455809,10.7344321533154,9.52783043290323
0.53,0.757365900682885,-14.6260867272011,1.64695020988461,-5.54337904598227,1.39204343262417,-1.36148395429653,-1.22157790480128,-9.03112707865665,5.3604598883217,5.13313988900848,2.55065513368282,-3.88198945274594,1.83396209752414,-1.31112078699854,0.633194793079749,8.66553624245833,2.52485976371177,-2.47608970108636,4.66733189377351,5.79481574688365,-0.152629186310946,-5.96172156282968,10.726666970309,9.52092804640087
0.535,0.75648695238749,-14.6152963831563,1.64634289648677,-5.53936812022349,1.39104070156667,-1.36048122323904,-1.22141104629077,-9.02454694157962,5.35661996720607,5.12939457142634,2.54878247489176,-3.87918046384555,1.83192439869435,-1.31032032189447,0.632713402716426,8.65925267624451,2.52306445986131,-2.4742943972359,4.66321276597421,5.79058598913824,-0.152495900246375,-5.95740757110128,10.7189017873026,9.51402565989851
0.54,0.755608004091982,-14.6045060391115,1.64573558308905,-5.53535719446471,1.39003797050918,-1.35947849218154,-1.22124418778026,-9.01796680450259,5.35278004609046,5.12564925384421,2.54690981610069,-3.87637147494516,1.82988669986446,-1.30951985679042,0.632232012353104,8.65296911003068,2.52126915601084,-2.47249909338543,4.65909363817491,5.78635623139282,-0.152362614181801,-5.95309357937287,10.7111366042962,9.50712327339616
0.545,0.754729055796531,-14.5937156950667,1.64512826969121,-5.53134626870594,1.38903523945169,-1.35847576112405,-1.22107732926952,-9.01138666742556,5.34894012497485,5.12190393626207,2.54503715730962,-3.87356248604478,1.82784900103479,-1.30871939168637,0.631750621989777,8.64668554381686,2.51947385216037,-2.47070378953497,4.65497451037561,5.78212647364742,-0.152229328117226,-5.94877958764447,10.7033714212898,9.5002208868938
0.55,0.75385010750108,-14.582925351022,1.64452095629349,-5.52733534294716,1.38803250839419,-1.35747303006656,-1.22091047075924,-9.00480653034853,5.34510020385923,5.11815861867993,2.54316449851855,-3.87075349714439,1.82581130220501,-1.30791892658232,0.631269231626455,8.64040197760303,2.51767854830991,-2.4689084856845,4.65085538257631,5.777896715902,-0.152096042052651,-5.94446559591606,10.6956062382834,9.49331850039144
0.555,0.752971159205742,-14.5721350069772,1.64391364289565,-5.52332441718838,1.3870297773367,-1.35647029900907,-1.2207436122485,-8.9982263932715,5.3412602827436,5.1144133010978,2.54129183972749,-3.86794450824401,1.82377360337512,-1.30711846147824,0.630787841263132,8.63411841138921,2.51588324445945,-2.46711318183403,4.64673625477701,5.77366695815659,-0.15196275598808,-5.94015160418766,10.6878410552771,9.48641611388908
0.56,0.752092210910291,-14.5613446629324,1.64330632949793,-5.51931349142961,1.38602704627921,-1.35546756795157,-1.22057675373799,-8.99164625619446,5.33742036162798,5.11066798351566,2.53941918093641,-3.86513551934362,1.82173590454545,-1.30631799637422,0.630306450899806,8.62783484517538,2.51408794060897,-2.46531787798357,4.64261712697771,5.76943720041118,-0.151829469923506,-5.93583761245925,10.6800758722707,9.47951372738672
0.565,0.75121326261484,-14.5505543188876,1.64269901610021,-5.51530256567083,1.38502431522171,-1.35446483689408,-1.22040989522748,-8.98506611911743,5.33358044051236,5.10692266593352,2.53754652214534,-3.86232653044324,1.81969820571555,-1.30551753127014,0.629825060536483,8.62155127896156,2.51229263675852,-2.4635225741331,4.63849799917841,5.76520744266577,-0.151696183858935,-5.93152362073084,10.6723106892643,9.47261134088437
0.57,0.750334314319389,-14.5397639748429,1.64209170270237,-5.51129163991206,1.38402158416422,-1.35346210583659,-1.22024303671697,-8.9784859820404,5.32974051939675,5.10317734835139,2.53567386335428,-3.85951754154285,1.81766050688577,-1.30471706616606,0.62934367017316,8.61526771274773,2.51049733290805,-2.46172727028264,4.63437887137923,5.76097768492036,-0.151562897794363,-5.92720962900244,10.6645455062579,9.46570895438201
0.575,0.749455366023938,-14.5289736307981,1.64148438930454,-5.50728071415328,1.38301885310673,-1.3524593747791,-1.22007617820623,-8.97190584496338,5.32590059828114,5.09943203076925,2.53380120456321,-3.85670855264247,1.81562280805599,-1.30391660106201,0.628862279809834,8.6089841465339,2.50870202905757,-2.45993196643217,4.63025974357981,5.75674792717494,-0.151429611729789,-5.92289563727403,10.6567803232515,9.45880656787965
0.58,0.748576417728543,-14.5181832867534,1.64087707590681,-5.5032697883945,1.38201612204924,-1.3514566437216,-1.21990931969549,-8.96532570788635,5.32206067716551,5.09568671318711,2.53192854577214,-3.85389956374208,1.81358510922621,-1.30311613595796,0.628380889446507,8.60270058032008,2.50690672520712,-2.4581366625817,4.62614061578051,5.75251816942953,-0.151296325665218,-5.91858164554563,10.6490151402451,9.4519041813773
0.585,0.747697469433149,-14.5073929427086,1.64026976250898,-5.49925886263573,1.38101339099174,-1.35045391266411,-1.21974246118521,-8.95874557080932,5.3182207560499,5.09194139560498,2.53005588698107,-3.8510905748417,1.81154741039643,-1.30231567085391,0.627899499083185,8.59641701410625,2.50511142135664,-2.45634135873124,4.62202148798133,5.74828841168412,-0.151163039600643,-5.91426765381722,10.6412499572387,9.44500179487494
0.59,0.746818521137698,-14.4966025986638,1.63966244911126,-5.49524793687695,1.38001065993425,-1.34945118160662,-1.21957560267447,-8.95216543373229,5.31438083493428,5.08819607802284,2.52818322819001,-3.84828158594131,1.80950971156665,-1.30151520574984,0.627418108719858,8.59013344789243,2.50331611750618,-2.45454605488077,4.61790236018192,5.74405865393871,-0.151029753536069,-5.90995366208882,10.6334847742323,9.43809940837258
0.595,0.745939572842246,-14.485812254619,1.63905513571342,-5.49123701111817,1.37900792887676,-1.34844845054912,-1.21940874416396,-8.94558529665526,5.31054091381867,5.08445076044071,2.52631056939894,-3.84547259704092,1.80747201273687,-1.30071474064579,0.626936718356536,8.5838498816786,2.50152081365571,-2.45275075103031,4.61378323238262,5.73982889619329,-0.150896467471494,-5.90563967036041,10.6257195912259,9.43119702187023
0.6,0.745060624546795,-14.4750219105742,1.63844782231558,-5.4872260853594,1.37800519781926,-1.34744571949163,-1.21924188565345,-8.93900515957823,5.30670099270304,5.08070544285857,2.52443791060787,-3.84266360814054,1.80543431390697,-1.29991427554174,0.626455327993213,8.57756631546478,2.49972550980525,-2.45095544717984,4.60966410458343,5.73559913844788,-0.150763181406923,-5.90132567863201,10.6179544082195,9.42429463536787
0.605,0.744181676251344,-14.4642315665295,1.63784050891786,-5.48321515960062,1.37700246676177,-1.34644298843414,-1.21907502714294,-8.9324250225012,5.30286107158742,5.07696012527643,2.5225652518168,-3.83985461924015,1.8033966150773,-1.29911381043766,0.625973937629887,8.57128274925095,2.49793020595478,-2.44916014332937,4.60554497678413,5.73136938070247,-0.150629895342348,-5.8970116869036,10.6101892252131,9.41739224886551
0.61,0.74330272795595,-14.4534412224847,1.63723319552014,-5.47920423384184,1.37599973570428,-1.34544025737665,-1.2189081686322,-8.92584488542417,5.2990211504718,5.0732148076943,2.52069259302574,-3.83704563033977,1.80135891624741,-1.29831334533361,0.625492547266564,8.56499918303713,2.49613490210432,-2.44736483947891,4.60142584898472,5.72713962295706,-0.150496609277777,-5.89269769517519,10.6024240422067,9.41048986236315
0.615,0.742423779660498,-14.4426508784398,1.63662588212219,-5.47519330808307,1.37499700464678,-1.34443752631915,-1.21874131012191,-8.91926474834714,5.29518122935619,5.06946949011216,2.51881993423467,-3.83423664143938,1.79932121741763,-1.29751288022956,0.625011156903241,8.5587156168233,2.49433959825385,-2.44556953562844,4.59730672118553,5.72290986521165,-0.150363323213202,-5.88838370344679,10.5946588592003,9.4035874758608
0.62,0.741544831365104,-14.4318605343951,1.63601856872458,-5.47118238232429,1.37399427358929,-1.34343479526166,-1.21857445161118,-8.91268461127011,5.29134130824056,5.06572417253002,2.5169472754436,-3.831427652539,1.79728351858785,-1.29671241512551,0.624529766539915,8.55243205060948,2.49254429440339,-2.44377423177798,4.59318759338623,5.71868010746623,-0.150230037148631,-5.88406971171839,10.5868936761939,9.39668508935844
0.625,0.740665883069653,-14.4210701903503,1.63541125532663,-5.46717145656551,1.3729915425318,-1.34243206420417,-1.21840759310066,-8.90610447419308,5.28750138712495,5.06197885494788,2.51507461665253,-3.82861866363861,1.79524581975807,-1.29591195002143,0.624048376176592,8.54614848439565,2.49074899055292,-2.44197892792751,4.58906846558693,5.71445034972082,-0.150096751084057,-5.87975571998998,10.5791284931875,9.38978270285608
0.63,0.739786934774202,-14.4102798463055,1.63480394192891,-5.46316053080674,1.37198881147431,-1.34142933314667,-1.21824073459015,-8.89952433711605,5.28366146600933,5.05823353736575,2.51320195786146,-3.82580967473822,1.79320812092828,-1.29511148491741,0.62356698581327,8.53986491818183,2.48895368670245,-2.44018362407704,4.58494933778763,5.71022059197541,-0.149963465019486,-5.87544172826157,10.5713633101811,9.38288031635372
0.635,0.73890798647875,-14.3994895022608,1.63419662853119,-5.45914960504796,1.37098608041681,-1.34042660208918,-1.21807387607964,-8.89294420003902,5.27982154489372,5.05448821978361,2.51132929907039,-3.82300068583784,1.79117042209839,-1.29431101981334,0.623085595449943,8.533581351968,2.48715838285199,-2.43838832022658,4.58083020998833,5.70599083423,-0.149830178954911,-5.87112773653317,10.5635981271747,9.37597792985137
0.64,0.738029038183299,-14.388699158216,1.63358931513335,-5.45513867928918,1.36998334935932,-1.33942387103169,-1.2179070175689,-8.88636406296199,5.27598162377811,5.05074290220148,2.50945664027932,-3.82019169693745,1.78913272326872,-1.29351055470926,0.622604205086617,8.52729778575418,2.48536307900152,-2.43659301637611,4.57671108218904,5.70176107648459,-0.149696892890336,-5.86681374480476,10.5558329441683,9.36907554334901
0.645,0.737150089887962,-14.3779088141712,1.63298200173563,-5.45112775353041,1.36898061830183,-1.3384211399742,-1.21774015905862,-8.87978392588496,5.27214170266248,5.04699758461934,2.50758398148826,-3.81738270803707,1.78709502443883,-1.29271008960524,0.622122814723294,8.52101421954035,2.48356777515105,-2.43479771252565,4.57259195438974,5.69753131873918,-0.149563606825762,-5.86249975307636,10.5480677611619,9.36217315684665
0.65,0.736271141592511,-14.3671184701265,1.63237468833779,-5.44711682777163,1.36797788724434,-1.3374184089167,-1.21757330054788,-8.87320378880793,5.26830178154685,5.0432522670372,2.50571132269718,-3.81457371913668,1.78505732560905,-1.29190962450116,0.621641424359968,8.51473065332653,2.48177247130059,-2.43300240867518,4.56847282659044,5.69330156099377,-0.149430320761191,-5.85818576134795,10.5403025781555,9.3552707703443
0.655,0.735392193297059,-14.3563281260817,1.63176737493995,-5.44310590201285,1.36697515618684,-1.33641567785921,-1.21740644203715,-8.8666236517309,5.26446186043124,5.03950694945506,2.50383866390612,-3.8117647302363,1.78301962677926,-1.29110915939711,0.621160033996645,8.5084470871127,2.47997716745012,-2.43120710482471,4.56435369879114,5.68907180324836,-0.149297034696616,-5.85387176961954,10.5325373951491,9.34836838384194
0.66,0.734513245001608,-14.3455377820369,1.63116006154223,-5.43909497625408,1.36597242512935,-1.33541294680172,-1.21723958352686,-8.86004351465387,5.26062193931563,5.03576163187293,2.50196600511505,-3.80895574133591,1.78098192794948,-1.29030869429303,0.620678643633322,8.50216352089888,2.47818186359965,-2.42941180097425,4.56023457099195,5.68484204550295,-0.149163748632045,-5.84955777789114,10.5247722121427,9.34146599733958
0.665,0.733634296706157,-14.3347474379921,1.6305527481444,-5.4350840504953,1.36496969407186,-1.33441021574423,-1.21707272501612,-8.85346337757684,5.2567820182,5.03201631429079,2.50009334632398,-3.80614675243553,1.7789442291197,-1.28950822918901,0.620197253269996,8.49587995468505,2.47638655974919,-2.42761649712378,4.55611544319254,5.68061228775753,-0.14903046256747,-5.84524378616274,10.5170070291363,9.33456361083722
0.67,0.732755348410706,-14.3239570939473,1.62994543474667,-5.43107312473652,1.36396696301436,-1.33340748468673,-1.21690586650561,-8.84688324049981,5.25294209708439,5.02827099670866,2.49822068753291,-3.80333776353514,1.77690653028992,-1.28870776408493,0.619715862906673,8.48959638847123,2.47459125589872,-2.42582119327332,4.55199631539324,5.67638253001212,-0.148897176502899,-5.84092979443433,10.5092418461299,9.32766122433486
0.675,0.731876400115368,-14.3131667499026,1.62933812134884,-5.42706219897775,1.36296423195687,-1.33240475362924,-1.21673900799487,-8.84030310342278,5.24910217596877,5.02452567912652,2.49634802874185,-3.80052877463476,1.77486883146014,-1.28790729898088,0.619234472543351,8.4833128222574,2.47279595204826,-2.42402588942285,4.54787718759405,5.67215277226671,-0.148763890438325,-5.83661580270592,10.5014766631235,9.32075883783251
0.68,0.730997451819917,-14.3023764058578,1.628730807951,-5.42305127321897,1.36196150089938,-1.33140202257175,-1.21657214948459,-8.83372296634575,5.24526225485316,5.02078036154439,2.49447536995078,-3.79771978573437,1.77283113263024,-1.28710683387681,0.618753082180024,8.47702925604358,2.47100064819779,-2.42223058557239,4.54375805979475,5.6679230145213,-0.148630604373754,-5.83230181097752,10.4937114801171,9.31385645133015
0.685,0.730118503524466,-14.291586061813,1.62812349455328,-5.41904034746019,1.36095876984189,-1.33039929151425,-1.21640529097397,-8.82714282926872,5.24142233373755,5.01703504396225,2.49260271115971,-3.79491079683398,1.77079343380058,-1.28630636877278,0.618271691816702,8.47074568982975,2.46920534434733,-2.42043528172192,4.53963893199534,5.66369325677589,-0.148497318309175,-5.82798781924911,10.4859462971107,9.30695406482779
0.69,0.729239555229015,-14.2807957177683,1.62751618115556,-5.41502942170142,1.35995603878439,-1.32939656045676,-1.21623843246346,-8.82056269219169,5.23758241262192,5.01328972638011,2.49073005236864,-3.7921018079336,1.76875573497068,-1.28550590366871,0.617790301453379,8.46446212361593,2.46741004049686,-2.41863997787145,4.53551980419616,5.65946349903048,-0.148364032244604,-5.82367382752071,10.4781811141043,9.30005167832544
0.695,0.728360606933563,-14.2700053737235,1.62690886775772,-5.41101849594264,1.3589533077269,-1.32839382939927,-1.21607157395272,-8.81398255511466,5.23374249150631,5.00954440879798,2.48885739357757,-3.78929281903321,1.7667180361409,-1.28470543856463,0.617308911090049,8.4581785574021,2.4656147366464,-2.41684467402099,4.53140067639686,5.65523374128506,-0.148230746180033,-5.8193598357923,10.4704159310979,9.29314929182308
0.7,0.727481658638112,-14.2592150296787,1.62630155436,-5.40700757018386,1.35795057666941,-1.32739109834177,-1.21590471544221,-8.80740241803763,5.22990257039068,5.00579909121584,2.48698473478651,-3.78648383013283,1.76468033731123,-1.28390497346061,0.616827520726726,8.45189499118828,2.46381943279593,-2.41504937017052,4.52728154859744,5.65100398353965,-0.148097460115459,-5.8150458440639,10.4626507480915,9.28624690532072
0.705,0.726602710342775,-14.2484246856339,1.62569424096216,-5.40299664442509,1.35694784561191,-1.32638836728428,-1.2157378569317,-8.8008222809606,5.22606264927506,5.0020537736337,2.48511207599544,-3.78367484123244,1.76264263848134,-1.28310450835653,0.616346130363404,8.44561142497445,2.46202412894546,-2.41325406632006,4.52316242079826,5.64677422579424,-0.147964174050887,-5.81073185233549,10.4548855650851,9.27934451881836
0.71,0.725723762047323,-14.2376343415891,1.62508692756433,-5.39898571866631,1.35594511455442,-1.32538563622679,-1.21557099842107,-8.79424214388357,5.22222272815944,4.99830845605156,2.48323941720437,-3.78086585233206,1.76060493965156,-1.28230404325248,0.615864740000077,8.43932785876062,2.460228825095,-2.41145876246959,4.51904329299896,5.64254446804883,-0.147830887986313,-5.80641786060709,10.4471203820787,9.27244213231601
0.715,0.724844813751872,-14.2268439975443,1.6244796141666,-5.39497479290754,1.35494238349693,-1.3243829051693,-1.21540413991056,-8.78766200680654,5.21838280704382,4.99456313846943,2.4813667584133,-3.77805686343167,1.75856724082178,-1.28150357814843,0.615383349636755,8.4330442925468,2.45843352124453,-2.40966345861912,4.51492416519966,5.63831471030342,-0.147697601921742,-5.80210386887868,10.4393551990723,9.26553974581365
0.72,0.723965865456421,-14.2160536534996,1.62387230076888,-5.39096386714876,1.35393965243943,-1.3233801741118,-1.21523728140005,-8.78108186972951,5.21454288592821,4.99081782088729,2.47949409962223,-3.77524787453128,1.75652954199199,-1.28070311304438,0.614901959273432,8.42676072633297,2.45663821739407,-2.40786815476866,4.51080503740036,5.63408495255801,-0.147564315857167,-5.79778987715028,10.4315900160659,9.25863735931129
0.725,0.72308691716097,-14.2052633094548,1.62326498737104,-5.38695294138998,1.35293692138194,-1.32237744305431,-1.21507042288943,-8.77450173265248,5.2107029648126,4.98707250330515,2.47762144083116,-3.7724388856309,1.7544918431621,-1.2799026479403,0.614420568910106,8.42047716011915,2.45484291354359,-2.40607285091819,4.50668590960106,5.62985519481259,-0.147431029792596,-5.79347588542187,10.4238248330595,9.25173497280894
0.73,0.722207968865575,-14.19447296541,1.62265767397321,-5.3829420156312,1.35193419032445,-1.32137471199682,-1.21490356437891,-8.76792159557545,5.20686304369698,4.98332718572302,2.4757487820401,-3.76962989673051,1.75245414433232,-1.27910218283623,0.613939178546783,8.41419359390532,2.45304760969314,-2.40427754706772,4.50256678180176,5.62562543706718,-0.147297743728021,-5.78916189369347,10.4160596500531,9.24483258630658
0.735,0.721329020570181,-14.1836826213653,1.62205036057537,-5.37893108987243,1.35093145926696,-1.32037198093932,-1.2147367058684,-8.76134145849842,5.20302312258136,4.97958186814088,2.47387612324903,-3.76682090783013,1.75041644550265,-1.27830171773221,0.61345778818346,8.4079100276915,2.45125230584267,-2.40248224321726,4.49844765400258,5.62139567932177,-0.147164457663447,-5.78484790196506,10.4082944670467,9.23793019980422
0.74,0.72045007227473,-14.1728922773205,1.62144304717765,-5.37492016411365,1.34992872820946,-1.31936924988183,-1.21456984735778,-8.75476132142139,5.19918320146574,4.97583655055875,2.47200346445796,-3.76401191892974,1.74837874667276,-1.27750125262813,0.612976397820134,8.40162646147767,2.4494570019922,-2.40068693936679,4.49432852620316,5.61716592157635,-0.147031171598872,-5.78053391023666,10.4005292840403,9.23102781330186
0.745,0.719571123979279,-14.1621019332757,1.62083573377993,-5.37090923835488,1.34892599715197,-1.31836651882434,-1.21440298884727,-8.74818118434436,5.19534328035012,4.97209123297661,2.47013080566689,-3.76120293002936,1.74634104784298,-1.27670078752408,0.612495007456811,8.39534289526385,2.44766169814174,-2.39889163551633,4.49020939840386,5.61293616383095,-0.146897885534301,-5.77621991850825,10.3927641010339,9.2241254267995
0.75,0.718692175683827,-14.1513115892309,1.62022842038209,-5.3668983125961,1.34792326609448,-1.31736378776684,-1.21423613033664,-8.74160104726733,5.1915033592345,4.96834591539447,2.46825814687582,-3.75839394112897,1.74430334901319,-1.27590032242003,0.612013617093488,8.38905932905002,2.44586639429127,-2.39709633166586,4.48609027060468,5.60870640608553,-0.146764599469726,-5.77190592677984,10.3849989180275,9.21722304029715
0.755,0.717813227388376,-14.1405212451861,1.61962110698425,-5.36288738683732,1.34692053503699,-1.31636105670935,-1.21406927182613,-8.7350209101903,5.18766343811888,4.96460059781234,2.46638548808475,-3.75558495222859,1.74226565018341,-1.27509985731598,0.611532226730159,8.3827757628362,2.4440710904408,-2.3953010278154,4.48197114280526,5.60447664834012,-0.146631313405155,-5.76759193505144,10.3772337350211,9.21032065379479
0.76,0.716934279092982,-14.1297309011414,1.61901379358653,-5.35887646107854,1.34591780397949,-1.31535832565186,-1.21390241331562,-8.72844077311327,5.18382351700326,4.9608552802302,2.46451282929369,-3.7527759633282,1.74022795135352,-1.2742993922119,0.611050836366836,8.37649219662237,2.44227578659034,-2.39350572396493,4.47785201500596,5.60024689059471,-0.146498027340581,-5.76327794332303,10.3694685520147,9.20341826729243
0.765,0.716055330797587,-14.1189405570966,1.6184064801887,-5.35486553531977,1.344915072922,-1.31435559459437,-1.21373555480488,-8.72186063603624,5.17998359588765,4.95710996264807,2.46264017050262,-3.74996697442782,1.73819025252385,-1.27349892710782,0.610569446003513,8.37020863040855,2.44048048273987,-2.39171042011446,4.47373288720678,5.5960171328493,-0.14636474127601,-5.75896395159463,10.3617033690083,9.19651588079008
0.77,0.715176382502136,-14.1081502130518,1.61779916679097,-5.35085460956099,1.34391234186451,-1.31335286353688,-1.21356869629437,-8.71528049895921,5.17614367477204,4.95336464506593,2.46076751171155,-3.74715798552743,1.73615255369396,-1.2726984620038,0.610088055640187,8.36392506419472,2.43868517888941,-2.389915116264,4.46961375940748,5.59178737510388,-0.146231455211435,-5.75464995986622,10.3539381860019,9.18961349428772
0.775,0.714297434206685,-14.0973598690071,1.61719185339325,-5.34684368380222,1.34290961080701,-1.31235013247938,-1.21340183778386,-8.70870036188218,5.17230375365641,4.94961932748379,2.45889485292048,-3.74434899662704,1.73411485486417,-1.27189799689972,0.609606665276864,8.35764149798089,2.43688987503894,-2.38811981241353,4.46549463160807,5.58755761735847,-0.146098169146864,-5.75033596813782,10.3461730029955,9.18271110778536
0.78,0.713418485911234,-14.0865695249623,1.61658453999542,-5.34283275804344,1.34190687974952,-1.31134740142189,-1.21323497927324,-8.70212022480515,5.16846383254079,4.94587400990165,2.45702219412941,-3.74154000772666,1.73207715603451,-1.27109753179568,0.609125274913541,8.35135793176707,2.43509457118847,-2.38632450856307,4.46137550380888,5.58332785961306,-0.145964883082286,-5.74602197640941,10.3384078199891,9.175808721283
0.785,0.712539537615783,-14.0757791809175,1.61597722659758,-5.33882183228466,1.34090414869203,-1.3103446703644,-1.21306812076273,-8.69554008772812,5.16462391142518,4.94212869231952,2.45514953533835,-3.73873101882627,1.73003945720461,-1.27029706669163,0.608643884550215,8.34507436555324,2.43329926733801,-2.3845292047126,4.45725637600958,5.57909810186765,-0.145831597017715,-5.74170798468101,10.3306426369827,9.16890633478065
0.79,0.711660589320331,-14.0649888368727,1.61536991319986,-5.33481090652588,1.33990141763454,-1.3093419393069,-1.2129012622521,-8.68895995065109,5.16078399030957,4.93838337473738,2.45327687654728,-3.73592202992589,1.72800175837483,-1.26949660158758,0.608162494186892,8.33879079933942,2.43150396348754,-2.38273390086213,4.45313724821017,5.57486834412224,-0.14569831095314,-5.7373939929526,10.3228774539763,9.16200394827829
0.795,0.710781641024994,-14.0541984928279,1.61476259980202,-5.33079998076711,1.33889868657704,-1.30833920824941,-1.21273440374159,-8.68237981357407,5.15694406919394,4.93463805715525,2.45140421775621,-3.7331130410255,1.72596405954505,-1.2686961364835,0.60768110382357,8.33250723312559,2.42970865963708,-2.38093859701167,4.44901812041098,5.57063858637683,-0.145565024888569,-5.73308000122419,10.3151122709699,9.15510156177593
0.8,0.709902692729543,-14.0434081487831,1.6141552864043,-5.32678905500833,1.33789595551955,-1.30733647719192,-1.21256754523108,-8.67579967649704,5.15310414807833,4.93089273957311,2.44953155896514,-3.73030405212512,1.72392636071527,-1.26789567137945,0.607199713460243,8.32622366691177,2.42791335578661,-2.3791432931612,4.44489899261168,5.56640882863142,-0.145431738823994,-5.72876600949579,10.3073470879635,9.14819917527358
0.805,0.709023744434091,-14.0326178047384,1.61354797300646,-5.32277812924956,1.33689322446206,-1.30633374613442,-1.21240068672046,-8.66921953942,5.1492642269627,4.92714742199097,2.44765890017407,-3.72749506322473,1.72188866188537,-1.2670952062754,0.606718323096921,8.31994010069794,2.42611805193614,-2.37734798931073,4.44077986481238,5.56217907088601,-0.145298452759423,-5.72445201776738,10.2995819049571,9.14129678877122
0.81,0.70814479613864,-14.0218274606936,1.61294065960863,-5.31876720349078,1.33589049340457,-1.30533101507693,-1.21223382820995,-8.66263940234297,5.14542430584709,4.92340210440884,2.445786241383,-3.72468607432434,1.71985096305559,-1.26629474117135,0.606236932733598,8.31365653448412,2.42432274808568,-2.37555268546027,4.43666073701309,5.5579493131406,-0.145165166694849,-5.72013802603898,10.2918167219507,9.13439440226886
0.815,0.707265847843189,-14.0110371166488,1.6123333462109,-5.314756277732,1.33488776234707,-1.30432828401944,-1.21206696969944,-8.65605926526594,5.14158438473147,4.9196567868267,2.44391358259194,-3.72187708542396,1.71781326422592,-1.26549427606727,0.605755542370268,8.30737296827029,2.42252744423521,-2.3737573816098,4.43254160921379,5.55371955539518,-0.145031880630277,-5.71582403431057,10.2840515389443,9.1274920157665
0.82,0.706386899547738,-14.000246772604,1.61172603281307,-5.31074535197322,1.33388503128958,-1.30332555296195,-1.21190011118881,-8.64947912818891,5.13774446361585,4.91591146924456,2.44204092380087,-3.71906809652357,1.71577556539603,-1.26469381096322,0.605274152006945,8.30108940205647,2.42073214038474,-2.37196207775934,4.42842248141449,5.54948979764977,-0.144898594565706,-5.71151004258217,10.2762863559379,9.12058962926415
0.825,0.705507951252343,-13.9894564285593,1.61111871941534,-5.30673442621445,1.33288230023209,-1.30232282190445,-1.2117332526783,-8.64289899111188,5.13390454250023,4.91216615166243,2.4401682650098,-3.71625910762319,1.71373786656625,-1.26389334585917,0.604792761643623,8.29480583584264,2.41893683653429,-2.37016677390887,4.4243033536153,5.54526003990436,-0.144765308501132,-5.70719605085376,10.2685211729315,9.11368724276179
0.83,0.704629002956949,-13.9786660845145,1.61051140601751,-5.30272350045567,1.33187956917459,-1.30132009084696,-1.21156639416768,-8.63631885403485,5.13006462138461,4.90842083408029,2.43829560621873,-3.7134501187228,1.71170016773647,-1.2630928807551,0.604311371280296,8.28852226962882,2.41714153268381,-2.36837147005841,4.42018422581589,5.54103028215895,-0.144632022436557,-5.70288205912536,10.2607559899251,9.10678485625943
0.835,0.703750054661498,-13.9678757404697,1.60990409261979,-5.2987125746969,1.3308768381171,-1.30031735978947,-1.21139953565716,-8.62973871695782,5.12622470026901,4.90467551649816,2.43642294742766,-3.71064112982242,1.70966246890669,-1.26229241565105,0.603829980916974,8.28223870341499,2.41534622883334,-2.36657616620794,4.41606509801659,5.53680052441353,-0.144498736371983,-5.69856806739695,10.2529908069187,9.09988246975708
0.84,0.702871106366047,-13.9570853964249,1.60929677922206,-5.29470164893812,1.32987410705961,-1.29931462873198,-1.21123267714654,-8.6231585798808,5.12238477915339,4.90093019891602,2.43455028863659,-3.70783214092203,1.70762477007679,-1.261491950547,0.603348590553651,8.27595513720117,2.41355092498288,-2.36478086235747,4.4119459702174,5.53257076666812,-0.144365450307411,-5.69425407566854,10.2452256239123,9.09298008325472
0.845,0.701992158070595,-13.9462950523802,1.60868946582411,-5.29069072317934,1.32887137600211,-1.29831189767448,-1.21106581863592,-8.61657844280376,5.11854485803777,4.89718488133388,2.43267762984553,-3.70502315202165,1.70558707124712,-1.26069148544292,0.602867200190325,8.26967157098734,2.41175562113241,-2.36298555850701,4.40782684241799,5.52834100892271,-0.144232164242837,-5.68994008394014,10.2374604409059,9.08607769675236
0.85,0.701113209775144,-13.9355047083354,1.60808215242639,-5.28667979742057,1.32786864494462,-1.29730916661699,-1.21089896012541,-8.60999830572673,5.11470493692215,4.89343956375174,2.43080497105446,-3.70221416312126,1.70354937241734,-1.25989102033887,0.602385809827002,8.26338800477352,2.40996031728195,-2.36119025465654,4.40370771461869,5.5241112511773,-0.144098878178266,-5.68562609221174,10.2296952578995,9.07917531025
0.855,0.700234261479807,-13.9247143642906,1.60747483902867,-5.28266887166179,1.32686591388713,-1.29630643555949,-1.21073210161489,-8.6034181686497,5.11086501580652,4.88969424616961,2.42893231226339,-3.69940517422087,1.70151167358745,-1.25909055523479,0.601904419463679,8.25710443855969,2.40816501343148,-2.35939495080608,4.3995885868195,5.51988149343189,-0.143965592113691,-5.68131210048333,10.2219300748931,9.07227292374764
0.86,0.699355313184356,-13.9139240202458,1.60686752563083,-5.27865794590301,1.32586318282964,-1.295303704502,-1.21056524310427,-8.59683803157268,5.10702509469091,4.88594892858747,2.42705965347232,-3.69659618532049,1.69947397475778,-1.25829009013077,0.601423029100353,8.25082087234587,2.40636970958102,-2.35759964695561,4.39546945902021,5.51565173568648,-0.14383230604912,-5.67699810875492,10.2141648918867,9.06537053724529
0.865,0.698476364888904,-13.9031336762011,1.606260212233,-5.27464702014424,1.32486045177214,-1.29430097344451,-1.21039838459376,-8.59025789449564,5.10318517357528,4.88220361100533,2.42518699468125,-3.6937871964201,1.69743627592788,-1.25748962502669,0.60094163873703,8.24453730613204,2.40457440573055,-2.35580434310514,4.39135033122079,5.51142197794107,-0.143699019984545,-5.67268411702652,10.2063997088804,9.05846815074293
0.87,0.697597416593453,-13.8923433321563,1.60565289883527,-5.27063609438546,1.32385772071465,-1.29329824238702,-1.21023152608325,-8.58367775741861,5.09934525245967,4.8784582934232,2.42331433589019,-3.69097820751972,1.6953985770981,-1.25668915992267,0.600460248373707,8.23825373991822,2.40277910188009,-2.35400903925468,4.38723120342161,5.50719222019565,-0.143565733919974,-5.66837012529811,10.198634525874,9.05156576424057
0.875,0.696718468298002,-13.8815529881115,1.60504558543744,-5.26662516862669,1.32285498965716,-1.29229551132953,-1.21006466757262,-8.57709762034159,5.09550533134404,4.87471297584106,2.42144167709912,-3.68816921861933,1.69336087826832,-1.25588869481859,0.599978858010378,8.23197017370439,2.40098379802962,-2.35221373540421,4.38311207562231,5.50296246245025,-0.143432447855396,-5.66405613356971,10.1908693428676,9.04466337773822
0.88,0.695839520002551,-13.8707626440668,1.60443827203972,-5.26261424286791,1.32185225859966,-1.29129278027203,-1.20989780906211,-8.57051748326456,5.09166541022843,4.87096765825893,2.41956901830805,-3.68536022971895,1.69132317943854,-1.25508822971454,0.599497467647055,8.22568660749057,2.39918849417916,-2.35041843155375,4.37899294782301,5.49873270470483,-0.143299161790825,-5.6597421418413,10.1831041598612,9.03776099123586
0.885,0.694960571707156,-13.8599723000219,1.60383095864188,-5.25860331710913,1.32084952754217,-1.29029004921454,-1.20973095055149,-8.56393734618753,5.08782548911283,4.86722234067679,2.41769635951698,-3.68255124081856,1.68928548060876,-1.25428776461047,0.599016077283732,8.21940304127674,2.39739319032869,-2.34862312770328,4.37487382002371,5.49450294695941,-0.14316587572625,-5.6554281501129,10.1753389768548,9.0308586047335
0.89,0.694081623411762,-13.8491819559771,1.60322364524416,-5.25459239135036,1.31984679648468,-1.28928731815705,-1.20956409204098,-8.5573572091105,5.0839855679972,4.86347702309465,2.41582370072591,-3.67974225191818,1.68724778177898,-1.25348729950642,0.598534686920406,8.21311947506291,2.39559788647823,-2.34682782385281,4.37075469222441,5.49027318921401,-0.143032589661679,-5.65111415838449,10.1675737938484,9.02395621823115
0.895,0.693202675116311,-13.8383916119324,1.60261633184632,-5.25058146559158,1.31884406542719,-1.28828458709955,-1.20939723353047,-8.55077707203346,5.08014564688159,4.85973170551252,2.41395104193484,-3.67693326301779,1.6852100829492,-1.25268683440237,0.598053296557083,8.20683590884909,2.39380258262776,-2.34503252000235,4.36663556442511,5.48604343146859,-0.142899303597105,-5.64680016665609,10.159808610842,9.01705383172879
0.9,0.69232372682086,-13.8276012678876,1.60200901844848,-5.2465705398328,1.31784133436969,-1.28728185604206,-1.20923037501984,-8.54419693495644,5.07630572576596,4.85598638793038,2.41207838314378,-3.67412427411741,1.6831723841193,-1.25188636929829,0.59757190619376,8.20055234263527,2.39200727877729,-2.34323721615188,4.36251643662581,5.48181367372318,-0.142766017532534,-5.64248617492768,10.1520434278356,9.01015144522643
0.905,0.691444778525408,-13.8168109238428,1.60140170505076,-5.24255961407403,1.3168386033122,-1.28627912498457,-1.20906351650933,-8.53761679787941,5.07246580465035,4.85224107034825,2.41020572435271,-3.67131528521702,1.68113468528952,-1.25108590419427,0.597090515830434,8.19426877642144,2.39021197492682,-2.34144191230142,4.35839730882651,5.47758391597777,-0.142632731467959,-5.63817218319927,10.1442782448292,9.00324905872407
0.91,0.690565830229957,-13.8060205797981,1.60079439165304,-5.23854868831525,1.31583587225471,-1.28527639392707,-1.20889665799882,-8.53103666080237,5.06862588353474,4.84849575276611,2.40833306556164,-3.66850629631663,1.67909698645974,-1.25028543909019,0.596609125467111,8.18798521020761,2.38841667107636,-2.33964660845095,4.35427818102721,5.47335415823236,-0.142499445403388,-5.63385819147087,10.1365130618228,8.99634667222172
0.915,0.68968688193462,-13.7952302357533,1.6001870782552,-5.23453776255647,1.31483314119721,-1.28427366286958,-1.20872979948808,-8.52445652372534,5.06478596241911,4.84475043518397,2.40646040677057,-3.66569730741625,1.67705928762996,-1.24948497398614,0.596127735103789,8.18170164399379,2.38662136722589,-2.33785130460048,4.35015905322803,5.46912440048695,-0.142366159338813,-5.62954419974246,10.1287478788164,8.98944428571936
0.92,0.688807933639168,-13.7844398917085,1.59957976485748,-5.2305268367977,1.31383041013972,-1.28327093181209,-1.20856294097757,-8.51787638664831,5.0609460413035,4.84100511760183,2.40458774797951,-3.66288831851586,1.67502158880018,-1.24868450888206,0.595646344740462,8.17541807777996,2.38482606337542,-2.33605600075002,4.34603992542861,5.46489464274154,-0.142232873274242,-5.62523020801406,10.12098269581,8.982541899217
0.925,0.687928985343717,-13.7736495476637,1.59897245145953,-5.22651591103892,1.31282767908223,-1.2822682007546,-1.20839608246695,-8.51129624957128,5.05710612018787,4.8372598000197,2.40271508918843,-3.66007932961548,1.6729838899704,-1.24788404377801,0.59516495437714,8.16913451156614,2.38303075952496,-2.33426069689955,4.34192079762931,5.46066488499612,-0.142099587209664,-5.62091621628565,10.1132175128036,8.97563951271464
0.93,0.687050037048266,-13.7628592036189,1.59836513806181,-5.22250498528014,1.31182494802474,-1.2812654696971,-1.20822922395644,-8.50471611249426,5.05326619907225,4.83351448243756,2.40084243039736,-3.65727034071509,1.67094619114062,-1.24708357867397,0.594683564013813,8.16285094535231,2.38123545567449,-2.33246539304909,4.33780166983013,5.45643512725071,-0.141966301145093,-5.61660222455725,10.1054523297972,8.96873712621229
0.935,0.686171088752815,-13.7520688595742,1.59775782466409,-5.21849405952137,1.31082221696724,-1.28026273863961,-1.20806236544593,-8.49813597541723,5.04942627795664,4.82976916485542,2.3989697716063,-3.6544613518147,1.66890849231072,-1.24628311356989,0.594202173650487,8.15656737913849,2.37944015182403,-2.33067008919862,4.33368254203083,5.4522053695053,-0.141833015080518,-5.61228823282884,10.0976871467908,8.96183473970993
0.94,0.68529214045742,-13.7412785155294,1.59715051126625,-5.21448313376259,1.30981948590975,-1.27926000758212,-1.2078955069353,-8.49155583834019,5.04558635684103,4.82602384727329,2.39709711281523,-3.65165236291432,1.66687079348105,-1.24548264846587,0.593720783287164,8.15028381292466,2.37764484797356,-2.32887478534815,4.32956341423142,5.44797561175989,-0.141699729015947,-5.60797424110044,10.0899219637844,8.95493235320757
0.945,0.684413192162026,-13.7304881714846,1.59654319786853,-5.21047220800381,1.30881675485226,-1.27825727652462,-1.20772864842479,-8.48497570126316,5.0417464357254,4.82227852969115,2.39522445402416,-3.64884337401394,1.66483309465116,-1.24468218336179,0.593239392923842,8.14400024671084,2.3758495441231,-2.32707948149769,4.32544428643223,5.44374585401448,-0.141566442951376,-5.60366024937203,10.082156780778,8.94802996670521
0.95,0.683534243866575,-13.7196978274399,1.59593588447069,-5.20646128224504,1.30781402379476,-1.27725454546713,-1.20756178991428,-8.47839556418614,5.03790651460979,4.81853321210901,2.39335179523309,-3.64603438511355,1.66279539582138,-1.24388171825774,0.592758002560515,8.13771668049701,2.37405424027263,-2.32528417764722,4.32132515863293,5.43951609626906,-0.141433156886801,-5.59934625764362,10.0743915977716,8.94112758020286
0.955,0.682655295571124,-13.7089074833951,1.59532857107286,-5.20245035648626,1.30681129273727,-1.27625181440964,-1.20739493140366,-8.4718154271091,5.03406659349417,4.81478789452688,2.39147913644202,-3.64322539621316,1.6607576969916,-1.24308125315366,0.592276612197193,8.13143311428319,2.37225893642216,-2.32348887379676,4.31720603083352,5.43528633852365,-0.14129987082223,-5.59503226591522,10.0666264147652,8.9342251937005
0.96,0.681776347275672,-13.6981171393503,1.59472125767513,-5.19843943072748,1.30580856167978,-1.27524908335215,-1.20722807289314,-8.46523529003207,5.03022667237856,4.81104257694474,2.38960647765096,-3.64041640731278,1.65871999816181,-1.24228078804961,0.59179522183387,8.12514954806936,2.3704636325717,-2.32169356994629,4.31308690303433,5.43105658077824,-0.141166584757656,-5.59071827418681,10.0588612317588,8.92732280719814
0.965,0.680897398980221,-13.6873267953056,1.59411394427741,-5.19442850496871,1.30480583062229,-1.27424635229466,-1.20706121438252,-8.45865515295505,5.02638675126293,4.80729725936261,2.38773381885989,-3.63760741841239,1.65668229933203,-1.24148032294556,0.591313831470544,8.11886598185554,2.36866832872123,-2.31989826609582,4.30896777523503,5.42682682303283,-0.141033298693085,-5.58640428245841,10.0510960487524,8.92042042069578
0.97,0.680018450684827,-13.6765364512608,1.59350663087957,-5.19041757920993,1.30380309956479,-1.27324362123716,-1.20689435587201,-8.45207501587802,5.02254683014732,4.80355194178047,2.38586116006882,-3.63479842951201,1.65464460050225,-1.24067985784149,0.590832441107221,8.11258241564171,2.36687302487076,-2.31810296224536,4.30484864743573,5.42259706528742,-0.140900012628506,-5.58209029073,10.043330865746,8.91351803419343
0.975,0.679139502389376,-13.6657461072159,1.59289931748185,-5.18640665345115,1.3028003685073,-1.27224089017967,-1.2067274973615,-8.44549487880099,5.01870690903169,4.79980662419833,2.38398850127775,-3.63198944061162,1.65260690167247,-1.23987939273746,0.590351050743898,8.10629884942789,2.3650777210203,-2.31630765839489,4.30072951963643,5.41836730754201,-0.140766726563935,-5.5777762990016,10.0355656827396,8.90661564769107
0.98,0.678260554093981,-13.6549557631712,1.59229200408402,-5.18239572769238,1.30179763744981,-1.27123815912218,-1.20656063885087,-8.43891474172396,5.01486698791608,4.7960613066162,2.38211584248669,-3.62918045171124,1.65056920284258,-1.23907892763339,0.589869660380572,8.10001528321406,2.36328241716983,-2.31451235454443,4.29661039183713,5.4141375497966,-0.140633440499361,-5.57346230727319,10.0278004997332,8.89971326118871
0.985,0.67738160579853,-13.6441654191264,1.59168469068618,-5.1783848019336,1.30079490639231,-1.27023542806468,-1.20639378034036,-8.43233460464693,5.01102706680047,4.79231598903406,2.38024318369562,-3.62637146281085,1.64853150401279,-1.23827846252934,0.589388270017249,8.09373171700024,2.36148711331936,-2.31271705069396,4.29249126403784,5.40990779205118,-0.14050015443479,-5.56914831554479,10.0200353167268,8.89281087468635
0.99,0.676502657503079,-13.6333750750816,1.59107737728846,-5.17437387617482,1.29979217533482,-1.26923269700719,-1.20622692182974,-8.4257544675699,5.00718714568484,4.78857067145192,2.37837052490455,-3.62356247391046,1.64649380518301,-1.23747799742526,0.588906879653923,8.08744815078641,2.35969180946891,-2.31092174684349,4.28837213623865,5.40567803430577,-0.140366868370215,-5.56483432381638,10.0122701337204,8.885908488184
0.995,0.675623709207628,-13.6225847310369,1.59047006389062,-5.17036295041605,1.29878944427733,-1.2682299659497,-1.20606006331911,-8.41917433049287,5.00334722456923,4.78482535386979,2.37649786611348,-3.62075348501008,1.64445610635323,-1.23667753232124,0.588425489290596,8.08116458457258,2.35789650561843,-2.30912644299303,4.28425300843924,5.40144827656036,-0.140233582305644,-5.56052033208798,10.004504950714,8.87900610168164
1,0.674744760912233,-13.6117943869921,1.5898627504929,-5.16635202465727,1.29778671321984,-1.2672272348922,-1.2058932048086,-8.41259419341583,4.9995073034536,4.78108003628765,2.37462520732241,-3.6179444961097,1.64241840752345,-1.23587706721716,0.587944098927274,8.07488101835876,2.35610120176797,-2.30733113914256,4.28013388063994,5.39721851881495,-0.140100296241069,-5.55620634035957,9.9967397677076,8.87210371517928
1.005,0.673865812616782,-13.6010040429473,1.58925543709518,-5.16234109889849,1.29678398216234,-1.26622450383471,-1.20572634629809,-8.40601405633881,4.995667382338,4.77733471870551,2.37275254853134,-3.61513550720931,1.64038070869367,-1.23507660211308,0.587462708563951,8.06859745214494,2.35430589791751,-2.3055358352921,4.27601475284075,5.39298876106954,-0.139967010176498,-5.55189234863117,9.9889745847012,8.86520132867692
1.01,0.672986864321388,-13.5902136989025,1.58864812369723,-5.15833017313972,1.29578125110485,-1.26522177277722,-1.20555948778747,-8.39943391926178,4.99182746122237,4.77358940112338,2.37087988974028,-3.61232651830892,1.63834300986389,-1.23427613700906,0.586981318200625,8.06231388593111,2.35251059406704,-2.30374053144163,4.27189562504134,5.38875900332413,-0.139833724111924,-5.54757835690276,9.9812094016948,8.85829894217457
1.015,0.672107916025936,-13.5794233548577,1.5880408102995,-5.15431924738094,1.29477852004736,-1.26421904171972,-1.20539262927696,-8.39285378218475,4.98798754010676,4.76984408354124,2.3690072309492,-3.60951752940854,1.63630531103399,-1.23347567190498,0.586499927837302,8.05603031971729,2.35071529021657,-2.30194522759116,4.26777649724204,5.38452924557872,-0.139700438047349,-5.54326436517436,9.9734442186884,8.85139655567221
1.02,0.671228967730485,-13.568633010813,1.58743349690167,-5.15030832162216,1.29377578898986,-1.26321631066223,-1.20522577076633,-8.38627364510772,4.98414761899113,4.76609876595911,2.36713457215814,-3.60670854050815,1.63426761220433,-1.23267520680093,0.586018537473979,8.04974675350346,2.34891998636611,-2.3001499237407,4.26365736944285,5.38029948783331,-0.139567151982774,-5.53895037344595,9.965679035682,8.84449416916985
1.025,0.670350019435034,-13.5578426667682,1.58682618350394,-5.14629739586339,1.29277305793237,-1.26221357960474,-1.20505891225582,-8.37969350803069,4.98030769787552,4.76235344837697,2.36526191336707,-3.60389955160777,1.63222991337443,-1.23187474169686,0.585537147110653,8.04346318728963,2.34712468251564,-2.29835461989023,4.25953824164355,5.37606973008789,-0.139433865918203,-5.53463638171754,9.9579138526756,8.8375917826675
1.03,0.669471071139583,-13.5470523227234,1.58621887010611,-5.14228647010461,1.29177032687488,-1.26121084854725,-1.20489205374531,-8.37311337095366,4.9764677767599,4.75860813079483,2.363389254576,-3.60109056270738,1.63019221454465,-1.23107427659284,0.58505575674733,8.03717962107581,2.34532937866518,-2.29655931603977,4.25541911384414,5.37183997234248,-0.139300579853629,-5.53032238998914,9.9501486696692,8.83068939616514
1.035,0.668592122844188,-13.5362619786787,1.58561155670827,-5.13827554434583,1.29076759581739,-1.26020811748975,-1.20472519523469,-8.36653323387662,4.97262785564428,4.7548628132127,2.36151659578493,-3.59828157380699,1.62815451571498,-1.23027381148876,0.584574366384008,8.03089605486198,2.34353407481471,-2.2947640121893,4.25129998604496,5.36761021459707,-0.139167293789058,-5.52600839826073,9.94238348666281,8.82378700966278
1.04,0.667713174548794,-13.5254716346339,1.58500424331055,-5.13426461858706,1.28976486475989,-1.25920538643226,-1.20455833672418,-8.3599530967996,4.96878793452866,4.75111749563056,2.35964393699387,-3.59547258490661,1.62611681688509,-1.22947334638468,0.584092976020681,8.02461248864816,2.34173877096424,-2.29296870833883,4.24718085824566,5.36338045685165,-0.139034007724483,-5.52169440653233,9.93461830365641,8.81688462316043
1.045,0.666834226253343,-13.5146812905891,1.58439692991283,-5.13025369282828,1.2887621337024,-1.25820265537477,-1.20439147821367,-8.35337295972257,4.96494801341304,4.74737217804842,2.3577712782028,-3.59266359600622,1.62407911805531,-1.22867288128066,0.583611585657358,8.01832892243433,2.33994346711378,-2.29117340448837,4.24306173044624,5.35915069910624,-0.138900721659912,-5.51738041480392,9.92685312065001,8.80998223665807
1.05,0.665955277957892,-13.5038909465443,1.58378961651499,-5.12624276706951,1.28775940264491,-1.25719992431728,-1.20422461970304,-8.34679282264554,4.96110809229742,4.74362686046629,2.35589861941173,-3.58985460710584,1.62204141922552,-1.22787241617658,0.583130195294032,8.01204535622051,2.33814816326331,-2.2893781006379,4.23894260264706,5.35492094136083,-0.138767435595337,-5.51306642307552,9.91908793764361,8.80307985015571
1.055,0.66507632966244,-13.4931006024995,1.58318230311727,-5.12223184131073,1.28675667158741,-1.25619719325978,-1.20405776119253,-8.34021268556851,4.95726817118181,4.73988154288415,2.35402596062066,-3.58704561820545,1.62000372039574,-1.22707195107253,0.582648804930706,8.00576179000668,2.33635285941285,-2.28758279678744,4.23482347484776,5.35069118361542,-0.138634149530766,-5.50875243134711,9.91132275463721,8.79617746365335
1.06,0.664197381366989,-13.4823102584548,1.58257498971943,-5.11822091555195,1.28575394052992,-1.25519446220229,-1.20389090268191,-8.33363254849148,4.9534282500662,4.73613622530201,2.35215330182959,-3.58423662930507,1.61796602156585,-1.22627148596845,0.582167414567383,7.99947822379286,2.33455755556238,-2.28578749293697,4.23070434704846,5.34646142587001,-0.138500863466195,-5.5044384396187,9.90355757163081,8.78927507715099
1.065,0.663318433071595,-13.47151991441,1.5819676763216,-5.11420998979317,1.28475120947243,-1.2541917311448,-1.20372404417128,-8.32705241141445,4.94958832895057,4.73239090771987,2.35028064303853,-3.58142764040468,1.61592832273618,-1.22547102086443,0.58168602420406,7.99319465757903,2.33276225171191,-2.2839921890865,4.22658521924916,5.3422316681246,-0.138367577401617,-5.5001244478903,9.89579238862441,8.78237269064864
1.07,0.662439484776201,-13.4607295703652,1.58136036292387,-5.1101990640344,1.28374847841494,-1.25318900008731,-1.20355718566077,-8.32047227433742,4.94574840783496,4.72864559013774,2.34840798424746,-3.5786186515043,1.6138906239064,-1.22467055576035,0.581204633840734,7.98691109136521,2.33096694786145,-2.28219688523604,4.22246609144986,5.33800191037918,-0.138234291337046,-5.49581045616189,9.88802720561802,8.77547030414628
1.075,0.661560536480749,-13.4499392263204,1.58075304952615,-5.10618813827562,1.28274574735744,-1.25218626902981,-1.20339032715015,-8.31389213726039,4.94190848671934,4.7249002725556,2.34653532545639,-3.57580966260391,1.61185292507651,-1.22387009065631,0.580723243477411,7.98062752515138,2.32917164401098,-2.28040158138557,4.21834696365056,5.33377215263378,-0.138101005272471,-5.49149646443349,9.88026202261162,8.76856791764392
1.08,0.660681588185298,-13.4391488822757,1.58014573612832,-5.10217721251685,1.28174301629995,-1.25118353797232,-1.20322346863964,-8.30731200018336,4.93806856560373,4.72115495497347,2.34466266666532,-3.57300067370353,1.60981522624672,-1.22306962555226,0.580241853114089,7.97434395893756,2.32737634016051,-2.27860627753511,4.21422783585137,5.32954239488836,-0.1379677192079,-5.48718247270508,9.87249683960522,8.76166553114157
1.085,0.659802639889847,-13.4283585382309,1.57953842273059,-5.09816628675807,1.28074028524246,-1.25018080691483,-1.20305661012912,-8.30073186310633,4.9342286444881,4.71740963739133,2.34279000787425,-3.57019168480314,1.60777752741694,-1.22226916044818,0.579760462750762,7.96806039272373,2.32558103631005,-2.27681097368464,4.21010870805196,5.32531263714295,-0.137834433143325,-5.48286848097668,9.86473165659882,8.75476314463921
1.09,0.658923691594396,-13.4175681941861,1.57893110933276,-5.09415536099929,1.27973755418496,-1.24917807585733,-1.2028897516185,-8.2941517260293,4.93038872337249,4.71366431980919,2.34091734908318,-3.56738269590275,1.60573982858716,-1.22146869534413,0.57927907238744,7.96177682650991,2.32378573245958,-2.27501566983417,4.20598958025266,5.32108287939754,-0.137701147078754,-5.47855448924827,9.85696647359242,8.74786075813685
1.095,0.658044743299001,-13.4067778501413,1.57832379593492,-5.09014443524051,1.27873482312747,-1.24817534479984,-1.20272289310799,-8.28757158895227,4.92654880225686,4.70991900222706,2.33904469029212,-3.56457370700237,1.60370212975727,-1.22066823024008,0.578797682024117,7.95549326029608,2.32199042860912,-2.27322036598371,4.20187045245348,5.31685312165213,-0.13756786101418,-5.47424049751987,9.84920129058603,8.74095837163449
1.1,0.657165795003607,-13.3959875060965,1.5777164825372,-5.08613350948174,1.27773209206998,-1.24717261374235,-1.20255603459736,-8.28099145187524,4.92270888114125,4.70617368464492,2.33717203150105,-3.56176471810198,1.6016644309276,-1.21986776513603,0.578316291660791,7.94920969408226,2.32019512475865,-2.27142506213324,4.19775132465406,5.31262336390672,-0.137434574949609,-5.46992650579146,9.84143610757963,8.73405598513214
1.105,0.656286846708156,-13.3851971620518,1.57710916913936,-5.08212258372296,1.27672936101249,-1.24616988268485,-1.20238917608685,-8.27441131479821,4.91886896002563,4.70242836706278,2.33529937270998,-3.5589557292016,1.59962673209782,-1.21906730003195,0.577834901297468,7.94292612786843,2.31839982090818,-2.26962975828278,4.19363219685476,5.3083936061613,-0.137301288885034,-5.46561251406306,9.83367092457323,8.72715359862978
1.11,0.655407898412705,-13.374406818007,1.57650185574153,-5.07811165796419,1.27572662995499,-1.24516715162736,-1.20222231757634,-8.26783117772118,4.91502903891001,4.69868304948065,2.33342671391891,-3.55614674030121,1.59758903326792,-1.2182668349279,0.577353510934138,7.9366425616546,2.31660451705772,-2.26783445443231,4.18951306905558,5.30416384841589,-0.137168002820459,-5.46129852233465,9.82590574156683,8.72025121212742
1.115,0.654528950117253,-13.3636164739622,1.57589454234392,-5.07410073220541,1.2747238988975,-1.24416442056987,-1.20205545906572,-8.26125104064415,4.91118911779441,4.69493773189851,2.33155405512784,-3.55333775140083,1.59555133443826,-1.21746636982385,0.576872120570815,7.93035899544078,2.31480921320725,-2.26603915058184,4.18539394125628,5.29993409067048,-0.137034716755885,-5.45698453060624,9.81814055856043,8.71334882562507
1.12,0.653650001821859,-13.3528261299174,1.57528722894597,-5.07008980644663,1.27372116784001,-1.24316168951237,-1.20188860055521,-8.25467090356712,4.90734919667877,4.69119241431638,2.32968139633677,-3.55052876250044,1.59351363560836,-1.21666590471978,0.576390730207493,7.92407542922695,2.31301390935679,-2.26424384673138,4.18127481345687,5.29570433292507,-0.136901430691314,-5.45267053887784,9.81037537555403,8.70644643912271
1.125,0.652771053526408,-13.3420357858727,1.57467991554824,-5.06607888068786,1.27271843678251,-1.24215895845488,-1.2017217420447,-8.24809076649009,4.90350927556317,4.68744709673424,2.32780873754571,-3.54771977360006,1.59147593677858,-1.21586543961573,0.57590933984417,7.91779186301313,2.31121860550632,-2.26244854288091,4.17715568565768,5.29147457517966,-0.136768144626739,-5.44835654714944,9.80261019254764,8.69954405262035
1.13,0.651892105231013,-13.3312454418279,1.57407260215041,-5.06206795492908,1.27171570572502,-1.24115622739739,-1.20155488353407,-8.24151062941306,4.89966935444754,4.6837017791521,2.32593607875464,-3.54491078469967,1.5894382379488,-1.21506497451168,0.575427949480844,7.9115082967993,2.30942330165585,-2.26065323903045,4.17303655785838,5.28724481743425,-0.136634858562168,-5.44404255542103,9.79484500954123,8.69264166611799
1.135,0.651013156935562,-13.3204550977831,1.57346528875269,-5.0580570291703,1.27071297466753,-1.2401534963399,-1.20138802502356,-8.23493049233603,4.89582943333193,4.67995646156997,2.32406341996357,-3.54210179579928,1.58740053911902,-1.21426450940763,0.574946559117521,7.90522473058548,2.30762799780538,-2.25885793517998,4.16891743005908,5.28301505968884,-0.136501572497593,-5.43972856369262,9.78707982653484,8.68573927961564
1.14,0.650134208640111,-13.3096647537383,1.57285797535496,-5.05404610341153,1.26971024361004,-1.23915076528241,-1.20122116651282,-8.228350355259,4.8919895122163,4.67621114398783,2.3221907611725,-3.5392928068989,1.58536284028912,-1.21346404430355,0.574465168754198,7.89894116437165,2.30583269395493,-2.25706263132951,4.16479830225978,5.27878530194343,-0.136368286433022,-5.43541457196422,9.77931464352844,8.67883689311328
1.145,0.64925526034466,-13.2988744096936,1.57225066195713,-5.05003517765275,1.26870751255254,-1.23814803422491,-1.20105430800231,-8.22177021818197,4.88814959110069,4.67246582640569,2.32031810238143,-3.53648381799851,1.58332514145945,-1.2126635791995,0.573983778390872,7.89265759815783,2.30403739010445,-2.25526732747905,4.16067917446048,5.27455554419801,-0.136235000368448,-5.43110058023581,9.77154946052204,8.67193450661092
1.15,0.648376312049265,-13.2880840656488,1.57164334855929,-5.04602425189397,1.26770478149505,-1.23714530316742,-1.2008874494918,-8.21519008110494,4.88430966998507,4.66872050882356,2.31844544359036,-3.53367482909813,1.58128744262967,-1.21186311409545,0.573502388027549,7.886374031944,2.30224208625399,-2.25347202362858,4.15656004666118,5.2703257864526,-0.136101714303877,-5.4267865885074,9.76378427751564,8.66503212010856
1.155,0.647497363753814,-13.277293721604,1.57103603516157,-5.0420133261352,1.26670205043756,-1.23614257210993,-1.20072059098118,-8.20860994402791,4.88046974886944,4.66497519124142,2.3165727847993,-3.53086584019774,1.57924974379978,-1.2110626489914,0.573020997664223,7.88009046573018,2.30044678240353,-2.25167671977812,4.15244091886188,5.26609602870719,-0.135968428239302,-5.422472596779,9.75601909450924,8.65812973360621
1.16,0.64661841545842,-13.2665033775592,1.57042872176385,-5.03800240037642,1.26569931938007,-1.23513984105243,-1.20055373247067,-8.20202980695088,4.87662982775383,4.66122987365928,2.31470012600823,-3.52805685129736,1.57721204497,-1.21026218388732,0.5725396073009,7.87380689951635,2.29865147855306,-2.24988141592765,4.14832179106259,5.26186627096178,-0.135835142174727,-5.41815860505059,9.74825391150285,8.65122734710385
1.165,0.645739467162969,-13.2557130335145,1.56982140836601,-5.03399147461764,1.26469658832257,-1.23413710999494,-1.20038687396016,-8.19544966987385,4.87278990663822,4.65748455607715,2.31282746721716,-3.52524786239697,1.57517434614022,-1.20946171878327,0.572058216937574,7.86752333330253,2.29685617470259,-2.24808611207718,4.14420266326329,5.25763651321637,-0.135701856110153,-5.41384461332219,9.74048872849645,8.64432496060149
1.17,0.644860518867517,-13.2449226894697,1.56921409496817,-5.02998054885887,1.26369385726508,-1.23313437893745,-1.20022001544953,-8.18886953279682,4.86894998552259,4.65373923849501,2.31095480842609,-3.52243887349658,1.57313664731043,-1.20866125367922,0.571576826574248,7.8612397670887,2.29506087085213,-2.24629080822672,4.1400835354641,5.25340675547095,-0.135568570045582,-5.40953062159378,9.73272354549005,8.63742257409913
1.175,0.643981570572066,-13.2341323454249,1.56860678157034,-5.02596962310009,1.26269112620759,-1.23213164787995,-1.20005315693902,-8.18228939571979,4.86511006440698,4.64999392091287,2.30908214963502,-3.5196298845962,1.57109894848054,-1.20786078857515,0.571095436210925,7.85495620087488,2.29326556700166,-2.24449550437625,4.13596440766469,5.24917699772554,-0.135435283981007,-5.40521662986538,9.72495836248365,8.63052018759678
1.18,0.643102622276672,-13.2233420013801,1.56799946817262,-5.02195869734132,1.2616883951501,-1.23112891682246,-1.19988629842851,-8.17570925864276,4.86127014329136,4.64624860333074,2.30720949084396,-3.51682089569581,1.56906124965087,-1.2070603234711,0.570614045847602,7.84867263466105,2.29147026315119,-2.24270020052579,4.13184527986539,5.24494723998013,-0.135301997916436,-5.40090263813697,9.71719317947726,8.62361780109442
1.185,0.642223673981221,-13.2125516573353,1.56739215477489,-5.01794777158253,1.2606856640926,-1.23012618576497,-1.19971943991789,-8.16912912156573,4.85743022217575,4.6425032857486,2.30533683205289,-3.51401190679543,1.56702355082109,-1.20625985836705,0.570132655484276,7.84238906844723,2.28967495930073,-2.24090489667532,4.1277261520662,5.24071748223471,-0.135168711851865,-5.39658864640857,9.70942799647085,8.61671541459206
1.19,0.641344725685769,-13.2017613132906,1.56678484137706,-5.01393684582376,1.25968293303511,-1.22912345470748,-1.19955258140737,-8.1625489844887,4.85359030106012,4.63875796816647,2.30346417326182,-3.51120291789504,1.5649858519912,-1.205459393263,0.569651265120953,7.8361055022334,2.28787965545026,-2.23910959282485,4.1236070242669,5.2364877244893,-0.13503542578729,-5.39227465468016,9.70166281346446,8.60981302808971
1.195,0.640465777390375,-13.1909709692458,1.56617752797922,-5.00992592006498,1.25868020197761,-1.22812072364998,-1.19938572289675,-8.15596884741167,4.84975037994451,4.63501265058433,2.30159151447075,-3.50839392899466,1.56294815316153,-1.20465892815892,0.56916987475763,7.82982193601958,2.2860843515998,-2.23731428897439,4.11948789646749,5.23225796674389,-0.134902139722719,-5.38796066295176,9.69389763045806,8.60291064158735
1.2,0.639586829094924,-13.180180625201,1.56557021458138,-5.00591499430621,1.25767747092012,-1.22711799259249,-1.19921886438624,-8.14938871033464,4.8459104588289,4.63126733300219,2.29971885567968,-3.50558494009427,1.56091045433163,-1.20385846305487,0.568688484394304,7.82353836980575,2.28428904774933,-2.23551898512392,4.1153687686683,5.22802820899848,-0.134768853658144,-5.38364667122335,9.68613244745166,8.59600825508499
1.205,0.638707880799473,-13.1693902811562,1.56496290118366,-5.00190406854743,1.25667473986263,-1.226115261535,-1.19905200587573,-8.14280857325761,4.84207053771327,4.62752201542006,2.29784619688861,-3.50277595119389,1.55887275550185,-1.20305799795082,0.568207094030981,7.81725480359193,2.28249374389887,-2.23372368127346,4.111249640869,5.22379845125307,-0.13463556759357,-5.37933267949495,9.67836726444526,8.58910586858263
1.21,0.637828932504078,-13.1585999371115,1.56435558778594,-4.99789314278866,1.25567200880513,-1.22511253047751,-1.1988851473651,-8.13622843618058,4.83823061659766,4.62377669783792,2.29597353809755,-3.4999669622935,1.55683505667207,-1.20225753284674,0.567725703667659,7.8109712373781,2.2806984400484,-2.23192837742299,4.10713051306959,5.21956869350766,-0.134502281528995,-5.37501868776654,9.67060208143886,8.58220348208028
1.215,0.636949984208627,-13.1478095930667,1.5637482743881,-4.99388221702988,1.25466927774764,-1.22410979942001,-1.19871828885448,-8.12964829910355,4.83439069548204,4.62003138025578,2.29410087930648,-3.49715797339312,1.55479735784229,-1.20145706774272,0.567244313304332,7.80468767116428,2.27890313619793,-2.23013307357252,4.10301138527041,5.21533893576225,-0.134368995464424,-5.37070469603814,9.66283689843246,8.57530109557792
1.22,0.636071035913233,-13.1370192490219,1.56314096099038,-4.9898712912711,1.25366654669015,-1.22310706836252,-1.19855143034397,-8.12306816202652,4.83055077436642,4.61628606267365,2.29222822051541,-3.49434898449273,1.55275965901251,-1.20065660263865,0.56676292294101,7.79840410495045,2.27710783234747,-2.22833776972206,4.09889225747111,5.21110917801684,-0.134235709399849,-5.36639070430973,9.65507171542607,8.56839870907556
1.225,0.635192087617781,-13.1262289049771,1.56253364759255,-4.98586036551233,1.25266381563266,-1.22210433730502,-1.19838457183334,-8.11648802494949,4.8267108532508,4.61254074509151,2.29035556172434,-3.49153999559234,1.55072196018273,-1.1998561375346,0.566281532577683,7.79212053873662,2.275312528497,-2.22654246587159,4.09477312967181,5.20687942027142,-0.134102423335278,-5.36207671258132,9.64730653241967,8.56149632257321
1.23,0.63431313932233,-13.1154385609323,1.56192633419471,-4.98184943975355,1.25166108457516,-1.22110160624753,-1.19821771332283,-8.10990788787246,4.82287093213517,4.60879542750937,2.28848290293327,-3.48873100669196,1.54868426135295,-1.19905567243052,0.565800142214357,7.7858369725228,2.27351722464653,-2.22474716202113,4.09065400187251,5.20264966252601,-0.133969137270704,-5.35776272085292,9.63954134941327,8.55459393607085
1.235,0.633434191026879,-13.1046482168876,1.56131902079699,-4.97783851399477,1.25065835351767,-1.22009887519004,-1.19805085481221,-8.10332775079543,4.81903101101958,4.60505010992724,2.2866102441422,-3.48592201779157,1.54664656252305,-1.19825520732647,0.565318751851034,7.77955340630897,2.27172192079607,-2.22295185817066,4.08653487407321,5.1984199047806,-0.133835851206133,-5.35344872912452,9.63177616640687,8.54769154956849
1.24,0.632555242731485,-13.0938578728428,1.56071170739926,-4.973827588236,1.24965562246018,-1.21909614413255,-1.1978839963017,-8.0967476137184,4.81519108990395,4.6013047923451,2.28473758535114,-3.48311302889119,1.54460886369327,-1.19745474222242,0.564837361487712,7.77326984009515,2.2699266169456,-2.22115655432019,4.08241574627391,5.19419014703519,-0.133702565141558,-5.34913473739611,9.62401098340047,8.54078916306613
1.245,0.631676294436033,-13.083067528798,1.56010439400143,-4.96981666247722,1.24865289140269,-1.21809341307505,-1.19771713779119,-8.09016747664137,4.81135116878833,4.59755947476296,2.28286492656007,-3.4803040399908,1.54257116486349,-1.19665427711837,0.564355971124385,7.76698627388132,2.26813131309513,-2.21936125046973,4.07829661847461,5.18996038928978,-0.133569279076987,-5.3448207456677,9.61624580039408,8.53388677656378
1.25,0.630797346140639,-13.0722771847533,1.55949708060359,-4.96580573671844,1.24765016034519,-1.21709068201756,-1.19755027928056,-8.08358733956434,4.80751124767272,4.59381415718083,2.280992267769,-3.47749505109042,1.54053346603371,-1.19585381201432,0.563874580761063,7.7607027076675,2.26633600924468,-2.21756594661926,4.07417749067531,5.18573063154436,-0.133435993012412,-5.3405067539393,9.60848061738767,8.52698439006142
1.255,0.629918397845188,-13.0614868407085,1.55888976720576,-4.96179481095967,1.2466474292877,-1.21608795096007,-1.19738342077005,-8.07700720248731,4.80367132655709,4.59006883959869,2.27911960897793,-3.47468606219003,1.53849576720381,-1.19505334691024,0.56339319039774,7.75441914145367,2.2645407053942,-2.2157706427688,4.07005836287601,5.18150087379895,-0.133302706947838,-5.33619276221089,9.60071543438128,8.52008200355906
1.26,0.629039449549737,-13.0506964966637,1.55828245380803,-4.95778388520089,1.24564469823021,-1.21508521990258,-1.19721656225954,-8.07042706541029,4.79983140544148,4.58632352201656,2.27724695018686,-3.47187707328965,1.53645806837415,-1.19425288180619,0.562911800034414,7.74813557523985,2.26274540154374,-2.21397533891833,4.06593923507683,5.17727111605354,-0.133169420883263,-5.33187877048249,9.59295025137488,8.5131796170567
1.265,0.628160501254285,-13.0399061526189,1.55767514041031,-4.95377295944211,1.24464196717271,-1.21408248884508,-1.19704970374892,-8.06384692833325,4.79599148432587,4.58257820443442,2.2753742913958,-3.46906808438926,1.53442036954436,-1.19345241670212,0.562430409671091,7.74185200902602,2.26095009769327,-2.21218003506787,4.06182010727741,5.17304135830813,-0.133036134818692,-5.32756477875408,9.58518506836848,8.50627723055435
1.27,0.627281552958891,-13.0291158085741,1.55706782701247,-4.94976203368334,1.24363923611522,-1.21307975778759,-1.19688284523841,-8.05726679125622,4.79215156321024,4.57883288685228,2.27350163260473,-3.46625909548887,1.53238267071447,-1.19265195159809,0.561949019307768,7.7355684428122,2.25915479384281,-2.2103847312174,4.05770097947811,5.16881160056272,-0.132902848754117,-5.32325078702568,9.57741988536208,8.49937484405199
1.275,0.62640260466344,-13.0183254645293,1.55646051361475,-4.94575110792456,1.24263650505773,-1.2120770267301,-1.1967159867279,-8.05068665417919,4.78831164209461,4.57508756927015,2.27162897381366,-3.46345010658849,1.5303449718848,-1.19185148649402,0.561467628944442,7.72928487659837,2.25735948999234,-2.20858942736693,4.05358185167893,5.16458184281731,-0.132769562689546,-5.31893679529727,9.56965470235568,8.49247245754963
1.28,0.625523656368046,-13.0075351204846,1.55585320021692,-4.94174018216578,1.24163377400024,-1.2110742956726,-1.19654912821727,-8.04410651710216,4.784471720979,4.57134225168801,2.26975631502259,-3.4606411176881,1.52830727305491,-1.19105102138997,0.560986238581119,7.72300131038455,2.25556418614188,-2.20679412351647,4.04946272387963,5.1603520850719,-0.132636276624972,-5.31462280356887,9.56188951934929,8.48557007104727
1.285,0.624644708072594,-12.9967447764398,1.55524588681908,-4.937729256407,1.24063104294274,-1.21007156461511,-1.19638226970665,-8.03752638002513,4.78063179986339,4.56759693410587,2.26788365623152,-3.45783212878772,1.52626957422513,-1.19025055628589,0.560504848217793,7.71671774417072,2.25376888229141,-2.204998819666,4.04534359608022,5.15612232732649,-0.1325029905604,-5.31030881184046,9.55412433634289,8.47866768454492
1.29,0.623765759777143,-12.985954432395,1.55463857342136,-4.93371833064823,1.23962831188525,-1.20906883355762,-1.19621541119602,-8.0309462429481,4.77679187874777,4.56385161652373,2.26601099744045,-3.45502313988733,1.52423187539534,-1.18945009118184,0.560023457854466,7.7104341779569,2.25197357844095,-2.20320351581554,4.04122446828103,5.15189256958107,-0.132369704495826,-5.30599482011205,9.54635915333649,8.47176529804256
1.295,0.622886811481692,-12.9751640883503,1.55403126002352,-4.92970740488945,1.23862558082776,-1.20806610250013,-1.19604855268551,-8.02436610587107,4.77295195763216,4.5601062989416,2.26413833864938,-3.45221415098695,1.52219417656556,-1.18864962607779,0.559542067491144,7.70415061174307,2.25017827459047,-2.20140821196507,4.03710534048173,5.14766281183566,-0.132236418431255,-5.30168082838365,9.53859397033009,8.4648629115402
1.3,0.622007863186298,-12.9643737443055,1.5534239466258,-4.92569647913068,1.23762284977026,-1.20706337144263,-1.195881694175,-8.01778596879405,4.76911203651654,4.55636098135946,2.26226567985832,-3.44940516208656,1.52015647773578,-1.18784916097371,0.559060677127821,7.69786704552925,2.24838297074002,-2.1996129081146,4.03298621268232,5.14343305409025,-0.132103132366677,-5.29736683665524,9.53082878732369,8.45796052503785
1.305,0.621128914890846,-12.9535834002607,1.55281663322808,-4.9216855533719,1.23662011871277,-1.20606064038514,-1.19571483566438,-8.01120583171701,4.76527211540091,4.55261566377733,2.26039302106725,-3.44659617318618,1.518118778906,-1.18704869586969,0.558579286764495,7.69158347931542,2.24658766688955,-2.19781760426414,4.02886708488313,5.13920329634484,-0.131969846302106,-5.29305284492684,9.52306360431729,8.45105813853549
1.31,0.620249966595452,-12.9427930562159,1.55220931983024,-4.91767462761312,1.23561738765528,-1.20505790932765,-1.19554797715386,-8.00462569463998,4.7614321942853,4.54887034619519,2.25852036227618,-3.44378718428579,1.51608108007622,-1.18624823076561,0.558097896401172,7.6852999131016,2.24479236303907,-2.19602230041367,4.02474795708383,5.13497353859943,-0.131836560237534,-5.28873885319843,9.5152984213109,8.44415575203313
1.315,0.619371018300001,-12.9320027121711,1.5516020064324,-4.91366370185435,1.23461465659779,-1.20405517827015,-1.19538111864335,-7.99804555756295,4.75759227316968,4.54512502861305,2.25664770348511,-3.4409781953854,1.51404338124632,-1.18544776566156,0.557616506037849,7.67901634688777,2.24299705918861,-2.19422699656321,4.02062882928453,5.13074378085401,-0.13170327417296,-5.28442486147003,9.5075332383045,8.43725336553077
1.32,0.61849207000455,-12.9212123681264,1.55099469303468,-4.90965277609557,1.23361192554029,-1.20305244721266,-1.19521426013273,-7.99146542048592,4.75375235205406,4.54137971103091,2.25477504469404,-3.43816920648502,1.51200568241666,-1.18464730055749,0.557135115674523,7.67273278067394,2.24120175533815,-2.19243169271274,4.01650970148523,5.1265140231086,-0.131569988108389,-5.28011086974162,9.4997680552981,8.43035097902841
1.325,0.617613121709098,-12.9104220240816,1.55038737963685,-4.90564185033679,1.2326091944828,-1.20204971615517,-1.19504740162222,-7.98488528340889,4.74991243093844,4.53763439344878,2.25290238590298,-3.43536021758463,1.50996798358676,-1.18384683545347,0.5566537253112,7.66644921446012,2.23940645148768,-2.19063638886227,4.01239057368593,5.12228426536319,-0.131436702043814,-5.27579687801322,9.4920028722917,8.42344859252606
1.33,0.616734173413704,-12.8996316800368,1.54978006623912,-4.90163092457802,1.23160646342531,-1.20104698509767,-1.19488054311159,-7.97830514633186,4.74607250982282,4.53388907586664,2.25102972711191,-3.43255122868425,1.50793028475698,-1.18304637034939,0.556172334947878,7.66016564824629,2.23761114763721,-2.18884108501181,4.00827144588663,5.11805450761778,-0.131303415979243,-5.27148288628481,9.4842376892853,8.4165462060237
1.335,0.615855225118253,-12.8888413359921,1.54917275284129,-4.89761999881924,1.23060373236781,-1.20004425404018,-1.19471368460108,-7.97172500925484,4.74223258870721,4.53014375828451,2.24915706832084,-3.42974223978386,1.5058925859272,-1.18224590524531,0.555690944584551,7.65388208203247,2.23581584378675,-2.18704578116134,4.00415231808745,5.11382474987237,-0.131170129914668,-5.26716889455641,9.4764725062789,8.40964381952134
1.34,0.614976276822802,-12.8780509919473,1.54856543944345,-4.89360907306046,1.22960100131032,-1.19904152298269,-1.19454682609057,-7.96514487217781,4.7383926675916,4.52639844070237,2.24728440952977,-3.42693325088348,1.50385488709742,-1.18144544014129,0.555209554221225,7.64759851581864,2.23402053993628,-2.18525047731088,4.00003319028804,5.10959499212696,-0.131036843850097,-5.262854902828,9.46870732327251,8.40274143301899
1.345,0.614097328527407,-12.8672606479025,1.54795812604573,-4.88959814730169,1.22859827025283,-1.1980387919252,-1.19437996757995,-7.95856473510078,4.73455274647597,4.52265312312024,2.2454117507387,-3.42412426198309,1.50181718826764,-1.18064497503721,0.554728163857902,7.64131494960482,2.23222523608582,-2.18345517346041,3.99591406248874,5.10536523438154,-0.130903557785523,-5.25854091109959,9.46094214026611,8.39583904651663
1.35,0.613218380231956,-12.8564703038577,1.54735081264789,-4.88558722154291,1.22759553919534,-1.19703606086771,-1.19421310906944,-7.95198459802375,4.73071282536036,4.5189078055381,2.24353909194764,-3.4213152730827,1.49977948943774,-1.17984450993316,0.554246773494576,7.63503138339099,2.23042993223535,-2.18165986960994,3.99179493468955,5.10113547663613,-0.130770271720948,-5.25422691937119,9.45317695725971,8.38893666001427
1.355,0.612339431936505,-12.8456799598129,1.54674349925017,-4.88157629578413,1.22659280813784,-1.19603332981021,-1.19404625055893,-7.94540446094672,4.72687290424474,4.51516248795596,2.24166643315657,-3.41850628418232,1.49774179060807,-1.17904404482908,0.553765383131253,7.62874781717717,2.22863462838488,-2.17986456575948,3.98767580689014,5.09690571889072,-0.130636985656373,-5.24991292764278,9.44541177425331,8.38203427351192
1.36,0.61146048364111,-12.8348896157681,1.54613618585245,-4.87756537002536,1.22559007708035,-1.19503059875272,-1.19387939204819,-7.93882432386968,4.72303298312912,4.51141717037383,2.2397937743655,-3.41569729528193,1.49570409177818,-1.17824357972506,0.55328399276793,7.62246425096334,2.22683932453442,-2.17806926190901,3.98355667909084,5.09267596114531,-0.130503699591802,-5.24559893591438,9.43764659124691,8.37513188700956
1.365,0.610581535345659,-12.8240992717234,1.5455288724545,-4.87355444426658,1.22458734602286,-1.19402786769523,-1.19371253353768,-7.93224418679265,4.7191930620135,4.50767185279169,2.23792111557443,-3.41288830638155,1.4936663929484,-1.17744311462098,0.552802602404604,7.61618068474952,2.22504402068395,-2.17627395805855,3.97943755129165,5.0884462033999,-0.130370413527228,-5.24128494418597,9.42988140824052,8.3682295005072
1.37,0.609702587050265,-12.8133089276786,1.54492155905677,-4.8695435185078,1.22358461496536,-1.19302513663773,-1.19354567502705,-7.92566404971562,4.71535314089788,4.50392653520955,2.23604845678336,-3.41007931748116,1.49162869411873,-1.17664264951691,0.552321212041281,7.60989711853569,2.22324871683349,-2.17447865420808,3.97531842349235,5.08421644565448,-0.130237127462657,-5.23697095245757,9.42211622523411,8.36132711400484
1.375,0.608823638754814,-12.8025185836338,1.54431424565905,-4.86553259274903,1.22258188390787,-1.19202240558024,-1.19337881651654,-7.9190839126386,4.71151321978226,4.50018121762741,2.23417579799229,-3.40727032858078,1.48959099528884,-1.17584218441289,0.551839821677959,7.60361355232187,2.22145341298302,-2.17268335035761,3.97119929569294,5.07998668790907,-0.130103841398082,-5.23265696072916,9.41435104222771,8.35442472750249
1.38,0.607944690459362,-12.791728239589,1.54370693226122,-4.86152166699025,1.22157915285038,-1.19101967452275,-1.19321195800603,-7.91250377556157,4.70767329866664,4.49643590004528,2.23230313920122,-3.40446133968039,1.48755329645905,-1.17504171930881,0.551358431314632,7.59732998610804,2.21965810913255,-2.17088804650715,3.96708016789376,5.07575693016366,-0.129970555333511,-5.22834296900075,9.40658585922132,8.34752234100013
1.385,0.607065742163968,-12.7809378955443,1.54309961886349,-4.85751074123147,1.22057642179289,-1.19001694346525,-1.19304509949541,-7.90592363848453,4.70383337755104,4.49269058246314,2.23043048041016,-3.40165235078001,1.48551559762927,-1.17424125420476,0.55087704095131,7.59104641989422,2.21786280528209,-2.16909274265668,3.96296104009446,5.07152717241825,-0.129837269268936,-5.22402897727235,9.39882067621492,8.34061995449777
1.39,0.606186793868517,-12.7701475514995,1.54249230546566,-4.8534998154727,1.21957369073539,-1.18901421240776,-1.1928782409849,-7.89934350140751,4.69999345643541,4.48894526488101,2.22855782161909,-3.39884336187962,1.48347789879949,-1.17344078910071,0.550395650587987,7.58476285368039,2.21606750143162,-2.16729743880622,3.95884191229516,5.06729741467284,-0.129703983204365,-5.21971498554394,9.39105549320852,8.33371756799541
1.395,0.605307845573066,-12.7593572074547,1.54188499206782,-4.84948888971392,1.2185709596779,-1.18801148135027,-1.19271138247439,-7.89276336433047,4.69615353531979,4.48519994729887,2.22668516282802,-3.39603437297924,1.4814401999696,-1.17264032399666,0.549914260224661,7.57847928746657,2.21427219758115,-2.16550213495575,3.95472278449586,5.06306765692743,-0.129570697139787,-5.21540099381554,9.38329031020212,8.32681518149306
1.4,0.604428897277614,-12.74856686341,1.5412776786701,-4.84547796395514,1.21756822862041,-1.18700875029277,-1.19254452396376,-7.88618322725344,4.69231361420418,4.48145462971673,2.22481250403695,-3.39322538407885,1.47940250113993,-1.17183985889258,0.549432869861338,7.57219572125274,2.2124768937307,-2.16370683110528,3.95060365669656,5.05883789918202,-0.129437411075216,-5.21108700208713,9.37552512719572,8.3199127949907
1.405,0.60354994898222,-12.7377765193652,1.54067036527238,-4.84146703819637,1.21656549756291,-1.18600601923528,-1.19237766545325,-7.87960309017641,4.68847369308856,4.4777093121346,2.22293984524588,-3.39041639517846,1.47736480231015,-1.17103939378853,0.548951479498012,7.56591215503891,2.21068158988022,-2.16191152725482,3.94648452889726,5.0546081414366,-0.129304125010641,-5.20677301035873,9.36775994418933,8.31301040848834
