Header,foot_Accel_X,foot_Accel_Y,foot_Accel_Z,foot_Gyro_X,foot_Gyro_Y,foot_Gyro_Z,shank_Accel_X,shank_Accel_Y,shank_Accel_Z,shank_Gyro_X,shank_Gyro_Y,shank_Gyro_Z,thigh_Accel_X,thigh_Accel_Y,thigh_Accel_Z,thigh_Gyro_X,thigh_Gyro_Y,thigh_Gyro_Z,trunk_Accel_X,trunk_Accel_Y,trunk_Accel_Z,trunk_Gyro_X,trunk_Gyro_Y,trunk_Gyro_Z
73.795,-0.430166809609667,0.190252131982527,0.863331711124715,0.0886780493846129,0.788728825524288,0.0105487864858612,-1.1275023469662,0.0890722221211114,-0.255953983341146,0.601824026499058,1.24325007513306,-0.181968156885614,-1.07232519248061,-0.358342843520947,0.373010343154002,-0.505487252194512,-0.0726145754801346,-0.2360138412032,-1.0469480108076,0.146636586293563,0.273960011265839,0.41408934598923,0.159033378751802,-0.104185059566052
73.8,-0.462936612659025,0.18505335686295,0.897605605262708,0.0843317393199906,0.877790991709728,0.0285732276939516,-1.13234275564493,0.0677206595496856,-0.274486287606393,0.527825078946968,1.259643027529,-0.195319446101447,-1.0868026108027,-0.335552418179717,0.388828206713532,-0.328145403285374,-0.0294867013519962,-0.191739416904992,-1.07169902547284,0.136637808965089,0.282422626430833,0.405678306709842,-0.00910663260142421,-0.0985203630317102
73.805,-0.36291394397994,0.232364410646324,0.879188196468859,0.0892525987213223,1.02982443144745,0.0792607528068412,-1.14735009584965,0.0505325333573558,-0.274429598841952,0.477504311738245,1.3008378420842,-0.233924701314876,-1.09405628272015,-0.314034451327966,0.392836516754157,-0.196621521369623,0.0259569946586998,-0.180040011582274,-1.06332278921924,0.123315582296793,0.278347057603298,0.423448267503537,-0.149267303383097,-0.150663658472747
73.81,-0.427226323319978,0.267460394677166,0.860471153561927,0.128517826102157,1.08634729937474,0.0530140451455328,-1.16377105194794,0.104833674181904,-0.236607731690295,0.524128284856686,1.3213024212792,-0.259074794819648,-1.10052380323941,-0.295221863580461,0.375782778024294,-0.0192391780443541,0.116764571737787,-0.212517663115178,-1.05167275826051,0.137165299190532,0.27847660554407,0.417732308123367,-0.160784826123916,-0.181402729858673
73.815,-0.442819201862584,0.247902003624691,0.869936508355379,0.140568876192338,1.1906099594899,0.0158763592096059,-1.18185668028407,0.166036495361565,-0.218627679127402,0.529814169031211,1.33255840511549,-0.250216292572943,-1.09383509320466,-0.266547449280166,0.339706502612662,0.0874300969013038,0.187656694827114,-0.218744181603983,-1.04045269984065,0.141013879809527,0.295670534998508,0.395252170616161,-0.090060382767285,-0.184898301205297
73.82,-0.432805694327361,0.252944801559815,0.885418942116179,0.165707487073162,1.27941501818122,-0.0119295831537549,-1.1858345233396,0.174435472246969,-0.225258987130032,0.465538329083274,1.3206004839508,-0.221438024226961,-1.08903888436663,-0.235126720894814,0.300265720725333,0.14425091126599,0.245779777432093,-0.202384911662628,-1.06175339471499,0.132040577212668,0.322635245640322,0.32727488716338,-0.0208271332835387,-0.156425589864491
73.825,-0.432683431449068,0.28333692879315,0.907532892345458,0.137571886822017,1.4540701723551,-0.00969327320646715,-1.19645068245003,0.128129805428855,-0.26794200985232,0.394006324374405,1.31768800299088,-0.217919552906075,-1.13434759222218,-0.204736969295857,0.28186195470053,0.0784269719504423,0.273639123549116,-0.165032245837014,-1.11071337815495,0.085494835024489,0.335882424059609,0.22474293032923,-0.00328225418417091,-0.106915105954666
73.83,-0.445564783307593,0.247081474741482,0.905749347652271,0.119168371549091,1.54296499133778,-0.0248973499237772,-1.22321253635469,0.135760264697951,-0.27763052597847,0.50610320629333,1.33864403778644,-0.318976600098887,-1.22174728853303,-0.21308313067129,0.304377251193977,0.0608238857976985,0.259273712179133,-0.200390513956089,-1.20151301120504,-0.0045607292239399,0.314597083698329,0.142573159388994,-0.134901144675905,-0.108097053673448
73.835,-0.503547616562004,0.222988699538018,0.867460622714964,0.100109694648474,1.69854427947748,-0.0580537866801155,-1.27648567378291,0.203776999964551,-0.250804126339552,0.65281195361122,1.40697664029697,-0.417140616755254,-1.29846637333821,-0.213407739534923,0.334049970678473,0.207378309961492,0.222558353225459,-0.276614369719721,-1.31738481273336,-0.09261668056407,0.287934203565607,0.145953031277902,-0.266005786896615,-0.121670188975393
73.84,-0.489257877175468,0.304840132826851,0.8377372464486,0.141950224506708,1.8218591155882,-0.109117126590296,-1.32447209213427,0.274502379468286,-0.211640829525902,0.671076059177567,1.45962059707477,-0.46430543809169,-1.3154791338039,-0.186112229572701,0.341649427285973,0.398710203502262,0.174453378561219,-0.314726678951529,-1.40277335626759,-0.132527654642466,0.257016091708706,0.195203041083588,-0.330869927940589,-0.101012999344512
73.845,-0.403387123515815,0.357684266185532,0.842308276767142,0.222757332841092,1.95127652241236,-0.232445444502812,-1.35796687813801,0.326492039036104,-0.151500659951491,0.660925174205505,1.47486400604248,-0.485677596379125,-1.2754286074674,-0.152664451256249,0.339048731636191,0.501047296211105,0.147853968377839,-0.28354002110254,-1.46456810881684,-0.112450937569913,0.220368736527478,0.240538913721996,-0.334527475549706,-0.0826365216173161
73.85,-0.422751741586688,0.336853050530914,0.83957254180141,0.266588569576899,2.05406479331277,-0.334798692837098,-1.36441632188732,0.304706575675396,-0.0920780454870074,0.587954522484751,1.47989957964326,-0.478370630051406,-1.22846415018001,-0.110226115561467,0.303139282854507,0.436435371647502,0.134359118662547,-0.22222174622734,-1.46084413232312,-0.0624040639737109,0.177486083115232,0.272890093284217,-0.35205077944042,-0.126423726623463
73.855,-0.471196220311756,0.34147510415104,0.858259380788279,0.268137672740091,2.19307828137818,-0.455434019660749,-1.33815331666301,0.219859723407805,-0.0713596827337602,0.508329214068495,1.50442581805344,-0.454536510319531,-1.22123696320647,-0.0667449613706615,0.246380236310217,0.279051362845544,0.114784167035725,-0.144076136202943,-1.43090913465254,-0.0596078108463824,0.134789180108787,0.184430867771632,-0.369127861029988,-0.181532702431934
73.86,-0.497284244173347,0.305294238710058,0.851073364036176,0.254543654342596,2.32721308227405,-0.544389743213408,-1.27151224325802,0.144454244228185,-0.10757629020494,0.46211716870112,1.55231070733351,-0.430566843715127,-1.25573324484995,-0.00122078963137192,0.170508645413518,0.119903962592048,0.0936259702242425,-0.0864892233463724,-1.40276816318126,-0.0685703506958629,0.0858378817955208,0.0756710664867478,-0.370272470515287,-0.216073505760343
73.865,-0.498687124294196,0.310488454098796,0.83932071663969,0.242687660222412,2.48075755330779,-0.60665018776241,-1.2252744340495,0.0999222072808446,-0.143498782818953,0.533481146481278,1.61069689583652,-0.438334945669344,-1.27060606827121,0.0821656022580331,0.104963313871549,0.101628877089171,0.076083842996614,-0.0273052238809395,-1.40030966577666,-0.0712216014287138,0.00339069828251315,-0.0758284820964073,-0.321708188019836,-0.218936003327366
73.87,-0.480033495632254,0.316585716736759,0.858163580404748,0.236958199370787,2.66023352443166,-0.688321074757253,-1.24340151955257,0.0945407384238409,-0.128732684276592,0.702559271027571,1.66542628425003,-0.483026862962663,-1.29496661544363,0.150896857323712,0.0598132298783285,0.245689487249006,0.0466389416453234,0.0272822221378759,-1.37535396425514,-0.0661652444804056,-0.0545584872622267,-0.155537894113715,-0.273488780784017,-0.179011974744785
73.875,-0.50778834286359,0.328301906975693,0.865007573817224,0.224744494923239,2.81139151171055,-0.755653107084408,-1.29874673154305,0.103890482183177,-0.0849581105981155,0.861828058770973,1.75005003575195,-0.5382095287793,-1.30758494330581,0.205026150167694,0.0445430402012443,0.415301903843337,0.00358670449934896,0.126041909429676,-1.37199443106851,-0.0404081467810238,-0.0721081823666548,-0.249892059820491,-0.255465570669667,-0.11455520505849
73.88,-0.553843542434472,0.350476885311801,0.86861583229049,0.214775255562963,2.96300587587736,-0.830665995838902,-1.35612511434533,0.116801655620851,-0.0397808995170619,0.92757100056053,1.83175955587378,-0.58958815758391,-1.33232675724625,0.235918716650411,0.0520105892168062,0.505310965897339,-0.0333469543702636,0.258042839872071,-1.38802063173607,-0.0149691731052787,-0.0592261357486559,-0.358694988957217,-0.286318191255527,-0.080972549532581
73.885,-0.536666546485758,0.372716518084149,0.828628843524641,0.161130812076081,3.19029378750039,-0.931436288715043,-1.38779742284493,0.130202365680945,-0.00249680243249282,0.908714766045285,1.90262177272517,-0.610835010548306,-1.37060911404716,0.280722809066065,0.0793900018400684,0.497487803097188,-0.0572450737961726,0.491898898131853,-1.36291560138747,0.0150572927889722,-0.028391988701793,-0.475750982826279,-0.279599689392022,-0.0531447160020584
73.89,-0.506290273702824,0.396751670442207,0.826093865496751,0.109917235070534,3.37579851200025,-1.02568450016431,-1.41991804955436,0.110317849285406,0.0266250435644199,0.914450645446777,1.95380543130403,-0.615881368332518,-1.37838238230057,0.318879081077399,0.0799148482217393,0.402559482363354,-0.0567244572715903,0.647873708466886,-1.34614062756742,0.0545625299317672,0.0163013573069213,-0.555648658646732,-0.161260552098429,-0.035093510285863
73.895,-0.507177230107823,0.387602201136131,0.814828420418079,0.0222305148553658,3.58537172708417,-1.15510382061553,-1.44768540901203,0.0536266074780416,0.0167046104112557,0.915135633385741,1.99693684752858,-0.610702643889578,-1.35787753012502,0.338640407582223,0.0430790852513639,0.124593764690842,0.0157371400487143,0.891716523147485,-1.30505256757453,0.0920468150198626,0.0695609682269895,-0.575080121038032,0.00830047914363102,-0.039967981116407
73.9,-0.543216970645952,0.304816589424892,0.810611265875288,-0.0748409629152572,3.79762022651378,-1.25681059741875,-1.45946464173063,0.000339006645045738,-0.0161540349179162,0.938965587520924,2.04321859062914,-0.604292110554134,-1.28003496756015,0.23648550503546,-0.0512557259579697,-0.0425842029520314,0.140713372503861,0.999149411743196,-1.25758578299375,0.0976623668756346,0.106081648577269,-0.536222678862479,0.165628462581068,-0.0725275348586837
73.905,-0.585545512828865,0.258917546806348,0.80886000997218,-0.166667775618001,4.01377120400145,-1.32507297800207,-1.44408263942993,-0.0682607089228329,-0.0282199489920916,0.983692935898801,2.11295973680957,-0.616032200321522,-1.2154868987314,0.163159082394155,-0.166785889777472,0.0030598080792738,0.298387143539495,1.11415684087137,-1.18200933242633,0.0963377799883269,0.134965231825792,-0.448540048443288,0.342814581174728,-0.107567426334181
73.91,-0.588951131436318,0.30593685143591,0.82763828528341,-0.358711563374851,4.26869106137539,-1.38771878143133,-1.43295499851151,-0.112479078663902,0.00462788176136361,1.04144580692455,2.20998492809192,-0.63528316906707,-1.1744720585837,0.150936207542637,-0.281353668062638,0.213251594226429,0.433518228614017,1.3076635552802,-1.12962595629413,0.097516261712954,0.147199777552825,-0.4070825201306,0.443588796888492,-0.103690246905181
73.915,-0.576467689049237,0.349479925181869,0.798525686264421,-0.519129928812491,4.48443868180774,-1.4045648792531,-1.42995105571324,-0.147577849438179,0.0507092850036097,1.12334677508649,2.29228352323235,-0.668486069845423,-1.16978879485374,0.174500020075081,-0.358055304408527,0.446587511843488,0.546729806924058,1.49971439154415,-1.07450053071367,0.11123027464135,0.14554302358288,-0.391218125455734,0.492702379067921,-0.0894817571180448
73.92,-0.556103571711836,0.299768314800653,0.796934678866096,-0.745139972329266,4.77592692417373,-1.42444836025363,-1.42995195951499,-0.169391062961054,0.0937912839634892,1.18071962387669,2.3487979615575,-0.712777957623165,-1.19428244125753,0.198791346178655,-0.384213980680107,0.522263936232186,0.585611070394725,1.64320016328515,-1.01437770064837,0.14070067914272,0.146701189146406,-0.457322281168787,0.483866901030915,-0.0190588946749851
73.925,-0.551254636980368,0.302779765988564,0.806938650942505,-0.932166947953736,5.04594546295407,-1.44832592677341,-1.41969028900933,-0.172294813795324,0.0868232898051372,1.15069447257537,2.38619689717901,-0.732580409199118,-1.20766150958071,0.18840754954528,-0.37794473712069,0.437141699250727,0.565132280634361,1.74928079940367,-0.963402967708496,0.157096486677398,0.137270172322402,-0.528684266001547,0.429610458226303,0.0342368129723792
73.93,-0.597326011333182,0.263679261050174,0.815628212006588,-1.13625082213316,5.31055734288766,-1.47938017562547,-1.40021350478054,-0.184998234735094,0.0836328591847421,1.08028784024363,2.40586619377889,-0.757106388443512,-1.19561008849533,0.146028669011815,-0.329159644124947,0.179644795998867,0.486913336854746,1.84667755565022,-0.923431052648555,0.148655544903272,0.140785134132158,-0.509719367769505,0.354313600919601,0.046362529735153
73.935,-0.634875307136635,0.208047412243215,0.784287766400013,-1.3769360514708,5.61862761531056,-1.49889773244921,-1.38256364535446,-0.219137112102187,0.0758307885041635,1.03863503377406,2.41434717178345,-0.787726298638896,-1.16812925366029,0.0966535229106057,-0.303005579354779,-0.0674372858333116,0.433981931095582,1.91243425964614,-0.883794286720364,0.142277915287247,0.133305771677018,-0.432728457432292,0.288692438464109,0.0150046280326403
73.94,-0.668975724677429,0.186477982894833,0.72833005778261,-1.54724029566155,5.88365648756258,-1.49887316268871,-1.38415383286154,-0.256382996443583,0.0687944924973495,1.02538756207783,2.41040978129075,-0.81880069840921,-1.13283066450492,0.0621745650461554,-0.28245710394087,-0.333464739850812,0.394517155156444,1.98915500590637,-0.847383235683155,0.160650493135035,0.123685023404664,-0.33423709849513,0.260297669323928,-0.0271614666552886
73.945,-0.661229261302814,0.190522567313886,0.705105298715768,-1.71149288520572,6.14398254226535,-1.48675663824215,-1.38324053768993,-0.266676990518384,0.0590045175857878,1.0563479431984,2.40286001894226,-0.864181487188346,-1.13586386155789,0.0806354869952534,-0.269259010524872,-0.484734978771907,0.380577474464801,2.03064169587671,-0.794919191925696,0.170893675695042,0.109156081865613,-0.287150485422859,0.296533168865396,-0.0291344530310334
73.95,-0.743965997305731,0.205347655446392,0.746869869937349,-1.90654796741107,6.45702736974246,-1.43450401397607,-1.38381809964075,-0.242531382189663,0.0591176448771645,1.11717144821158,2.39384094553702,-0.90539572802839,-1.08096046774149,0.116847851162674,-0.284930754922678,-0.482424367947837,0.387259555522513,2.05418536059713,-0.769457750284545,0.148673841480984,0.0896726463269746,-0.203662911170922,0.337320667691209,0.0042106636825304
73.955,-0.795345421728556,0.283324050007437,0.730389680433155,-2.03944422947568,6.70023063509451,-1.46251312869952,-1.37890519195416,-0.190155179568241,0.0826229503741137,1.22579791916844,2.38255656996842,-0.955883650380339,-1.06958221933186,0.154195057038306,-0.30210088361561,-0.512503353916723,0.374560244994953,2.06893520203222,-0.744680577341803,0.116623654369746,0.076715660467891,-0.105385855894816,0.35352429586719,0.0120384453542087
73.96,-0.79398871650877,0.330329094352197,0.732569197567892,-2.20941378814491,6.99737483860846,-1.47443771275435,-1.36596832699519,-0.125942595804386,0.181757260180072,1.39621338573835,2.37769651412964,-1.0038409135641,-1.05590983037123,0.154117546722099,-0.302256037973571,-0.577502278763186,0.364090401347308,2.10767629186342,-0.726087448343097,0.0750874801082584,0.0455912323251143,-0.0391295143575028,0.344981262531322,0.0312240593721952
73.965,-0.754268328517214,0.398874140570123,0.656085859218311,-2.1289705126084,7.2169643679259,-1.55313647277783,-1.35573865498843,-0.0641039874210506,0.294264590965416,1.58639138156917,2.35731356638524,-1.0191835848786,-1.02673620575244,0.0864615964747883,-0.281296607161297,-0.673475550536815,0.358215501962975,2.18988303869838,-0.718823704864066,0.0410866241650894,0.026413390735081,-0.0280397500477915,0.327561212661915,0.0524317652384932
73.97,-0.699679440828439,0.51079797992881,0.724574285415626,-2.63114487148965,7.54543258791875,-1.66684478541464,-1.33746250877016,0.026776930597362,0.371660735355741,1.71914927342751,2.29232293066247,-1.00504428289727,-1.01431128172858,0.0197708662981622,-0.253910260158598,-0.764619506033152,0.350925003763239,2.24335528621459,-0.737088304659639,-0.0295277417027242,-0.000913557648681361,-0.0566976171027345,0.287458248956929,0.0639113117114377
73.975,-0.772276271712371,0.592573894799965,0.737443912539873,-2.98671125862278,7.78345900646588,-1.8317179419229,-1.28807799649448,0.116982997085555,0.342160261017611,1.78964849869678,2.22456020227631,-0.978123670097952,-0.999053573864081,-0.0638439889353428,-0.201946743231746,-0.882428167714741,0.327312483151603,2.29131448440254,-0.766310913489115,-0.0968601648344457,-0.0283890709103003,-0.0785758918466094,0.214048476998963,0.0523025952508504
73.98,-1.03735812297463,0.51460727551013,0.404162660118333,-3.76722035630225,7.95089233663066,-2.05320511093416,-1.21993855964088,0.203667576725999,0.200773311747625,1.75503927086164,2.15350495903041,-0.936396491634616,-1.01087173535968,-0.125875512233182,-0.153108623971153,-1.00484121742623,0.293418598015531,2.32671863426536,-0.788148571562918,-0.151396276870195,-0.0576303455412847,-0.134370097888945,0.127263386994164,0.0384270500469343
73.985,-1.47534193912534,0.0112649751609304,0.82089183297142,-5.22795250539551,8.19922390423465,-2.59693599877084,-1.13194243449807,0.265316408675575,-0.0339089879593975,1.5619019753271,2.0829891455799,-0.898928393936519,-1.01965316795462,-0.195635822075131,-0.0645193679271737,-1.11803608157001,0.249997831612225,2.36919912886387,-0.779850221611311,-0.212275566815009,-0.0887141430371429,-0.201126120517322,0.0421707836432296,0.016946188588993
73.99,-1.77314540531574,-0.02425824089974,1.01222504588246,-5.38657771045001,8.08147505599323,-2.85685572295571,-1.05500390978857,0.227325854959659,-0.398438424318514,1.15564656607676,2.02849588882281,-0.894348833705029,-1.02747224952627,-0.248440657526571,0.0164449611707517,-1.19504449731899,0.184270684773455,2.38794347912024,-0.794488634295613,-0.270968991657906,-0.117077451171951,-0.248389979327868,-0.0421838502358674,-0.0284105652856872
73.995,-2.07943331482969,0.271033210323445,1.31933882378897,-4.39844337372431,7.49168643361452,-2.94667008399161,-1.00895418624241,0.195261839180729,-0.65139154373203,0.904082994436057,2.0345962544395,-0.928341812229136,-1.06070364768286,-0.286030795751696,0.0882170114611412,-1.23253349283061,0.116103098587726,2.37912250901581,-0.796931864811551,-0.318626863357964,-0.133872402590434,-0.266763796119054,-0.0874100283928974,-0.0543307889838081
74,-2.06758491557426,0.653773870154356,1.02440372308412,-3.11463109216969,6.89081515655639,-2.65434825866922,-1.02231758407945,0.143168969233893,-0.669867087716789,0.694460964237519,2.04037864644132,-0.979839868893515,-1.10734902270681,-0.33508887571377,0.172162255831394,-1.20693256005936,0.0309154100091235,2.37806680859406,-0.799083975946467,-0.375942905582942,-0.156322848737306,-0.232812550098332,-0.112440680569404,-0.0864614415016608
74.005,-1.87426676275261,0.760242735718518,0.625127921416443,-1.93333645755927,6.50346912695997,-2.38375048392591,-1.09631704120341,0.130825697691926,-0.449108353956394,0.788282206577528,1.95423765673163,-1.04954431401369,-1.14523525732771,-0.366974243154159,0.223058372199967,-1.15520443775607,-0.0304488142093651,2.36154106068836,-0.800652694881992,-0.430008720561879,-0.181745060642975,-0.0825340543007293,-0.0945670533608315,-0.069697410576611
74.01,-1.72186656477157,0.469478479573143,0.838058439235912,-1.31187926478088,6.26648753561387,-2.58713116326824,-1.19513785943357,0.210182884966593,-0.330727842663,1.06306497499542,1.78132909494253,-1.06282238562662,-1.20808819882184,-0.413508367641939,0.278887966348171,-0.989107598882382,-0.12442943465138,2.34677989590358,-0.791523079506333,-0.456973941686359,-0.195773834612129,0.0667440624468944,-0.0490999287962471,-0.0299070960192532
74.015,-1.53012821303636,0.396276146367737,0.994608495430254,-0.745456101538105,5.79497549986492,-2.73891130481653,-1.2473717658884,0.406501805173367,-0.580847769221559,1.11587558657186,1.74290456823171,-0.926804702616314,-1.24578376386849,-0.44033234108345,0.3044493501107,-0.819889067968192,-0.194029706744644,2.32932424545288,-0.795570966735781,-0.469250398801693,-0.206855896377598,0.196983584515594,0.0333167927693848,0.00429103062230852
74.02,-1.49220209865461,0.557290214445455,1.06008029634814,-0.513196080958617,5.32330958361906,-2.78725099321115,-1.19494556937297,0.597600756134771,-0.659516085507495,0.886545468375265,1.93379119199926,-0.705505099871897,-1.26203620269589,-0.462404951329669,0.305014871836822,-0.627870283321869,-0.230975672993678,2.31826673740621,-0.804637196075649,-0.480644863233461,-0.21049905237047,0.321861766208912,0.142843449521811,0.0752606723834795
74.025,-1.43374284974542,0.68825676746309,1.22512413304265,-0.3828764226487,4.71677501802491,-2.72286077882472,-1.06568210753667,0.627945637379254,-0.512576038603158,0.630802555066054,2.00357044601077,-0.539101101769751,-1.26206397819455,-0.4843978694737,0.297149869309145,-0.430211645625279,-0.255198695984358,2.31959352531026,-0.858718805913436,-0.500240503228351,-0.215306435076093,0.487842902230693,0.299820734287553,0.124414028864894
74.03,-1.32700655677184,0.737684385990113,1.32959681547577,-0.343794329605383,4.25792388186317,-2.63879197238667,-0.900664270975659,0.504560600340509,-0.543452371499443,0.292482866900855,1.96820480428967,-0.55784685258971,-1.23727697012771,-0.513207454957445,0.273228626978647,-0.286291822390444,-0.270331508819605,2.32168110340888,-0.901425371919914,-0.504237166032175,-0.211559907003806,0.58752843822227,0.390176754006099,0.135829988630912
74.035,-1.22082072069548,0.827469825207206,1.59411591162119,-0.218055161834882,3.53230479619594,-2.5136734996664,-0.790031812041215,0.381337160715626,-0.521209597954919,-0.196600046012327,1.95973770914343,-0.640053452865152,-1.20608282457585,-0.544048797188594,0.243241784843835,-0.160533490550676,-0.276851169473427,2.31050220318173,-0.958955371104038,-0.483042325503955,-0.197244826496963,0.655985571505774,0.466430452447097,0.135917285472688
74.04,-1.45680025174676,0.399389002312876,3.39967981667776,0.970286830633568,2.51686484370702,-2.31658182761018,-0.737870277777907,0.357963655533926,-0.453911867621029,-0.47745779304558,1.86238449888547,-0.626007678746816,-1.18449915208623,-0.559570762831125,0.216682488028628,-0.0588862046636766,-0.279204287893503,2.27879817931742,-1.00672620272145,-0.435818178002589,-0.187857566045481,0.642860462224628,0.498295492500232,0.13817449656546
74.045,-0.901789148103902,0.235230872736505,2.73602686472174,3.02018961235009,-0.423891597675886,-2.31514558824102,-0.707405185123231,0.326609437085892,-0.713109899395892,-0.913698697685443,1.81233986052933,-0.562020159310616,-1.18313104882308,-0.536186094265813,0.174635063416974,0.117900205185783,-0.278487037328482,2.22926499208022,-1.05917376574791,-0.343277865247707,-0.157103259129134,0.592618257937522,0.518423921595585,0.124408474774105
74.05,-0.958135325026474,1.06762751713498,2.31473952698819,1.3507211370487,-1.18163980880336,-1.74138225944016,-0.729973134670128,0.422883186483074,-0.297705491935834,-1.31695019346065,1.47463209079531,-0.473851841289944,-1.20429684535546,-0.518221569986312,0.143350856749999,0.288578781937625,-0.28717240662345,2.20078389661602,-1.08288405536225,-0.291217451799409,-0.132764550192452,0.428022306380545,0.517015215046966,0.12037099887671
74.055,-0.706721893216482,0.956417533604521,2.01552322414952,0.234913663903035,-1.89336701280344,-1.1379035629277,-0.683750880682923,0.383781867732046,-0.166440287166051,-1.44547914306513,1.11420923743945,-0.468909923136411,-1.23218095541005,-0.513212269941957,0.111612455596488,0.501356803782031,-0.299806038625404,2.16148179545921,-1.1012806818645,-0.22254150805723,-0.0981231071905947,0.347989516722088,0.490090030316493,0.0658970009464637
74.06,-0.368499710787782,0.746046726191914,1.85003752113107,-0.84858880907153,-2.38412595812498,-1.22871567457595,-0.662361117150036,0.330008566963728,-0.0116860336038022,-1.73823746469876,0.776987956538264,-0.481203649242543,-1.25926639973851,-0.505100620189514,0.0827659420754566,0.750866557409416,-0.315286785754016,2.13382950007737,-1.11968236918062,-0.15501680514206,-0.0769676174401557,0.274734188557088,0.456767357355956,0.033843196440173
74.065,-0.348527138985648,0.704974734640732,1.65368813691854,-1.6649367045915,-2.97312478194461,-1.49581730735992,-0.666406976374777,0.32056621302721,0.111269627215427,-1.79122703291376,0.473813505152061,-0.486176347549052,-1.28116206980489,-0.485236772791872,0.052164589425922,0.990766554968541,-0.338235579408304,2.14601834272451,-1.15496074559016,-0.0707014350122933,-0.062500800332219,0.119337653553617,0.402046957809707,0.0205660124173471
74.07,-0.290781167654317,0.435957597015588,1.4334362706671,-1.48320447355702,-3.42111181605299,-1.61494148985408,-0.676439541450788,0.261660294279379,0.0975296485448993,-1.97404732278176,0.215569446382032,-0.423425947865792,-1.30434464454356,-0.45952674913175,0.0178176434363143,1.26788082197955,-0.342578472478033,2.20465088065099,-1.16383443296504,-0.0359762190375046,-0.0606511131807787,0.0217553294096047,0.35370561999398,0.0215124774923803
74.075,-0.255907083238402,0.172615880652597,1.18173124746972,-1.10290803266418,-3.82939630213152,-1.79521433408615,-0.622291107553438,0.151935973328445,0.086726932857928,-2.28079358250167,-0.0139885979667109,-0.306528425614823,-1.30156439267844,-0.441566306648398,-0.0125592132286881,1.4432850545443,-0.327338021237284,2.24674020846073,-1.18083280184549,0.00527675281384322,-0.0634971470014903,-0.052746806104405,0.298139940023562,0.0280184904644664
74.08,-0.297426467574552,0.157704095449117,1.10605258491329,-0.798438665424246,-4.07813429871321,-1.85276332349763,-0.510779230236831,0.014991894543707,0.0257164817944491,-2.54169117641884,-0.199089979175013,-0.202622784215387,-1.27970739781082,-0.429320319771257,-0.0612716326542349,1.56975564863931,-0.316374179098522,2.26243772116846,-1.19352409485219,0.0358190529415302,-0.0703463940174674,-0.138135800643925,0.237463057901666,0.0509792072437724
74.085,-0.28959401129442,0.295438731361217,1.01521356479551,-0.477386314479728,-4.42786696983653,-1.7155370238949,-0.374335654367302,-0.138172538686064,-0.0373824718782942,-2.60965205163948,-0.353703779267893,-0.185919256463234,-1.24778288350581,-0.440384422392228,-0.107530466295021,1.53317878654598,-0.319912881358073,2.25523852507534,-1.21627241347492,0.0504264756782319,-0.0827001835242549,-0.220119424920407,0.191369748438346,0.0728994325411305
74.09,-0.260533165167403,0.431640114491375,0.925916882570269,-0.377722538191667,-4.66978657603557,-1.5266688637561,-0.315705380488999,-0.236096628283401,-0.0206924113942893,-2.44305868059065,-0.506074884803417,-0.245677539061886,-1.21487958650035,-0.456612191722638,-0.150912211012139,1.34545149004479,-0.33026620508458,2.21303265381803,-1.21637527309923,0.0486161636872596,-0.0848299905510359,-0.248142845151854,0.153148033562348,0.096732397483296
74.095,-0.253435037436028,0.520625642415043,0.828960543520393,-0.249747265299794,-4.92050549306655,-1.32942344137348,-0.296736693051227,-0.324445951910328,-0.0010264154864116,-1.96427614282885,-0.698262159170527,-0.348155175745933,-1.18146300634841,-0.474988832173253,-0.183004568155255,1.08836407796754,-0.345541689119556,2.13634965298112,-1.21949832238522,0.0353372954178604,-0.0841907429407688,-0.272208780064593,0.120090537626333,0.111583051598817
74.1,-0.232685925054837,0.610637809236035,0.755334068256942,-0.163813037129786,-5.13751130926024,-1.19555865667074,-0.326379773948965,-0.352534442162902,0.00191559419900577,-1.32835111276568,-0.891623794305152,-0.457684287692708,-1.15364015419497,-0.483032800288597,-0.208110363160717,0.911805735625015,-0.350566897507975,2.04655436079896,-1.21231318836363,0.0214578620471454,-0.086734200201154,-0.291819577422501,0.117315991203864,0.122951576569058
74.105,-0.226108849420083,0.71135610532498,0.668549337833754,-0.135588372833305,-5.30053734115677,-1.07717376516069,-0.39904359330485,-0.321342939311082,0.00762072721389375,-0.673975338351745,-1.06131932198829,-0.515110638417451,-1.12584073023809,-0.488953422902245,-0.224335181042335,0.7432964787991,-0.356436964565307,1.9243002492723,-1.18700430177672,-0.00915847251836135,-0.0826013170211068,-0.283515163785878,0.111856731650001,0.139870688216253
74.11,-0.184783813463516,0.760742818668446,0.536246042871838,-0.199334222496261,-5.43140213003165,-0.849657194534245,-0.450807147039005,-0.287784657060798,0.0439159967277876,-0.130796018677225,-1.26369978271334,-0.507741563001971,-1.1138016606217,-0.48193076515192,-0.228906621079405,0.643674739353879,-0.36381543100004,1.85018934046653,-1.14422442724498,-0.0377403395589106,-0.0744382646701966,-0.266447792268395,0.133114594063065,0.140863149194668
74.115,-0.114030916070955,0.716440115354252,0.408445783788319,-0.187545953505903,-5.4519590300272,-0.624246548480007,-0.479128586377835,-0.268274966545318,0.015669595537866,0.266631825970306,-1.4952164959214,-0.486995717134062,-1.07643660665579,-0.467273447290104,-0.228514701254702,0.533993510674587,-0.380037990372158,1.78178028014335,-1.1005368598907,-0.0624678557598177,-0.0657886230720666,-0.246260431782559,0.153461490443466,0.146291387921335
74.12,-0.0220770479588825,0.630883524497462,0.295558690638684,-0.0125657121014763,-5.35978461329341,-0.302666432696794,-0.484730449990368,-0.25153938812543,0.00598895097268228,0.557769336049385,-1.71385890372317,-0.476297108817568,-1.05347207785158,-0.453575891727303,-0.226650049709108,0.385854385575544,-0.405930967058851,1.72705207127081,-1.04881281774797,-0.0929263656553683,-0.0445975185644129,-0.203430927335373,0.189864086412905,0.159818010680036
74.125,0.0768265323910037,0.543671010876711,0.197025480335406,0.221256374674872,-5.15989812594657,0.0225620431950936,-0.495318153084319,-0.258128736724356,0.0141483125995775,0.77835577283823,-1.88499711768827,-0.447527692623292,-1.02032777228838,-0.434254624548517,-0.2124607375178,0.232572401958881,-0.439270818811496,1.66895596632143,-1.01551256570325,-0.106836249324819,-0.0302316626361256,-0.160642169706166,0.220740821886704,0.158478900595025
74.13,0.0695656736742126,0.57961964200943,0.183429649183382,0.495827966744174,-4.95411131605276,0.393292369875305,-0.501570150879114,-0.283457391136627,0.00498760856814879,0.914903524308674,-2.05045867491679,-0.42128872504173,-0.98852470304996,-0.420610088950793,-0.195631641412909,0.0313576895986594,-0.484760875622239,1.63455201234897,-0.972495531793133,-0.12718886529091,-0.00594404657630652,-0.125425359797294,0.264061145927603,0.141597508285144
74.135,0.0611854838037051,0.683904194187431,0.184237788718547,0.665480797258094,-4.75797925303452,0.713169772860652,-0.500842856967762,-0.25619950597203,-0.0139338609958156,1.04825762588869,-2.21003761208439,-0.418289461768934,-0.958681628709119,-0.406670711455116,-0.171653558408934,-0.17990816240437,-0.532881863422123,1.57719482149661,-0.936709081203502,-0.143573027856619,-0.000446404719267343,-0.0854374200442064,0.298705951819306,0.116942201091524
74.14,0.0276649161164815,0.769172595663467,0.206711460498401,0.783793190428014,-4.53564155012889,1.08521865845173,-0.500484353858198,-0.202247482418457,-0.0461760104837152,1.11995167857154,-2.38600907523703,-0.425664907345194,-0.93527599266597,-0.397098689671521,-0.15138425457743,-0.386182252836282,-0.578427069431395,1.50987517254322,-0.902375184441194,-0.160455092103106,0.00495336049299568,-0.0294131319559546,0.32194752392182,0.0969746755992218
74.145,-0.0364629892440726,0.809221625530093,0.267805288669984,0.819027488537437,-4.35756410589847,1.45416332730679,-0.499483288045895,-0.141830076370858,-0.0758789802197008,1.1074438148077,-2.55484586346398,-0.429179074307731,-0.917529798470094,-0.394199466470603,-0.133266872829943,-0.477662103141019,-0.604609929495657,1.45264034664624,-0.876161872786994,-0.17739743906317,0.0116741279502197,0.0380556980382463,0.326615544439122,0.0804421362107366
74.15,-0.145889740971912,0.825938559354735,0.363513580504075,0.79231878909726,-4.16874263548348,1.90996444426207,-0.503571088738688,-0.101624457604976,-0.0979832348469509,0.971342313750792,-2.74414816295139,-0.417992740631087,-0.902164676178736,-0.402574191753064,-0.119094192506958,-0.582832701472053,-0.624356757647798,1.38741360433408,-0.859789611536791,-0.182998711153217,0.0134164531454184,0.117026732979377,0.317796366751304,0.0425049820337706
74.155,-0.238448640883812,0.825570340485104,0.453235543860371,0.788366879601519,-4.07943528139755,2.28593648034154,-0.510889999061418,-0.0688431784515512,-0.141139324498951,0.817052740918713,-2.89642085918969,-0.406028447258195,-0.887207050212729,-0.412355011032619,-0.115104063713451,-0.62212528345793,-0.641154092180062,1.31440779451908,-0.847869630919848,-0.183170636753123,0.0125286622978505,0.159079776569076,0.309124546409665,0.0166456167408732
74.16,-0.323401474235299,0.797586781897629,0.509404754203139,0.825960081153208,-4.03758244138265,2.72925283943136,-0.518749900866357,-0.0439709067656134,-0.142859412255615,0.662738637033757,-3.02886124393032,-0.394131282643011,-0.867864376951334,-0.4201715637399,-0.106579659371555,-0.645465092466119,-0.657493808036287,1.21840154860212,-0.838038667655504,-0.173712760146153,0.0172297228097452,0.200201922688344,0.296488108458899,-0.00906150378629451
74.165,-0.366932806835329,0.772481696307839,0.554848099565737,0.852318459796632,-4.02026468507685,3.08602860500476,-0.532049387960168,-0.0235559331047639,-0.162284543335746,0.509604873232658,-3.18203413972644,-0.371548846679559,-0.850953671118958,-0.431284951643306,-0.0916749656051152,-0.626402595965014,-0.667004685942439,1.11805581886005,-0.833161249841385,-0.163434731329669,0.0292137239053217,0.21275808321363,0.312290435073252,-0.0271224866202367
74.17,-0.385464349583167,0.749276070938088,0.587199053557333,0.831204966312055,-4.00256261147725,3.42063761543112,-0.574102852686174,-0.002312217008587,-0.177063394622091,0.345358110110786,-3.37331956243964,-0.338384388243643,-0.834426048325714,-0.443572726703288,-0.0709639779525112,-0.600771403923256,-0.68444701709365,1.02316235028256,-0.83108027522123,-0.14078639342594,0.0408959254895594,0.191246594353006,0.363503006657478,-0.0267655238539699
74.175,-0.428269631366097,0.711965497450877,0.625907142952725,0.776914586441219,-3.98663153636056,3.73828776221832,-0.614405700329711,0.0405278317953753,-0.159794941734398,0.274106569012291,-3.54761971364152,-0.309567975717098,-0.817695968235953,-0.465329618421435,-0.0354163907337724,-0.49601043710545,-0.711673826543946,0.90581858101931,-0.839928891446737,-0.130074682767126,0.0506701438180584,0.142991010058787,0.428799910518341,-0.00946487776427228
74.18,-0.513968931159204,0.659518434864336,0.69887665974315,0.754612810750483,-3.97659332047684,3.95552845025896,-0.646205794055459,0.0853021311255448,-0.216232450982361,0.157884479292091,-3.69944245194139,-0.274475518837154,-0.806812244418875,-0.483135117601683,0.00555880717939328,-0.359155116794276,-0.744692061473515,0.800038797655205,-0.844988973774185,-0.121112365248335,0.0588335649168845,0.0936423812005256,0.486626123364615,-0.0131382631853344
74.185,-0.635939551252683,0.600635653359367,0.791857013826869,0.775964200710472,-4.00956788263558,4.1764758810493,-0.671709459210066,0.12527367782773,-0.292067822915885,-0.0316416306074398,-3.85079054704579,-0.243743638244453,-0.79167006150618,-0.515151342267337,0.0703841514259193,-0.099782625337952,-0.793125604203824,0.649643675169016,-0.871741629079897,-0.113656274123462,0.056849149600521,0.0670133211517566,0.532203854726874,-0.0406857922566856
74.19,-0.754168952470562,0.535777480214449,0.827329502011551,0.84397028850602,-4.11935647967955,4.42439079401896,-0.700514843763431,0.164443139150998,-0.315357711660571,-0.251596896133095,-3.95866907333363,-0.216415699015565,-0.780769011786406,-0.536135754981624,0.119345630917292,0.184558865937707,-0.829366891646361,0.532193272597775,-0.89158229754717,-0.0945845847809656,0.0471490798138629,0.0240121501904181,0.558734953403473,-0.0507555148393749
74.195,-0.830723002494024,0.50168189675666,0.801690178262546,0.8465135250563,-4.21912409101557,4.56982626788395,-0.734898671409741,0.203316914081864,-0.368413976935652,-0.506321501566313,-4.1191693144795,-0.17254364547566,-0.773715117360071,-0.563622922806787,0.173882410645262,0.554223353529825,-0.868093478169526,0.412316876274038,-0.913070151394841,-0.0657282975701918,0.0256931649824491,-0.0265209818490951,0.561120913327315,-0.0424040583869661
74.2,-0.947343883198563,0.451532244862812,0.734679280091193,0.775893088514301,-4.31137416460941,4.65721541736833,-0.762732591355731,0.242539397210607,-0.421542065339934,-0.730806388066479,-4.28002282377686,-0.134970341522526,-0.771775988739352,-0.587099964170492,0.212927992565912,0.938021226637888,-0.903801979116624,0.296093739285052,-0.930652987782382,-0.0425011483922426,0.00873653215159801,-0.0847153762741066,0.554891541809531,-0.0335442867319139
74.205,-1.05816360658813,0.292699497097996,0.628285113590867,0.70186446142981,-4.36236550312288,4.70771835191254,-0.772852540706279,0.293426965399367,-0.443890694504217,-0.916585315834265,-4.40825167689701,-0.102528299485411,-0.780626066922083,-0.613980934796125,0.264800715798348,1.30172264324984,-0.933875232135036,0.200361308245382,-0.944092442657142,-0.0321788337779748,-0.0115457983267992,-0.117276947769224,0.540307914003049,-0.0319211308858827
74.21,-1.10619871856121,0.203497053394932,0.571758178983266,0.704252034028184,-4.39476137657562,4.68215042622146,-0.770632626787989,0.339787582716412,-0.487275643031696,-1.21883602658081,-4.52270266045201,-0.0549140103109751,-0.792925232904139,-0.628333458610389,0.306891335292809,1.71991603707071,-0.971350578586928,0.106729035972339,-0.962827605912428,-0.0161738021300491,-0.0240053283677217,-0.161960168411207,0.52396828078568,-0.0210978291659947
74.215,-1.15563832238596,0.239810574592375,0.508468993798992,0.713325180071636,-4.45882074662033,4.54978218866262,-0.763916831416743,0.343223017264086,-0.539478538878308,-1.6246796738585,-4.57875204723725,0.0149401492856414,-0.791199102624852,-0.642990745717547,0.341094494168372,2.05367164477775,-0.98512669857245,0.0211707235362662,-0.982270813410696,-0.00983100945764665,-0.0293716274505932,-0.202234150823571,0.505439717904415,-0.00703025959067626
74.22,-1.22279257948398,0.26814500815119,0.461209372732532,0.688165572566377,-4.47134672875502,4.432797145584,-0.725160251936369,0.341971707315123,-0.651896490666745,-2.051070389875,-4.62639061173823,0.061378582229549,-0.780894169034506,-0.661985825795152,0.389199719698366,2.55507984831109,-0.97935465464381,-0.111128139029969,-0.998905784818102,-0.0247729928372902,-0.0444503466806318,-0.226782787682647,0.486569840923087,-0.00958052516109877
74.225,-1.40663459461348,0.299528051104742,0.409769378984582,0.60009155254693,-4.54357388512795,4.3124743339987,-0.679927980342348,0.324157546577019,-0.727390662294583,-2.49858044467283,-4.69122807445221,0.0880337819248789,-0.755314939621862,-0.692426142380043,0.445940687153099,2.93880325012542,-0.944001003911824,-0.205532422290286,-1.02754107969396,-0.0233236686828645,-0.0692172524046958,-0.234873252543605,0.469389079713721,-0.0294358772568842
74.23,-1.42178928248736,0.333651977831903,0.265060881957804,0.555212529158094,-4.54980163405994,4.2316949043306,-0.673529323199799,0.302159007835665,-0.826095579423806,-2.87991080854425,-4.74531301030489,0.106942114264603,-0.683745520954386,-0.766781440086487,0.475844617188836,3.71091667552734,-0.778435914304223,-0.341664913230379,-1.04111340487372,-0.0261581024901259,-0.081334656612405,-0.290545891846351,0.45464161966266,-0.0195103016317444
74.235,-1.47604995785238,0.292634560349724,0.121201440833886,0.553528002998225,-4.47148958584372,4.22838120093747,-0.688309402628772,0.231449858015206,-0.933983721351145,-3.39417678628923,-4.81974654126765,0.126876274825968,-0.599920642916047,-0.860036437345622,0.445356305574135,4.55094194905268,-0.490854445698766,-0.431786085554404,-1.04671618902447,-0.0406595235222268,-0.08891499566509,-0.343634325591425,0.4328865731479,-0.00815038269664749
74.24,-1.56365612034317,0.227505964706704,-0.061645959518799,0.618859343945728,-4.24435722551918,4.29770789159307,-0.723107074609192,0.146667323621454,-1.02360254511809,-3.84671698913649,-4.85696362728638,0.138946352023156,-0.50386889710546,-0.959775643932739,0.372108498010808,5.42695851288804,-0.115769877527611,-0.479321824281682,-1.05224966461325,-0.0547213121762731,-0.0944403519391491,-0.399074756180473,0.399373756775977,-0.000533834959662519
74.245,-1.64048930503202,0.240668369920834,-0.21101750573493,0.699165250958579,-3.93201778549219,4.38687700456588,-0.797030829541308,0.082814198603999,-1.09551821430397,-4.23222377640009,-4.86769702231447,0.129139356487403,-0.395060609632495,-1.04992600394493,0.263784418024419,6.20058324063096,0.266302235007937,-0.478283293877403,-1.06066285356471,-0.0589068673932923,-0.0960162918799532,-0.463465016660331,0.364003982642483,0.0110995423915299
74.25,-1.71242521629734,0.261108377815253,-0.328884902461,0.817866739522832,-3.49392931078352,4.52311508581376,-0.906128874338581,0.0397186022441258,-1.20107112721337,-4.55629375931711,-4.85050267468077,0.137470216595765,-0.276381371365633,-1.0985229325786,0.103179726777325,6.853949929247,0.719998937423783,-0.371931017950328,-1.05128917965717,-0.0660707682300709,-0.0942922090906537,-0.55407671703466,0.303921253469634,0.0485393254208829
74.255,-1.84583048521865,0.251462959783684,-0.36188460611353,0.928719073340789,-2.91333115925435,4.72164315712478,-0.979579543525449,0.0077119266560624,-1.29783059884954,-4.68896257442083,-4.79291133660705,0.136061862372366,-0.228693480788048,-1.05980338253991,-0.0095723424849982,7.10136895304425,1.03142329793315,-0.263510359049679,-1.04678262633339,-0.0663928924790712,-0.0831726927664152,-0.6518067525322,0.232168163588818,0.0851851084771806
74.26,-2.04040789636256,0.284849955189701,-0.300252635513588,0.999359610268932,-2.41686119800657,4.90773149288044,-1.04638693775428,-0.0229473790227747,-1.43766277754149,-4.65664152841516,-4.67573447276035,0.110791860417637,-0.238411551570905,-0.919419998362062,-0.117177702018956,7.0980422303509,1.33917141571597,-0.139111821088978,-1.03838759417085,-0.0746901053854659,-0.0729981107413505,-0.726266734102439,0.179497393106017,0.124010257378561
74.265,-2.36966753067068,0.396565183904145,-0.198051857917916,1.01789169307296,-1.89098239736074,5.16774059878448,-1.09423430585945,-0.0358400161496303,-1.54441129280767,-4.50066831605319,-4.54446943187264,0.0516331652086719,-0.266848040825176,-0.789180052506195,-0.181817191363254,6.95348596382964,1.24834812069193,-0.0810325793153501,-1.02779010156227,-0.0871605659417389,-0.0615449271802045,-0.797880683329851,0.11483616412781,0.158243457368654
74.27,-2.61154017390641,0.460633579596308,-0.169131261815085,0.908852041964443,-1.58025765245312,5.34679856125986,-1.14948561877205,-0.0148408129068831,-1.59958653033659,-4.17747548420812,-4.37815677922905,-0.04021212541278,-0.330995378103368,-0.546450696421614,-0.271302816125159,6.49351376944744,1.66222599090793,-0.0150163465086788,-1.01360706269614,-0.100702451044056,-0.042436257199654,-0.855008333737884,0.0890508199537536,0.187050249704969
74.275,-2.79584586093256,0.423053026936622,-0.203314708154418,0.632107937693201,-1.30664352599748,5.49062042930141,-1.2221642140326,0.0455851901935241,-1.64102154621827,-3.72189700303744,-4.18858682678955,-0.118071771691893,-0.390734312438643,-0.338003898213493,-0.337168545596639,6.0525007956951,1.69717803159423,0.053405825572827,-1.00532570563037,-0.120357190505946,-0.0345616794267119,-0.89138536187596,0.0652501060912574,0.212202869387662
74.28,-2.91569579843915,0.225788111449596,-0.278976312598044,0.273194994735276,-0.976158749070621,5.5903788191081,-1.30642753782578,0.140195892698375,-1.68360594907286,-3.09539527351713,-3.92726975041969,-0.168077913301477,-0.47412455024533,-0.0757874918617532,-0.419585950839238,5.59460263053385,1.63198272074307,0.125575928711432,-0.992268530240593,-0.131431367965181,-0.025144492268962,-0.936115350613623,0.0459455902293256,0.241193274768809
74.285,-2.95452540382073,-0.00487898905921574,-0.342687916619078,0.0877696437207421,-0.697824625526308,5.59017036962543,-1.34298512783051,0.210885148057888,-1.7235240836334,-2.48980099305036,-3.58698462249927,-0.146226377943897,-0.567982479425768,0.176877946851809,-0.483952488300866,5.13250885818003,1.4971529792434,0.170333874853508,-0.975218108182974,-0.124101674447863,-0.0274453896536392,-0.984350983095185,0.029754459985188,0.272195961477424
74.29,-2.96499211695231,-0.168276815763712,-0.459338616886867,0.0584303565358553,-0.416004828190998,5.4741383453839,-1.32832385039274,0.27697154477298,-1.7473442379443,-2.15675247519885,-3.31511110036206,-0.0931201096343977,-0.67580492904182,0.43446122105465,-0.527103208853131,4.71211869902249,1.29700061936324,0.127124075472843,-0.98157921780966,-0.124623547659914,-0.0185164803932079,-1.02685652907078,0.00156098262594931,0.316946635383102
74.295,-2.96375810657113,-0.342277683229937,-0.572287132791661,0.064548581421822,-0.0852714375356239,5.24258102982946,-1.28430522240667,0.332339224500722,-1.74713123930208,-1.89596572634864,-3.03502329066988,-0.0570817092959204,-0.818201266477019,0.699861197008666,-0.557685549866687,4.24957755964653,1.03944495766533,-0.0201975923705722,-0.984571056450388,-0.117285225825236,-0.0187499343611229,-1.06882092261464,-0.0308152156578042,0.345596561180059
74.3,-2.87712257654885,-0.455528383587888,-0.641726410245899,0.0439700428874802,0.206448431917256,4.9544903434926,-1.22974791628692,0.404627369992143,-1.74229979983105,-1.71097678880502,-2.75662533014261,-0.0389565088433262,-0.932962061342,0.846892964774229,-0.574440865256577,3.83468977357951,0.815858363534433,-0.205531125615967,-0.996203626815211,-0.107968785373564,-0.0169373916474466,-1.12418223942016,-0.0821597494428324,0.38096301190764
74.305,-2.81350284180224,-0.567521018809885,-0.706613827694822,-0.040376748885229,0.520739303978598,4.60155542253375,-1.15499457389608,0.495360467324457,-1.72057332807632,-1.63265132153518,-2.38209004158627,-0.0207996430136195,-1.0820554314287,0.929163253600208,-0.594061579124583,3.14125972410431,0.51629772918031,-0.516913583879239,-1.00793365812418,-0.0921793167638947,-0.0133860049700593,-1.17600549704048,-0.13985508001413,0.405314888552078
74.31,-2.72587075115467,-0.673515594634363,-0.703840538860829,-0.0935347833049361,0.899701343974671,4.08594648467984,-1.10650968227121,0.551870361863075,-1.70268494707587,-1.73798117215916,-2.08780774277046,-0.00128280152608005,-1.18145852130427,0.944135147000318,-0.596698276932636,2.48558389201554,0.294271817648162,-0.745225105857544,-1.00820564558961,-0.076528318752435,0.0091202006724247,-1.26357115563778,-0.179286992932932,0.412173466488485
74.315,-2.67541329830908,-0.679012595609381,-0.680578116972673,-0.0804336155411867,1.17507352584089,3.64852193135574,-1.05334586031485,0.591645519007276,-1.68762992800757,-1.939593727814,-1.80503456817806,0.017235359351254,-1.26957452023633,0.902267777026394,-0.576813553688826,1.80854268596523,0.0787918193894048,-0.94257956618256,-1.00655155481755,-0.056026671349325,0.0416103737271992,-1.38460984613065,-0.218609208095644,0.417642260190247
74.32,-2.55721133150168,-0.648314312978978,-0.697638939049779,0.046500266221403,1.46298931920569,3.15207622837538,-1.00528315183108,0.583677411959799,-1.64382564969893,-2.27711281760862,-1.48260621058731,0.0392352761704528,-1.31832478910951,0.825912797067092,-0.552771206990925,1.26954407572055,-0.0838869565345621,-1.03462395555397,-0.995662249255421,-0.0425497424101475,0.0610257638805179,-1.48289328026609,-0.234356706845948,0.414579478398303
74.325,-2.48142063678587,-0.468637413743734,-0.667669584193076,0.123397089277386,1.72459548852133,2.75136283378206,-0.980152852494954,0.525906233546793,-1.59270983489244,-2.58853436018897,-1.19856883862331,0.0663679229893384,-1.32657110350652,0.733863276050196,-0.519500101934072,0.87466447122924,-0.192694364654359,-1.01799502661183,-0.995740717459752,-0.0388383029189413,0.0867663404654404,-1.56872555403732,-0.240348864290899,0.408945858637579
74.33,-2.61209061414236,-0.146406013853373,-0.460044627270211,-0.566022085684768,1.87756219448884,2.30483003099524,-0.962241346709278,0.495383330520151,-1.58911617405874,-2.74533575642734,-0.884218904241797,0.11921743890672,-1.28928262340386,0.637938796566485,-0.476149376195315,0.558104114455236,-0.250265244661251,-0.946834291434154,-0.979821207693439,-0.0380361988530461,0.0991987186947755,-1.64670218634988,-0.260962157269986,0.387012134675389
74.335,-2.52361187383531,-0.351419458251302,-0.196845527910946,-2.18217469627252,1.80989603087678,1.78456474132424,-0.934116899128573,0.517964395942316,-1.51072867993174,-2.62006995913324,-0.650070994939419,0.179353632119651,-1.22101989773673,0.577473834790969,-0.440433374893317,0.399498809267351,-0.252924498204131,-0.905845350703568,-0.977239496110756,-0.0346425635970865,0.110258591472431,-1.71612600843855,-0.2872505458053,0.374248379808523
74.34,-2.26638028923131,-0.846179803335028,-0.147671960580875,-3.02725246608707,1.68739642646818,1.32592776051501,-0.903425987850672,0.457993377110241,-1.4539031476916,-2.58283354943668,-0.422823762278743,0.264176699526705,-1.12169293703829,0.499052211296751,-0.403717463049547,0.162335773174322,-0.218114392613429,-0.9465764072903,-0.969695106307747,-0.043470161114045,0.113828813221602,-1.7822892443866,-0.321413367748591,0.376348536716178
74.345,-2.53224698000205,-0.798088349926737,0.729515063530738,-5.04000548673919,1.08361812211096,0.533546241700587,-0.874481996680564,0.385000010236635,-1.66149867819621,-2.70441321884092,-0.157189091305988,0.360903423639615,-1.04169048688602,0.407201565719797,-0.380549899720345,-0.0981171305075579,-0.190949844567199,-1.03765536732713,-0.953918249118993,-0.0566352367354294,0.101552254132023,-1.81532507648174,-0.348024322407988,0.385856735712855
74.35,-2.62048366539646,-2.01734210971516,0.863273102799033,-5.26655683635684,0.334914991706751,-0.503390496569718,-0.826094298631167,0.489618379072138,-1.5049020043043,-2.60868529387095,0.125807986665249,0.447648387012427,-0.972518641066862,0.273551946128562,-0.365838349304316,-0.370583043064643,-0.169309495221433,-1.1508925246554,-0.947642009213156,-0.0653366977851396,0.096630143628156,-1.82834339174136,-0.371243016569904,0.390017562027835
74.355,-2.52263128965238,-1.70137810653347,2.00809628358748,-2.03805849873677,-0.827967155819889,-1.18991153730653,-0.824156738014262,0.322815443110772,-1.42402220665005,-2.69403259189894,0.344249177659281,0.432747126155732,-0.912275784250165,0.118757496507982,-0.368337010463791,-0.739546214258914,-0.157832068363575,-1.26525101143417,-0.950093577472015,-0.0910944607952288,0.0875720043540277,-1.79524958899421,-0.375821074645317,0.402919827711725
74.36,-1.93277408217134,-0.51371229701329,1.37628815385136,0.881469151968865,-1.91661116420934,-1.42783825831537,-0.917946268250054,0.116532330223398,-0.796042927992087,-2.96478696868752,0.450112780926968,0.394726408813479,-0.864051402775762,-0.0197732041524048,-0.393057994838811,-1.08830078787891,-0.170274189740823,-1.31004314942068,-0.954352018130703,-0.102273349238605,0.0764495352707552,-1.70147801324377,-0.390574337281368,0.429185584394026
74.365,-0.605509949080056,0.521400992102414,0.268675426931985,0.682034525162745,-1.67305363999495,-1.27546110871843,-1.08034594673143,-0.0779544473295954,-0.283292999681077,-2.95509364997298,0.39056348931051,0.280223848851076,-0.819457681656845,-0.182465827996947,-0.431410688454701,-1.61043768999703,-0.226569243805888,-1.33870874889593,-0.95408989059939,-0.120684533543764,0.0602548230050896,-1.61738413143006,-0.410556760757736,0.464067867256829
74.37,-0.0369749136298607,1.75657446787607,1.02917493954582,-0.0601656385802424,-1.56730400186948,-0.926499712732383,-1.28723227926076,-0.261875433570241,-0.0187074011521851,-2.51006429052213,0.287692246793335,0.0987598039511813,-0.804101423763105,-0.381186585749749,-0.486009264661039,-2.05353713628857,-0.285533061915928,-1.38996062230411,-0.964309710723819,-0.130637272669317,0.0298911490806965,-1.4746094114249,-0.443832968441505,0.478741834391329
74.375,0.0875474606281906,1.49282233896365,0.905830049976579,-0.277692354008994,-1.53432438538365,-0.578961301940751,-1.42747354098074,-0.252937610312314,0.213723098654505,-1.56836127571363,0.169523571457888,-0.0361615167999132,-0.836654787071149,-0.503423528446608,-0.533780851713017,-2.46801870212272,-0.343924446711691,-1.49441710379452,-0.970207903898491,-0.142839811159666,0.00658091663590087,-1.36142425639655,-0.457754265236598,0.467617654031323
74.38,-0.0926191052161103,0.591929527713938,1.08781415961942,-0.4360061575014,-1.35906061150299,-0.528870543817133,-1.38390346684616,-0.0869142307572045,0.15877502421359,-0.97415197150276,0.0824132815496971,0.130823852426413,-0.905757804096708,-0.592349956657641,-0.567883860518414,-2.94249907505938,-0.405204441368746,-1.66050268817584,-0.98329761198004,-0.153086870334229,-0.0285336848662005,-1.25746012300408,-0.462295963366144,0.429222252327282
74.385,-0.541589797900938,-0.214425675897667,1.22181767561985,-0.481188398483267,-1.44600112759715,-0.838861205560666,-1.18240439181677,0.0141671413648345,0.0377946940855553,-0.625654922242192,-0.00301137184402618,0.433350880326643,-0.986407813867861,-0.625610244487521,-0.573897743925961,-3.31215610852286,-0.456142606525229,-1.78635715999642,-0.99533086608709,-0.157082228989114,-0.0496459074802429,-1.18718961519026,-0.457712931587269,0.407831606910439
74.39,-0.829502378910814,-0.228737820675003,0.875226679563797,-0.294197693210792,-1.58710397817359,-1.13278655227916,-0.89066859414902,-0.0291770704138777,-0.300545054134097,-0.332876040423628,-0.0104936343309217,0.570339562608439,-1.06242250769429,-0.616865899864076,-0.570875181371632,-3.61953375425766,-0.517732363951498,-1.8504478004768,-1.01957868337033,-0.134745565053425,-0.0729390294196967,-1.08757542342529,-0.419979913862082,0.371320171983573
74.395,-1.29140815294715,0.310560262890074,0.548365925360207,0.0254712476345023,-1.49216173633599,-0.927467909852757,-0.794626895706327,-0.152085558834647,-0.437733152283062,-0.151721138658776,0.0138046458499329,0.503384099231513,-1.15385965211562,-0.573019455975817,-0.539260274842898,-3.91015207818502,-0.594780983667547,-1.78916724156334,-1.03806751963357,-0.111364155720295,-0.0864759159908687,-1.03417216638873,-0.383527420793191,0.342053881903044
74.4,-0.980452521650748,0.26625280244973,0.660181167668456,-0.0979047444039798,-1.21382064521153,-0.659915432360625,-0.900753781112335,-0.361855932911993,-0.398184335048824,0.288159472892558,0.0319819993058491,0.372677319371088,-1.24308906614852,-0.53400307518357,-0.483602628615074,-4.07275266366081,-0.680357392621739,-1.58340720797747,-1.06345700656711,-0.0868921210946779,-0.0869399393184341,-0.981581270672104,-0.350222173414903,0.310934234201134
74.405,-0.555538723052864,0.021230944498802,0.941105733056432,-0.170634626352105,-1.00227937676382,-0.484409885489639,-1.18081262312744,-0.594148776910226,-0.189741349343331,0.743401356243005,0.0608232801577669,0.263079813692482,-1.3219414924376,-0.519409819506898,-0.396482036720485,-4.10143682220823,-0.785204336404942,-1.29381870870287,-1.09553999302474,-0.0575629768040727,-0.0969322243178358,-0.936991412486016,-0.340461460333326,0.280952796586371
74.41,-0.301833495242005,0.0589961061279734,1.01999307716444,-0.198399644872173,-0.843676959496764,-0.383187741937855,-1.53941050553919,-0.723267457728565,-0.0997829588194315,1.19186159904771,0.0881816719722596,0.181655235929301,-1.41791943668149,-0.545393536941825,-0.223515708753952,-3.965652476499,-0.956885271035597,-0.907731339504403,-1.14344241346827,-0.0224792359522786,-0.100609611707448,-0.918013562886628,-0.352782732016407,0.255671489431099
74.415,-0.319471787754584,0.242378260315884,0.932209212881114,-0.254068319820381,-0.654529932988045,-0.242926051970051,-1.8618303135208,-0.591996061454181,-0.0846076488283051,1.22741781611992,0.142776358198118,0.214306838373132,-1.49756750953567,-0.570283007725489,-0.0362793808514244,-3.7483757064649,-1.08197978877111,-0.677379451146859,-1.18115535687698,0.00850373347614998,-0.110455848863554,-0.922052564565908,-0.359910061920293,0.225029430233067
74.42,-0.467155295616792,0.246180673064825,0.857725016189002,-0.300033153660146,-0.510512808484907,-0.133764466817419,-1.91409025342194,-0.205363482586131,-0.132977994442431,0.907618617169548,0.171142559285276,0.323871198838021,-1.55817897756095,-0.552142894554612,0.206531627939058,-3.28821534673146,-1.16698055465484,-0.522842110139825,-1.20642482998827,0.0489007223646676,-0.125233196220713,-0.926947274752421,-0.354236315050434,0.183228517416444
74.425,-0.540349569805763,0.200113386114455,0.832156532328523,-0.324746253453408,-0.379059284997017,-0.0719651921976761,-1.65379745795184,0.118550715103687,-0.166730018402783,0.367583347539803,0.177873213302995,0.391377300617395,-1.61276651744448,-0.490054912486289,0.404238678342974,-2.6191791030213,-1.20065835270082,-0.465884842015784,-1.2350916665106,0.0666269111978843,-0.13214215930853,-0.950015164201285,-0.325577584600613,0.123739753602842
74.43,-0.50827181043547,0.216633310564817,0.831473402267238,-0.27722028382613,-0.317493991599687,-0.0631492634891027,-1.24938518753691,0.246674836153373,-0.168822506807897,-0.0610071032262415,0.188880975178444,0.334794960607569,-1.58922615206265,-0.369540087345446,0.535923658889725,-1.71618934170393,-1.10995289671209,-0.475782312702002,-1.24467064103009,0.102300277904173,-0.136689740045611,-0.929378445228035,-0.292746500006285,0.0202804012306622
74.435,-0.476363714850691,0.251975621641484,0.829449051586462,-0.203207806784147,-0.271443168249174,-0.0479798123988643,-1.03526905283061,0.218787410712601,-0.166532365988117,-0.437864829018107,0.193347845726211,0.27331342783138,-1.50058911542317,-0.210228661778072,0.617780140718637,-0.532662066976969,-0.898791338560147,-0.542913902131131,-1.24270958524823,0.108144811449837,-0.132894815963734,-0.970937916217099,-0.280676805413764,0.0270423904230285
74.44,-0.46486019914816,0.258552302686797,0.823445386591937,-0.161829213786537,-0.231626918888915,-0.0358753610885204,-0.937384877197786,0.137321611818202,-0.161682974827347,-0.695069397111091,0.172930814251683,0.267486629175455,-1.3799493476197,-0.0925307504547397,0.625511672761584,0.378395886724808,-0.647336335953759,-0.651683532493655,-1.21269379482271,0.0750426511458628,-0.118763355547683,-0.9402049575776,-0.313276858117746,-0.00752138433665239
74.445,-0.457029873385545,0.233444872390187,0.8274493135828,-0.16624467897899,-0.181724543512436,-0.0163970929961353,-0.891269339560541,0.0619771568054015,-0.177318092240749,-0.885801646095884,0.107458993014138,0.327182787432192,-1.19062880998218,0.0200972041918012,0.599559431227732,1.18789645194456,-0.295576667556993,-0.830269308896836,-1.1732951803386,0.102072471085158,-0.106693759547878,-0.938664551743606,-0.356558380093374,-0.0316757926849768
74.45,-0.471677154054691,0.202880256328678,0.826405232633866,-0.170907104520896,-0.137797243314548,0.00502396151164716,-0.86571814744672,0.0666333174347147,-0.192097351347677,-1.06533852414822,0.0349363119035872,0.362975264459422,-1.04495760484364,0.0630757617512051,0.550255393441179,1.45660920185812,-0.0431004257792161,-1.01133179671255,-1.14050387259939,0.0635218635209463,-0.0971737638324771,-0.981737771134212,-0.380807455503857,-0.0215687343846922
74.455,-0.468806446140077,0.203736613459285,0.82450351113988,-0.174849414551748,-0.0944340950750403,0.0307668525954897,-0.854519829270512,0.078094203932948,-0.198807815109664,-1.26683688309586,-0.0413541856837606,0.349140516900112,-0.908917425274684,0.0465105755088539,0.450467024567495,1.44384023906411,0.201745138719501,-1.22178792863727,-1.11032582296959,0.0315279531278177,-0.0853915947599477,-0.901651378012116,-0.412724872917347,-0.0210571616836778
74.46,-0.467344280099882,0.236943044423983,0.813227675033711,-0.1683611683469,-0.0782940545913296,0.0462707946131711,-0.858944168150614,0.0714046559271146,-0.187800569756597,-1.3972367952482,-0.0923635070796079,0.282715652841255,-0.80881819541487,-0.0182897465444604,0.313948541620355,1.29434156939145,0.383173341929487,-1.39367462755027,-1.07304611131071,0.00835204793189182,-0.0767063044596957,-0.797327493685885,-0.446342963472515,-0.000694808711882623
74.465,-0.474910298903138,0.278119422436739,0.799594300224975,-0.161267355084419,-0.0592024779917915,0.0552031904471978,-0.876072107047867,0.0610541009496141,-0.164125211508983,-1.45477497527727,-0.133053161966851,0.203820787877485,-0.757688729144612,-0.095864946070797,0.175451561857913,1.11871102917335,0.488538131291115,-1.49245975509228,-1.02712479865106,-0.017175374089729,-0.0834632299840518,-0.714432015825901,-0.466260705396002,0.0437483312002901
74.47,-0.46493140306176,0.298342440434856,0.802247535508192,-0.16059450719371,-0.0558008849620819,0.0442383176214056,-0.903993130543714,0.0404479705004703,-0.131194078385288,-1.39105549886998,-0.164306400850467,0.146692793177351,-0.72595190577029,-0.174169674012753,0.0589464162723773,0.988283601008607,0.540592204158822,-1.51128544888766,-0.991959252979064,-0.0513778767406397,-0.0776686927625193,-0.582606982333669,-0.431575754696882,0.0648792654087002
74.475,-0.455876318590401,0.305650343380332,0.793294188069984,-0.150345012185097,-0.0564531119480231,0.0199652050502082,-0.960344890674253,0.0238300754587027,-0.106227862911752,-1.2305326922336,-0.200422518956791,0.148324345836237,-0.713890050760378,-0.250356350850107,-0.0521897076606392,0.966371979528865,0.530717207534316,-1.47925158346508,-0.943885408410799,-0.0995158914122931,-0.0726558977662648,-0.4245223923468,-0.386941600543157,0.0411992245993246
74.48,-0.456296362174546,0.294960124925491,0.793355695368922,-0.147958780318753,-0.0540124662023501,-0.00229844008365125,-1.007288929919,0.003171601815848,-0.114784714684101,-1.00465322669755,-0.242827331637183,0.175810407899621,-0.723676314628573,-0.307414573164437,-0.123246000083753,0.98656249034893,0.481323768174518,-1.41964553862449,-0.918048741037347,-0.114308892592968,-0.0772046873936706,-0.301314769808417,-0.314792557761699,0.00944365242369191
74.485,-0.457922820639265,0.270313819543925,0.806059048742584,-0.143955396051608,-0.0528468043717663,-0.00801652920928948,-1.02740053058843,-0.0210428272308189,-0.133688204924824,-0.755865147274895,-0.286559551877992,0.201210634625014,-0.751203974558619,-0.358295486477138,-0.175202919941859,1.01733948511088,0.420399069936713,-1.37053324950708,-0.89829839808024,-0.118963778417022,-0.0799472978657527,-0.230098215537011,-0.219355325612969,-0.00376172139367411
74.49,-0.463901524871853,0.23521377323949,0.803327965248885,-0.12551548955116,-0.0476441764833514,-0.00860909803921142,-1.02518777043763,-0.075137589933831,-0.151093554331804,-0.432756549170717,-0.326707140634145,0.202903306802874,-0.779109032134344,-0.389430688037016,-0.200160534256592,1.0540083482122,0.347702004444126,-1.33784669318136,-0.865880972655638,-0.11906604955376,-0.0820780295468932,-0.187720796757182,-0.101475925749197,-0.0242065285797867
74.495,-0.459526492268536,0.222091640800268,0.808387243357891,-0.105435859027056,-0.0406090857523452,0.00575298251116013,-1.01507647477453,-0.120007303993877,-0.153450753154488,-0.128695297534292,-0.353057800761786,0.180609578624769,-0.813341888533207,-0.407973262433096,-0.217257829123212,1.08408616321132,0.276229552087505,-1.30768426012286,-0.856223509119563,-0.0983216443001658,-0.0804853069550298,-0.187770950760476,-0.00815272009553739,-0.0592215165396559
74.5,-0.456354406753849,0.213987074664336,0.81460415552311,-0.084399348527657,-0.0300791259141706,0.0306582040785661,-1.018337207962,-0.147144397170135,-0.144892858857021,0.154587565498584,-0.366627438539138,0.16684774312927,-0.852692544176529,-0.410008531564611,-0.218332369921835,1.06343364140642,0.211883167983723,-1.27165894273929,-0.845059963628325,-0.0722554101659273,-0.0678917997674172,-0.191860038416321,0.0531968516868048,-0.0799889340907391
74.505,-0.45350405113768,0.220647805292592,0.817809831314318,-0.0661781161928484,-0.0135501421673936,0.0480819434117657,-1.02170894154094,-0.159925652241824,-0.128369236079211,0.449631338748032,-0.379452559723828,0.172660301368331,-0.888881600810578,-0.38982779937873,-0.206397802512074,1.03095208324992,0.174969044124096,-1.24032930906318,-0.837318267150635,-0.0318371246511592,-0.059448988856812,-0.193905625710278,0.0734641747559261,-0.0892413820736697
74.51,-0.484113072167932,0.224253487504057,0.815201113655775,-0.0533941335578278,-0.00531495976198502,0.079596611709964,-1.03380906123129,-0.156509657553432,-0.108002957577067,0.72905579670535,-0.398034860424807,0.200234937651307,-0.921360572637309,-0.349073881740146,-0.207403906803649,1.010500897072,0.17621905493697,-1.23339195677292,-0.835307371294588,-0.00705961529452641,-0.0408307880060034,-0.188178384908339,0.0554521070231847,-0.0906317384254866
74.515,-0.446524563314884,0.239349006586236,0.814408587245781,-0.0585794998044825,0.0124829977568381,0.0950413259607148,-1.03407062414298,-0.129600257870032,-0.0894331810358692,0.951711858509077,-0.411993919482459,0.226278922724526,-0.950970904873996,-0.293798405919521,-0.204526230988874,0.973791769333454,0.200470315460918,-1.24461598050766,-0.835316619726807,0.0212376934656547,-0.0286734019201337,-0.172548772514746,0.0339960353429162,-0.0795996097550349
74.52,-0.504336238321455,0.246578330668284,0.809862667826736,-0.0527806308811846,0.031815117981479,0.101448473965461,-1.02190388502522,-0.0800574347402061,-0.0687743841252498,1.05906630290163,-0.418264793686442,0.2368735854264,-0.968469327832863,-0.254166443234244,-0.202533729915161,0.913917374625302,0.240077237502203,-1.28069287698625,-0.847251787797854,0.0455355311374057,-0.0123065599620411,-0.161604465903923,0.0399707555994285,-0.0596195859273794
74.525,-0.437544001188696,0.252300462290455,0.812679875109897,-0.0644553728086044,0.038041590335474,0.131434423744379,-1.00690702362192,-0.0382543208790454,-0.0527468569714025,1.07248669722385,-0.428981744892714,0.257980837385651,-0.98831645261782,-0.209231503776307,-0.201763894478289,0.835885686328581,0.31889709064199,-1.33151267824255,-0.853024983729231,0.0680055033361807,-0.0104367560314198,-0.120199510578382,0.0503974465512922,-0.0336036125959116
74.53,-0.440436894348677,0.263436298230439,0.818631532586654,-0.0674148316894677,0.052428067547127,0.146547812369139,-0.989208040862525,0.00165823329256053,-0.0460469907157409,1.0215473622132,-0.439562350134524,0.277371008668057,-1.00166541475705,-0.180289927224881,-0.197228826913065,0.775389278503013,0.374495401765993,-1.36572461918656,-0.873359329091368,0.0855650914898709,-0.00292377455394892,-0.092806588272134,0.0768423185350529,0.00476093832583795
74.535,-0.448084232208298,0.240885680001558,0.822137925844953,-0.0806355029344559,0.063336960002049,0.158063265517174,-0.985735422164878,0.0398402436449276,-0.0507895765965112,0.90076761360886,-0.456390615176365,0.296808653391919,-1.00953983400908,-0.159727321369872,-0.186985159063584,0.738257223213469,0.448488766701935,-1.37427539318381,-0.894038887265133,0.0927083037740306,0.000273061925900447,-0.0669055357796277,0.111578160190429,0.0388635861666179
74.54,-0.449508234105688,0.236150600756069,0.817524803107707,-0.0897159710875808,0.0764579807892727,0.169167998999795,-0.993253372559562,0.0759543479345114,-0.0679983432116326,0.732367836623784,-0.469633426043431,0.311714191947676,-1.01175977429798,-0.147979195168091,-0.168179190849672,0.71699193516103,0.502921781098681,-1.33481388854215,-0.914991103712009,0.097161225887127,0.00083647690787076,-0.0668063214997591,0.137529811772123,0.0669310376765686
74.545,-0.453313242971262,0.23971601437452,0.81155261201862,-0.0925994111884565,0.0843333226697472,0.183842872619256,-1.00137718048723,0.103633889742375,-0.0783919705709073,0.541599237870867,-0.498926794122637,0.307246200103945,-0.990855066405227,-0.139391046225122,-0.142344201069259,0.733405852737828,0.52874840076239,-1.25480423816814,-0.933732880629777,0.0968975765980446,-0.0040923541542008,-0.081437177502694,0.168766080564017,0.0972860074265375
74.55,-0.449476547981109,0.248269016864763,0.811780864315622,-0.103024738195509,0.0952395136391646,0.196261866182956,-1.00591459544118,0.11237842018839,-0.0817098296328347,0.340537966043141,-0.512157594519688,0.287611957384173,-0.983257933404367,-0.128838978701424,-0.093935914739852,0.795936022740903,0.546278542875425,-1.1427655486967,-0.951797213691648,0.102327653202079,-0.00759382029033069,-0.0943839033815874,0.171967721544313,0.113171378620157
74.555,-0.453840267713526,0.252838230221762,0.807911752977268,-0.108126971797309,0.101493955860203,0.204052480509653,-1.0096801996561,0.123449474343004,-0.0785967201438606,0.112547453745751,-0.529959340422789,0.262337852584919,-0.955705443265365,-0.12627901446964,-0.0520011015697201,0.899523919075883,0.535194867184276,-1.04521509547287,-0.965661280753228,0.0954096531931924,-0.0162259511605645,-0.163421604254577,0.164750812770617,0.132107089708481
74.56,-0.449003208423203,0.251744482150599,0.810538795903448,-0.115185609983115,0.100013601909941,0.208090282493188,-1.01724422130735,0.126029539995828,-0.0764479075877062,-0.100517134202843,-0.557993929426718,0.248399247516978,-0.916673655336966,-0.133632031634996,-0.00584752747707689,1.05979542498077,0.514994900239287,-0.988622163095931,-0.981357781434891,0.0770738275612585,-0.0233844055595865,-0.224692960896249,0.147855786250487,0.157507315189546
74.565,-0.449410178864244,0.248284016338473,0.808505850609026,-0.112111765352509,0.112242796127481,0.20891353180114,-1.01505646651497,0.122599869534031,-0.0917248447571481,-0.225435609315774,-0.589698092264387,0.260955815125003,-0.88306783515956,-0.140611092836152,0.0238782971302905,1.23510817485332,0.498476504078176,-0.976604074729032,-0.993576951038213,0.0448888406628183,-0.0296592684149856,-0.250142091317862,0.134787326758935,0.16107733288628
74.57,-0.456515450186033,0.243239636450257,0.808360375851994,-0.107184149516396,0.11624730426265,0.212641425526526,-1.00194008944456,0.115071403800228,-0.102038241675247,-0.297280314525155,-0.614608252435414,0.265633718108222,-0.856773794452841,-0.139911638219089,0.0472301753479907,1.38491561594213,0.475794778418794,-0.982151609389589,-1.00496985701758,0.0298698332490134,-0.0355023658651194,-0.248168036780876,0.121967500094783,0.17662396761186
74.575,-0.462424170549948,0.242438235690103,0.803767940187611,-0.0974819898374589,0.105076979168832,0.206729387437306,-0.992978736977175,0.0951859067441296,-0.108657122243733,-0.309498645153063,-0.643061523398558,0.256916895470803,-0.844256091034253,-0.121438363540652,0.0765764759242356,1.50159797511543,0.451547683536129,-0.998059567335895,-1.00004504157387,0.00380556335050262,-0.040433385192735,-0.272131276029939,0.0993826300241568,0.186715151428335
74.58,-0.451659919512783,0.247251175826775,0.802485304467378,-0.087871759734285,0.093058019085193,0.200654615338989,-0.989823641519123,0.0807703450183631,-0.0972945877895778,-0.275383944944952,-0.669837678006032,0.234572849972305,-0.851655461546167,-0.112903495776735,0.100458930861113,1.53349961034071,0.431207558179868,-1.01854364307131,-0.991693289342358,-0.0228720036494313,-0.0344231397169744,-0.296718759096182,0.0881829391442912,0.161934033330085
74.585,-0.458920825819898,0.258151598610849,0.802822971131555,-0.0758450968438633,0.0976507746307814,0.207758839230341,-0.986936082959313,0.0717729825625086,-0.0674534438005905,-0.202745519012202,-0.686745285384074,0.207281314508025,-0.868662518617109,-0.148913703432581,0.131583206710043,1.37956693419762,0.405698704312656,-1.09421168176287,-0.998107728474666,-0.0323605905727952,-0.0332964730715569,-0.311029743413174,0.0775507793032617,0.144180942887847
74.59,-0.453953330862892,0.272377796178544,0.799403475554542,-0.0714769172615909,0.0857458655701634,0.192477960760953,-0.992748430427849,0.0843992730963825,-0.0458167626799683,-0.0929791333223454,-0.69657294915525,0.191705027046721,-0.919697365996357,-0.230504516483433,0.184383181069232,1.0862297608265,0.389295738184393,-1.18392414916047,-0.988813831435318,-0.0784566359138149,-0.0306987344553043,-0.29464623492537,0.0782264798179884,0.0978500032600774
74.595,-0.448550662990402,0.282852560757793,0.799105122248635,-0.0520014065414801,0.0681868856526463,0.166338663134972,-0.990665995508382,0.100271933430192,-0.0181465036846962,0.014665558077388,-0.711706307084484,0.178643918198567,-0.971107537946259,-0.313391744625396,0.230759699620582,0.774652202920177,0.366969900932569,-1.25401359214115,-0.974462847535259,-0.0958195075873323,-0.0268611129988927,-0.262051187675834,0.0927158106789631,0.0316236768452344
74.6,-0.454142337770943,0.281402344827472,0.800789792996031,-0.0395200382611893,0.0562651361669387,0.149323758481057,-0.982144457804155,0.108242495647873,0.00276295194962638,0.108366805202163,-0.72481714899635,0.17867941305788,-1.03291767985855,-0.409056232100463,0.269330895334962,0.458349361736795,0.323494460386491,-1.30185218267515,-0.971640156795305,-0.106579749507193,-0.0197310768568034,-0.244392940450068,0.0974636803337443,-0.0376945110195031
74.605,-0.444697933785339,0.268455784924329,0.808773564840368,-0.0280418700433829,0.0533624159669363,0.124369427470871,-0.966176850470017,0.107960123859796,0.0111272556414214,0.197546517271873,-0.732962647971696,0.180746134246837,-1.07465085674795,-0.479040980296346,0.286252421587772,0.254818385447732,0.259159946272203,-1.30055274918922,-0.967923333293504,-0.121669814230952,-0.00663368864527973,-0.210390422358776,0.0801259740115024,-0.0876233691431638
74.61,-0.452422919560043,0.257909263922543,0.816174241988188,-0.00872510640712149,0.0431987722032003,0.106512546141308,-0.965228477947736,0.0811101064293577,0.0226395820835175,0.278518978041823,-0.73824265772019,0.172761672918458,-1.08861088159197,-0.507728780058282,0.264874688736908,0.163525800533118,0.183325477933363,-1.2449388679321,-0.963768900408711,-0.135169462064131,0.00364043381634089,-0.158859595797563,0.0709323896847678,-0.128986107691329
74.615,-0.452715274289364,0.235405948993459,0.820882135965173,0.00972850298432507,0.0463866384957601,0.0913661931247531,-0.977278993672859,0.0661989938054769,0.0186605473381606,0.367074343386992,-0.735662910624424,0.163351769124801,-1.0812075774173,-0.502205618694641,0.215069717969552,0.132455094519334,0.109978219824663,-1.17958453064076,-0.963734196063231,-0.137797106634873,0.0122365006043416,-0.0996236908271946,0.0481484842143604,-0.163837752059882
74.62,-0.455150641676285,0.221485046159918,0.816066777220916,0.0327133819420141,0.0445447722194956,0.0798910921199297,-0.996321706181052,0.0439830778577782,0.0294079327109332,0.45457581720849,-0.720650105848791,0.148339028381722,-1.06371497042808,-0.47454161381616,0.160074260638322,0.165150591699105,0.0714758567535945,-1.13658043608562,-0.955770182330451,-0.140618162964914,0.0203863621917308,-0.0559333297879013,0.0411694590524305,-0.168144493529182
74.625,-0.459440577487076,0.214557573583202,0.81574402690038,0.041585578220261,0.0527693411154568,0.0897587469752625,-0.999293344423949,0.0408398608100412,0.0382715603180422,0.518572667655732,-0.699239976059943,0.133136710068252,-1.04642048881058,-0.425137883606347,0.10408626480777,0.265186761977504,0.0454399225663839,-1.0994004210658,-0.948593316971445,-0.134853405651855,0.0273521425332247,-0.0182548883626464,0.051626185267312,-0.153061549168621
74.63,-0.455199307292315,0.223089140268581,0.812629511430527,0.0609042809192163,0.0591798282889766,0.0990081074586303,-1.00782426291932,0.0376541444481439,0.051044045047695,0.557163506456979,-0.667910059678862,0.124477787332737,-1.03860374727376,-0.314259060993609,0.0243611111486669,0.497899776602965,0.045120421270554,-1.02024135150842,-0.953050181107632,-0.127279224940952,-0.000125940077205058,-0.00555907672001733,0.0855534323089193,-0.118536833230061
74.635,-0.462429750785693,0.228540315483969,0.811144023138117,0.0811298469714815,0.0542487462369552,0.105899441115313,-0.998444207702758,0.0421260795114617,0.0689991303756137,0.576809564847077,-0.633004767987825,0.119042867280706,-1.04286977644522,-0.180537293439745,-0.036385429920141,0.734845749635266,0.0688830431400139,-0.876006228899342,-0.958354645522919,-0.125774460080484,-0.010738357378111,0.0106319470116769,0.129283492792026,-0.101023469409807
74.64,-0.442461675367438,0.234112350556492,0.805684883442555,0.0897147348604879,0.057816706597805,0.113008645378294,-0.978765041755483,0.0509938675699855,0.0900548057638906,0.586016782698528,-0.595917938764248,0.124944732916165,-1.04473891868276,-0.0444392677090512,-0.0873785742263701,0.928619919443685,0.0904749501783009,-0.720995828260159,-0.966194169692725,-0.113406209552949,-0.0248471046760151,0.0438934844935784,0.152236751424232,-0.0783961461684554
74.645,-0.469555411257135,0.235552897885244,0.802478710951806,0.101050198054653,0.0576353527909556,0.119164757501061,-0.956795414858294,0.0508767711438356,0.112917836950728,0.576536013798696,-0.5395184971205,0.124412048067292,-1.03349639048826,0.0703079093512769,-0.104337795753247,1.03156257146726,0.0981513004366598,-0.599819688565589,-0.976444777567595,-0.102670795158839,-0.0245639810655862,0.0713587424488275,0.168895394562395,-0.0623900067779174
74.65,-0.459561061646282,0.240691591551049,0.802684970841771,0.099301653593773,0.0620961116014195,0.131081864135151,-0.935536261831075,0.0515735098088402,0.141726309732417,0.562721812435377,-0.49498889763773,0.130127430742022,-1.04793699023716,0.161166826160072,-0.143354461796658,1.05344008040532,0.0911251049196631,-0.537659680082272,-0.972741736440296,-0.0769759881632741,-0.0180041475185487,0.101218389517931,0.157589793573752,-0.0536966514093014
74.655,-0.452327878686522,0.253421814868033,0.802178987247665,0.105446652517666,0.0504865422844887,0.140177103817618,-0.921442493963992,0.0521628253177007,0.16209731595155,0.544109336703595,-0.453315788256749,0.122271119231228,-1.06902586672054,0.239780598439367,-0.159861299181421,0.90839903546299,0.0517079410263835,-0.501206561424846,-0.991206688399771,-0.0635972633629934,0.00312087765140913,0.148836554597019,0.173308093711189,-0.0906652550557109
74.66,-0.450287035216584,0.258838775697901,0.80518943261159,0.105517922707883,0.0475052541024792,0.155705157906342,-0.916609840759865,0.0562916506892694,0.186926567721268,0.516878613924261,-0.404233082235248,0.115272239522754,-1.08690772047643,0.271623920683715,-0.167423226245678,0.738055721000078,0.0103447608887231,-0.509625679447831,-1.01835832860594,-0.0421683110143364,0.0319840272019712,0.231781978223859,0.177888747672742,-0.0738054199703591
74.665,-0.42956092611684,0.276844424184737,0.802406325055612,0.101055388814255,0.0408268528958013,0.153325834318032,-0.915145354329582,0.0702011987234822,0.209723162928742,0.479966681634812,-0.342772613230323,0.109205258013038,-1.10966246753055,0.270129748820426,-0.177502490307537,0.564644150989935,-0.0413717010983915,-0.515694754868534,-1.04879545891333,-0.0150396151147228,0.038706409022508,0.23977560819566,0.144686109243428,-0.0673900717428339
74.67,-0.445639343561061,0.287841740915169,0.800117088670228,0.093918232732676,0.0404092173186316,0.150347435482889,-0.916512977882693,0.104269107457802,0.213844888427445,0.425784492096025,-0.292202893866618,0.109630664604748,-1.12967104569746,0.24296866104604,-0.185608782346771,0.355147107053444,-0.0885847284187168,-0.499240014901145,-1.05794095483411,0.0122752569370724,0.0277124595690514,0.176875202560318,0.110901551482095,-0.110991951263709
74.675,-0.440567151385332,0.286699921677057,0.800664771029587,0.0762759203413088,0.0320730405855165,0.147956079515996,-0.916924690057939,0.114779484922137,0.224468637802731,0.361953015975443,-0.230834242934841,0.103097548198059,-1.14203904082609,0.20068238587279,-0.173880843390157,0.136025303528519,-0.131340586257787,-0.454224367405906,-1.06660410815091,0.0193917909274309,0.0230885337088272,0.177362634687596,0.117680087364323,-0.135780088005982
74.68,-0.426891015010009,0.295301640479521,0.797140027355481,0.0626972625196403,0.0235419976365229,0.139518619666829,-0.92669388278586,0.119930226696142,0.233937231884216,0.294377271834687,-0.179992621961925,0.0974117139877927,-1.15741229526085,0.14129636941997,-0.146844746085393,-0.0576835630362651,-0.150840707331426,-0.388281879779644,-1.06898055588711,0.038336724201213,0.00959631694009224,0.216096340871729,0.144490412926799,-0.130356219579946
74.685,-0.418243247160933,0.308109498619972,0.805251332260216,0.0492888085703987,0.0257110800807447,0.137413074380632,-0.935468278295682,0.135660324766132,0.24281183536645,0.221973029839709,-0.126440626083758,0.0955873263411198,-1.15977568878911,0.0783684769521485,-0.119311972212487,-0.172561841185511,-0.154763476255735,-0.309391391732771,-1.06808900160337,0.0511675857539429,0.00614292281561059,0.261186075505555,0.181416990597925,-0.102324352716816
74.69,-0.407011514975648,0.319666114994348,0.806976083469501,0.0392167060361496,0.0204565328972899,0.11953533959905,-0.952181779081343,0.151518791749328,0.239300867836848,0.134385199890459,-0.0798589801970817,0.0955324404848097,-1.15775159538434,0.01479199331772,-0.093113480849593,-0.236446202490768,-0.155160941081143,-0.21254322619133,-1.08680921125928,0.0604925595319094,-0.00523616554482396,0.296794324046005,0.192140962921322,-0.0714133356150742
74.695,-0.413398965493437,0.318803422924418,0.801091211178502,0.0285335544853876,0.0169878735720433,0.100675498765602,-0.969302490077699,0.166951420156182,0.217175356258334,0.0161738173941387,-0.0406376188538483,0.100853687163495,-1.14819696589405,-0.0518060198560744,-0.0543744972355116,-0.315478661108854,-0.159692674875259,-0.102691357834225,-1.08982411143288,0.067597576910466,-0.0077204328383567,0.29721100538196,0.192297144228198,-0.0504195593821228
74.7,-0.425921509636889,0.305992800123962,0.799841071638447,0.0195173480641211,0.00865761499508573,0.0747824857315293,-0.976109135791043,0.174878109436685,0.186158669753408,-0.116474474110953,-0.000828805583788332,0.103007182478905,-1.13480681901017,-0.0923945139454988,-0.0172463128569869,-0.355661594895745,-0.154188905796633,-0.028805333291815,-1.09599205973759,0.0748319096207788,-0.0190028332388668,0.286914664941841,0.198969407993755,-0.0346529616001403
74.705,-0.435640370619538,0.294602490978099,0.798401938606563,0.00153956814716693,0.0144272907573121,0.0654630155963849,-0.973233930535925,0.164573916658812,0.153078516990319,-0.213969553223976,0.033304002001048,0.0989637462118124,-1.10327952311283,-0.133176625352793,0.0315492367157776,-0.367673601305945,-0.140058677199138,0.0426887431405864,-1.09426380686885,0.0777375861018223,-0.0306725894231223,0.287371897286947,0.217808131872258,-0.0246772611274831
74.71,-0.429193071978279,0.301795375807899,0.800482190605688,-0.00977722369134426,0.00572667467880449,0.0461512409339452,-0.975357659042606,0.145644738189676,0.138771485909652,-0.257570655008147,0.0604640639199026,0.0920119285583496,-1.07486170582033,-0.159212528330517,0.0618008737310432,-0.378923898899083,-0.132815390825272,0.0782170332557379,-1.0980587076009,0.0787745967275163,-0.0361254126744302,0.284734049231078,0.241023394395996,-0.0055999518029245
74.715,-0.426300092905551,0.312600672205311,0.800021890997452,-0.0175937248052695,-0.00162257899142251,0.0283670256669821,-0.981662651203182,0.138004037126074,0.120389698997327,-0.286059504284406,0.0760842038578614,0.088584802305984,-1.03597356723391,-0.190776743156057,0.0983596317349729,-0.38807090082652,-0.133476981123822,0.0939278798642614,-1.09594217181589,0.0799953158007481,-0.036445598992759,0.304371336069792,0.244157398752606,0.0137053903985564
74.72,-0.438631074702121,0.299994664619375,0.798249776435688,-0.0352297705374383,0.011308294920362,0.0221706399121103,-0.991949521585864,0.137422002886815,0.0801851664776556,-0.30601447842925,0.0857935548941754,0.0829736968225869,-0.994322279684987,-0.219845728494637,0.12760638274119,-0.405040363334095,-0.134037092328072,0.0898321226700549,-1.09099530207352,0.0729869254232852,-0.03293393864557,0.323880588198998,0.233606079920138,0.0257083241462964
74.725,-0.454654889310949,0.290924626869461,0.795175281983021,-0.0267567890074836,-0.0109274457226073,-0.0075859589812146,-0.993010240837029,0.138698065057749,0.0523889688439506,-0.317776114518729,0.0847443080153271,0.0832071697404676,-0.966545343203278,-0.246425002132114,0.153634411974241,-0.419016852267702,-0.142773847368534,0.0681171128720828,-1.07163167114497,0.0689048048366065,-0.0285381626008337,0.322872520040532,0.20834695065253,0.0327070348370619
74.73,-0.456984802211142,0.279128031380667,0.796338613973103,-0.0382675554407149,-0.0123064717879942,-0.0202708043131075,-0.992935965387416,0.137659592927632,0.0266418795669388,-0.326554311932024,0.0851961446681544,0.0783366174706788,-0.934877461306612,-0.271514927494689,0.175788093935348,-0.419668864354045,-0.148697420954704,0.0271585884321712,-1.056184555,0.0501251883856868,-0.0265319399115712,0.313980593120957,0.20056464779303,0.0297556382478366
74.735,-0.455501138636365,0.270121110550798,0.802019516313579,-0.0419631251740698,-0.0124526466265547,-0.0235921461135149,-0.993250914323636,0.115261922820324,0.0116864765489195,-0.316895871578613,0.0836795301756119,0.0686781728956841,-0.917107338203653,-0.296289515643829,0.187023268711425,-0.388543446718023,-0.146120056214546,-0.0125140948000822,-1.04403541635175,0.0398314138938284,-0.0178197377814739,0.302316593367296,0.208409331568128,0.030866847818178
74.74,-0.459002335411999,0.263044143324565,0.802893644540428,-0.0409621938819273,-0.0154849626123905,-0.0245996371928319,-1.00406772837572,0.099397275799946,-0.00484334002901147,-0.283591346226769,0.0818609461676533,0.0540718184966282,-0.902132523942214,-0.321156699866575,0.186735309231548,-0.357846544647805,-0.142855189107594,-0.075895552206397,-1.02841545836883,0.0272128531000885,-0.0156325288390011,0.27487861241436,0.237724163874627,0.0339949280023575
74.745,-0.453805941168009,0.266503013364728,0.803094194791577,-0.0395288773378227,-0.0188268064038408,-0.0238076394892335,-1.00145234762796,0.0908682741563412,-0.00810480247789468,-0.218703799600593,0.0720230475273042,0.0397308538279419,-0.897903985736545,-0.343091204234566,0.175656715658172,-0.333753762020083,-0.137324511332067,-0.135185304490996,-1.01781974993499,0.0160341455732319,-0.013065353284722,0.244402145790724,0.272998765656973,0.0364161595695449
74.75,-0.453147541361706,0.261731713140751,0.802884070337112,-0.0427950244143772,-0.0142953174393582,-0.0276217281850593,-1.0029712548518,0.0756370217015379,-0.0177356567670227,-0.170331151479535,0.0645067450425653,0.04203218498963,-0.900398642312506,-0.360111825247146,0.154051992396191,-0.307501578237091,-0.127081297798846,-0.177316913112093,-1.00649450175744,0.013754969370272,-0.0208166514605422,0.203472452523615,0.296668114537424,0.0327732339501381
74.755,-0.460433945117822,0.266867371980809,0.801114386230034,-0.0381879200723136,-0.0118198785930872,-0.0295012024936119,-1.00638829157266,0.0729662361139783,-0.0146130509343966,-0.134106276686959,0.0508398256404727,0.0408507883759174,-0.908067777226512,-0.370437691844895,0.124685272058645,-0.257679274021354,-0.114909541823544,-0.224056630246926,-1.00186315274638,0.00933485878111782,-0.0243651366749056,0.186171980305366,0.2889834564313,0.035155881239742
74.76,-0.460496751662298,0.260167017864485,0.798771565925587,-0.0366545021533966,-0.00981257840223586,-0.0314898771992885,-1.00513124620973,0.0669318558152919,-0.00723774995321221,-0.0995505928373907,0.0337500899661726,0.0341015264148943,-0.913658525268993,-0.374501558542255,0.0901949967865207,-0.20053001581453,-0.0990326015741901,-0.248663812517243,-0.992269409158282,0.0104011935503743,-0.0278980862866651,0.168967774202779,0.275442617987541,0.0358978641935798
74.765,-0.459530273341392,0.257633387274511,0.804838537707415,-0.0350382611795122,-0.0120266654545447,-0.0320406165574385,-0.997477430283077,0.070696621453793,-0.00828396108307627,-0.0810997043699619,0.0356567902810171,0.0311658632321189,-0.918104521304425,-0.369505461173135,0.0529641619486577,-0.123573716512482,-0.0750746981582903,-0.263015037825198,-0.979295047234071,0.0160358457079531,-0.0189929333546806,0.152942699516188,0.2506594928444,0.0327241891631447
74.77,-0.458192379017974,0.254497072832856,0.802292772852863,-0.043186660905163,-0.00748018658033406,-0.025735251354304,-0.993995397186936,0.0632758129056336,-0.000838203944724087,-0.0594391774948735,0.0155124277105954,0.0357143388550862,-0.917619832167476,-0.365701555704102,0.0197763400518583,-0.079059989701244,-0.0605693665160592,-0.256184475378763,-0.976852759540212,0.0166024993349283,-0.0144240808002418,0.145194817337627,0.224713556612658,0.0284533598114555
74.775,-0.456375160637852,0.257701604772915,0.800038032547748,-0.042965795789286,-0.00275380376415007,-0.0136157703209674,-0.990965852606648,0.0542401593883927,0.00356181793139396,-0.0502278333614422,0.0119615853129136,0.0430701927038454,-0.915616192933938,-0.362344760301623,-0.0130372685381345,-0.0271280128317837,-0.0489296480034233,-0.238917501739758,-0.970659742592904,0.0202379892071178,-0.00408383252155971,0.132132072583404,0.195117566050975,0.0272326393972903
74.78,-0.453537226086842,0.263218060473241,0.804334010411885,-0.0439846701920033,-0.00937649048864841,-0.0135952235149651,-0.993324504815692,0.0537126918952012,0.0146168911537111,-0.0548036591112676,0.00763278959364489,0.0536173585762365,-0.912855358528041,-0.356265880513896,-0.0361641464833047,0.00580406093086426,-0.0383873200617732,-0.219338896213317,-0.967749676434037,0.022901198104938,0.00344741012718937,0.113163814036511,0.171030355929071,0.0188023480106902
74.785,-0.447110548637094,0.261476131199545,0.808293892577601,-0.0440349957139525,-0.00535912773897199,-0.0099522037866408,-0.993848655434222,0.057407437981605,0.0202592233470175,-0.0694476518870791,-0.00350470868846073,0.0527992880848467,-0.909545190845556,-0.352575836991972,-0.05331902485039,0.0230869287325974,-0.0327257076891048,-0.184474859659756,-0.966689447945123,0.0276598072134286,0.00496386840577652,0.105504842714314,0.159534711271884,0.0192366440740363
74.79,-0.454613041560543,0.252558285343175,0.802798269545106,-0.0452063642442226,0.00180137931656596,-0.00457401158479688,-0.994664049894804,0.0642731977524719,0.0138156525165087,-0.101254490425852,-0.012294042019305,0.0474806316522048,-0.91462816245685,-0.346880682420062,-0.0633402093443816,0.0275815234723143,-0.030454145629968,-0.148375368628871,-0.963030913887591,0.0246812822629826,0.0154499083946919,0.111513847155405,0.157276654842543,0.0215383906647329
74.795,-0.456321053803986,0.254319329477471,0.803175985538399,-0.0487515080350466,-0.00082462839782238,-0.00211431036843156,-0.989211424927689,0.0713459192110204,0.0126798784250792,-0.118025039458815,-0.0188731888217094,0.0501867006274091,-0.922336348826108,-0.336537809340027,-0.0644053560809419,0.010378324115266,-0.0314147472381592,-0.11240691402622,-0.964613386692835,0.0274385484329102,0.0280591279091212,0.0913298550710111,0.159850446764725,0.0205562897026539
74.8,-0.459701032166773,0.26039094365926,0.803652640099563,-0.0493605123870619,0.00112969446608436,0.00523848839806443,-0.979850901558565,0.066834332539929,0.0173439246833254,-0.117200611387385,-0.0157342305258552,0.0489820875150338,-0.932046418966024,-0.323815529274859,-0.0558781675297365,0.00234436995620928,-0.0359392379788121,-0.0794965200224558,-0.974304132457987,0.0214614360599213,0.0347887089706079,0.0938944285458215,0.172568268720778,0.0196915960989912
74.805,-0.454654862397531,0.255796829405453,0.803083914333473,-0.054228176643434,0.00591044599974528,0.0123069458581978,-0.981729208198084,0.0602719571107395,0.0217431606780191,-0.125315663684106,-0.0214510551574719,0.049461147375298,-0.940189108020819,-0.303513295140232,-0.0380493709552723,0.00509847469050519,-0.0326243158913662,-0.0407053541057937,-0.986280318109254,0.0138695292416568,0.0378111920618866,0.12572950495672,0.181177183954342,0.033778264497625
74.81,-0.452896557157917,0.251723151519364,0.806386394414748,-0.0587165718442044,0.01505739800632,0.0211436787507995,-0.981776700628973,0.0581714840560292,0.0264636087317552,-0.129126427107337,-0.0159711511181999,0.0545073108209378,-0.949149548588921,-0.288212783214922,-0.0222278090985974,0.0222115730114426,-0.0261615644963196,-0.015327416640997,-0.986522684003905,0.0154284964738075,0.0358963185434997,0.123425523438882,0.173901200294495,0.0273327393036885
74.815,-0.452332915432239,0.252129146506256,0.805334455532391,-0.0544797459944805,0.0172219591847328,0.0288832361990474,-0.984868685734305,0.05854343355854,0.0290824045462005,-0.137420147339925,-0.014037168333102,0.0581488583890908,-0.957601384028449,-0.274084603651618,-0.00694119371656176,0.0342629588555108,-0.0209923366648706,-0.000563805865506941,-0.984956413871654,0.0139293479936232,0.0309127448297737,0.116951613958088,0.172056257064549,0.0230079434078407
74.82,-0.45473143841071,0.260326432011537,0.805434157400614,-0.0549799203872681,0.0167193483630211,0.0363919492638631,-0.98909382806401,0.0573703587456483,0.0390132965606874,-0.133280694169075,-0.0148679320906139,0.0592712815456428,-0.971679573766929,-0.25645465442358,0.0108390068341792,0.0667914893490189,-0.0176326517510285,0.00502524225280865,-0.987495358475775,0.00737302186338565,0.0189961807970511,0.122349115792232,0.167529491232429,0.0215147579066385
74.825,-0.441834107299805,0.267153839400474,0.804820039915881,-0.0529474993530647,0.0194416765744691,0.0354601596776382,-0.985179166055123,0.0538896301416009,0.0402932097164312,-0.123204397411789,-0.0152891227609496,0.0541394017636776,-0.979842964146681,-0.242117770295051,0.0212828687753879,0.106293029320672,-0.00675706519497911,-0.00211630833890664,-1.00232867982323,-0.0098513581543392,0.0112485855752959,0.142996998596562,0.15450971685256,0.0181440270182463
74.83,-0.450736331571083,0.258768855686759,0.805882659128206,-0.0547073765106677,0.0288263070266103,0.041875919386243,-0.988603255399328,0.0615482358660705,0.0376539247301999,-0.10961288530794,-0.00963652817996089,0.0559392979644472,-0.985348636728674,-0.233300956828594,0.0246575471251315,0.156683865574395,0.00280766645646618,-0.0166082925227995,-1.00733893499895,-0.017323299734493,0.0110569150519301,0.160175569213422,0.141691071018397,0.00868132139968039
74.835,-0.454277882968404,0.256240131133614,0.806347696222912,-0.0517051606996038,0.0229515563601128,0.0453360110427459,-0.985549779754276,0.0705044090733208,0.0344764742540933,-0.101026091826706,-0.00705137848854065,0.0595645719364363,-0.988590837233246,-0.224090881025409,0.0261695181413632,0.205394786087316,0.00645778514444828,-0.0152957392034805,-1.00993414874919,-0.0248543756733278,0.000522893541211304,0.187612378403509,0.122762886978053,0.00100917741656303
74.84,-0.452576948938669,0.263278065390988,0.804674608666371,-0.0507579766412475,0.0182792622463638,0.0448227450251579,-0.982888985986718,0.0753711749268413,0.0400216073768676,-0.093454820867269,-0.000220363869834515,0.0639054728534876,-0.986211666432625,-0.219223591188683,0.0198802260761434,0.261825100535428,0.0149971055870605,-0.0237893977019074,-1.01209911966699,-0.0279694418651889,-0.00460937171473955,0.201770153786106,0.107802124068751,0.000118315928835829
74.845,-0.449521512027348,0.262284332256018,0.805624373006433,-0.0652359885264715,0.0215882638217657,0.0545963048934937,-0.989998325671428,0.0772577315318498,0.0404671067162363,-0.0958101331273597,0.000762368319570752,0.0636711666593255,-0.983092308394303,-0.217622196894061,0.0152210876826834,0.29530214986721,0.0212233402480082,-0.0263130626723746,-1.01704696308866,-0.0316627426686681,-0.00527011774624644,0.215092729167851,0.100619309077457,-0.00263611557106665
74.85,-0.449173167840734,0.263015700181792,0.804379132147364,-0.0551127729525592,0.0260526519268751,0.054211215636969,-0.995175940268056,0.0840251410846064,0.041729676588575,-0.0971779125933147,0.00940101565359235,0.0598894604117906,-0.975473943983413,-0.221898197649503,0.0130591558378953,0.32522043409625,0.0254017913720756,-0.0365257235513486,-1.01758522019866,-0.0406528468984952,-0.00689459218614212,0.205037972955624,0.101821213960648,0.000292797009936194
74.855,-0.450311174294199,0.265341164935837,0.804735874349255,-0.0557344016681225,0.0267578091130916,0.0554900823999238,-0.994998262637593,0.0940892107464515,0.0417224987689754,-0.107296187341787,0.0143966432512764,0.0569885317680349,-0.971762281361113,-0.226353681657899,0.0079847907195395,0.347258676014133,0.0278582958592101,-0.0456497296690941,-1.01694628189168,-0.0433061743025946,-0.0143431429110767,0.218971361442121,0.104261843517211,0.00772642765340512
74.86,-0.452137126116451,0.264755249836451,0.800844389114992,-0.0608541787272886,0.0262868638479515,0.0521022823422174,-0.991005231992101,0.0963006534753657,0.043216121799715,-0.111511915190067,0.0216650783511743,0.0572827959842909,-0.968510631090926,-0.231457850420022,0.00557828834803027,0.355365076594462,0.0302748756516552,-0.0602624561723017,-1.01487299509752,-0.0477175092885938,-0.0144653954739459,0.229787414593274,0.118321587402442,0.0140278069404876
74.865,-0.454471863005353,0.259986420324162,0.805527368886114,-0.0488848041960005,0.00973486995438993,0.0406096332735387,-0.989783866917368,0.0924285738654682,0.0394512290201473,-0.114216148853302,0.0265532730889733,0.0578928978155399,-0.969075050644916,-0.232361658122011,0.00688102601173165,0.352634080019672,0.0295483936649332,-0.0702052040863266,-1.02060746407424,-0.0522332327692696,-0.00831427337850282,0.24111218587962,0.137626251755117,0.0316559532750308
74.87,-0.454176682408924,0.266924684621884,0.804956146876837,-0.0599005148173391,0.0163129127976335,0.0460782572985708,-0.982759747178858,0.0920061914336058,0.0463656255058504,-0.113845683269823,0.0381908696892205,0.0590261779725552,-0.964588199030215,-0.238291324239346,0.011114432370853,0.329417830408178,0.0237407030778903,-0.0760128956596788,-1.01893900902456,-0.0513366562120392,-0.00709508658620394,0.250078826845964,0.160362764599484,0.0387819217170887
74.875,-0.451713931934432,0.266854635783592,0.803520160502583,-0.0652797820058757,0.0174068284767112,0.0464579532044736,-0.977653547160428,0.0961193801030365,0.0461391693334468,-0.109542292812714,0.0467031821608543,0.0583357462228689,-0.963871002366227,-0.241448584247704,0.0153884271295399,0.297371905267341,0.0168078094548139,-0.0810101104320866,-1.02043203832859,-0.0485209835148612,-0.00106495221013308,0.256964905801698,0.169131270114524,0.04817587519935
74.88,-0.456096698952827,0.263422857709277,0.802848125786204,-0.0708619505167007,0.0189379247689699,0.0414440562950706,-0.9733438101635,0.101888684192389,0.0474108048983499,-0.104922078339113,0.0525949007634715,0.0627142524167692,-0.962302323530029,-0.243582005319975,0.0229049489043047,0.252419599214539,0.012485823695777,-0.0826663123447091,-1.02959497374322,-0.0489342751089674,-0.00608999150513128,0.264484562217921,0.18490014322759,0.0581249359721452
74.885,-0.455606591027769,0.256236544325208,0.810006806643821,-0.0702509409337232,0.0154645212961728,0.0403430917957749,-0.977249557004374,0.104679742872246,0.0452610273211707,-0.103664106642613,0.0614413671224077,0.0627691057630296,-0.965896034123365,-0.241270619232822,0.0258520604742324,0.219559471553531,0.0100905035775134,-0.0859009208463091,-1.0265361106882,-0.0456620523887896,-0.0076897357781327,0.27400779429567,0.187293139605834,0.0633809630145505
74.89,-0.452481652983294,0.260777106715132,0.808258079405952,-0.0749799961760275,0.02113843270155,0.0432304053437417,-0.976146262114972,0.102435492161423,0.0503803885623225,-0.0903648888319947,0.0651902621651497,0.0627965068255629,-0.973472619580222,-0.243196647879382,0.0244379337543528,0.195373966696111,0.00890117324888706,-0.0812664138686517,-1.02777191364853,-0.0405104446335627,-0.0131568202752713,0.279805812702987,0.182117029498253,0.0721626845193693
74.895,-0.448599684419324,0.260179982730173,0.806830779433182,-0.0701469847080476,0.0214643626711866,0.0385060371989741,-0.985240304882116,0.0972670139121284,0.0500580120009187,-0.07852117027096,0.073208708181214,0.0595573275867542,-0.982424707311139,-0.243914086217665,0.0222402847898732,0.1629880270754,0.0114718951348053,-0.071114314483632,-1.0226202772295,-0.0329731321050528,-0.00343952303084214,0.269696294415358,0.185505009466109,0.0773491733315013
74.9,-0.450567770124916,0.260759445989127,0.810117117722869,-0.0676234693168002,0.0138938134225677,0.0314422161939214,-0.991597526451024,0.0929028351366673,0.0473414808300423,-0.059882658875536,0.0797236409531006,0.0550889886182829,-0.98893023650446,-0.240011846256303,0.0139700533902505,0.131084287877996,0.012864933207196,-0.0657941901079059,-1.02175408488777,-0.0290980094009758,0.00789038810170915,0.251756765265966,0.187005376294142,0.0869644881968197
74.905,-0.454927215112942,0.26076248932647,0.804478102517191,-0.0741838866644794,0.024144665333722,0.0393354633007411,-0.989402531557187,0.0874854818885902,0.0490507603869853,-0.0330938012137394,0.0886699816505032,0.0517573260611,-0.992358528704071,-0.23894066331722,0.00572083813092102,0.108806616447292,0.0125524764083918,-0.0479552908853143,-1.02609964966652,-0.0336676960896416,0.0199119041893678,0.241143961418163,0.193270350391192,0.105576626774116
74.91,-0.456585769765501,0.260136608835607,0.801542427217649,-0.070838909102555,0.0186533583572281,0.0341809666062499,-0.990636424847605,0.0882695606123102,0.0481090591792741,-0.0106963418773284,0.0990408385153319,0.0532924048826593,-0.994554295017279,-0.235653171410823,-0.00828380739985283,0.0951930958372362,0.0103129320979642,-0.0348445405453968,-1.02754576740157,-0.0233464749785304,0.0217061228497652,0.245720502581218,0.189194414643552,0.116186953832198
74.915,-0.448031022022771,0.266455163787759,0.803663632687734,-0.0675857825386321,0.01747331998318,0.0327865269832452,-0.983033898708699,0.0835641252126023,0.05444632421656,0.0299991368873728,0.10826678910755,0.0534487410735706,-0.990017929538581,-0.229461843925754,-0.0236952377321244,0.0736663140358951,0.00510732190247462,-0.0244946147811171,-1.02587678086004,-0.0174563586394866,0.0199418744294821,0.255601839886208,0.186716721139925,0.112158873692778
74.92,-0.436527964969732,0.272561555686759,0.807698949956904,-0.0635317787528038,0.00639397410292517,0.0237203496472712,-0.986202383033038,0.084625634831997,0.0584697332457079,0.0569994425304198,0.113400753686728,0.0519438255082062,-0.985830813454007,-0.227854926973237,-0.0321842671555243,0.0531709369241811,-0.000913828986785785,-0.0119909585181632,-1.03037299772382,-0.0167838458754111,0.0111959437357345,0.264141967281954,0.187888554502324,0.112732108334871
74.925,-0.43614538633614,0.271848942680923,0.807266316580888,-0.0584579841731676,0.0301974304448113,0.0231188483392796,-0.984636986974975,0.0867963041006022,0.0575997854524304,0.0700549478364424,0.122243456465311,0.0567193143584287,-0.981044915168873,-0.221143256742392,-0.041823245208059,0.027905164073884,-0.0132927146817365,-0.00407143950306038,-1.03599007741046,-0.0134296506863854,0.0124705896419505,0.281282466944287,0.183676309282641,0.121962118149322
74.93,-0.442156975696391,0.259930325477552,0.806554343563669,-0.0565968606720984,0.00611029340817332,0.0106512563715489,-0.983348294987104,0.0852668563919322,0.0463840373778044,0.0647467528604426,0.118783161044121,0.0593957564766614,-0.97770692223603,-0.223795515884218,-0.0487141494946837,-0.000465070377853422,-0.0288398040379663,-0.00198995887045968,-1.03037470598307,-0.00863015159133168,0.00105152492192506,0.280700221559935,0.186738690929916,0.132370471856528
74.935,-0.455007094983704,0.254418758330522,0.805900991846012,-0.0559857985282864,0.00528384558856487,0.00745315675307336,-0.978986712017226,0.085488558172013,0.0336561988025449,0.0632646124366554,0.116004719491222,0.0588586533663853,-0.976129543567003,-0.223863042766714,-0.0586726960589061,-0.0419603777743711,-0.0445526269639595,-0.00159981645438195,-1.02145639085552,-0.0113010049718606,-0.00481148360142269,0.262696786657261,0.184896439313889,0.123724542372967
74.94,-0.453206150085752,0.254002827181799,0.805059527878475,-0.058004745853474,-0.000765808418362762,0.00795849322319426,-0.981766450168548,0.0830269079169159,0.0287278614923258,0.0742286436852512,0.124720013377495,0.0568205181029472,-0.971445146602188,-0.224179317398237,-0.0680406354941052,-0.0855460423096917,-0.0581684467782583,-0.00419293589916062,-1.01539032761499,-0.015883473420556,-0.00413718383075611,0.237903413843936,0.191314514016534,0.118901508931102
74.945,-0.457760046054277,0.250631578264817,0.801617867919148,-0.0404528530869335,-0.00766269757036622,-0.00108050439625396,-0.979280724246666,0.0727143263486637,0.0264670159054155,0.0935356979738903,0.134825874806777,0.0573224330206649,-0.964674274343368,-0.226277561750443,-0.0736902906519668,-0.148478577773685,-0.077770316781399,-0.00404329765021538,-1.00885134385702,-0.0318408840061584,0.00257609234061731,0.210368251316022,0.198418154718071,0.10361766587999
74.95,-0.455248641728204,0.251149075097271,0.803734961580281,-0.0545821126934164,-0.00951784538507277,0.00768929102724373,-0.982270289603551,0.0789242690790864,0.0270508733160423,0.116270247448233,0.139345029169692,0.0530835111473359,-0.960878064551421,-0.230751585450682,-0.0749195525240336,-0.188597583448589,-0.0801821679836718,-0.0030362768535872,-1.00510545185386,-0.0495316680274,0.00124163715474444,0.209343248236976,0.20566526055336,0.0988962362054686
74.955,-0.45347377142297,0.257249778079346,0.801528155956938,-0.0544707585915544,-0.00214727312306037,0.0142803844064474,-0.983254129802839,0.0847216277188144,0.0273766133985183,0.127145655164515,0.14787862117392,0.0617780787799466,-0.956661540952209,-0.235561081578426,-0.0753759428175967,-0.234509565131112,-0.0982589408605763,-0.00655550509691238,-0.994871746413089,-0.0534859396224196,0.00527312082150962,0.223274257136917,0.206902153734915,0.0883679390141895
74.96,-0.457168496823802,0.256952694183387,0.802833368073268,-0.0549799203872681,-0.00571140646934509,0.0112904535153596,-0.989431541032459,0.0867236325727649,0.0275193903596108,0.120883134266779,0.151518106468579,0.0658547400799929,-0.952192810276429,-0.241152064517045,-0.074315676368458,-0.273079327978951,-0.11088731749834,-0.0074795792459085,-0.991500662049578,-0.0547510369136234,0.00413726294492046,0.214246578235977,0.199077463059246,0.0799400230220032
74.965,-0.452983630712311,0.26092275914543,0.809738219775378,-0.0550647481534873,-0.0105133567746486,0.0108697838151337,-0.987813539109802,0.0909610674959477,0.0287433823602001,0.111959832451501,0.145719275097091,0.067519195518105,-0.947561788576362,-0.242722922539626,-0.0663181568850736,-0.308318141491679,-0.12694934974063,-0.00774256537544324,-0.989918650138748,-0.0549586951674954,0.00289980896567628,0.21281631441547,0.200677040251762,0.0564165634669743
74.97,-0.454502482577504,0.260146298964824,0.801155940546079,-0.0558165337521199,-0.00976157117601594,0.0131251417572349,-0.98789170577969,0.0896635305653073,0.0298506032523203,0.0877967574435481,0.148677568159584,0.0659972591563773,-0.94694691797638,-0.245479523984146,-0.05846075925811,-0.334957013622672,-0.137739614002605,-0.00686560948102417,-0.982614439903128,-0.0509315597176318,0.00227323569250987,0.22201349570772,0.200075709613468,0.0458767537116572
74.975,-0.450752818499983,0.261943882609293,0.803382040691316,-0.0563972204492377,-0.00776358333649142,0.00919800032517443,-0.982454075062676,0.0862548342451683,0.0286535952108545,0.0807164516674939,0.149574783933473,0.0685504732665732,-0.948100575331786,-0.247983827999788,-0.0460385882217022,-0.364420184646121,-0.15138058658231,-0.0103164981458534,-0.983132194494281,-0.0496549169099508,0.00494173499308763,0.232341383152593,0.200204005214876,0.0395046812954419
74.98,-0.449097716538546,0.258006165851555,0.804375572987985,-0.0484414421936715,-0.0166892439011487,0.00118601559686948,-0.975654276495577,0.0850569012825142,0.0256907253788583,0.0812549814581871,0.153691337710721,0.0770795794337287,-0.947797361429584,-0.249914476217383,-0.0324241854808508,-0.389369691681624,-0.159101341889006,-0.014516030476195,-0.989850829494715,-0.0487933811931293,0.00567591194306955,0.234266638522841,0.199241366475606,0.0307250878170542
74.985,-0.449810236577937,0.259695251695786,0.805602048201794,-0.0385532013056709,-0.0303998425778225,-8.98047441749506e-05,-0.977979170475789,0.0823967879971901,0.026952057212934,0.0776594825298123,0.1602511900681,0.0823775355709384,-0.947524187746916,-0.253794173082745,-0.020408067149768,-0.401850238788922,-0.163442805237306,-0.0150861032737462,-0.985187097037777,-0.0446727795395674,0.0134301709567724,0.210417261992741,0.180009663105011,0.0181176783356155
74.99,-0.450920968891412,0.260302333598456,0.804663574337624,-0.0461413839129279,-0.0197233958357978,0.00328513421118259,-0.97656400579884,0.0846412476498823,0.0285034391877839,0.0790759917736151,0.159627872282577,0.0844173642127155,-0.949580697415133,-0.2586781130857,-0.00636766009255558,-0.407983127640458,-0.167674056277566,-0.0157872814169381,-0.988443277499669,-0.0338530709952212,0.00909302648080168,0.205713433402602,0.180715954803912,0.0221311296043237
74.995,-0.448973486604716,0.261720267490448,0.806379048009382,-0.0454314279835172,-0.0218185003380724,0.00283500638945196,-0.978599774155559,0.0866784366781398,0.0303633456861383,0.0763721631500003,0.161927854250197,0.0834600627422333,-0.952422842488096,-0.264151596483512,0.00597794309853239,-0.41485221492838,-0.164730148046682,-0.0256002948893229,-0.989618346270207,-0.0369274989819697,0.00768846589586735,0.206692315117283,0.18463141002666,0.0240888572156975
75,-0.453655206668948,0.253519755078348,0.802196298764864,-0.0452793338859975,-0.0238202645648671,-0.000235184808596547,-0.991173795550635,0.0853811654032502,0.0273491398886332,0.0568675954763262,0.163980953456863,0.0834600627422333,-0.956376349718041,-0.269217285770443,0.0171745487486557,-0.408017078613994,-0.164579451084137,-0.0201136304647002,-0.991090978312621,-0.0362103707129715,0.00996207614995226,0.2138346614022,0.186075782477473,0.0277594247251864
75.005,-0.448986760690101,0.254185071574267,0.804829392211346,-0.0280925678050346,-0.0377379358238935,-0.0165143752825129,-0.988767365018111,0.0913410866680726,0.0329573407536176,0.0307912449246541,0.140294579644256,0.0893020543473065,-0.960818457214485,-0.27207008456876,0.0314017790565937,-0.37184885390709,-0.161178326383324,-0.0161375104290251,-1.0020317796964,-0.0355988632365524,0.0141832919176044,0.224143640312885,0.189187799587797,0.0323030659965041
75.01,-0.44917818796797,0.256685223545687,0.805816043173559,-0.0335996944308901,-0.0270927785418348,-0.0119866205536489,-0.993311263064483,0.0893600586776341,0.0319128394721412,-0.00340505743978322,0.132221803069115,0.0839718468168294,-0.965533754957601,-0.266697739855871,0.0418322214220705,-0.319288675181627,-0.154430327995744,-0.0108480020777117,-0.998044418376353,-0.039657687670175,0.0179061266009743,0.239803688426101,0.20267882936982,0.0388817079365253
75.015,-0.4462734589459,0.258270405873168,0.804501192572218,-0.0342111140489578,-0.0323599262924175,-0.0134041742482636,-0.990109396639111,0.0899294880802089,0.0305420339253795,-0.0468840027586155,0.126279945569543,0.0898646926039931,-0.970062348826188,-0.263157806047015,0.0486504720856312,-0.259390670992004,-0.148692939272083,-0.0117555608019487,-1.00356947252468,-0.0420223373137045,0.0170448090367453,0.260936252849471,0.210711730158842,0.0423870743448377
75.02,-0.445978831982863,0.26061855218709,0.807191547547493,-0.0371211978328102,-0.0289236027747393,-0.0101535059511662,-0.992188489670639,0.0912190381447457,0.0260455343027604,-0.0699424460319266,0.126113325357437,0.094974145275845,-0.971693840170506,-0.261302472605403,0.0540591219056768,-0.190243754517581,-0.146009347691767,-0.0115238428594865,-1.00120723430183,-0.0438976106274514,0.0170926205053611,0.276636296034705,0.214759627016499,0.0540242889640423
75.025,-0.446621612211288,0.257189611014606,0.802370050246264,-0.0425489069607766,-0.0300382641001002,-0.0101535059511662,-0.987759117981856,0.0957200133837232,0.0250094654554824,-0.10472426799821,0.126113325357437,0.0998746053111943,-0.972056547813915,-0.258359693637415,0.0530048558986235,-0.110904745345168,-0.139187640122158,-0.0146075788346762,-1.00949168224429,-0.0399003722622892,0.0183722671731509,0.273845626903136,0.224282819571701,0.0712166942518317
75.03,-0.448638882231874,0.260587464554641,0.803433104429476,-0.0489275902286817,-0.0248548493965937,-0.00457166981124269,-0.988167079242881,0.102241260906805,0.0187147274943512,-0.121139614106951,0.136068527944361,0.103278846188909,-0.968842277608312,-0.256525067703753,0.0566069388277464,-0.0538723527629672,-0.128884130759956,-0.018409576749039,-1.0176423613515,-0.0396623368694105,0.0211712846111836,0.263410239685552,0.21774275265373,0.0958122530383658
75.035,-0.447096768894161,0.262031753453093,0.804579494104119,-0.0500931441783905,-0.0170594876426541,0.00275588787860136,-0.990462868344788,0.10249539174773,0.0215976485726156,-0.121927710286404,0.139551967382431,0.112971433456553,-0.966193868794471,-0.255748555285362,0.0558320108434911,0.0115897071151001,-0.12540403997138,-0.0260701428063829,-1.01478328243075,-0.0418161258763996,0.014831268474045,0.266612520316013,0.217873087138421,0.103622412239142
75.04,-0.45098867547954,0.259758142836711,0.804151908961172,-0.051894019878409,-0.0197925595259146,-0.00269437636598783,-0.988196390371958,0.101414580856866,0.0382100306152893,-0.133539773148583,0.132768993039578,0.117717624257841,-0.964530188062253,-0.252832405558626,0.0550132863472923,0.0496849473173312,-0.118626376745452,-0.0266607174978665,-1.01006267251474,-0.0334311428905852,0.020575759434904,0.26786191248621,0.203326164096656,0.0953068521543872
75.045,-0.450035594898399,0.254705174007296,0.80699335034557,-0.0516478891315839,-0.00837657598532339,0.00128606645474038,-0.999812195057526,0.0984865272412362,0.0532276821312491,-0.188353325778548,0.094158838075534,0.126572399770876,-0.962121824396881,-0.251939001300411,0.0536630570861766,0.0861938257037207,-0.115413951974952,-0.0326730773358762,-1.01383469200239,-0.0269678543372465,0.0232324075614816,0.250861517428662,0.19679543227506,0.0976820179046206
75.05,-0.451008188894932,0.24604997673764,0.806235942996887,-0.0405266303315503,-0.0092729675173595,-0.00750307006123381,-0.999519352727925,0.103433904604147,0.0519139227707871,-0.272797090281213,0.0504879364855087,0.141585496458138,-0.961635935714755,-0.250420018273814,0.0514740484077977,0.124958375421911,-0.111120995304678,-0.0389490456418661,-1.01505838577279,-0.0237588471970968,0.0267692030337787,0.243706709774131,0.186564079024364,0.110845519633323
75.055,-0.45110384392941,0.255813999991733,0.815491250841249,-0.0302292103155175,-0.00183150213188925,-0.00909022135073367,-0.991067000679895,0.106112930290222,0.0373801616268352,-0.332318253312261,0.0218432494206774,0.152566215458311,-0.958332813562638,-0.246394793707742,0.0489424602653189,0.147569305065699,-0.100370631421638,-0.0506672990943798,-1.019893799746,-0.0246782329120007,0.0319055779263983,0.26480144826894,0.187466310554366,0.118729941670763
75.06,-0.44536047090343,0.255517312439228,0.809045260942548,-0.0203560371170639,-0.00845331612347337,-0.014026808196513,-0.984194050030565,0.113376526223766,0.0153518126855228,-0.356266463706809,0.0247294017690821,0.155918688660321,-0.959525801872522,-0.245475259008619,0.0458512514552044,0.179674261611274,-0.100996201641481,-0.0586153414764081,-1.01857954444384,-0.0239554824204681,0.0413137938396883,0.284850351824448,0.183054234816563,0.118330523199726
75.065,-0.439695021043643,0.267777887731193,0.804711714918952,-0.0183290839195251,-0.00693310238420963,-0.00845419840338419,-0.973118429423027,0.110211879936799,0.00341727124555811,-0.3380338494142,0.0536362407081337,0.156462736418904,-0.963161084928216,-0.246354481327837,0.0422956609165918,0.203046894428235,-0.0967570713765666,-0.0533382459165428,-1.02121930497542,-0.0303410337690418,0.0496500225834938,0.313570035057687,0.188569209477299,0.112911783143186
75.07,-0.439862884143085,0.261216476250281,0.80619604441799,-0.0286214308896249,-0.00641431005173519,-0.00479812572953343,-0.965039656641611,0.106965191856077,0.0191965715267923,-0.310057695726345,0.0882628777235872,0.164899009181058,-0.963561303834491,-0.247954265305878,0.0340084518024304,0.226441794216366,-0.0924664094209384,-0.0583702696716067,-1.02331686734296,-0.0306826634486103,0.0619009839014653,0.34481006860733,0.180569119794651,0.113934863225305
75.075,-0.449675274906092,0.255917663291454,0.817535747209139,-0.0213632779057386,-0.00569422674782908,-0.00159591821636886,-0.981161919307889,0.100849036515234,0.0623054220981161,-0.30403106250506,0.0814090044403144,0.161693826382931,-0.965354350341351,-0.242396119787107,0.0264504001773937,0.258984797335933,-0.0828709261738186,-0.0630851935098793,-1.02230820944152,-0.0324019312619527,0.0639696555636247,0.341889042586201,0.173175540174054,0.118291854858398
75.08,-0.455363082160799,0.244082208320832,0.815476637895906,-0.0101955074925108,-0.00204632245004177,-0.00531700853972799,-0.993311720879276,0.102984980161568,0.0613128721111684,-0.345037704077852,0.042448945830921,0.167163789281167,-0.966906521456013,-0.243015981412289,0.0205962609607486,0.280478136991959,-0.0805724558541909,-0.0495427759040076,-1.01663177455964,-0.0257387032958953,0.0697131475569319,0.331397027069507,0.171105084962558,0.119160829133701
75.085,-0.455407961817292,0.248106205678942,0.8083450352801,-0.0035952431878305,0.00396251689564471,-0.00893181189894676,-0.982962363879541,0.109652869077342,0.0295182054899003,-0.419853850753169,0.0241710896180592,0.175540555178227,-0.965583401105073,-0.242737070455594,0.0152076579977277,0.298798182188374,-0.0837997100927964,-0.041718430371426,-1.01051083814219,-0.0327726501870038,0.0680922702348636,0.326433527765718,0.160411435786469,0.124512787056759
75.09,-0.446999414325346,0.254915258632749,0.808375276634109,0.0125035987168699,0.00284045375883579,-0.00817580389741604,-0.978113107212294,0.114540516107228,0.0121311001956427,-0.440236801241586,0.0383182865560809,0.181372215737602,-0.966321362708716,-0.236972097520273,0.0130823744198711,0.328266862436918,-0.0766523809221924,-0.0298026383904159,-1.01038061697884,-0.0293597177225013,0.0625633302365639,0.322260028107287,0.153277580872198,0.138646333637492
75.095,-0.442663627049387,0.259715736403037,0.802639972214221,0.0208193293926955,0.00142874903830336,-0.0100176858855372,-0.972669631843127,0.11076826547652,0.00580384087212193,-0.425196551649885,0.0594718141270257,0.178073007978162,-0.967554208447665,-0.234891644488798,0.0129212621904579,0.360801686105304,-0.0716924138769221,-0.0166530182571402,-1.01076423136172,-0.0322487275788446,0.0591436217724924,0.330116631191424,0.153033097794334,0.146852754572215
75.1,-0.449113487684566,0.260702108215053,0.805083868490089,0.0273770501715644,0.0033438915190293,-0.00670324119375065,-0.970078354083844,0.100169721008656,0.0047052580900151,-0.383459042031056,0.0782571010553126,0.172748826931752,-0.962541720073996,-0.234917889413127,0.010921985188227,0.373360139467298,-0.0677800657816172,-0.000500110858398475,-1.00685045933981,-0.0317270994240718,0.0570937200084732,0.337471467637398,0.1506974276072,0.155113598938879
75.105,-0.462623107933055,0.256338268275454,0.802821390633994,0.0260587768477091,0.0183608305519076,-0.000470363176672902,-0.978505800830002,0.0859296614660166,0.0327935362590781,-0.347410354219684,0.101529981739197,0.170293787197483,-0.959665752635826,-0.233876532562839,0.00555662507381717,0.385947302588175,-0.0692249547402624,0.0115206210655227,-1.01140688146483,-0.0298777940988386,0.0547763184063502,0.32706003269348,0.148245602846146,0.160841924318105
75.11,-0.463401519767045,0.239578599264702,0.816483018575549,0.0419214239692274,0.0119627886739302,-0.00357680472019051,-0.989456281333526,0.0869836978849406,0.0381663188532395,-0.33918805238343,0.0884013360699177,0.178762031924074,-0.959818027454511,-0.236651949326193,0.00652900348414025,0.390871108415367,-0.0652912352126644,0.00961371192731431,-1.01477048489856,-0.0233946331648382,0.0609679905208082,0.329489105124733,0.141476516659054,0.16087015861301
