Header,foot_Accel_X,foot_Accel_Y,foot_Accel_Z,foot_Gyro_X,foot_Gyro_Y,foot_Gyro_Z,shank_Accel_X,shank_Accel_Y,shank_Accel_Z,shank_Gyro_X,shank_Gyro_Y,shank_Gyro_Z,thigh_Accel_X,thigh_Accel_Y,thigh_Accel_Z,thigh_Gyro_X,thigh_Gyro_Y,thigh_Gyro_Z,trunk_Accel_X,trunk_Accel_Y,trunk_Accel_Z,trunk_Gyro_X,trunk_Gyro_Y,trunk_Gyro_Z
26.5,-1.84894689109432,-1.59296871858568,0.341542948155261,1.69482451712907,-0.590045051788216,-2.62531201746926,-1.58865897673802,-1.29438502994549,-1.03825606524905,2.22210538937452,-3.4634091170344,2.48248909610539,-1.14310428755138,0.768264183781673,0.433080003487067,-4.10320377315858,-0.338881117348407,-0.296971857530054,-1.10681994296876,-0.37956279463305,0.124340702037188,0.086869990360213,0.484231914519697,0.152478982568353
26.505,-1.87327751117255,-1.42909591288327,0.174033610157794,1.5198454649207,-0.312621998894299,-2.49189979816179,-1.48599995584187,-1.24902980501203,-1.0580359513026,2.75101148671154,-3.292319897088,2.20745169188037,-1.23143358671974,0.801135411684899,0.423384737226965,-3.88103404480634,-0.365870373267206,-0.245790428261827,-1.15450833513314,-0.409912895587529,0.123378351405508,0.063179245755042,0.479979314785195,0.160376530817052
26.51,-1.95101109019825,-1.27241382364992,0.0778090335310747,1.35241417571925,-0.10351402641925,-2.33264444801027,-1.36680371650748,-1.11522648698638,-1.06040429265539,3.16506192709885,-3.07526122121713,1.96257772182414,-1.00322680198126,0.871855155965052,0.622627438241573,-3.13100368577054,-0.438783347594951,-0.0644685906672531,-1.21275733964404,-0.439103564768196,0.143748729244429,0.0778437965218055,0.438188795570975,0.15468663861476
26.515,-2.07410744938753,-1.03030301316357,-0.0687516350080236,1.09787449040398,0.0676573392092204,-2.12188388843418,-1.25060665325729,-0.973634067089603,-1.07045288124653,3.35778933620701,-2.87524278005719,1.71675861488595,-1.04472322409241,0.804516213955232,0.740778967399938,-1.858303848708,-0.862666684298344,0.013352825755386,-1.23196773869112,-0.440846509582447,0.148098425010345,0.130901909582497,0.354872557676411,0.137863454654444
26.52,-2.08881128137131,-0.845430728695485,-0.264460503399561,0.814281631459043,0.16451048058695,-1.89129401147275,-1.13585491422835,-0.907235223330997,-1.05694168973787,3.66719459803211,-2.61826539121813,1.63077552419601,-1.16958589478964,0.752574015313312,0.512057458414953,-1.24547909255284,-0.920517462028168,-0.11740391518278,-1.27696524116937,-0.458879038159974,0.17977150251787,0.232523498919318,0.255946482758907,0.150333990847309
26.525,-1.98799191936005,-0.789117557042288,-0.48259551034301,0.686700866976959,0.341540467339688,-1.62354377570459,-1.05407956572225,-0.808009080305167,-1.06136171466235,3.69634331002238,-2.28384555286041,1.56027383248588,-1.21236396596665,0.856558149324524,0.485301423368809,-0.84838733100247,-0.891120037414399,0.0356671694886079,-1.3205860378643,-0.45808126610122,0.200429659605043,0.332092394980047,0.165048928969441,0.130548852807591
26.53,-1.82652532306466,-0.781874672653808,-0.729759402041197,0.583530036441576,0.665504392108529,-1.27914843317872,-1.02041764996552,-0.633585957370209,-1.01962265658605,3.50408175645532,-1.92147156315323,1.48594727095511,-1.15000233457907,0.843947768817112,0.352674401128394,-0.480699131349705,-0.911700925580788,0.201611627437383,-1.33378798440459,-0.436877173377969,0.228557709909498,0.439023573245646,0.0799715653165814,0.131722664183548
26.535,-1.7708807540802,-0.752773094618377,-0.822946495144437,0.581292939417385,0.945833067208931,-1.07762588994744,-1.05086069871305,-0.380385543941093,-0.992697811594629,2.64222204471498,-1.52460678430028,1.22448079324032,-1.15966392381477,0.889213028060281,0.237101207805435,-0.182826742670489,-0.903485113071986,0.213464972292887,-1.35195158391437,-0.395141521797752,0.262227730733225,0.523463872938524,0.00635469312441286,0.139166515034062
26.54,-1.81447331870119,-0.708107504381071,-0.863351620093979,0.688862846329509,1.41328807169282,-0.675323666385544,-1.09110347226769,-0.280721382275996,-1.00581013051031,2.0677219886728,-1.31226161739849,1.04282272581582,-1.17759234650632,0.927045851513229,0.157258626660581,-0.0958505971479547,-0.887662794424675,0.315132412647835,-1.36352409411287,-0.334380228845383,0.287314970515274,0.601698909591565,-0.035315401900156,0.167760192182662
26.545,-1.78615074638919,-0.727627092147142,-0.918047524442897,0.733977500642607,1.7512529237344,-0.390610391393185,-1.0813862234324,-0.282882237964423,-0.993606393278617,1.5591173108082,-1.09587486428409,1.01677974714957,-1.16557484118809,0.9469840437658,0.0771471300543552,-0.208594008778685,-0.870562681335398,0.383941883209583,-1.37886437019095,-0.261269489584809,0.290726433958612,0.718334744401703,-0.0736303328136192,0.201091471120522
26.55,-1.58421847778924,-0.802186599676091,-0.993570652662269,0.725620767402909,2.08012770665585,-0.199468877362452,-1.03271802217861,-0.334076736654256,-0.979775486074476,0.936185208689979,-0.86160844783402,0.966038780887009,-1.1477362667151,0.928722284202081,0.035223530685016,-0.473235815151024,-0.870231705101329,0.360729359648812,-1.37530790185321,-0.203948011519028,0.290338881293574,0.818664875017903,-0.109770567949209,0.218139233826367
26.555,-1.41652366314597,-0.946666559061242,-1.08053741659356,0.610644753859581,2.56911769418788,-0.0136659681114068,-1.01488980464101,-0.429237434714388,-0.947663297264075,0.310132059705785,-0.591817127059446,0.849910051630087,-1.12015393343931,0.869866729145172,0.0206302028458446,-0.998899369712699,-0.892607996201648,0.150886264088561,-1.36777261662279,-0.129792514945731,0.269206173283715,0.935634487704745,-0.171577312119709,0.230641326676539
26.56,-1.43186990986392,-1.02685707652687,-1.07477448142254,0.533765956278952,3.02687683712371,0.0367687602540112,-1.03795574637627,-0.529206032319656,-0.96408285102026,-0.0396379262018196,-0.397487819051561,0.718802436016395,-1.12502776243296,0.801601493280682,0.0468779690691955,-1.5599257467121,-0.88782262802124,-0.114992112949369,-1.35753603977417,-0.0752382182302907,0.263839933176663,1.04260572876977,-0.216566281924043,0.25119515301837
26.565,-1.44892455350926,-0.842149400127868,-0.897388276631356,0.123214586343336,3.51914986662872,-0.0131752327532313,-1.05958422859054,-0.624052957669486,-0.97708396538655,-0.281565718917778,-0.268934518913724,0.582351937885562,-1.0990031681437,0.723020261152799,0.0617313926041684,-1.89669828669772,-0.867368078802956,-0.311243358811976,-1.35606195138839,-0.0284435694650541,0.238531826056933,1.13095637531181,-0.259616556526406,0.259425136836609
26.57,-1.67580975090143,-0.0888420486859083,-0.299837897782391,-1.0117078327673,3.79760579010291,-0.168421072773826,-1.04980288853219,-0.669199593318085,-1.13350770355011,-0.525018896761278,-0.0888924362304416,0.437509384576325,-1.05913269150119,0.64890821930473,0.0925055935136952,-2.27111681566901,-0.767906972028689,-0.603307703246044,-1.3193876830809,0.0275658891259281,0.214462223119063,1.16947748449682,-0.281120805776926,0.264847817150364
26.575,-2.29240718507832,1.47746940042373,1.208469167423,-4.80230066571305,3.47264773358098,-1.25684423733466,-0.98951008619437,-0.589231901327412,-1.50268119590013,-0.61660415223551,0.10497464757701,0.32984537914113,-1.01133058333625,0.593110981473561,0.114200645243366,-2.37019371780886,-0.660023536783371,-0.734613706074771,-1.29531840001208,0.0422295846902145,0.196065502269429,1.14874670862741,-0.31589800428285,0.268556432132127
26.58,-5.19775089811337,-2.4627384333513,3.53946637238246,-10.0363304714082,0.908758694971631,-2.04405031657148,-0.845220093927882,-0.487748917087981,-1.6649318837212,-0.197975071585013,0.359751523041543,0.24158510884574,-0.958368601691441,0.554392630748084,0.107229137678034,-2.29429582966591,-0.444058252005953,-0.835865930133648,-1.26389420152067,0.0478207522681372,0.185648904346177,1.1207751514623,-0.391483281918392,0.273171220347975
26.585,-6.07867905631149,-7.98831059469386,2.97264712836848,-8.71464563676939,-2.71299353994358,-2.78536084054237,-0.668774523533713,-0.630460117376659,-1.65382693052418,0.0662271076721463,0.624765598220804,-0.0282247763929084,-0.913654474081182,0.555565833145186,0.0919762156468529,-2.05957583039118,-0.250541126269437,-0.823075420003225,-1.23096737613245,0.0530886136371204,0.169230840539745,1.02490708834024,-0.393346740514967,0.273709469471226
26.59,-2.94455205253305,-6.62848726780066,0.19506904089526,-2.95321268366408,-4.41065163646509,-4.33418970241163,-0.712459089887145,-1.16075034654611,-1.55162544773396,-0.074995463758469,1.09469969293145,-0.428141196137604,-0.843502987835354,0.54289857325131,0.057063301396297,-1.57270678469855,-0.00388791757526654,-0.765402030145161,-1.211809455674,0.0415303341416548,0.163845690530694,0.926642647741714,-0.332415276287853,0.260008424520493
26.595,-0.0119423642526224,-2.61299463276132,-1.10334227699588,1.69128813966298,-4.09955419209828,-4.6768829933287,-1.02917714666394,-1.70588194193471,-1.23996185154258,0.059552940519765,1.7861848296616,-0.975817140557819,-0.782360583330601,0.514221799668718,0.00574444190854242,-0.988656361408124,0.234583289202074,-0.736831545305202,-1.24654268092927,0.0188433136565811,0.175268194642547,0.860895235216714,-0.232666504863259,0.29866764584456
26.6,-0.420596036887063,0.778850480491052,-0.362979801962226,2.52073743866357,-3.52189511911718,-4.23157459204255,-1.48281083059242,-1.81961117209691,-0.722303835164746,0.967663805899612,2.26147704730597,-1.69535338484603,-0.755869687131028,0.527094249709276,-0.0456163687827014,-0.253008548846574,0.45897130351347,-0.697065509559711,-1.26888622319119,0.0109383909322807,0.180013156147559,0.830893503255451,-0.193142556462091,0.339226319209268
26.605,-1.6895516332171,2.68134258623121,0.519661297163075,1.10957868332193,-3.57456069808478,-3.42420466471363,-1.74253907090875,-1.57895058839549,-0.258894332567172,2.14854301439632,2.2742694936412,-2.22148129042649,-0.802567687411983,0.565528966080545,-0.0499813343438653,0.638910688117292,0.714212529690154,-0.630313690735368,-1.30694487339873,-0.00443196029376495,0.167776932441704,0.74088290542032,-0.172389011059222,0.38562626400413
26.61,-1.5321774203222,2.83495178297071,0.632868057701066,-0.742290345904576,-3.67117030369071,-2.29818577256704,-1.681315995302,-0.924175331186117,0.326597356818372,3.06464644858349,1.82225194667545,-2.20673850576403,-0.911445731568255,0.635527474096941,-0.0177083486430001,1.43784772668752,0.906497706618752,-0.599256175314389,-1.34950406529386,-0.00976404508601537,0.169688867698615,0.64989423076598,-0.199784653583302,0.393240971082774
26.615,-0.0150767330387242,1.90931403173305,0.560633027165501,-3.41297310222573,-3.22616523845761,-0.750599217302508,-1.47992108622485,-0.478890641761482,0.673092774057215,3.19466014786823,1.22788181828952,-1.73074825561219,-1.0602717678586,0.801674988148858,0.0468678518466425,2.27588955266437,1.03912178851871,-0.574308319002281,-1.37043626050039,0.00434055325959517,0.167603903722903,0.485714716211321,-0.309608724593344,0.394388041468928
26.62,-0.0894127575281364,-0.546774897851723,1.2519770625521,-4.18534403399604,-2.90324048124756,0.0807961159415751,-1.23586667687976,-0.14232652965894,0.745398717583819,2.21702845326698,1.2553704950819,-1.52515580342633,-1.12873769982609,0.95540322221812,0.124567961322019,2.44446829268888,0.963245019699547,-0.480313549038888,-1.34862772496409,0.0272248596507908,0.143460421875426,0.407046745426374,-0.395571165939248,0.382131369761803
26.625,-0.386866687874721,-2.01625405050394,1.45414630043844,-2.88405732292392,-3.10587432463931,0.266301576866302,-1.20489863007812,0.149734637739989,0.626150525309638,1.09809185106746,1.38665549904628,-1.46262484401678,-1.17537161640602,0.961717381803945,0.205826392737408,2.11187875775914,0.708107614914506,-0.420876699952322,-1.33725260521641,0.0498739959190637,0.12008819828243,0.372383846181496,-0.492834008984881,0.348100948651472
26.63,-0.388189045877801,-1.92083086634866,1.1807209701166,-1.75705928814426,-3.2437353311055,-0.0862900316641091,-1.25752483764817,0.548014267056265,0.419294696655562,0.0595538640859468,1.52196693566692,-1.58822638893233,-1.2154013613592,0.731146228281203,0.270996987513311,1.62069778788267,0.3780978448883,-0.623905509478739,-1.31972763342327,0.0637285872229425,0.094193350739153,0.37127388668979,-0.573162981360225,0.303000379151976
26.635,-0.622591143283413,-0.358975377811606,0.969926799590087,-0.481281531207041,-3.12976582308293,-0.164544148753962,-1.27715456107169,0.773096958737853,0.219025769032423,-0.801780732798694,1.63633333045126,-1.77609261424142,-1.22289444062024,0.364030595236795,0.219858420678249,1.31374572243509,0.0896490963656329,-1.00993180353512,-1.29694764227463,0.0763421676175435,0.0429791483564403,0.391196126583503,-0.636328704343536,0.275824729675739
26.64,-0.67461068080242,0.953105927393406,0.875866173575465,-0.593687054370325,-2.8933988757202,-0.0294890547217544,-1.2958696272738,0.785622003056923,-0.0572687923743935,-1.73675348071395,1.68024957136862,-1.82839949977761,-1.16044344342243,-0.100428844923171,0.0949223207922393,0.718846130133492,-0.228655387184873,-1.45985548391683,-1.26663014292467,0.0803470517166197,-0.00419401147907242,0.376712588361335,-0.700312030743328,0.261230111122131
26.645,-0.684445864717837,0.946779917651879,0.951785933530266,-1.08137932550898,-2.46957346074097,0.365164087390014,-1.39658418834839,0.999193962091858,-0.372373049792921,-2.50754734617299,1.70609710620539,-1.63485044990944,-1.08621106808546,-0.413708471560659,-0.0747168919395635,-0.109966080678009,-0.446697339142725,-1.66339145092189,-1.22566734376303,0.0836574220908703,-0.0296330076278134,0.340333166912188,-0.745652222146661,0.271382259361884
26.65,-0.513930099071404,0.286148300448169,1.28855255193588,-1.41358027467693,-2.07815041891179,0.163673214328819,-1.4183303426031,1.5844887756629,-0.212787339019502,-2.48868516587119,1.74081036820151,-1.40818250092488,-1.02151958134373,-0.645396132246347,-0.37837669897743,-1.28781239188386,-0.601394868892692,-1.76411114665634,-1.19703073719737,0.0999324092502929,-0.044322564573245,0.304376327812723,-0.759512912257749,0.28471810294372
26.655,0.19484489459686,-0.0908489126699631,1.73064495711761,-0.729482419082838,-1.69686897781776,-0.630811779301354,-1.39916887314608,2.1708247116884,0.421356587194549,-2.05529600907047,1.6709511025734,-1.31277331097478,-1.01436353287982,-0.669080790297171,-0.607923064562028,-1.85026279196534,-0.569639604458529,-1.84387871971966,-1.18530839420795,0.125188543671865,-0.0599316151484061,0.282570688360248,-0.722487338309395,0.294271736024998
26.66,0.383094935819551,0.219090487923849,1.5086038599497,-0.0920941552865845,-1.28252193198748,-1.13886957648203,-1.61368195000004,2.27164635711495,0.751292439461886,-2.60762234249996,1.50123665980957,-1.20759847562088,-1.1621930571347,-0.393906964934384,-0.935252664351085,-1.51917259749464,-0.328075295592723,-1.97005944933378,-1.17755581054781,0.136888912082162,-0.0695022199273825,0.316350559969484,-0.582917036974006,0.319093510510791
26.665,-0.320638124723419,0.310226431636806,1.10212098708441,0.0513702453691952,-0.870258665774983,-1.32137911574615,-1.93354585087207,1.36050670086764,0.270836429607857,-4.23847205460419,1.44399270278643,-1.0277674159969,-1.40141757131973,-0.0198765583127576,-1.07817146286063,-0.778043447577744,0.065149641536014,-1.99705199613847,-1.20817954909737,0.146923521076269,-0.0963521225286941,0.377222331445379,-0.420957995696565,0.341867163361387
26.67,-0.976805520269305,0.0528236425495337,0.744490283443217,-0.150123039077267,-0.616376721131859,-1.28440494121799,-2.03144652744452,-0.0303798606385748,-0.372883449671681,-4.96211393981462,1.58358927211771,-1.12972088431462,-1.7159188773135,0.503241589593797,-1.06025501497189,0.0148069048960281,0.41523548458506,-1.65383493470047,-1.21116222592848,0.13485444160693,-0.163593417967004,0.433693020374857,-0.178837071944413,0.349192674046052
26.675,-1.05087271771372,-0.17350552192639,0.599936605097932,-0.3496105021394,-0.600376055360959,-1.17462968895191,-1.71014311434942,-1.51457286936001,-0.790609657869924,-3.83194993769972,1.60207065524623,-1.47815778049608,-1.98081780689091,1.09151441987728,-0.820612376373435,0.744277510525352,0.742656596270249,-0.619975432824614,-1.19240005082383,0.103299962003875,-0.23745904028592,0.54051512965737,0.0402914324388197,0.309295960836193
26.68,-0.823661477796051,-0.0165398882110637,0.677592144023816,-0.490059498003294,-0.586619825441621,-0.794625662524093,-1.32224664624883,-2.02981896103079,-0.739239509036598,-1.87182583144736,1.54774905495802,-1.6490015139761,-1.98458428791796,1.26259624919776,-0.527573242667911,1.10032601812607,0.797606804566681,0.11011211129249,-1.14040377725414,0.060806127018956,-0.313717534393345,0.53814003151226,0.164367087469834,0.286986222489758
26.685,-0.775230572278428,-0.428040697066259,0.765490010774711,-0.685486121765121,-0.59197428778361,-0.632269439885902,-1.0884235149299,-1.79433803222311,-0.603534090596542,0.218410360748788,1.66242974045734,-1.52706222984328,-1.98759456622528,1.2441649683706,-0.0860787324201764,1.80489574864978,0.635868321859366,0.830666476357698,-1.02548961633282,0.00574271941655764,-0.353932028504307,0.499863283170705,0.169805331259181,0.229826178608755
26.69,-0.630369632764374,-0.242541671571315,0.834701564572587,-0.546755498186547,-0.54893270521787,-0.450812497161986,-0.832464224886134,-1.04340761997281,-0.340031968063123,1.86784188569566,1.7053359643465,-1.15000963848225,-1.8707181565304,0.915688514230478,0.175021646259561,2.36445509569847,0.352997969445387,0.926185651168309,-0.923958680830301,-0.0207886768600853,-0.351000445822377,0.510865347656683,0.0933848723302947,0.167527910217142
26.695,-0.516201602592697,0.0246579171745636,0.901166854416111,-0.475680297698367,-0.486571237795798,-0.291477429562229,-0.622297641037691,-0.242838338349762,-0.0505772619695262,2.60139317994559,1.63442951723567,-0.930290082731316,-1.50565480036972,0.154382420006631,0.177934030341136,2.73649218182291,-0.0905011844462879,0.676050003961574,-0.778713438558579,-0.0506759560127827,-0.362757995174825,0.585795171668988,-0.0255924641741937,0.120579581617491
26.7,-0.45240595559712,0.00389118370838608,0.966149985143099,-0.407948473044779,-0.362330999071781,-0.253466449290867,-0.614729489963365,0.340656756572999,0.0105825384661782,2.49707978400931,1.56439221986858,-0.851394430984448,-1.20319258739936,-0.517705600576024,0.1045248276972,2.55577345395498,-0.444972622943263,0.231796028699422,-0.700506831197599,-0.109414479136641,-0.329063462302033,0.71451912655401,-0.114891208220234,0.0682739078109015
26.705,-0.435706112431767,0.0263983163292906,0.955580773268198,-0.289315404475315,-0.183436474391453,-0.287314580316849,-0.621569845014719,0.687209070625492,-0.00535109989169521,2.0423035290475,1.46002523376543,-0.874927655040843,-0.933957912274043,-0.938794844252549,-0.0379760665599642,1.8041155666408,-0.64066600911299,-0.0916005107321018,-0.595403515270002,-0.120404708773614,-0.329378695494019,0.948556125676042,-0.162622483155865,0.0101767197828031
26.71,-0.460391470645558,0.121709758143152,0.90009510418111,-0.204267975629526,-0.094994572038217,-0.314078185685721,-0.643510609342625,0.723996249416685,-0.0393792454261087,1.5039648265722,1.37262736357898,-0.959210302243097,-0.675998312199429,-0.890686502538961,-0.232288312998386,0.48915558517186,-0.765921304768574,-0.273114748457028,-0.582858380734373,-0.131601423455665,-0.277346940153523,1.05951688891519,-0.0844925509476657,-0.0247612153891433
26.715,-0.495785337395757,0.0548692650077128,0.834125500026347,-0.079781802238729,-0.0656122464722712,-0.350753871168603,-0.685155907213062,0.59076557464607,-0.165588980330325,0.844115784720404,1.29323639058692,-1.00836887004406,-0.442629603939482,-0.610827204080313,-0.46799633397781,-0.957460149257764,-0.656301364014371,-0.165791201370417,-0.507796879258098,-0.18738955465989,-0.312139872217104,1.13045801376401,0.0424336107279971,-0.122701654380097
26.72,-0.480424042012103,0.0308179935011706,0.824966076845769,0.070936068151885,-0.0584846287300092,-0.369324158381606,-0.731854692250383,0.382367536708744,-0.212301172257916,0.622306168373533,1.27356739651132,-1.03887085160697,-0.247004603285377,-0.336895517233542,-0.70734748947363,-2.42061228843688,-0.199271493248473,0.0294652432593609,-0.526721471509768,-0.201737815354173,-0.286886593391143,1.12241028926793,0.213144017106079,-0.207273223048138
26.725,-0.481039702933078,0.0728404863560896,0.824205624673407,0.232175763486341,-0.0933515307961651,-0.371905773878098,-0.844200941556291,0.193114115349118,-0.25051959996535,0.557516794405308,1.32475886307824,-1.03351095403682,-0.188661733654219,-0.227488913642036,-0.779998987369869,-2.91862325711605,0.281003651175636,0.123311816368386,-0.591922963799277,-0.186353761448624,-0.278471606052345,0.969491854362285,0.377088302422296,-0.164036905784373
26.73,-0.497301047444918,0.0888812788528464,0.84650265567182,0.245319486919176,-0.15647309648387,-0.362226059604825,-0.992729056759203,0.157200069018828,-0.303212989820609,0.431557211187525,1.41774636558459,-0.963367917587946,-0.189652029365244,-0.144363718719511,-0.743130827050463,-2.86150102984238,0.822905754848997,0.131053785201024,-0.630362366158442,-0.123166604734139,-0.229696535565978,0.869373761200565,0.599317526012354,-0.0965515960105894
26.735,-0.493873783728555,0.0829571817246362,0.89664815978409,0.228394522361361,-0.211774309776755,-0.348764929487842,-1.09116367520219,0.230928538523121,-0.324807473750517,0.264661421240246,1.47285326031831,-0.848055067700646,-0.229955276004086,-0.0800188914525159,-0.595932484522615,-2.5432825531791,1.18317461888793,0.0767188150079913,-0.641919659287279,-0.0774726906386226,-0.176092421626309,0.851759037636676,0.821717513819498,-0.0477525262660202
26.74,-0.487944238494968,0.091624256256758,0.848614287085385,0.21674561261842,-0.218040577332366,-0.321042256604125,-1.10247964866884,0.261167122439915,-0.341303362347765,0.066890753428369,1.41809649158858,-0.717670431821029,-0.328574293703132,-0.0867717559069752,-0.400667002174139,-2.27936542656545,1.31778822325696,-0.0802573273139119,-0.759504030085781,-0.0446725044995912,-0.119493962526401,0.832508009854187,1.00846402392304,0.0134855315920782
26.745,-0.48655623210231,0.084549094424243,0.849606342817467,0.189833323390143,-0.221014424745497,-0.308038568579924,-1.09651064924069,0.24765329140511,-0.395505325860239,-0.159972496038045,1.2824608130748,-0.59170324103703,-0.488554868597908,-0.147303083527469,-0.198479573661144,-2.33548585384433,1.22787277510218,-0.396844615730739,-0.886645045730742,-0.0306338795188352,-0.08507269889674,0.921894052651132,1.07249481162465,0.0677687812235903
26.75,-0.515132755751818,0.0802615202977782,0.853490421102723,0.155816186973261,-0.205627858141787,-0.294759115479874,-1.07121068265133,0.199296301408547,-0.457574684854203,-0.335284414122975,1.16632521549933,-0.500141626917928,-0.624725835832082,-0.200951516750875,-0.0612771558159992,-2.64289161137172,1.0007479893673,-0.783994005910366,-1.00266925817038,-0.0161376397985552,-0.0443026047158007,1.07580050189747,0.995345397744566,0.127403176844249
26.755,-0.53281445915818,0.179286771334388,0.851600584081485,0.0697830442768105,-0.191948170043946,-0.296160727739334,-1.05118271577825,0.124185360827437,-0.470907101784395,-0.298932353561629,1.09352326412773,-0.406546103334325,-0.705395277592369,-0.210590926013071,0.0612345237145032,-2.89961986216402,0.703645018144825,-1.17087030820329,-1.09348191144841,-0.0285588631470564,-0.0394830260630941,1.20439321350262,0.818069184008571,0.164763159820466
26.76,-0.529934142087861,0.189516471466224,0.856829391482558,-0.0288304573217744,-0.191336054387676,-0.305892534534445,-1.02675946322205,0.106174648218721,-0.448770242820522,-0.159734839645847,1.0380309890147,-0.371386349535196,-0.768132304706421,-0.154111692170585,0.214495257562312,-2.80994321088416,0.549639377185873,-1.27479149956123,-1.15557286492508,-0.0772694540100771,-0.0687940459300776,1.43576094005614,0.554595501103606,0.181890236413558
26.765,-0.521293115176367,0.135911384063155,0.853809726392608,-0.0982953258933709,-0.209398515698277,-0.339661676993464,-0.976780291075715,0.130417092952828,-0.454363050473892,0.00513807406329437,0.967435916784283,-0.369971559084477,-0.858744309397654,-0.112156291989427,0.316235609805698,-2.54213032242454,0.448376952182942,-1.26411694910255,-1.20964871867206,-0.0604166384898832,-0.104637922913266,1.56706135596462,0.420285085816511,0.203160002476859
26.77,-0.516636759033709,0.109717750075315,0.85656508980361,-0.11290169692476,-0.231531024317848,-0.361229700029697,-0.914483338380267,0.152932642747571,-0.446988324555003,0.214830286411649,0.873497290985728,-0.389577797840528,-0.987051396502752,-0.120678540472813,0.418542340549667,-2.23338908648071,0.37398176685226,-1.21986773248836,-1.21645147819973,-0.0691477517520593,-0.122929834225383,1.72111677200797,0.275631360101451,0.139776924906583
26.775,-0.517125622610683,0.089465561930763,0.867256325810183,-0.0829065371213003,-0.239242935294869,-0.358043992996937,-0.871997936109235,0.153194266089177,-0.414575695024289,0.402761649723088,0.808523195571886,-0.406545245481369,-1.10300183751322,-0.180536974973827,0.468142374388384,-2.23287649769517,0.346439138498563,-1.23141888146206,-1.18867298973457,-0.0841260409244096,-0.106778253230654,1.93365508739494,0.217373492417232,0.0768396940661414
26.78,-0.507329453778928,0.126095395485155,0.864491932627949,-0.0780476776539645,-0.220567710604925,-0.340478537794935,-0.869970354597798,0.146664010487752,-0.397992168803812,0.586394578326871,0.743211206739586,-0.417099283879453,-1.22954071619133,-0.272170209376369,0.520729502567228,-2.55858618300603,0.355897598182699,-1.31095182114232,-1.2518410521886,-0.114562112204327,-0.141597510025577,1.97291081897016,0.0957303906532522,0.0968291867676757
26.785,-0.503864493876983,0.128375406659243,0.860439688763339,-0.0453015855858009,-0.205636008889191,-0.331304371766141,-0.88001538587077,0.170566544823921,-0.389946224738897,0.779448009470113,0.681034476783158,-0.429094080597135,-1.36415239612025,-0.335419315354447,0.544837947500663,-2.98633667009399,0.366293162540266,-1.36949476774753,-1.2297881765681,-0.124293772827464,-0.119215397137371,2.00137580141786,-0.0543065353212992,0.106700235389759
26.79,-0.503929937882697,0.147208143356456,0.866415532336209,0.00455078109386284,-0.181462778622998,-0.325987528582616,-0.90796626122612,0.215299605534258,-0.376337562012313,0.964310880985171,0.631039673149919,-0.458733028208826,-1.46554473428911,-0.337128612605633,0.548946239079214,-3.20006080384111,0.35078581070431,-1.36278044590954,-1.19951290414586,-0.141572619506464,-0.108059098558442,1.90545485223516,-0.0650326559823188,0.129230751559079
26.795,-0.500423870446729,0.154436054943765,0.867432851718343,0.0195472658778017,-0.164762603501532,-0.315442411531195,-0.935241921431593,0.270404458525257,-0.362297303549814,1.0661430897789,0.584661498728912,-0.51768623738241,-1.58037253425789,-0.289108392313397,0.523750809117921,-3.15568443397369,0.313907747436931,-1.31363034157534,-1.2208599072778,-0.146873747165681,-0.119029298723054,1.88816482635738,0.012142743708333,0.121425034600153
26.8,-0.497196682186542,0.12761387666594,0.8641371460927,0.0571548405891724,-0.149561550359282,-0.308158275669073,-0.962542097314968,0.302532876106755,-0.371612988998041,1.06232362080728,0.549921580065487,-0.563127713975437,-1.64227053440754,-0.232565671927982,0.48215951438082,-2.82305128434085,0.277779369981951,-1.20354657566166,-1.13379447949746,-0.166146524918188,-0.14260876174267,1.92539114043832,0.150158016746078,0.0549257104077616
26.805,-0.507908580739775,0.118045533863653,0.874823802493889,0.109942385840871,-0.134414424673224,-0.303396367673959,-0.969360790897242,0.301913082946559,-0.378938806517573,1.00056423113556,0.502660866216597,-0.594575039263765,-1.67912618801153,-0.123080496707947,0.416458967825251,-2.22135651780592,0.235691847100362,-1.08064249347511,-1.10446530594239,-0.17117947196228,-0.159635314138468,1.94688549338696,0.289559535918797,0.0730891525745392
26.81,-0.50480908280766,0.120281980223645,0.884856200303426,0.107653763528311,-0.11650399122074,-0.290646057113461,-0.963257672948523,0.274518052504684,-0.371072241703956,0.900307002041514,0.473861256508974,-0.619863468062413,-1.66812174883573,-0.0338673016518806,0.393737021701073,-1.5745680256255,0.198063805073413,-0.924462245586001,-1.06225016919845,-0.16061999655549,-0.16739332798399,2.04621463217736,0.317153544571064,0.101224897020224
26.815,-0.497298056339329,0.123468720392159,0.887769845904397,0.102610556986753,-0.104987967856805,-0.277612816259721,-0.970525467869892,0.236484952773886,-0.362119451812508,0.76903151517775,0.456849034866713,-0.643410006019843,-1.58073240153434,0.0412940038833437,0.361650165847548,-1.06592425298212,0.155902587068231,-0.758242468723773,-1.07370453821859,-0.13323412412899,-0.160516872459986,2.11717724107273,0.305905157041589,0.12797056632772
26.82,-0.49637623303334,0.114422377504787,0.892827351508409,0.0768996724530211,-0.0932108251941114,-0.267888032375574,-0.983491539828222,0.230191863495861,-0.354058218287565,0.660267992280462,0.443083074444261,-0.637036096636002,-1.4526911009456,0.0571775837154967,0.329066648639765,-0.66937790292775,0.112809148672069,-0.59013860915002,-1.06094989246006,-0.0763185817470129,-0.154682661569374,2.03206185777442,0.255023248994963,0.131708556381489
26.825,-0.499457293779431,0.111322224681858,0.887141971097774,0.0117573055982095,-0.0793256505403877,-0.2545240921013,-0.998496386999938,0.236453674342092,-0.349648920279727,0.523378528370328,0.425490337530232,-0.610304705924269,-1.34344031885361,0.0518801407192805,0.296314358125424,-0.478630208011091,0.0843304326216562,-0.520854957579116,-1.02676955266418,-0.0366324136392742,-0.154449442291506,1.9789897697606,0.21501385494061,0.131696689420374
26.83,-0.506917741746031,0.106320493540691,0.88625966779431,-0.0469309333691936,-0.0545199488166528,-0.242760226609792,-0.99777153941747,0.240978468927112,-0.34003632815685,0.381830111093558,0.402565863964197,-0.570578021788165,-1.21836235232022,0.0435374466953761,0.256068618763601,-0.296773651132275,0.0644019614327294,-0.458064587593958,-0.996063420899559,-0.00568998354042968,-0.16091854537822,1.96386008824557,0.176348199348689,0.143640383748632
26.835,-0.507168053353198,0.0941093344562841,0.88451555628979,-0.113961853093354,-0.0239371249172242,-0.232470949759865,-0.988213914239253,0.240891674399035,-0.341056405038898,0.222935149379026,0.385723959813559,-0.52832514247453,-1.1333780012361,0.0348871784195572,0.201534216790408,-0.210873858546953,0.0667301573572154,-0.422505213843993,-0.994158025047701,0.0164605509999709,-0.156966538209161,2.01812305563702,0.172660930422222,0.142753588513616
26.84,-0.497068461178745,0.104390637021656,0.883474460697197,-0.166889520919704,-0.00320382931888015,-0.231826430152098,-0.97039985319247,0.234088207892377,-0.327293576401745,0.0562661624045089,0.366990259262206,-0.472744312793039,-1.03264053987052,0.017057892144949,0.117517139216024,-0.194757864341249,0.106448969996394,-0.36690393662947,-0.966127079991023,0.0429089231762627,-0.165587781396446,2.09544939439034,0.182595615584668,0.137696395318691
26.845,-0.496782556174762,0.126011044530419,0.884809734213059,-0.219881120642096,0.0104845885790386,-0.241367503411857,-0.944791525486856,0.220226224547625,-0.308699511750075,-0.0291468236250075,0.361785748305976,-0.429078580968852,-0.97130633111587,0.00340183308742749,0.068982465035996,-0.218661470520525,0.147146055540152,-0.325781487972961,-0.951832581062512,0.0677595078871275,-0.154018462638971,2.17716404152843,0.2115512895536,0.133370924903637
26.85,-0.498301807163724,0.10697236209434,0.872905204231992,-0.281634219927311,0.0194522185217967,-0.24362787604332,-0.923744812783554,0.206001899006718,-0.305778078237692,-0.0649887074528578,0.352783325906049,-0.396460358709881,-0.910493498753002,-0.0067518920637686,0.010894445007525,-0.275370825198653,0.195107843398679,-0.277606188720204,-0.944601311073595,0.0783119717291222,-0.151096088057625,2.26207562332747,0.216018511594255,0.143330355491072
26.855,-0.487051404102705,0.0945223596948342,0.871902129798446,-0.294750056970367,0.0255791817034886,-0.256256397050721,-0.909716169071673,0.187655312887952,-0.311382336437397,-0.0609089886427312,0.35440033834255,-0.34753342763414,-0.866848908207903,0.000433011033340912,-0.0369998254977126,-0.348172764626019,0.246564395700217,-0.245745823071191,-0.92634627877791,0.0889413981490889,-0.144090322278185,2.28503290948069,0.226561051401239,0.113412549149494
26.86,-0.47657202838059,0.0999143051473729,0.869716373222344,-0.302767831081992,0.0331196963882565,-0.263313316157872,-0.899575591173447,0.158187636013128,-0.311108111771235,0.0257944934639161,0.347250536258146,-0.303132509072847,-0.843114106459066,0.0269539379205155,-0.0873130347315055,-0.478395730360954,0.301646017086504,-0.224037609614997,-0.906584175089522,0.0986692456202547,-0.129858644825631,2.32522948964997,0.261312842583495,0.115546982270444
26.865,-0.47824171776301,0.0727949303844002,0.860014880796552,-0.277648899493135,0.0419858988282133,-0.26073157787323,-0.909293470538741,0.128875631767638,-0.317882861338885,0.156091962807232,0.338550314027475,-0.292683989370535,-0.820307351521327,0.0573852606056251,-0.118025709445619,-0.660643694868809,0.356162669416795,-0.207474204003429,-0.897165079712305,0.0836654499928855,-0.116766051242782,2.39076716013304,0.322090827111002,0.128541218255105
26.87,-0.472614433529224,0.08182781720892,0.851191785557887,-0.238440155739255,0.0630382727993075,-0.261700038806265,-0.92599821104925,0.115303630981868,-0.321277525973628,0.281127103154736,0.325784927472362,-0.289427561522018,-0.805911635733148,0.0708799971042391,-0.136491967183396,-0.831280770755047,0.396392033335854,-0.215572111724461,-0.880694229545138,0.0755703703744118,-0.0996398172082294,2.4634422554333,0.364131382361223,0.151861156893771
26.875,-0.472916246411629,0.0823860290075172,0.896068214401314,-0.192457935113785,0.0506719393672848,-0.247766294487178,-0.940744097247053,0.110017086077092,-0.32363443954667,0.449277802958417,0.30793751271803,-0.308211260603435,-0.795354319622222,0.0870112871662439,-0.144867739000494,-1.02196144692766,0.437878976623137,-0.251157055310366,-0.87582471447787,0.0546701123290931,-0.0982769315941435,2.5547685859616,0.441373581096315,0.220840995307411
26.88,-0.495309514788766,0.0552554011271772,0.859049476051546,-0.150314104654079,0.0787865346686491,-0.254347408502505,-0.955834450020777,0.141340301446528,-0.329688832409101,0.638734008362742,0.29704633869845,-0.341704350285401,-0.794677675365652,0.114080456237264,-0.134071787831632,-1.15701742038763,0.464801989134502,-0.293966859514645,-0.863462657304895,0.0441735043449526,-0.113425002805008,2.56491841123662,0.461895011449822,0.242895496427867
26.885,-0.458055268717197,0.0964362022203302,0.853096311665125,-0.100089135145779,0.0907241308303131,-0.247490085027723,-0.959175663625019,0.175870483377095,-0.300683610815343,0.834234588160606,0.284803649637789,-0.3765468753691,-0.808431135554752,0.143905766562318,-0.11001283109693,-1.30660192721808,0.487903235632141,-0.336650620594942,-0.851161203532363,0.0327853081855972,-0.135875709291479,2.61510560644207,0.478771046360009,0.261783882419593
26.89,-0.489636785965954,0.0659787903685855,0.864287104003547,-0.019964517626163,0.0665341559728391,-0.248766838990258,-0.951859260621065,0.194477360780202,-0.322848439284764,0.926114409656807,0.272958952567136,-0.393832772624802,-0.826196744980116,0.172566340636437,-0.0700683454829406,-1.4391625983414,0.500067485145068,-0.373877730332898,-0.861976452502447,0.0272179966183246,-0.142160112536578,2.640063633295,0.448764644804773,0.265196918564755
26.895,-0.483342309546116,0.0875841161903621,0.842064407163595,0.0524332267469665,0.0684940172897841,-0.249892159852017,-0.928131041786646,0.234524889836963,-0.317982127907685,1.00821294154835,0.255247532531362,-0.398106831340499,-0.859010779779911,0.184439245678393,-0.0298589350300677,-1.51545218228923,0.498606959399894,-0.406579152160468,-0.859775696458935,0.0289259825572653,-0.160670790408493,2.63193205470371,0.429211340807488,0.257561593190091
26.9,-0.457414668566824,0.0778826612461121,0.866261376377927,0.102092673555049,0.0515710514024527,-0.246945993583577,-0.911398917331743,0.233963799864951,-0.286370471634031,1.03371591567994,0.243739823904788,-0.407280677556989,-0.893737812806204,0.202017180084173,0.0237694696149531,-1.59625910978612,0.475996856885599,-0.462856664904674,-0.850829925343163,0.0395447022210329,-0.167287284199227,2.67585788243461,0.417903985168097,0.252946151290086
26.905,-0.473478003371549,0.0385614407452814,0.84036350779571,0.144624011736428,0.0539070787902863,-0.236029227627648,-0.909443718694993,0.220870043899438,-0.29325721731508,0.989765047731809,0.242689828867057,-0.408692172754484,-0.928790113506294,0.206063691010642,0.0592400476578527,-1.66966272490777,0.451640015537492,-0.491673839949268,-0.850459120041964,0.0395627728158655,-0.161748930099038,2.71538165534656,0.405433930771534,0.217378878955017
26.91,-0.48635955326899,0.0363433620547584,0.832169640266835,0.230259244396835,0.0337910634045034,-0.221532586629341,-0.904113184456083,0.200999283360593,-0.306162004800628,0.927251447744136,0.246670590112132,-0.40331175553575,-0.964573823788756,0.211015130471817,0.104331562838731,-1.78220828224686,0.413902517853894,-0.506030528861691,-0.852932014181579,0.0375244100363109,-0.166154452519398,2.77519446488202,0.405694452707854,0.172449623765386
26.915,-0.482410276729158,0.0665396044991756,0.8511480569355,0.268266272947293,0.0410589593925676,-0.198366119138144,-0.909085803484972,0.190007228135362,-0.305641997170321,0.858314010711097,0.257092482270809,-0.408004947363473,-0.996192843511299,0.206867713394746,0.15148260415849,-1.86059617084607,0.387200923223625,-0.508608107356506,-0.840498535544233,0.0429035913169449,-0.156012038130435,2.80782680221585,0.44782048524913,0.14249074416733
26.92,-0.459245586887176,0.0276239337423826,0.844646283274475,0.321188236971005,0.0467076674603636,-0.157827798709256,-0.922100296750432,0.19651176708256,-0.278930742718131,0.816390942535064,0.26685751673012,-0.421137172497535,-1.02536829628992,0.208374661697379,0.188520516504794,-1.86967460827488,0.355376255562842,-0.496877866072144,-0.842308301565379,0.0324144671427837,-0.155920923848481,2.82302337272859,0.502804522909134,0.0814785405545148
26.925,-0.435270608399559,0.0375989122943603,0.850378238950803,0.399909698868686,0.0680285060755774,-0.10769581792886,-0.936321741178944,0.203578368486597,-0.248870081030947,0.75770550692779,0.276458535621768,-0.431503375013369,-1.04919605096906,0.230384149873378,0.222415076805518,-1.85579573446937,0.323587805699487,-0.464784552162907,-0.854893808918826,0.0317981146174164,-0.145605671100302,2.81108789217585,0.510596336687857,0.0126805247654235
26.93,-0.471671048289531,0.0545660862924856,0.862649280277607,0.457361680835393,0.0649488197501282,-0.0943258366616676,-0.946277795379969,0.211227314557348,-0.249790617376889,0.678998265177821,0.290244687572908,-0.433046644667036,-1.06406996023035,0.253937918590289,0.241355142471929,-1.81099483614807,0.311542594041697,-0.431099313500504,-0.848172793471547,0.0291028510964438,-0.150564539722426,2.78481790849153,0.513542459877384,-0.0243575522302667
26.935,-0.500857088303908,0.168347696057287,0.896156145249036,0.385326660963999,0.0529549241827935,-0.0947693254852953,-0.932602451374372,0.223432329013413,-0.23523629236038,0.626255050149166,0.326699628667172,-0.450959038531816,-1.07991664296457,0.255584046930188,0.255993580466045,-1.7648943448592,0.299697638180362,-0.367745865389219,-0.852932048395896,0.00909982973894958,-0.145909416999437,2.78096935404597,0.511060177660963,-0.0723426654361714
26.94,-0.488212672351577,0.244724508121624,0.906736000780433,0.207128285764986,0.0378226381142176,-0.130815897539541,-0.917392130850391,0.247395336171036,-0.199085471031932,0.626087728209368,0.385200766072285,-0.471696003718012,-1.08192586509863,0.246503194606465,0.236749947663099,-1.73849030382452,0.300862108381605,-0.318661333531679,-0.851327417969464,-0.0109051746390121,-0.148209383122424,2.79647021979206,0.514315314738542,-0.0841497417824442
26.945,-0.470759982755869,0.215100987110983,0.882568088049937,0.113585784457148,0.0226396970135689,-0.161028879849127,-0.912260217831161,0.283352529451135,-0.197645829462037,0.596646990791717,0.449389620520182,-0.487757013141433,-1.07375005366584,0.268283638836865,0.199318205921243,-1.73462880822001,0.301495351214614,-0.208157675504576,-0.835286254326859,-0.0200136819976334,-0.141552533665045,2.80551126736021,0.543934653296853,-0.0942829996347427
26.95,-0.480508481045785,0.14544512737738,0.875051543517751,0.0750898501206118,0.0153463837623708,-0.195630901980325,-0.893021137185616,0.311283358245267,-0.20838777406819,0.512341460369095,0.492848201833248,-0.485680263225349,-1.05903009832515,0.292429652151849,0.158217562747263,-1.79560680666466,0.310433160845266,-0.0963673039926406,-0.829643092175675,-0.0274053609044454,-0.138794759704733,2.82086995530407,0.542614054369412,-0.0970033036816677
26.955,-0.501079256350866,0.139577594414873,0.860464281681735,0.060615382985799,0.00790471254774109,-0.224872366356239,-0.865339919750684,0.286788180794221,-0.23235264983044,0.431676679505373,0.506718659060495,-0.490063232886769,-1.01780083963792,0.311132695648665,0.101337016789979,-1.87749341822091,0.325635077698084,0.0516377165647249,-0.824482926693217,-0.0380998964347725,-0.147018489038595,2.83693576388976,0.530783469683411,-0.0893142697514565
26.96,-0.483685008448055,0.111899125108039,0.859064696860672,0.0234125528858094,-0.00340883587714918,-0.265040510239781,-0.861210290752999,0.244394651185315,-0.255021714986811,0.380322827445983,0.53010442052577,-0.51160509847152,-0.9928345361361,0.325227487750929,0.0606748298794487,-1.87422367207771,0.342196319112573,0.163067739463221,-0.804023434662533,-0.0435144346830619,-0.15222681996622,2.82729339599609,0.54102010958246,-0.0851210934613183
26.965,-0.468353126889902,0.0919577053419181,0.870098029287479,0.05711786724195,-0.0190318122414754,-0.266013165862511,-0.872050424517944,0.193264333898876,-0.25556218130107,0.370992344291337,0.548893964443514,-0.536722141790138,-0.95767843440353,0.347198120117694,0.0350781876516495,-1.84728709053958,0.354100584602426,0.265829449962334,-0.812739252232958,-0.0434330424199412,-0.146319909355138,2.83520986576059,0.522136967759641,-0.0930537554483772
26.97,-0.491830183058254,0.109546434005073,0.865635969060512,0.124044993516105,-0.0254638058124196,-0.251105064587199,-0.892311449304465,0.172232370643327,-0.257291423184437,0.407748554774466,0.577204468439394,-0.569620490815191,-0.920043467400002,0.348927063052472,0.0194309040088993,-1.77940351629302,0.372493123793819,0.340129632981473,-0.777399838509898,-0.0327221674608876,-0.155752415794402,2.83859928607569,0.492167355447857,-0.0653025134868301
26.975,-0.47503544109766,0.192376120371834,0.878142362711889,0.14525570668663,-0.0423057685380043,-0.244553803727938,-0.909840902720435,0.214975219205286,-0.234878855386705,0.476364707758142,0.641451489548115,-0.608688937004418,-0.88675376295305,0.330981021443586,0.0297534550234905,-1.70552791577421,0.38540279013018,0.39053183170164,-0.77247322308467,-0.0262370960956161,-0.13720851772984,2.85089932441713,0.52310477740423,-0.0344283423296047
26.98,-0.475281700846279,0.223790894607301,0.88088803312917,0.0760481835532132,-0.0810720166511875,-0.270698011561268,-0.907446174322341,0.257507908123277,-0.252711098168461,0.48679747291634,0.673831218439544,-0.629598078110916,-0.853716180960489,0.309823538481643,0.057207184322737,-1.64653172400237,0.39734259029276,0.384810898714618,-0.785650444899344,-0.0341664232153901,-0.146590674531233,2.9169977863833,0.487936742706968,-0.0326174442057868
26.985,-0.499740273640536,0.190010849619092,0.864418587287571,0.0315066825150149,-0.0997621411325272,-0.303354414723929,-0.895916827634073,0.285125355967567,-0.291765724251923,0.453229413975821,0.679269958612009,-0.631028019030158,-0.831611427835577,0.295370386498056,0.0851300964961206,-1.70719759231901,0.380751863603446,0.325766124221216,-0.777686955663572,-0.0241469952464907,-0.125363818728492,2.9246674008987,0.452659083719015,-0.0161852028727826
26.99,-0.506108683989378,0.158205583138136,0.86262290459688,0.0030866810518896,-0.114098934741307,-0.3283057132956,-0.87691514329443,0.27789041405004,-0.329052617368996,0.41471987708574,0.667980258116926,-0.622799103519025,-0.808847973645618,0.257328851533079,0.0925980452824676,-1.85611473409841,0.345747850295573,0.21633353574149,-0.772369385758959,-0.00848540858385379,-0.108908239255513,2.88326323969906,0.423476032291703,-0.00693856599054195
26.995,-0.497264728130332,0.145872147671832,0.858291339665295,0.00049289125076707,-0.13663839860159,-0.338030052535948,-0.855372810587921,0.239875448816329,-0.345081671189821,0.391066546861193,0.669844125142279,-0.632491277868839,-0.794858044620691,0.201460350549445,0.0759770575780345,-2.04062611075383,0.32022981053783,0.118763631682903,-0.777409794029889,0.00744122686473057,-0.0930189592977548,2.85317923548701,0.392851202332391,0.0166608742153362
27,-0.486017656449974,0.131043500674517,0.849861160284092,-0.0201420352973764,-0.157568767453575,-0.34683071830591,-0.854262651040636,0.192886485923367,-0.343697799694407,0.374306995982504,0.67083441611715,-0.636771463234601,-0.778937247907265,0.140012962746433,0.0506912307200553,-2.26017435031869,0.299551464473809,0.0664637008961072,-0.800130371621774,0.023425658909175,-0.0927787417384822,2.78781414889839,0.333872336602369,0.0141477048610593
27.005,-0.482655463040752,0.127365424659194,0.850750317881793,-0.0436495322373112,-0.181228065409021,-0.34718528585007,-0.864067927670068,0.154021970484243,-0.351446788649322,0.352792781303576,0.668609955770426,-0.643383881586141,-0.773600704800371,0.0959886193471411,0.0208327137913102,-2.5039753290797,0.288624435907635,0.0434742696144882,-0.799720685914583,0.0383982989462774,-0.102308680198924,2.73949727158049,0.296098266383999,-0.00460193506187833
27.01,-0.496584717729902,0.102237250772642,0.858319533450303,-0.111936678219087,-0.19645327936695,-0.362207025386341,-0.8854304296316,0.131459058408206,-0.372780243640006,0.322281745251064,0.664998213471665,-0.62791909833574,-0.778155938909726,0.116039600439342,0.00128520882128408,-2.66459877483621,0.284075518782467,0.0367899908376955,-0.854190007327213,0.0541123216160014,-0.106273814462863,2.70367849897467,0.283885292797481,-0.0234352431405514
27.015,-0.491844307777497,0.0931179790452241,0.854451212197341,-0.116442204869936,-0.194675861029397,-0.334435144218262,-0.894100468715524,0.120627464457773,-0.400167705986753,0.313376933336258,0.65950812347277,-0.615146772756301,-0.810739484241464,0.178589615474854,-0.00634185826091426,-2.76631458726968,0.302136147541305,0.0377651709931563,-0.881085890209013,0.0739643124569618,-0.101709569365238,2.66487292245088,0.216801089053309,-0.0197650362069242
27.02,-0.48122856738323,0.0726415096581735,0.866663731816942,-0.105522123777263,-0.19519760412286,-0.339332849634833,-0.900460651799228,0.108620658165297,-0.401780929979479,0.31647479871381,0.644300903927264,-0.607519675347424,-0.840561842847298,0.217331989975791,0.0134230441580737,-2.71469702752871,0.304296341716909,0.0524081007241088,-0.908273223828108,0.0905828566109144,-0.115323680857283,2.66908349395971,0.200779499020531,-0.0218942222407002
27.025,-0.478677697566884,0.0676304469778626,0.872623553369546,-0.109222720643798,-0.181656247002259,-0.33818965372095,-0.916002245621209,0.0876730077318622,-0.385884163856286,0.334006965352739,0.645522362377834,-0.603132247924805,-0.874493488525206,0.2466963729259,0.0486347658074728,-2.5868724758591,0.305127604452189,0.0576639187539988,-0.965298839747095,0.0996766915998743,-0.135874603305936,2.70087542240178,0.197838817438809,-0.0123877920818833
27.03,-0.459317126155959,0.0838914381852595,0.87138638052908,-0.0906194676402049,-0.171860000662033,-0.325450636648384,-0.928107238725488,0.0776104592769268,-0.359151480730956,0.375048555054696,0.659465062255183,-0.60788973518962,-0.918166067195767,0.24670206398987,0.100242251592411,-2.50651253392581,0.297773855279295,0.0572296438100759,-1.01269306933355,0.100322230305312,-0.124089245503686,2.74756562727412,0.190089572488795,-0.0203648640199159
27.035,-0.440278654931591,0.0740489443739256,0.867504729538118,-0.0554375900673842,-0.166783747024433,-0.297060717512675,-0.934510604417022,0.0673338711475949,-0.32059983914256,0.425482714442897,0.673634989543768,-0.609119199420295,-0.960706001667259,0.217333470655084,0.142672669334877,-2.53064100826716,0.29242197490294,0.0407398401838976,-1.0575481829106,0.0955891492225627,-0.0997126942242005,2.77482834353656,0.192204664271875,-0.0246923094840004
27.04,-0.449044449958707,0.0773783465219482,0.875445226799781,-0.00879763905641595,-0.177354321848683,-0.28827121153872,-0.930797322253677,0.0680923618173471,-0.314561054754114,0.459406650195898,0.681905775289097,-0.599832570761596,-1.00302973363567,0.181044508056852,0.155354551340043,-2.59338984689651,0.299087133105272,0.0173010473740521,-1.08319594690574,0.120782044869791,-0.0955046707245358,2.81837113055345,0.176418956219887,-0.0545221457365208
27.045,-0.476933329936923,0.108202614890795,0.880287994392942,0.00125575014339445,-0.181422611424675,-0.28525422408046,-0.9138208710086,0.0754064680626869,-0.328364840638528,0.481531266448797,0.690634099004325,-0.580994921685768,-1.04181094747423,0.139837966152394,0.150536147952218,-2.64477411782977,0.299059143066405,0.0385881674880585,-1.11311361672323,0.114920640315891,-0.0818256960859086,2.83743239596887,0.159427852194509,-0.0714595807744493
27.05,-0.478316828550131,0.122391857902614,0.880667761479972,-0.0240666098978153,-0.172604182120429,-0.28153403095556,-0.896647769683293,0.0780689643022345,-0.348521876398154,0.494214500807629,0.707277319877155,-0.563178934605114,-1.05667356198097,0.140980283280735,0.149364218095952,-2.58740334465333,0.277522732274452,0.075078603189561,-1.13138557109944,0.101892509886268,-0.0857666201163772,2.90070752360788,0.119346167398789,-0.112496112224187
27.055,-0.447401150426034,0.0642731721608735,0.871017774583528,-0.0353018743771165,-0.175013914704323,-0.29133155925626,-0.886893853320332,0.0729865284458737,-0.358934139658254,0.551144527547698,0.722255648492769,-0.545578671223289,-1.06406935191574,0.176453507443553,0.133355580674141,-2.3950415058248,0.22829773905592,0.120611249333067,-1.15850172017759,0.102611933345159,-0.0895543468331184,3.00832560369045,0.0809996655845262,-0.164046163828004
27.06,-0.461995087528659,0.044127209846125,0.878297598527469,0.0250052365389533,-0.171758837818329,-0.293580665231225,-0.885113533194529,0.0434546661631083,-0.393169120439121,0.565624022416038,0.72246115354768,-0.539282274212322,-1.0632670294173,0.248053404073362,0.105193590889957,-2.04602418909677,0.199425398081191,0.129172834218248,-1.13928977299644,0.116463348960797,-0.0711262504218878,3.03561900926415,0.0761833805353849,-0.177340477755773
27.065,-0.473400822394922,0.0516938556845723,0.881515168964508,0.0563667309177847,-0.158741692558946,-0.288245275402101,-0.888883426974542,0.0150119981948445,-0.416927489856447,0.551607370376587,0.722749284680041,-0.521982528897123,-1.04606801781473,0.292735459441689,0.103702427988747,-1.81855532424075,0.203251772270596,0.138859870747062,-1.13758480525806,0.113237199521136,-0.0573706697611027,3.02467193154648,0.0804387871753325,-0.18099003354448
27.07,-0.463157011685307,0.025152612551426,0.878374790302279,0.0562107055481396,-0.150372630604261,-0.279564148423547,-0.895282906260361,-0.0136421813801615,-0.426677737233429,0.550654229229871,0.722716235192131,-0.515586220295738,-1.0155675365085,0.289123770567979,0.130097172924856,-1.65259588052455,0.229019935074964,0.139415607594003,-1.14835134715212,0.104314956072724,-0.0487342696612356,2.97786406458938,0.0828851378814538,-0.188353478908539
27.075,-0.459452325907338,-0.00131229316784549,0.872882905188556,0.0838211953444003,-0.132852481617921,-0.259654070835941,-0.915292575835135,-0.010595385898236,-0.439261839764294,0.545057279275458,0.715010258626858,-0.531453770945196,-0.98603737402296,0.256552980380696,0.172684046621494,-1.53599437188993,0.273197005946274,0.110427683047122,-1.14995587269465,0.116714344184788,-0.0515933050352378,2.99537278423659,0.0799710304208632,-0.204229662468354
27.08,-0.459751326037907,0.0192506470861742,0.884112956966493,0.123399698072312,-0.116120814579185,-0.236095091694563,-0.915421252686255,0.0131151488413124,-0.434208824609856,0.533764653947644,0.717555272719119,-0.54497360542088,-0.95959682737089,0.21379635562312,0.222362273837441,-1.46763019161614,0.316813761102378,0.0890870934537493,-1.14472282529397,0.129582279371242,-0.0607214587513755,2.87530819077191,0.106719762300829,-0.201494049405633
27.085,-0.453182338522133,0.0443467354772835,0.871694775323218,0.139269856795348,-0.0986839313414439,-0.229334673380208,-0.913196869973939,0.0461810358598996,-0.428335080686151,0.537526400121391,0.718509264807328,-0.548093054702095,-0.937995435627114,0.157426576945002,0.269975480889789,-1.43598285081737,0.374400608283357,0.0923899366680706,-1.15484307094717,0.137047381593328,-0.0632507038338418,2.80591202816371,0.0933911858171709,-0.199299999279875
27.09,-0.452124678062402,0.0806010526599692,0.882583652767033,0.172291838853028,-0.0977561378129314,-0.219737130193742,-0.913231593513856,0.0844676112155349,-0.449061577456694,0.525511166268278,0.70189690342839,-0.529780514855058,-0.917034826444919,0.109693571629047,0.278671325977663,-1.47483640256315,0.420307143468504,0.0781876232044621,-1.17470645441202,0.165622098892598,-0.0933898504581639,2.70525667222444,0.0670413541014021,-0.18807426203483
27.095,-0.467629330000185,0.126625980290701,0.886874289853294,0.174760921171347,-0.0789520659668087,-0.202640036600125,-0.909352726898856,0.0945851294894189,-0.469089635510261,0.498697708182647,0.676117928431349,-0.503346088342358,-0.901619917064624,0.0909735399442679,0.256512161578021,-1.4858216235031,0.47710862122418,0.0236013450547464,-1.17755616309055,0.174262595067936,-0.121669723142379,2.65503345914241,0.0431517197592875,-0.178588590285609
27.1,-0.457748098580685,0.0774849379619768,0.879167366770175,0.142270562057168,-0.058665869524056,-0.215025777149265,-0.904007636521625,0.073265965513867,-0.482485842315836,0.483765538846107,0.636401019140467,-0.475579929160188,-0.898976889648637,0.118983356296959,0.246055730826855,-1.38683057048192,0.518874133352679,-0.0164343320045652,-1.16875742725912,0.192069525425288,-0.137968266849388,2.64713542360285,0.00109615392570341,-0.18865699652855
27.105,-0.463192425314108,0.0424207968736094,0.877071316580567,0.145655316557226,-0.0393033712155947,-0.216750591993332,-0.904729907479518,0.0429891589910396,-0.50726450184451,0.475862294435501,0.596863904826643,-0.470546714978907,-0.910159965550029,0.151830261146641,0.222183239671485,-1.32161742746498,0.584036422236165,-0.0279840075989451,-1.1670732514345,0.195681139398567,-0.136216160357601,2.62393497988087,-0.0433238962082458,-0.184774403068209
27.11,-0.492819044272633,0.0618618132484511,0.885114727479158,0.158792440238863,-0.0366682552869228,-0.217719646450428,-0.901276214935838,0.0211955969407764,-0.53073295243122,0.495836440692192,0.562782391737202,-0.473772140051162,-0.920669335753789,0.161875610263861,0.195391443681451,-1.32640705458411,0.637416089967017,-0.0396178474455753,-1.1716011431505,0.201926847613051,-0.12990017812842,2.5982298273976,-0.0976738916726509,-0.171666645936956
27.115,-0.504438115903676,0.114504156009519,0.88070811194032,0.137432474592033,-0.0358514073368531,-0.234020323397518,-0.893362452497756,0.0195730753703141,-0.532439128432642,0.529169595810736,0.558554434187647,-0.483444906814295,-0.932607791036815,0.159910561623506,0.186403923880938,-1.29665910895924,0.677527467018712,-0.0756200718610014,-1.18621410789675,0.196463321671017,-0.118449326271981,2.54988558380853,-0.154868937504147,-0.167575079968472
27.12,-0.498061924047203,0.103115596261127,0.882639825480901,0.114083810777672,-0.0360209478303273,-0.246893179725591,-0.894522053940239,0.0692610428544998,-0.545479006141142,0.565527486109319,0.54844830034119,-0.483598278869262,-0.958389427146042,0.162093301959733,0.175047699930158,-1.23715002405232,0.71179533756821,-0.146388054496066,-1.196318719069,0.185133674699467,-0.116919018647405,2.51113724613507,-0.217722414682534,-0.164226863903443
27.125,-0.491348055470839,0.0800198852063957,0.880481903085097,0.106845477409397,-0.028875562603892,-0.282472776501568,-0.892890086728172,0.097754117039394,-0.553862603612924,0.613427138913581,0.50764615914104,-0.47198216694636,-0.976782496743035,0.156530302208213,0.180549345820021,-1.17223553169388,0.726090961938368,-0.219428047034154,-1.22617665882586,0.174673558107043,-0.111537248185137,2.48162334466082,-0.2682230575682,-0.168170675940949
27.13,-0.471655042196276,0.0703684835512571,0.887672008966937,0.0976393075503506,-0.0213829396386429,-0.302426249107329,-0.897477422466013,0.0844163287270281,-0.540710684910639,0.662628227027346,0.466611606473231,-0.453371684428925,-1.01319669996911,0.161877473204572,0.203048078165425,-1.06771247961619,0.741432840112689,-0.300416365669527,-1.2490405711644,0.165844309000812,-0.108039330032889,2.48476992375071,-0.289665616356457,-0.168534066874224
27.135,-0.462092599039811,0.060437183402753,0.892199734806824,0.117922003508119,-0.00211556981312958,-0.327285369906241,-0.913397464773244,0.0595778796600024,-0.526179240855679,0.704720706834187,0.444533903408085,-0.447816424931372,-1.03965266099438,0.163744251056583,0.228671487114567,-1.02992651380017,0.753000725673603,-0.341615192416758,-1.28576413530151,0.16684095950318,-0.0830002838529384,2.49856243113094,-0.305034725390269,-0.167545074520895
27.14,-0.45914281610003,0.0836207708094385,0.879154067204228,0.126457983493523,0.0115482278365339,-0.318978342327557,-0.918951422136923,0.0387739065874597,-0.521606430408007,0.723722097515965,0.422640021468002,-0.442063697971032,-1.07477857148819,0.147319340520847,0.256347428202885,-1.04831056378312,0.759349417555932,-0.373780912746365,-1.30729344642088,0.171774261438746,-0.0698360070723636,2.48162731758796,-0.311667314828376,-0.161179948662458
27.145,-0.47334092625251,0.0667243881969032,0.880785030233644,0.133856116201355,0.0211373409619205,-0.328238072671763,-0.926985110953974,0.0160713951796943,-0.551782522935697,0.768828204754745,0.382015243086044,-0.434985782929466,-1.09311875070748,0.143517596356734,0.269266898667016,-1.06395810482326,0.762703923570232,-0.413457280813729,-1.31902750848905,0.181692031066322,-0.0672067050296674,2.47778827398134,-0.315437672291631,-0.161442725922215
27.15,-0.470402197803915,0.0486092141997006,0.883908413553116,0.14729388758709,0.0457395224061264,-0.323290407105356,-0.921017535491478,0.00459227746673648,-0.567385292973046,0.839175284812055,0.341777761485795,-0.430873334407806,-1.10700485624539,0.154207294693733,0.273378650386582,-1.05008752300763,0.758577037115393,-0.46182095297948,-1.32596513585615,0.188647974027259,-0.0697758226421712,2.47701674606586,-0.304480885436477,-0.155438672252548
27.155,-0.464272438080148,0.0423900682186467,0.888237373123576,0.174114494256751,0.060169839325132,-0.311143242962499,-0.923084370357315,-0.00702040671117228,-0.566411700708977,0.91476026437511,0.312247268902501,-0.442339753161045,-1.11354322248242,0.175021074398448,0.287686907889878,-1.02213917202584,0.749248027801514,-0.517457019359462,-1.32599189542112,0.203058420268882,-0.0676334352180939,2.47060846322852,-0.309802635660716,-0.144459665513162
27.16,-0.457197262209674,0.0600832953150686,0.881274456183873,0.237447800160179,0.0766040121662687,-0.285629154844348,-0.921341003771266,0.000188486123597963,-0.563412889403626,0.973090696350744,0.281618330664972,-0.461066153541359,-1.12077744979026,0.189771518010858,0.297592288840444,-0.988295204535588,0.74892100258535,-0.546495523491116,-1.30595830092716,0.218913684337133,-0.0576844866216658,2.46530535347241,-0.288290537972681,-0.13120264695398
27.165,-0.445520419756953,0.0845782644571786,0.878114335594406,0.260032708796104,0.100359270148675,-0.250178435759402,-0.927729832469633,0.0212931899040271,-0.554375554905965,1.03064422178558,0.242299694446733,-0.477555677230707,-1.12758599134643,0.207701247063446,0.303693705320193,-0.928543672483219,0.75174482721397,-0.580912115795815,-1.28587629649534,0.234074875616625,-0.0407431485523009,2.45590418693751,-0.269576862983209,-0.12605001085232
27.17,-0.455220426887569,0.0718143950581312,0.88219061687826,0.297106438260137,0.138469780624286,-0.215465399456014,-0.932202901515696,0.0308784067663804,-0.54035023747386,1.07584458098426,0.193178622403414,-0.48883418115916,-1.12895157151701,0.201556651378511,0.312207872793949,-0.877707867812642,0.754432367710826,-0.602837000244415,-1.26141326259508,0.248944227655379,-0.0224906842877743,2.43822935203691,-0.255261436011079,-0.125429686170248
27.175,-0.452689198778344,0.07916184444503,0.876156467821916,0.35033605856505,0.171642073921765,-0.170415824680417,-0.930059863429616,0.0228658912375986,-0.522946970462517,1.09957701648874,0.148062842794039,-0.504481110746795,-1.12524987325986,0.188170835076342,0.302177085656717,-0.867257142836598,0.750496113426704,-0.616352476475851,-1.2492443467849,0.269502518366583,-0.00332988979692473,2.42904377098395,-0.262293341137853,-0.14315077662468
27.18,-0.465650882175821,0.0878905952123401,0.894180694617023,0.395140223724398,0.196855794892561,-0.134097318172657,-0.924168906656254,0.00595616414482989,-0.526357994894492,1.12929121533225,0.102155445243631,-0.518746471630588,-1.10808534746163,0.183963003722982,0.280458724432994,-0.869355996431379,0.754504133102644,-0.63269949397386,-1.22131608128302,0.270211965498225,-0.00629731070651141,2.43753111728935,-0.272225588777028,-0.141970741792194
27.185,-0.478193157857082,0.0883546899013782,0.895604538314435,0.413197065168904,0.219027394074644,-0.101630310525461,-0.919380478259644,-0.00410478212272454,-0.511917552397996,1.17632173591372,0.0698432845942988,-0.539379307641644,-1.0915016541695,0.202215169889274,0.238247259079037,-0.849975887517972,0.75717391702864,-0.638201790385774,-1.17969565192146,0.274570886975064,-0.00451847764580865,2.45273813491889,-0.242796943701944,-0.138264000415802
27.19,-0.480942931751971,0.114492564418907,0.899487205145438,0.401136342626913,0.242437907900728,-0.0837015420707482,-0.918804521242565,0.00493488483481666,-0.494828900323865,1.23191984219915,0.0555238235806266,-0.559322143783939,-1.0697815436706,0.229206696822486,0.187533159338102,-0.820663230207615,0.753500101923747,-0.639980254530711,-1.14298666829091,0.263791662074486,0.00266220934690039,2.46536766224499,-0.214267551789083,-0.131841009731361
27.195,-0.48245493644225,0.150235333390216,0.888707636473096,0.428148071740372,0.249408040248991,-0.0787539966091738,-0.918149963196215,0.0284932164948042,-0.477252181619627,1.30815384313384,0.0362914150824497,-0.572890206964575,-1.04678681070015,0.248737723679511,0.140644534840196,-0.802745677559406,0.756591441369478,-0.635662009932391,-1.08347996040221,0.251180131169917,0.0258846186874486,2.44607766610076,-0.146053965497035,-0.0979198138652914
27.2,-0.485339771394746,0.148967086252645,0.895564615188495,0.402577446658726,0.264568899307885,-0.086014082376177,-0.924060804014681,0.0502864006613026,-0.469350926711224,1.37452772053013,0.00313586379447094,-0.584077233539587,-1.01932663759931,0.256157214696993,0.0778580600059101,-0.834208551088382,0.758117030903261,-0.627399887856415,-1.05517698674807,0.231863230678551,0.0474292915613988,2.43146457722258,-0.0912061741724529,-0.0887855077804026
27.205,-0.461199292661778,0.158527333645655,0.905856779989168,0.379558340769798,0.286971103801864,-0.0947709346601616,-0.934740033320544,0.0601617428013315,-0.460851032811011,1.43820578974988,-0.051446752933952,-0.58847188949585,-0.99497458398472,0.240068298924247,0.0291117268607977,-0.885864826614513,0.756553518736126,-0.61859976049638,-1.03400352048693,0.189883572483871,0.0533170312135287,2.43883717093819,-0.0868096691784724,-0.0870381823100117
27.21,-0.436089448297264,0.172061014842611,0.942705648411364,0.36390915433388,0.31400285532266,-0.112951277994357,-0.969895315306956,0.057093123051219,-0.465250104865342,1.46871536349588,-0.121020303405556,-0.578003087542218,-0.957152088773288,0.180987741250587,-0.0107717650417966,-0.994828323148032,0.753208585232054,-0.613402375020458,-1.02966982924855,0.138165696965472,0.0292480675068243,2.41956414752054,-0.12661453497953,-0.0668041129696864
27.215,-0.416904234336087,0.213036939015496,0.983144979400689,0.359529265843017,0.34736077513125,-0.132908445661368,-1.03463463639215,0.0562384567141344,-0.509920065922469,1.44723530538232,-0.187012812876891,-0.562103203406123,-0.919927235166629,0.102647330124524,-0.0456249605846207,-1.15304173265306,0.75041651065243,-0.635056543475493,-1.09248366228856,0.0602883846308237,-0.00766585932681123,2.4083670012723,-0.216339615943085,-0.0342822498823929
27.22,-0.430690958930357,0.290314957308196,0.950567710397649,0.315298584853277,0.404650977358965,-0.149445766622372,-1.09035442984698,0.0561506506371224,-0.542726524296117,1.44629800657078,-0.245961517085118,-0.538948363902495,-0.911067688371554,0.00716629784629795,-0.0878917501240256,-1.3794542056366,0.743933332132267,-0.696625698414836,-1.21584647379087,-0.0699651342249919,-0.0630004452838575,2.43583911665124,-0.311552013845707,-0.00779869784085036
27.225,-0.439620220229843,0.291282595042663,0.896051931697839,0.249555201461701,0.465283915822344,-0.172593183810382,-1.12374202693921,0.047853525928887,-0.579665307576165,1.4329673206582,-0.310810823304376,-0.52848532822154,-0.921272677185974,-0.0861520065707577,-0.151730394994627,-1.6609985090239,0.729644725829543,-0.812695760453136,-1.38593594664818,-0.207036876272545,-0.128724728646109,2.52870775551199,-0.371416788894061,-0.00259210259678732
27.23,-0.474059001339331,0.25329231700083,0.853124986327909,0.204071834667617,0.511079297133522,-0.193162571683433,-1.07347178186573,0.0341288367832276,-0.621525659153365,1.45123245501824,-0.366440033612625,-0.525212896870623,-0.967109813338086,-0.153658135632548,-0.228016750560325,-1.89756864722795,0.712465268448636,-0.926988584399269,-1.49826337405799,-0.340745925177741,-0.188058542561174,2.69146828793509,-0.407026317782489,-0.027715786094504
27.235,-0.554121337564882,0.159010951077925,0.830873239165364,0.161906637996247,0.539731187459401,-0.238573333579031,-0.986174707352009,0.0134805757830593,-0.657128245004022,1.46649643947218,-0.382168732334869,-0.502207579116297,-1.03798688386811,-0.215065019257998,-0.301897213539847,-2.10923522817814,0.707733217317833,-1.02332418201609,-1.47289911717635,-0.416580920662619,-0.223258927433982,2.8261488442063,-0.419924256732947,-0.0466537722456617
27.24,-0.577805866770176,0.149348654629623,0.834946021139218,0.170439212279451,0.539469706438247,-0.322347755533981,-0.862833546547162,-0.00279292319820861,-0.618314220186971,1.61831508848722,-0.292643046925294,-0.464452838927916,-1.09271701901675,-0.231304981679467,-0.333288236063966,-2.21080502581933,0.712713699430648,-1.06105265934588,-1.27338507192935,-0.433028848679031,-0.258613951549412,2.89805253386498,-0.527127357299794,-0.0572226111734431
27.245,-0.58886257568962,0.172428084839414,0.833708765542434,0.171303555369377,0.517693509555329,-0.383234912024521,-0.84321711748166,0.0209887294250918,-0.570243551640823,1.79898666993661,-0.274043308401116,-0.391522829394288,-1.16464019139647,-0.23985231727577,-0.360876044658616,-2.30879673432382,0.724810082885898,-1.0718731880188,-1.08993436295674,-0.412553448695418,-0.270269274250821,2.83540013153432,-0.646238010729117,-0.0368843410879337
27.25,-0.562017005418152,0.18421715734671,0.857599507078677,0.143204659930739,0.495991277110984,-0.469936118512018,-0.872748476926893,0.0283634946632021,-0.569010910158346,1.96401542158925,-0.34635348484465,-0.303335516850514,-1.20950055840921,-0.235919511985891,-0.377762047099132,-2.40469916225836,0.728775069171653,-1.06354023283517,-0.979398816532098,-0.392277866504657,-0.286224860166959,2.67324909246586,-0.769124360476156,-0.0173468911926523
27.255,-0.526124706162189,0.13409076332865,0.861083310270542,0.105721717029482,0.519426494962535,-0.521629956998174,-0.886309156698588,-0.0195097403372289,-0.54906598911356,1.97206103730726,-0.340770789560088,-0.212304818951014,-1.25253266120848,-0.21226614780509,-0.387884994401168,-2.61664009689018,0.735606946054558,-1.03165109465612,-0.943471083482451,-0.365394712696253,-0.267490846234312,2.46572670278808,-0.804672533438465,-0.0173142507788166
27.26,-0.517447076403056,0.116158142854393,0.886469798907961,0.140493674962168,0.538607294910929,-0.586519840513593,-0.936694351673175,-0.0399596348007237,-0.487661189950539,1.91841845000099,-0.321610477873584,-0.17559259855149,-1.27111960279238,-0.19006854391847,-0.405062879400054,-2.84246686213381,0.728220200813768,-0.980961336002763,-0.950374491664568,-0.343759138816251,-0.226568145995045,2.21157474218192,-0.710901260748243,-0.0451623287673235
27.265,-0.526813331037466,0.109408867794222,0.908133780506929,0.175354253953903,0.570446866738012,-0.679596896612215,-1.00126877591364,-0.0209349236273596,-0.475110831057344,1.90751574553028,-0.388511344852445,-0.145919137623336,-1.27556153016001,-0.168325743514519,-0.431561218088481,-3.00232367666026,0.72346952551436,-0.954344570514194,-0.974742889710583,-0.304628974531005,-0.197477992326482,1.95456526154509,-0.533011384694917,-0.0844660207790041
27.27,-0.522247292370894,0.163121247031063,0.905320107983976,0.27234653844598,0.614885249023814,-0.730628128079479,-1.05193380752748,-0.00814443312511282,-0.506616209346286,1.92073273805717,-0.506775365558336,-0.0941461420922706,-1.28372920866006,-0.141922527542975,-0.472459039180101,-3.19395493442795,0.701435343714198,-0.926956545202673,-1.00888877575979,-0.258885108068446,-0.176529752835855,1.75466377958452,-0.314799481531221,-0.140023074802474
27.275,-0.543008015735587,0.203929242284242,0.892213729881011,0.34020046543568,0.662635679959513,-0.780731028946363,-1.06776685509894,-0.00845515695032554,-0.513956061302585,1.91864907732789,-0.558139317704783,-0.0572194414459406,-1.28591045249259,-0.115614868481193,-0.504403034859608,-3.29311523128066,0.689426045182961,-0.912822986006643,-1.02046617540189,-0.215623892059996,-0.154563820051571,1.60345382510139,-0.146502988187697,-0.169978318874346
27.28,-0.574400003862973,0.158713569022838,0.894217771985107,0.446303867323721,0.723720516319589,-0.911541571406248,-1.1070714769065,0.00657233571839132,-0.53505719840945,1.91913583507139,-0.563039852489334,-0.00821406474470617,-1.28929993683566,-0.0797209382894243,-0.545075746016579,-3.43596102253733,0.702249745263097,-0.871781998758551,-1.05235960657611,-0.16759045784387,-0.130250868729532,1.55032508032957,0.00144950345078812,-0.208463252560139
27.285,-0.582189790847736,0.183734612675105,0.897588705361031,0.492702676231003,0.784854049532259,-1.02878674455749,-1.12633902714005,0.0539647885351585,-0.554356421261527,1.92357039451599,-0.570426930504413,0.0579779297802323,-1.30524479868136,-0.0540261997788781,-0.548006045226534,-3.52084951819665,0.736486727555172,-0.831106789601575,-1.05420542931032,-0.144514818132826,-0.111430864601548,1.5777894211077,0.0363170349151178,-0.220049195854058
27.29,-0.605482895041055,0.160777236463367,0.920565913987287,0.561746049363982,0.837269474031402,-1.19580143755976,-1.13520786272351,0.0584120677557049,-0.581053732120467,1.94739495897209,-0.572964674512879,0.120210811818784,-1.33008984674352,-0.0415518126972629,-0.545917565217133,-3.55542690108314,0.795898786747103,-0.788474092295218,-1.06730295618019,-0.138591316201568,-0.102735030851862,1.62974371828895,0.0419529114022346,-0.243647667977813
27.295,-0.597282427872616,0.281768544747506,0.935207571099145,0.706429340370323,0.910098684431248,-1.29831019311285,-1.15349796039933,0.0572274878154677,-0.576235554843209,2.02220243271585,-0.56532462427567,0.163522378677265,-1.34550273886835,-0.0308727056548562,-0.537785931468376,-3.5832629552724,0.848821269286764,-0.731758093499998,-1.08025686864696,-0.14099308657839,-0.0874425949288336,1.67168690654328,0.00868988445892078,-0.264152343099201
27.3,-0.609897516116901,0.277516620453664,0.881068969207825,0.83701886428307,0.998129982881234,-1.38074261285104,-1.23718359814288,0.118887126413153,-0.618919526594919,2.11085319190369,-0.522508157868074,0.243707967772254,-1.37197277857115,-0.0286037785633613,-0.51231188707028,-3.60208191145543,0.914241017661354,-0.677521672109954,-1.08715285160745,-0.13648090274528,-0.0627164717503736,1.70086837401757,-0.0812487652439431,-0.282149556233335
27.305,-0.67760283964331,0.386757430602241,0.900108550280895,1.09438177194832,1.10114536209007,-1.47008407456751,-1.27385845448797,0.225769400449964,-0.611681883067454,2.29414975130126,-0.489331039186023,0.372605233209383,-1.39502012888851,-0.0311575626584046,-0.493192925384511,-3.61245025484185,0.974929741934723,-0.615875008733652,-1.09533464886895,-0.131566269839487,-0.0544864870546001,1.70793424556039,-0.153466463726403,-0.289801928083116
27.31,-0.662982764932841,0.501179541297884,0.891592741372904,1.18818471341133,1.13915455282808,-1.61242143607846,-1.23208197430997,0.307766172120362,-0.559197451681445,2.44683399148162,-0.451837577035768,0.483476271289001,-1.40177470217235,-0.0322922552570806,-0.469213065158636,-3.63209712834125,1.01954311603077,-0.557405104510762,-1.0760283230413,-0.127830924075716,-0.0602021657764563,1.77125250590098,-0.208711595694808,-0.279096776464953
27.315,-0.659422439254978,0.397007714955931,0.862339501813678,1.26557769294655,1.21467453515339,-1.88620412947069,-1.16342207828401,0.318437859369839,-0.570870822955684,2.46256493016681,-0.411084354734952,0.547568909910969,-1.39930703727217,-0.0222069472954615,-0.441646852918524,-3.64808863534037,1.06361738189915,-0.469421176896228,-1.05954761565216,-0.127546564287051,-0.0674116296948647,1.81814422071971,-0.221921936406252,-0.26288978597452
27.32,-0.679996939824814,0.28903253487838,0.881416645153165,1.38974451401535,1.23368214016114,-2.07001474195384,-1.09115855969414,0.266374935563197,-0.552348987536027,2.53012855905753,-0.352144412042597,0.580510997134141,-1.38868277111982,-0.013106510197172,-0.396834351020019,-3.65871919471968,1.08424283815529,-0.392990068950071,-1.01084694544908,-0.123590464456441,-0.087643465154761,1.88158119196653,-0.239846438523442,-0.258541277778632
27.325,-0.67118236905347,0.198749301695424,0.780397646137691,1.57921825216976,1.28535492428917,-2.33930070325257,-1.03634959739976,0.208794294919134,-0.543961472902948,2.68374234585365,-0.284179586098826,0.597383337050185,-1.36696931895483,-0.000397795650914659,-0.343642545462,-3.63937461056027,1.09687918470703,-0.293932354290999,-1.00051792759993,-0.125705381288525,-0.101321897943689,1.92325736781144,-0.219477874946684,-0.23720482218288
27.33,-0.662492328241914,0.252547520596427,0.764296306875521,1.84710392837252,1.41447251012954,-2.628907349611,-0.989546891415057,0.213482188237406,-0.529600885397967,2.99514391863046,-0.217286507647469,0.645335889387323,-1.3389552177773,0.00940733937869161,-0.274719882215412,-3.59676772164608,1.09586995798848,-0.18971899642804,-0.966650648939859,-0.143356593803693,-0.116882149846057,1.91189075688684,-0.187974350380816,-0.236938894798575
27.335,-0.772389691884304,0.340582462192299,0.994521276140576,2.09820015074867,1.26212740335686,-2.76310626944902,-0.941812328747299,0.318518611927888,-0.517230839689739,3.29095501608267,-0.173360406286846,0.717517362868776,-1.30944143571859,0.0117593744386075,-0.198012270722632,-3.55214714984483,1.08220960851264,-0.114319978786311,-0.942647069686663,-0.150555531324815,-0.125066378682787,1.85203557148762,-0.127673441614833,-0.248194217021363
27.34,-0.774722457352705,0.0102690304507908,1.14333273016054,2.31926391528306,0.916585273155291,-3.23682859877646,-0.909807944460924,0.421092456493265,-0.494590950929968,3.5662197724495,-0.133618687748663,0.820737687845839,-1.25619568956599,0.00287844672770019,-0.117046281316997,-3.40051192540346,1.03092924753674,-0.0307374974474595,-0.921215424553694,-0.178355588398381,-0.12241899681275,1.76431911359546,-0.0794303153501634,-0.241827676252449
27.345,-0.835869472257195,-0.135473064367208,1.33691156079168,2.57510167985173,0.45883997305239,-3.71139133558518,-0.878631509703712,0.486872416969487,-0.483699976108357,3.73630787840513,-0.0973844326526843,0.953851498027693,-1.21412684241547,0.000324012870634347,-0.0657933288106692,-3.25350537310959,0.98903789423305,0.00829869673311585,-0.906598811559792,-0.202323204942042,-0.1242773976392,1.71176770546172,-0.0350476483428459,-0.234265498048507
27.35,-0.934595631602846,-0.152878880455452,1.38800399882497,2.7030691780092,-0.0562507160743232,-4.20366605541622,-0.838296467909605,0.489412391612322,-0.520374791409001,3.75348150641021,-0.0332991821495541,1.12931274501027,-1.15655799942095,0.00238396030459548,-0.0145532658166933,-3.0774587939548,0.922955263575223,0.0522266861948959,-0.889907727498478,-0.229394472491882,-0.113396040804268,1.66218654188212,-0.00784184679059359,-0.235682736989626
27.355,-1.15973345287889,0.355774419403761,1.33888608829718,2.53964485251592,-0.491735471408474,-4.50383088696693,-0.822167442660273,0.394621586299301,-0.58301045786985,3.69435270349439,0.0147491478681473,1.28096711892537,-1.12685653546206,0.00350518482257034,-0.00860748522212307,-2.91241447265955,0.864951937629479,0.0865670206096402,-0.879954140560711,-0.235817058913218,-0.0905273957453311,1.62881703727361,-0.0118094544867012,-0.233544110225019
27.36,-1.15884205351949,0.474092513943436,1.26822077427882,2.22767199450663,-0.83770863821484,-4.67175665028804,-0.835333707685568,0.233902575352606,-0.588391199567375,3.81580155721741,0.0548314131279281,1.38334601723058,-1.08337529251189,-0.0070184813660054,-0.0236322438911621,-2.75484503135683,0.819005449157834,0.12790606268939,-0.874032638680974,-0.253870138373812,-0.0909519810756678,1.644573521776,-0.0264737826315829,-0.216787760023323
27.365,-0.901947438688432,0.232300813453134,0.995863292888771,2.11961826723165,-1.1149042219849,-4.96579834682768,-0.858290407766517,0.0899100901723678,-0.532986640333836,4.08064775383206,0.0710725801488649,1.43330537082166,-1.04649745691458,-0.0139812671846751,-0.0369316612748266,-2.60156945143203,0.782120440850535,0.181769628258524,-0.864056020691575,-0.290442395690643,-0.0849542277669268,1.67217322758505,-0.0167092946412118,-0.2085192842119
27.37,-0.658606882656519,0.103462686219484,0.752482680569102,2.23329138598175,-1.19670927909775,-5.21319892535367,-0.911047235136372,0.00996865399630307,-0.43944047678228,4.75553561608479,0.073714061925185,1.43818566602488,-1.01574433115189,-0.0223486791593437,-0.0583130410326791,-2.4471209171501,0.748431189385346,0.26955464234137,-0.874022386886265,-0.294831821120399,-0.0741946065854131,1.67858550235297,-0.00874594408140845,-0.20393578236765
27.375,-0.527389882193378,0.0916656018891929,0.522520302510863,2.42816065368748,-1.08658565697766,-5.37663315851024,-0.994617361124321,0.00706955848108582,-0.389050684759257,5.43477275248109,0.0662502944469452,1.45345795378365,-0.99630706994233,-0.0460080264324558,-0.0921979942036538,-2.22507572955421,0.730880186450066,0.394533886644012,-0.871685478276044,-0.300556325103869,-0.0829588864578377,1.6849998855469,-0.0349590831150116,-0.19203879909285
27.38,-0.629555238463473,0.189130203254498,0.473783878744042,2.76185297777518,-0.909641899117325,-5.54682741726961,-1.03500794063424,0.0301781207179705,-0.395372570087288,5.79643886434329,0.0683101936756787,1.53736972408557,-1.01895619979004,-0.0538207772502016,-0.104188530795317,-2.04628940477274,0.708851247811072,0.487502896479456,-0.871988643929354,-0.302335049885553,-0.0898766284851868,1.66083866680313,-0.0806268380241467,-0.190518032290907
27.385,-0.739895812091806,0.323532185874073,0.529475192432125,2.95080748244565,-0.853982890353375,-5.61647311006822,-1.02289476501023,0.0310595218285887,-0.42199758877572,6.06054774724384,0.0825822462637051,1.65211484099039,-0.957363701066584,-0.0522319674521511,-0.170607029965275,-1.67970466477859,0.791243538458462,0.700302081194416,-0.878311233876654,-0.301385422262265,-0.099597787642202,1.64047223288787,-0.127746958882901,-0.199335746101448
27.39,-0.806468679943047,0.39297805538016,0.590024102880607,3.0759003671137,-0.843280792236328,-5.64297390118143,-0.961461659741184,0.0166227228365057,-0.456873004189658,6.28387984357284,0.099290921226015,1.7563439342405,-0.900077626408492,-0.151538900577572,-0.262742937521693,-1.67637238374581,0.93590912079265,0.788285867097724,-0.876554751017188,-0.294564378392489,-0.10027204350929,1.62177805667711,-0.180727341021543,-0.210963893364317
27.395,-0.780096147815715,0.353386296402104,0.595880220067359,3.1506307279757,-0.849857749356122,-5.63461451373163,-0.872249076701285,0.0187777981045853,-0.468964160788461,6.56836736425625,0.129469727529995,1.85343335506898,-0.995047609926692,-0.185894555561978,-0.127973020618196,-1.59867837139093,0.845363194670937,0.683269339839297,-0.859467818229129,-0.298365242789068,-0.0959219636097441,1.58263299885346,-0.237497777301639,-0.223716925771489
27.4,-0.706161237649586,0.309083070723624,0.544981330733701,3.24095235911032,-0.851966769601935,-5.61971992860642,-0.807486189882917,0.00128518516877316,-0.415249144374305,6.86563823777503,0.164101384271653,1.99111938740109,-1.04374854391533,-0.109456557566069,-0.165086531866286,-1.37800446007481,0.818315925517755,0.900352670612906,-0.862830447135004,-0.288400552507479,-0.103749605353006,1.56296861493284,-0.288804841007785,-0.249294196668479
27.405,-0.601536813692025,0.236531379079433,0.491569036823368,3.33224577780346,-0.809696728418105,-5.58955975516993,-0.78283673343799,-0.00765034357531228,-0.346168470267633,6.91527627188754,0.173707280428635,2.062082356521,-0.996713955349198,-0.145113651019128,-0.211523274719772,-1.30523326580432,0.82264949586294,1.22187229040905,-0.856914696730644,-0.284420508104145,-0.111551389909148,1.58070572733184,-0.267910848802653,-0.272871071722941
27.41,-0.515228208626637,0.160158722279002,0.483968767238289,3.41770665736528,-0.733171355061509,-5.52098753164145,-0.788317455655438,0.0383470701616255,-0.313478146793035,6.82184158118369,0.149404107488038,1.93785562478874,-0.945264755431587,-0.195243110453053,-0.218806399938293,-1.25072021297875,0.812852640308671,1.32264816761017,-0.845264365745508,-0.282648883278175,-0.0959848560058886,1.565386174506,-0.207766700939944,-0.295191452912456
27.415,-0.50038317782065,0.174070186142071,0.510959804915881,3.4561932242713,-0.60989556952004,-5.3731010207409,-0.798125664447918,0.01997372035581,-0.243369784355168,6.82715207931827,0.157965296368873,1.85635859988541,-0.930618707757515,-0.166040737217019,-0.270149959749118,-1.15353688440369,0.874955226054519,1.35370579985424,-0.843038402347007,-0.28171378923478,-0.0894712986373315,1.54810044832289,-0.161661448878471,-0.303202602063753
27.42,-0.497813210165156,0.205903898707954,0.54443481738769,3.40671815249192,-0.543427161045673,-5.23100188602436,-0.785220090288537,-0.0643547260493178,-0.218116413830851,6.64813836809004,0.157883514890399,1.84692735480237,-0.887096430317849,-0.147793497284588,-0.306223320299886,-1.26800232578003,1.01625376978875,1.44444191123347,-0.846836876883265,-0.288306124222721,-0.0871935818171908,1.52173325685911,-0.0993924494224567,-0.309762175107886
27.425,-0.481242458120679,0.212516139021023,0.549073273971161,3.27196523846374,-0.486175209114953,-5.05782938577761,-0.768313847622886,-0.107263159258007,-0.193798946905017,6.4784021472339,0.143351478854871,1.77676551860684,-0.84776573307203,-0.150532837183109,-0.285628961282696,-1.33839845856043,1.06479952591124,1.36092250281327,-0.843449898608588,-0.29416607985472,-0.0804779859130234,1.46334685641631,-0.0570434704605467,-0.328215304780076
27.43,-0.434828575955408,0.205749313210499,0.528575991913472,3.07115236587328,-0.442043838584072,-4.88243020899952,-0.754133551308327,-0.142166941871777,-0.146360075300202,6.32131447586818,0.135886877775192,1.71610930778942,-0.864091555895224,-0.104316523439238,-0.267389498483914,-1.4228348168552,1.08504468897899,1.18594065879191,-0.856250677093769,-0.306314319945107,-0.0979540624493348,1.46403900744978,-0.0202224650772354,-0.334079752272526
27.435,-0.371661238994941,0.198659854048311,0.494468627780337,2.84535921715757,-0.3888586564783,-4.70746295223729,-0.74167954389675,-0.169974106924741,-0.0880383409712738,6.09190604970711,0.122945279526615,1.63482205718829,-0.88637963380523,-0.053238541939584,-0.255757517822675,-1.57897209683279,1.06910903830108,1.12097707462097,-0.866723202903067,-0.329758639986516,-0.113807579996527,1.48459137093735,0.0259484413179528,-0.356870705638189
27.44,-0.307308636135705,0.20402281458125,0.489570074226048,2.57327892938549,-0.295146052587692,-4.46351197111458,-0.74733617272687,-0.140566112698384,-0.0301341613234219,5.64198917242247,0.090368753392356,1.44136163764392,-0.871779624091752,-0.0298681452083981,-0.22107188393047,-1.77792558032558,1.00320619933449,1.08001216619778,-0.873947305864837,-0.333696227254386,-0.108861474571247,1.51049753628623,0.0743585150255739,-0.377321697597007
27.445,-0.280774409730349,0.231293927334191,0.504216738349246,2.36480041272743,-0.197804499118004,-4.2390359726981,-0.736984440640073,-0.133354476164227,-0.00692168105390111,5.12790408202682,0.0769411204185092,1.29893236784642,-0.835349403470807,-0.00986245444674672,-0.197627321750328,-1.99506839152203,0.930485735407544,0.969691900737995,-0.883582765358126,-0.339560196224136,-0.0981303675383196,1.52614722112476,0.0731079433053065,-0.386861586955204
27.45,-0.264022075847809,0.273298040490849,0.483154874820318,2.14733134885142,-0.083573117405975,-3.97970686433725,-0.730229576450729,-0.149865511833374,0.00362250469316112,4.58152636730487,0.0596545816490982,1.22625647965057,-0.808030526910071,-0.00223392542092813,-0.176316952646741,-2.20263034851315,0.876822949313822,0.848088187339085,-0.895288344838671,-0.348594984642584,-0.0943348524997568,1.54354211293296,0.0564091547361936,-0.403601304084509
27.455,-0.246281538508297,0.30748394160977,0.507716512513043,1.87561133789757,0.0627420125718001,-3.63634283084854,-0.719569414040232,-0.175044779890454,0.0138403002233252,4.1195129129117,0.0419276135915464,1.18851613740076,-0.769056308490055,-0.0163887135225487,-0.130224594299459,-2.47122981946252,0.78323650599406,0.65049644460141,-0.900093698124746,-0.352637306297686,-0.0924033323512789,1.57131156086821,0.0553808647556376,-0.420435531929541
27.46,-0.249373681091431,0.318335707547655,0.555112468082222,1.71894810356837,0.158959680696025,-3.42098359585628,-0.724001972145062,-0.204362810695986,0.025723646415811,3.63332396852176,0.0107635067665689,1.17009355956022,-0.745732561448918,-0.0338770780201641,-0.0986301861863426,-2.63328973767639,0.680573733321158,0.461349462739441,-0.913455409841367,-0.356061602602324,-0.0900141403468273,1.61515583940087,0.0679522419060802,-0.42660424007388
27.465,-0.263280490842554,0.338659142077797,0.659549629007926,1.50918711854213,0.271978513897306,-3.03764319435146,-0.729606106203258,-0.217742683116305,0.0203049397044334,3.30444794846817,-0.00654064033977194,1.15122761384988,-0.708955420106835,-0.0495902879246509,-0.0453227152626768,-2.81248506870323,0.550206855414024,0.259565580521214,-0.915549687549208,-0.357389101446028,-0.0858173718676218,1.65679878830888,0.0937204154957871,-0.432706272879674
27.47,-0.295376630025195,0.33771712374482,0.764797401192817,1.4111228004668,0.307051599170435,-2.69471689980591,-0.740918792675926,-0.217255216798306,0.0159167925544494,2.98805151996246,-0.0352554435743942,1.10798596100154,-0.692479641563143,-0.0565008615728784,-0.00402138688286411,-2.95113980033815,0.43527415691176,0.125067691094596,-0.91759891766814,-0.355782201818244,-0.0661747729251256,1.69403256283502,0.109752959217651,-0.419619424143175
27.475,-0.347187616227577,0.306068894300672,0.87033747043195,1.36764986945369,0.290952051778655,-2.37257888508068,-0.744285296264228,-0.217875392218172,0.0060035044816869,2.60955216364922,-0.0641273993521545,1.04352875027989,-0.69159845238035,-0.0691082889371032,0.0338957748063603,-3.09084612488143,0.272433634581913,-0.0312419584767799,-0.930285134155979,-0.33830307372474,-0.0561479852536894,1.7132440438025,0.109054163542984,-0.406929845284818
27.48,-0.367073205937372,0.286804195323308,0.936414042529617,1.35223813263375,0.240262967363185,-1.9657940581564,-0.756030274279573,-0.236025529914449,-0.00480449531866952,2.15291944280763,-0.0959321449335571,0.997246830547822,-0.69417541636422,-0.0902586717068389,0.0491535497319151,-3.19418119416977,0.152666029000477,-0.141464325446888,-0.92826719020805,-0.317477762113285,-0.0433585103755085,1.73419243040437,0.0996903877813607,-0.389004917171564
27.485,-0.382315437486308,0.277634019917171,0.984212140250611,1.35342408327786,0.183837704416943,-1.65147240296352,-0.760757226471881,-0.244587963953682,-0.0369240127230735,1.78415943273059,-0.136347615316133,0.962401264622382,-0.702391129540154,-0.120520182559307,0.0591865266363127,-3.30506616993384,0.0568879789725083,-0.242177037543129,-0.933270845018354,-0.293623763280169,-0.0255510250860592,1.74669145171409,0.104940488455823,-0.374674900763425
27.49,-0.354058245845455,0.253008588832123,0.961460862418294,1.30712515538041,0.101376683717737,-1.30062087326506,-0.772539621959771,-0.254346845752979,-0.0349858365846402,1.49318847822894,-0.153654724359512,0.929848240532384,-0.720577263746011,-0.135363687696535,0.069690009247859,-3.39264875235045,0.0113828276066752,-0.331829928342281,-0.935215434968065,-0.272159078047602,-0.0157170983785981,1.74456799441904,0.124715293933047,-0.361230370218189
27.495,-0.296151553708607,0.225232084704807,0.905686748522948,1.2374290924848,0.047527566504043,-1.04606812494747,-0.787590124439617,-0.269878935231353,-0.0125022354593462,1.27606401658362,-0.17763151444733,0.897250899121157,-0.748533873076091,-0.159181627865374,0.0707235477622476,-3.44667010376172,-0.00437450696995233,-0.446261246587898,-0.941623212898816,-0.250795911333731,-0.0072584066244158,1.72395914174946,0.127385190717347,-0.339791254822395
27.5,-0.236887675371774,0.162355154412815,0.857981131820856,1.15575695909167,0.0312546058596302,-0.835719886837532,-0.813377341869157,-0.269201014827893,0.00382609106566204,1.07256259183598,-0.205981516126536,0.861359312427922,-0.7796839590149,-0.175572960529688,0.0791044023406857,-3.46676671358429,0.00902680811861939,-0.520493226933423,-0.958021154656787,-0.220057506949834,-0.0171485618864291,1.70483741425508,0.116335120778594,-0.333338184238304
27.505,-0.193876943108465,0.0752491237131371,0.839827561199243,1.07860368151017,0.05039310986319,-0.62837089527755,-0.834693252044726,-0.269147095099786,0.017712889217268,0.849046869134804,-0.244486689217928,0.825251347749004,-0.818503499539381,-0.179550656503874,0.0843770896565138,-3.41598286813436,0.0482967430987689,-0.600956340627843,-0.963725095723764,-0.21063900583976,-0.0294233253506007,1.6799610987901,0.104172579950513,-0.323869533843221
27.51,-0.188104583028554,0.00155379125640175,0.850287634882958,1.04422812048302,0.0629206706143304,-0.486968889237912,-0.858157196076103,-0.274020389944546,0.0140055629618902,0.623142214901754,-0.286693456882049,0.797948052973521,-0.856494042976874,-0.171422249700241,0.0936756598930406,-3.29230174677789,0.103229712238017,-0.669040302083951,-0.961966205549507,-0.196571491212063,-0.0347471643949392,1.65034293797882,0.0763046733966635,-0.30984553452496
27.515,-0.202854085838081,-0.0623378303683799,0.880537516488775,1.02715258683628,0.0702672765516054,-0.328795850452491,-0.872861551955478,-0.286147350465771,-0.00963663636239812,0.396124734170208,-0.34811455698866,0.768136364393921,-0.913695458897315,-0.140622469071386,0.10405897950429,-3.11048921938926,0.156378133483265,-0.71180603547026,-0.965404133719068,-0.190497712399609,-0.0343785133761517,1.6214167649002,0.0503819263176333,-0.301853639043852
27.52,-0.226216420388555,-0.0887019412280875,0.909095573085585,1.00897007365816,0.0597261425226272,-0.244770029154607,-0.867677488157813,-0.302544443295116,-0.0299428136347386,0.268496098868618,-0.40202904214094,0.741593462495187,-0.955455209522584,-0.102741627132288,0.116444120973868,-2.79939761826135,0.213994072803693,-0.72841000776709,-0.969016787793082,-0.195369185681998,-0.051342198698685,1.60877982429292,0.0396408832196501,-0.286004987099
27.525,-0.249925354260553,-0.102156748466309,0.945856890350361,0.981582163229888,0.0353096940604106,-0.158596523708082,-0.869362649506478,-0.319239680171571,-0.0521131557689679,0.208192853606526,-0.466798761483819,0.70422797799323,-0.97598257865657,-0.0736110884012985,0.127809801838807,-2.50425205517786,0.260607439491027,-0.713109852464017,-0.96386972200494,-0.193152918112594,-0.0452777906019238,1.59215125590651,0.0566630616312162,-0.272605859508275
27.53,-0.27116640524503,-0.115085709480841,0.975233749643378,0.945455616781687,-0.00290071399875735,-0.113212771250877,-0.868925221658274,-0.327321914814001,-0.0671125142741706,0.192558840484007,-0.539365032124396,0.65775332950837,-0.991979893693403,-0.0335062957355006,0.138137067932541,-2.05795419061275,0.321450673171739,-0.671993843560328,-0.958628016656764,-0.194273381416263,-0.0296527861722031,1.56435156859249,0.0783124108546495,-0.25554045802343
27.535,-0.283201584348647,-0.135726024000016,0.995892852910894,0.89896069044536,-0.0453298691287877,-0.10159611033093,-0.87702230138462,-0.31730483092432,-0.0779046077064489,0.199084967136384,-0.598537212371828,0.624045236587524,-0.996000497335806,-0.0164318577482498,0.136661585349181,-1.794220417686,0.353008335901643,-0.641240564357771,-0.96215433371561,-0.195613581063116,-0.0218687022239758,1.53167507548517,0.102563135910058,-0.239964501818616
27.54,-0.299518229833133,-0.167942644783964,0.992770551050768,0.877791287944576,-0.105895868222829,-0.0952909415428286,-0.887363656928652,-0.30219878683324,-0.0864098468632259,0.232756225617815,-0.653775775611486,0.596908514905282,-0.989575177261352,0.015565548943805,0.123780342334064,-1.39353110629586,0.391777461900477,-0.543212542021455,-0.965448939233999,-0.204832118447147,-0.0118955185373135,1.50167102433118,0.121677238769826,-0.229231402101327
27.545,-0.288032264035149,-0.183563621597238,0.974326728152102,0.841333584060751,-0.134953112874,-0.108785134993754,-0.907062033890836,-0.287863908370286,-0.0858477966254468,0.302943901307827,-0.715089132219346,0.568768935999079,-0.984280693219692,0.0344354006910649,0.111341129502971,-1.11246107207065,0.399825057090122,-0.463973038411939,-0.96311217718896,-0.207444687508405,-0.0137589622440166,1.47374226180527,0.125601008290774,-0.209226087193895
27.55,-0.269415818956114,-0.19435921130867,0.939375063375367,0.822535175928955,-0.141274623651065,-0.143277873063424,-0.925387487079635,-0.274961832764357,-0.0876546064774442,0.373725113616668,-0.775753942587715,0.546089590627943,-0.969486230177931,0.0505957811624024,0.0901703659519253,-0.877980331002533,0.391462153650304,-0.386106178000535,-0.962156525997524,-0.217856837933455,-0.0160022582831118,1.45822407932676,0.123104554611228,-0.192468880039242
27.555,-0.257154749646577,-0.203687135486895,0.913828116409349,0.806527771154661,-0.125861405242109,-0.22201018150049,-0.93803039205004,-0.254145724886383,-0.0884157937727366,0.472378943356936,-0.829808527151144,0.529755502097336,-0.950994037061962,0.0537478135536271,0.0654342922382491,-0.683300168615777,0.384855800866232,-0.331984317478133,-0.974525184779749,-0.225929674909717,-0.0254737676746034,1.46734895879845,0.109005234030886,-0.172408815532073
27.56,-0.275423216339032,-0.199488512593993,0.913669575864672,0.818384798617793,-0.117143942058232,-0.281390019284768,-0.949707364963903,-0.250454336468285,-0.0745883666624539,0.64004855483275,-0.886309931309567,0.505645091692685,-0.936440796223962,0.0508953857374461,0.0398311058854042,-0.545159872927353,0.363612362777464,-0.279603704008534,-0.963752408048409,-0.228585891473798,-0.0325491893644569,1.43936267149375,0.0901829978196398,-0.163587397713864
27.565,-0.343138102425237,-0.200841961027963,0.971911442633398,0.914135141083556,-0.119519970751478,-0.386018778860396,-0.956735690819303,-0.245551124851362,-0.0832562424866931,0.782186016220232,-0.931267554984184,0.498687589657057,-0.92209661192476,0.0496792785668886,0.0100994402939258,-0.413689818136452,0.350886795323114,-0.24588917173652,-0.959924710191153,-0.225416127146033,-0.0256760323320221,1.413827695601,0.0810640630063951,-0.157206097081255
27.57,-0.420181057240779,-0.173695794157505,1.03273729751594,1.01266154918127,-0.153522664807339,-0.459521474982552,-0.953657213723737,-0.23860198487807,-0.12495807080291,0.940870534284051,-0.968360165155786,0.504039382732551,-0.908387052965512,0.0434316906959322,-0.026622853712307,-0.307582193387477,0.345425443432798,-0.24866128957533,-0.961554172207965,-0.227310682341537,-0.0199896773875731,1.40000537319936,0.0652882991730793,-0.154437032478545
27.575,-0.501459067626546,-0.116254966135448,1.07848607352765,1.07217511242722,-0.247376849729355,-0.538168801384082,-0.945954865261403,-0.20567231562007,-0.163704746837495,1.09189673673567,-0.991313490015419,0.509363456100913,-0.890593355562217,0.0348996510296843,-0.0460713318057946,-0.210403356614434,0.332629200811399,-0.261889666318893,-0.958605281585111,-0.21248874270261,-0.0174533507367666,1.38687092919073,0.0443681838482084,-0.150492070107996
27.58,-0.59045549821398,-0.0585432752611732,1.15165696250211,1.11249443082783,-0.374156264978459,-0.659304414747584,-0.938140249202681,-0.205670191975766,-0.193600243122946,1.28715115345422,-1.02008129096545,0.539019848263174,-0.883692616466289,0.0308389832499793,-0.0732667199890004,-0.146196902570217,0.330863345699053,-0.262454841558314,-0.949070472217572,-0.201092003955555,-0.00353160514194153,1.37876276559721,0.0396478459397639,-0.149797516881521
27.585,-0.622966665458923,-0.0457285513369215,1.18510212830111,1.12544703483582,-0.514471180954019,-0.726599963287284,-0.923606939569751,-0.226247504200107,-0.2302259943399,1.52662547762809,-1.04131985028528,0.570041200749443,-0.884535611269538,0.0291856160145439,-0.101057551142853,-0.0308364974253841,0.323960007515652,-0.264333039522171,-0.945625447668396,-0.189975998097925,0.000393772902608515,1.35871527532017,0.0333773982670839,-0.142532702694895
27.59,-0.620208203113387,-0.0623955619333371,1.15062000444211,1.11962696789719,-0.725473045935196,-0.820435096192316,-0.922337232225949,-0.219353397331417,-0.246828515654469,1.74553201371322,-1.04592029891264,0.579632173526163,-0.887514199384,0.0314051890553692,-0.132298068848008,0.0766347484806012,0.317318446203019,-0.264333039522171,-0.936513516864733,-0.179131210009894,0.0130782041745148,1.330612204617,0.0421928922211499,-0.138185771185491
27.595,-0.594747106856657,-0.0940335589212148,1.10731311820048,1.13113621342332,-0.856821404783764,-0.898236006084217,-0.936108024551836,-0.192826502846216,-0.237255346703978,1.9593449784501,-1.05923360356372,0.577197901036598,-0.89363018271385,0.029726044629644,-0.16106605959688,0.169860708547972,0.313235467787061,-0.265389278589482,-0.930938775084332,-0.170939066586845,0.018337213166642,1.26928266489624,0.0628505717543668,-0.134372343263357
27.6,-0.568261390502874,-0.132383664849296,1.03284829313979,1.18899049038693,-0.961283153382775,-1.03218440529498,-0.951235573926651,-0.14683818967031,-0.21393265468547,2.16553118608384,-1.0678261295461,0.58259925443994,-0.898399955170561,0.0269741715164274,-0.194069279970481,0.269250318264161,0.319284866720854,-0.260741244227111,-0.935434357595547,-0.163444789044114,0.0226315055458961,1.23641375949461,0.076130411269133,-0.11964196836694
27.605,-0.534948586875637,-0.135418745448014,0.949782265783211,1.24862699223851,-1.04851091616679,-1.18350273673809,-0.959430037298153,-0.0898946994165084,-0.180290078190131,2.28957678652504,-1.06029556317922,0.591469563098965,-0.910533212226175,0.0331666665299264,-0.23832458618638,0.347505491639494,0.331688140184629,-0.264962426433216,-0.937808456633676,-0.157503650550575,0.0208824350905673,1.1831929050703,0.106476868084581,-0.115051805973053
27.61,-0.512848188279198,-0.115182272015066,0.880534835573951,1.29043537282178,-1.09353582038876,-1.32510442693503,-0.956626979916663,-0.0384881510632934,-0.142181090833972,2.34761894333454,-1.04325280285037,0.616931650114739,-0.916067602538382,0.0419590753042877,-0.265724608957228,0.404367527591486,0.351300368898962,-0.260838075522271,-0.945095634448821,-0.149254221697861,0.0242079584057838,1.137191194756,0.131970857722574,-0.11039254532677
27.615,-0.500013959585862,-0.0637154450022649,0.817459814803843,1.31906750173571,-1.1246554576027,-1.52280382062008,-0.937644368770216,0.0102336282978652,-0.138083926513165,2.29394012929121,-1.03083145618439,0.673606813960916,-0.924583115842167,0.0621427050036883,-0.295625578240471,0.478797851634026,0.380640848923496,-0.27184456530077,-0.945395946009971,-0.154029203028349,0.0194640384525924,1.10329409374136,0.145927729160139,-0.0967106984488377
27.62,-0.50053086606975,-0.0202209520949301,0.795551269617135,1.37060774925811,-1.13390908069166,-1.65786936757507,-0.92779239919602,0.0271344042310905,-0.145783304059441,2.2128065256279,-1.0238677308956,0.723768567740823,-0.934943833107014,0.0849312395025202,-0.316821155841004,0.560780178981061,0.410704226225022,-0.285444439716753,-0.951146999780644,-0.150312282940059,0.0164221807514887,1.07027459666561,0.165947339124954,-0.0924889747540389
27.625,-0.512970443283562,0.0366331636900723,0.785421377859114,1.41543310615423,-1.13714868505683,-1.79267414488299,-0.930793659380757,0.0100437668842378,-0.146198487213595,2.11283096080331,-1.00122050319369,0.7720722444885,-0.94285187275979,0.113170281957932,-0.333876009165677,0.66883225852529,0.44967279711671,-0.299955707921282,-0.951748600256034,-0.152950759478926,0.00984137380882507,1.05040752114538,0.169609353544539,-0.0808973540357761
27.63,-0.536209088350829,0.0673499254927945,0.783497894528783,1.4427262460996,-1.12218857647883,-1.89111300343898,-0.949401752343806,-0.0206001968198015,-0.158726272403365,2.00066297184339,-0.980361329858958,0.799062066294926,-0.950736744968774,0.14379061043628,-0.340467477445032,0.770748027796444,0.486618851635382,-0.301143353589612,-0.94701778109706,-0.160820360046011,0.0102764239878299,1.03963336936408,0.183436190586486,-0.0728930510244889
27.635,-0.55366131158241,0.0798868077671329,0.791000457511435,1.48033541429405,-1.11946533276961,-1.95155680179596,-0.960758483547323,-0.0621278376933435,-0.162210875583772,1.94225092152305,-0.955482697707104,0.818193664015988,-0.956449133412624,0.153232555167374,-0.337814676385773,0.898328091005317,0.512575245838555,-0.313637513683164,-0.950279849567126,-0.163187384559401,0.0106440296342896,1.02885931439926,0.200898007515873,-0.0685610152199327
27.64,-0.572794140319197,0.106229325705233,0.802997355882522,1.55501987069405,-1.08850462706509,-1.95227292668541,-0.980690122900245,-0.0944144240392137,-0.168999061937795,1.92364743554828,-0.927750447033262,0.8351079280102,-0.97472612971578,0.210066925771324,-0.326208336339428,1.12403154903968,0.537969690368853,-0.355985096772315,-0.939064856223776,-0.179638201091673,0.00922521568333159,1.0060127848095,0.225849495230173,-0.0514816169675437
27.645,-0.577899717215245,0.150404533186548,0.794346037231179,1.58734996418858,-1.06769228396473,-1.94149057972555,-0.993209321618044,-0.106268148546797,-0.174104324918835,1.95992528491138,-0.906337602145364,0.837653928594015,-0.994523090649305,0.259633847307754,-0.321292607081213,1.27162046592362,0.536584626384423,-0.407025892880711,-0.922016782003137,-0.1998205475945,0.0105228449569565,0.984580070025038,0.246280797941738,-0.0344854843645118
27.65,-0.574195564317063,0.220302588888832,0.784465521499491,1.57342256688436,-1.03691745700926,-1.91132985591259,-0.997609186650987,-0.0840766435726449,-0.156033031161342,2.04834259590701,-0.890708377776384,0.822107224257956,-1.01422483374364,0.303349917058067,-0.31528827145904,1.36155780583374,0.512207196081101,-0.44080355339322,-0.921486355750868,-0.210065006626324,0.00580494619259669,0.961906292232991,0.271810460602286,-0.013826778168242
27.655,-0.569524549555012,0.269381812303022,0.784795966000515,1.52331094831652,-1.00495119763771,-1.85364567126384,-0.995603799751569,-0.0717173588522911,-0.149697898168625,2.09818671786462,-0.877474010536803,0.801213925299697,-1.02744938950233,0.337151393547575,-0.307899460725031,1.39451202790933,0.477557743719748,-0.437462462016396,-0.916777526225266,-0.216474729116211,0.00795533838068945,0.939629778698272,0.281456238287203,0.0145396787663684
27.66,-0.571562193394677,0.287468053755494,0.780402123711663,1.47628546068881,-0.98216074491169,-1.80441113158762,-0.987228747153838,-0.0690451017821498,-0.137697717801458,2.0927000459566,-0.85562182466403,0.782626574239211,-1.03090330863555,0.363676255945244,-0.309335371490869,1.41970522095157,0.43141949747887,-0.394562074995481,-0.912220733661411,-0.225239052122114,0.00446682354006633,0.900213843710822,0.294399819846685,0.0306801900643008
27.665,-0.572330691781221,0.270263668009159,0.778786816473003,1.44252625455138,-0.952144154937764,-1.70741743668442,-0.981066255233402,-0.0680877638367596,-0.125901241075302,2.06154122950818,-0.832840343676657,0.768971259751923,-1.02653377843256,0.388232957614812,-0.31636370886335,1.39053734784146,0.371275428973871,-0.310079969154777,-0.908689794205702,-0.22673552335337,0.0076820081665736,0.82848158149193,0.319938493302128,0.0413549662242203
27.67,-0.569669320802645,0.257275184884527,0.778195008431761,1.43824827102643,-0.925276880894753,-1.63424873863412,-0.957805924012367,-0.077219431501484,-0.143139221484653,2.01984843091549,-0.815238358337837,0.76245525772823,-1.01377504390337,0.39691408045133,-0.321850245757169,1.28507202977162,0.317748580998154,-0.22910265268917,-0.917863606867254,-0.233411346082851,0.0027111923090966,0.779824956186115,0.344382970410562,0.0528429455310753
27.675,-0.552732731913285,0.250626805886569,0.737221548939976,1.44295846322605,-0.883363358846722,-1.53118968108721,-0.956467099814583,-0.0763394922342799,-0.144473062013989,2.00024097374835,-0.786910195238506,0.752440898664361,-0.988312313902606,0.386244334137175,-0.334716402194163,1.05163409291475,0.239183822798067,-0.139102587627702,-0.920682605036213,-0.228540589033602,0.000782745322630952,0.737630942133125,0.385772110777503,0.0775301070525612
27.68,-0.528857011962564,0.237148404727603,0.695410296930222,1.46881701061355,-0.813950446757712,-1.43196249187349,-0.964327112014362,-0.0617080530336082,-0.129626067828039,1.99198532104492,-0.759324461207198,0.733456013593629,-0.973060871109717,0.36829246763385,-0.351249277138956,0.855570402544705,0.203009454436931,-0.110214935450585,-0.916518048649272,-0.233433877785551,-3.14304531231244e-05,0.703672523161412,0.395233061496655,0.116287231164899
27.685,-0.506836180288071,0.240310406388062,0.682649380444541,1.48672714610801,-0.74637390947493,-1.36470240595457,-0.971675674649157,-0.0329193986866162,-0.11158971084534,1.99715644890383,-0.732602279448331,0.713427856458835,-0.949874178818347,0.329338719129318,-0.367514218981468,0.431268668984436,0.14512655371501,-0.0951816837402064,-0.926860485008234,-0.233084361418322,-0.0141662891391275,0.702166514328701,0.425353571135994,0.135265555595873
27.69,-0.506703680686034,0.25270687062169,0.708635617575362,1.54340409260488,-0.652668593394138,-1.28157360128944,-0.974242954204934,0.0035819713904462,-0.113323399743177,1.9654286961513,-0.699487742254877,0.715128769183512,-0.937379970953649,0.287928979866063,-0.375182356371003,0.133926774744812,0.113752600586512,-0.105368060351024,-0.930103698635971,-0.235697734886763,-0.0265469797916372,0.695114798593881,0.441461513251984,0.150992935114839
27.695,-0.518974037503829,0.260463759369621,0.729837712763605,1.60877908500664,-0.599741009482957,-1.20303456947124,-0.955546273172731,0.0196874573230412,-0.126635718751225,1.8892367205158,-0.668412361883788,0.731179684137108,-0.929356880203433,0.234997187677635,-0.385526641799848,-0.226595112640965,0.0854261927517258,-0.133849598996877,-0.933956826943636,-0.227655249955092,-0.0344330821641603,0.698502313727173,0.432804647049533,0.159829467535019
27.7,-0.543914709338687,0.27409956857227,0.737986558010097,1.66328422792055,-0.55800710237375,-1.1127015347188,-0.939438336500763,0.00716123632014112,-0.1342046802424,1.80248083660289,-0.640250571696374,0.736718183320194,-0.928924981808939,0.208865497831695,-0.387325251605614,-0.486678316147927,0.0664545321464387,-0.147300131250984,-0.929334106775503,-0.228957363806284,-0.039903226763576,0.734725779930524,0.428312589994684,0.158035832006883
27.705,-0.5504191876989,0.288741070321317,0.728369274288605,1.69202885786758,-0.521305969885333,-1.01834443292095,-0.933457522082583,-0.0227167928070022,-0.136561124237751,1.72717939539623,-0.606663894820153,0.733910352584763,-0.927485996837971,0.188754607823815,-0.387792440133473,-0.809156439046417,0.0491885064725533,-0.164163626520809,-0.946092292895764,-0.220546647146387,-0.0498627583814099,0.740754831207369,0.430442565545008,0.153706522239673
27.71,-0.533808924138492,0.306221455472101,0.702477569447186,1.69445340393953,-0.467391975469146,-0.934630818686963,-0.949367704586635,-0.0351909064705384,-0.141446098462513,1.66875960485633,-0.573147533080864,0.716903455626671,-0.933916272985301,0.174232311144809,-0.378044109537605,-1.11209795088857,0.040004464136452,-0.155302716177049,-0.954564012351037,-0.219518604446957,-0.0489872897092807,0.677785573356032,0.416779124451832,0.16053004797058
27.715,-0.497275677447573,0.321746039935081,0.656405229294558,1.6856975445864,-0.396931302208207,-0.825061629607946,-0.969739025480398,-0.0383208824115918,-0.119763329067905,1.65553886048774,-0.536480629917558,0.698713608402135,-0.932845957942741,0.170279848482313,-0.373323250063022,-1.3520172656054,0.0341557070742294,-0.121547006873584,-0.968145277481763,-0.212294020757691,-0.0406677173847169,0.646942192967206,0.411047444507989,0.163700827327221
27.72,-0.467722550029445,0.31117591823423,0.611314188127102,1.67160867818187,-0.315173996074267,-0.753177045560129,-0.982780142670495,-0.0348121155121071,-0.0993825147708884,1.62662850497446,-0.507300259577313,0.684368343469179,-0.931437658459238,0.168702239061835,-0.364149853394932,-1.58571914323944,0.0192499538994566,-0.0780272670878786,-0.97810984108323,-0.221120120326322,-0.038119014676781,0.591445767346908,0.41824010014534,0.173061357929302
27.725,-0.432643655343236,0.293214675854741,0.574570479145119,1.66299259662628,-0.198316628388335,-0.671627284446282,-0.988939741168401,-0.030375787388962,-0.0844082909542878,1.55854985544602,-0.472937297239407,0.67892685806505,-0.937262581552036,0.175652478870872,-0.351317600449568,-1.69381925299962,0.0124758932093926,-0.0534213102221708,-0.995576491212181,-0.219708149125931,-0.0276857548998266,0.529256091449083,0.4151823191843,0.171439106870254
27.73,-0.392486842386663,0.28202435589506,0.541317147420753,1.66686397171553,-0.0573650498007998,-0.592539961662041,-0.981519946642007,-0.0257915615305886,-0.0682511351603728,1.49090363988736,-0.451710800400033,0.68006668154708,-0.924045909054884,0.174259695616211,-0.357028491450628,-1.75727364762655,0.00767947919666767,-0.0221319537866549,-1.01897528951565,-0.225867013436342,-0.0282107149613079,0.478856379891625,0.398368336056331,0.177242460893956
27.735,-0.361606340805172,0.284993900508982,0.520899507336931,1.66809455156468,0.0914227240777863,-0.517988745741595,-0.975368102232617,-0.027977432678142,-0.0545838598807674,1.40828636870808,-0.435102504083962,0.672902137046194,-0.901813773415625,0.152666552320444,-0.363780659793376,-1.82963200188302,0.0101117680167334,-0.0151073634624481,-1.01318608719739,-0.217305310694466,-0.0255484275150272,0.435665260470756,0.352795978494529,0.187804350685232
27.74,-0.335756247043336,0.293418289322647,0.477242868853027,1.63535234441058,0.288158923703845,-0.4401687821827,-0.964778371795884,-0.034058794808779,-0.0386893948532993,1.29584764116219,-0.411826929885555,0.647359622290175,-0.918738545187177,0.122175157398429,-0.341409428656072,-1.90204363037996,-0.0248435865241711,-0.0777235517422115,-1.01147190683917,-0.220242156358055,-0.0279960384758714,0.408029340934567,0.339125151166268,0.18578569545144
27.745,-0.311980172159776,0.311911772781075,0.446426629727054,1.58002382143331,0.46906835725396,-0.374455686648613,-0.960661512953954,-0.0327976689398536,-0.0329944393185331,1.23897976054981,-0.398884060113543,0.625198759667306,-0.944591804070472,0.125780798415489,-0.316260637245106,-1.93879546981334,-0.0861660916405115,-0.0850678171045023,-1.02412846568976,-0.214678555771408,-0.0214587147816535,0.414402949737092,0.324782906129152,0.169033429413467
27.75,-0.294778566279946,0.331205359338564,0.421493838136101,1.49475800766732,0.701066934530353,-0.300804932313029,-0.958764453703798,-0.0415701880452677,-0.0151009380069431,1.19622797081292,-0.377562335554672,0.636816998463178,-0.948509683621684,0.135459482360966,-0.306983318401703,-1.96870141279013,-0.136702535962034,-0.0311962788367484,-1.02221636076537,-0.217661093295465,-0.0279974193059385,0.409755049740286,0.319555840407257,0.169680834391398
27.755,-0.275223736703607,0.342783830601307,0.408067003001454,1.40914496318998,0.913863742650728,-0.256292115226978,-0.956341153480719,-0.03982665540957,-0.00078907074852929,1.08541065112362,-0.367220238804089,0.618397865182662,-0.93015944683472,0.124993483352361,-0.280125446004721,-2.00500305107435,-0.187178738620669,0.0102438292370288,-1.02997898720956,-0.230016282219471,-0.0302482706686967,0.415934545585093,0.330264788312002,0.161064464570226
27.76,-0.265017587915729,0.35010052624803,0.364019041472172,1.2975932129997,1.1704341430844,-0.175933557501893,-0.960364433932753,-0.0293692120647398,0.00328635170102477,0.960945633339387,-0.3606463537394,0.575124165640231,-0.919175461355976,0.12045735211512,-0.251737243563736,-2.02450082409543,-0.222564587911905,-0.0108660978071458,-1.04094844482631,-0.2249427666241,-0.0110230820315526,0.442209206635094,0.331464395087679,0.157456885755954
27.765,-0.247849501477667,0.370291048500991,0.337361942924008,1.2273424576221,1.41184373675006,-0.0914572405846735,-0.965725510815121,-0.048487099103963,-0.00411148335473163,0.857706479868917,-0.359548676477096,0.549190629985494,-0.915003054054933,0.133725922665796,-0.224401096320177,-2.02097184693561,-0.245595197091386,-0.0374817762066429,-1.04582583000308,-0.220761560620386,0.00754608126640176,0.446838720225571,0.332173635275768,0.139095012939221
27.77,-0.255809127048009,0.40700425604589,0.335332598806178,1.2073005437851,1.72656801976047,0.0364353403300329,-0.965437768665953,-0.0569673218371028,0.00717235354249013,0.832332663141595,-0.350548367085068,0.517235245776534,-0.910515894841777,0.149518502905412,-0.198652088236808,-2.0290117564173,-0.262757759565617,-0.0452854528035109,-1.04176327261801,-0.235155264868039,0.0109177656315314,0.434981961434576,0.324481598030767,0.142673410722458
27.775,-0.301705833718618,0.499040242052451,0.367061134325732,1.20673569602377,1.97672967805063,0.140120046841765,-0.964647007375817,-0.0487143642424205,0.0128085828471016,0.801676127520659,-0.338551440273577,0.472265375377276,-0.906320174868957,0.146586704876601,-0.169236685474054,-2.03716739609772,-0.258926682862399,-0.0621683205829346,-1.04875947733898,-0.238708356955824,0.0218278095903382,0.432766649709048,0.312006884027779,0.150034233606225
27.78,-0.462531133387861,0.821264999839769,0.545999524812624,0.932748353650953,2.13685272746561,0.204666754898884,-0.961962915671885,-0.0172292998961212,-0.0567540072626131,0.685208788894528,-0.306560676749336,0.447258048136811,-0.909089528296451,0.147707775031868,-0.139121347911506,-2.08300665071829,-0.273093745513962,-0.0956751011303842,-1.05546359591872,-0.24431252696124,0.020788208808102,0.443776762558637,0.291290226375929,0.132099103576896
27.785,-0.819145386505461,1.23367953386583,1.04590481282859,-0.0318597768622816,2.09639711352785,0.113150846184595,-0.946858062743451,0.0364233390751961,-0.101956830430616,0.590988192098481,-0.280585435780598,0.46415388720949,-0.919850207488609,0.157814639292151,-0.109372966609987,-2.14527380845201,-0.287226828497255,-0.115846032897603,-1.06129857888223,-0.243589901891754,0.00820141806516409,0.413045869847292,0.251510359030828,0.143618847094735
27.79,-1.20204344110255,1.19632289803892,1.80045992672209,-1.74609986445884,1.66497874160064,-0.186024950219197,-0.931429559763368,0.0838993156123036,-0.106700657713328,0.484464909297705,-0.256365695560902,0.456834397454767,-0.923741021111505,0.165254532948636,-0.079601303265297,-2.21875634674722,-0.306452019139725,-0.109658697309926,-1.05953988382691,-0.238965773389335,-0.00480577287066347,0.359391476741114,0.197357152256913,0.150984515135831
27.795,-1.40175684286683,0.0192470773891696,2.49208984421902,-4.11289838101181,0.410450258655321,-0.316159905152273,-0.922054100895772,0.0487218623770602,-0.0618821814476455,0.261602311284257,-0.232616991605951,0.406664876313921,-0.922064026330744,0.168848649023655,-0.0388321180150497,-2.33079532866142,-0.329781029458148,-0.114253490578824,-1.04572459685669,-0.229671321545843,-0.00651840303714538,0.332241858072856,0.139508352454165,0.144015737023749
27.8,-1.17227623566132,-0.989080562835823,2.31166173124675,-4.63455326387041,-0.546034366790287,-0.390542238390499,-0.930947870545372,-0.06246057285244,-0.0355609874372423,-0.105730793836646,-0.176074396717506,0.299188065620847,-0.928502037143843,0.177020069801284,-0.00881337010415991,-2.41454593330073,-0.349384208991192,-0.129386676221476,-1.04013787710214,-0.203876413046557,-0.00307699071974068,0.281182124172896,0.10452897602647,0.154437556619641
27.805,-0.950022043954432,-1.3872800828189,1.67334328983189,-2.66622033443809,-0.918927450839726,-0.320868895035271,-0.986272387874179,-0.185215690984434,0.00292041004455982,-0.503138015350112,-0.124991306520764,0.177699994681842,-0.943254535796826,0.182982820576257,0.0195275149292456,-2.49148069736427,-0.371859124688614,-0.151507435463608,-1.04640074934607,-0.188107997767381,0.00992764544690748,0.254405578731022,0.0663928092587168,0.16105097715884
27.81,-0.633453928282112,-0.934165148461024,0.927827963126999,-0.688796526578669,-0.730774800885232,0.0398285778347103,-1.07614168209378,-0.283066500074786,0.0171432238343265,-0.940662465866838,-0.0954915582214815,0.0374085868696084,-0.941713673761545,0.194098412934447,0.0484010502486617,-2.55550507181678,-0.394571117167352,-0.167364876272618,-1.05392059907745,-0.181028055966373,0.023880647386812,0.262263321808656,0.0549873038893392,0.165066273649802
27.815,-0.487077158970742,-0.288788712145223,0.493542876132587,-0.385188200756905,-0.380799865249004,0.114569420814756,-1.12219006643368,-0.303228920298947,-0.0158084848784266,-1.23646508798478,-0.101936269279777,-0.0451030780992585,-0.931393305256688,0.194855858579593,0.070881107404867,-2.56784914960653,-0.409736456374459,-0.166797837820014,-1.05058465630049,-0.170834477527513,0.0467483165938044,0.300947043718578,0.0701620343759949,0.183054772057047
27.82,-0.583971489661145,0.27313693256932,0.499044752218927,-0.810950017219129,-0.222586832301732,0.0834453960088719,-1.08108620618777,-0.28970517265049,-0.0989648780258798,-1.36261733498112,-0.0775962748450586,-0.0968043477285313,-0.948242771213843,0.157423327931019,0.0963827694264469,-2.45807117165152,-0.480948013015609,-0.191451475087121,-1.04982143059235,-0.172217853200751,0.0526723071158633,0.33239998668255,0.0948580506778977,0.187339325701225
27.825,-0.828923274757113,0.373780915704891,0.684062124723646,-1.25878224400225,-0.288705812185944,0.0975897325094485,-1.02468651901035,-0.293715811907349,-0.159525985483082,-1.32230502762518,-0.0138493511549311,-0.12723263315576,-0.954319621737654,0.139998620480756,0.0887504458390207,-2.35657853671452,-0.524675434438796,-0.241141936304381,-1.04453801170065,-0.176210643234402,0.0526086249504293,0.361891823319192,0.109773210034969,0.196414410896359
