Header,foot_Accel_X,foot_Accel_Y,foot_Accel_Z,foot_Gyro_X,foot_Gyro_Y,foot_Gyro_Z,shank_Accel_X,shank_Accel_Y,shank_Accel_Z,shank_Gyro_X,shank_Gyro_Y,shank_Gyro_Z,thigh_Accel_X,thigh_Accel_Y,thigh_Accel_Z,thigh_Gyro_X,thigh_Gyro_Y,thigh_Gyro_Z,trunk_Accel_X,trunk_Accel_Y,trunk_Accel_Z,trunk_Gyro_X,trunk_Gyro_Y,trunk_Gyro_Z
43.325,-1.23193062944913,-1.03556538602663,1.16247068578377,2.3487523128189,-2.54290303760486,-1.18801982346842,-1.2776156701284,-0.508543490841597,-0.709522046093312,2.38752083243942,-3.32332065038625,0.613314325847871,-1.13033783334264,0.271232065970837,0.833681707250768,-2.10514028118166,-0.886886533463865,-0.165634992063708,-1.03959437074164,-0.165156942993595,0.155353828948925,0.942012810944506,-0.0229974465717696,0.257677486310483
43.33,-1.35913486227365,-1.04973890789779,1.11808536822401,2.31458355997748,-2.58849776797321,-1.36749159100646,-1.21119206201382,-0.488485389805376,-0.7496098498603,2.59675147553164,-3.20330592136464,0.554294467686758,-1.12349605784997,0.349477812916707,0.815572718700466,-2.2257649180712,-0.848725064680919,-0.122877237536337,-1.05310075186533,-0.145818894468292,0.181443117107476,0.965470496276397,-0.00137624239474885,0.267961342212368
43.335,-1.41562174633011,-1.10336144920008,1.02488592810763,2.24637240918841,-2.6799648917284,-1.51958655626393,-1.13034153244212,-0.439919148389515,-0.78373506019215,2.94519230119204,-2.9996179595221,0.438208713944049,-1.11699136629632,0.47131595766781,0.757632668322339,-2.37687709942196,-0.66737366519998,-0.0842460615790123,-1.07145225852474,-0.137679713860166,0.209999409910941,0.993190973526165,0.0473890093588299,0.262564747132249
43.34,-1.43786684808225,-1.1181348444784,0.912581212627725,2.19510891789755,-2.69500363634213,-1.67659296388667,-1.10211334021273,-0.405776925029543,-0.789941940035278,3.13595971202313,-2.82244436589224,0.340720656791837,-1.05932002034241,0.536522196682399,0.677741836276581,-2.34918435923546,-0.496610708219544,-0.163141393616016,-1.08248035904645,-0.131534640063881,0.233232009786084,1.01435385104731,0.0967802967581339,0.260220764594338
43.345,-1.51841969003715,-1.10602152138207,0.773836314513005,2.18092388834129,-2.6756776708815,-1.87198564924692,-1.08047604874814,-0.394202392887187,-0.783371423799342,3.26251539126882,-2.67731428596774,0.26662455180137,-1.01070428611992,0.539478769355011,0.600518276878308,-2.15986188085241,-0.250497834409027,-0.383457031518928,-1.10246296831923,-0.134160867345881,0.242275042145726,1.0258378627335,0.144857148475107,0.253118522506623
43.35,-1.46280779654138,-0.95202679264219,0.620877631085323,2.0806424289949,-2.6423393168101,-2.06852288636535,-1.04030213403269,-0.347195090107919,-0.789762734123162,3.42383515592077,-2.47889207043632,0.170596437494971,-0.95388594515785,0.507645689388899,0.483439283884607,-1.76362114526916,0.0430324630393489,-0.695841328064734,-1.11846087408848,-0.137686478928791,0.247475997216065,1.03085812177578,0.172038935113495,0.234811982993365
43.355,-1.48843883680628,-0.876772583565699,0.452181476493485,1.95819734604872,-2.55049558631441,-2.20228790943584,-1.00983239090965,-0.252083908248105,-0.798750291590134,3.51879272723694,-2.2341216127859,0.0875412554572406,-0.961403554212514,0.453029989127441,0.36538085265186,-1.58492625702902,0.201118413092341,-0.859223466282008,-1.13083699915006,-0.141206777619507,0.240514532664934,1.01238321343956,0.163711391357894,0.201478772600108
43.36,-1.61489524576305,-0.899443625407974,0.278894908935917,1.81925481660896,-2.36636347644354,-2.40943398830796,-0.96555234190619,-0.218799158160892,-0.83240120445091,3.54714095983901,-1.99028264361271,0.0791950496138216,-0.999048472892249,0.420606628668314,0.294919191091425,-1.47179996044788,0.317933218109454,-0.987709299959327,-1.14628184926356,-0.145700607405133,0.233938294605303,0.996138256748495,0.130679438227947,0.171154764456951
43.365,-1.68687683995836,-0.93817785657964,0.174957010788534,1.76395681725388,-2.18707180144662,-2.57963586933964,-0.900171417097462,-0.225019292200606,-0.862421356569596,3.54294286648907,-1.6978694562866,0.104477189006303,-1.06122328313435,0.402369239280782,0.245574282344696,-1.36501785323759,0.442208725604122,-1.09834510430556,-1.16290852862818,-0.1487311641021,0.228753557800945,0.992308139801025,0.0834450690184477,0.143570837065091
43.37,-1.69176533059928,-0.99743063102593,0.0821612918935831,1.7898569924896,-1.98050632058834,-2.74087370884758,-0.847808842971235,-0.228763579214294,-0.886984466110173,3.57507864817398,-1.41890077928123,0.120411629440365,-1.12594136964005,0.414264727237331,0.245270912508055,-1.30655725686413,0.545778433500888,-1.15359445991102,-1.17094556706034,-0.157060207802381,0.224094932113875,1.00934312627407,-0.00277749110728776,0.0971937630917775
43.375,-1.68640266308408,-1.00408335064509,-0.0161324035957824,1.85403621952574,-1.63318434912503,-2.93832969128762,-0.791176844971726,-0.255444828286228,-0.898238115012646,3.65214212546558,-1.09827581532107,0.0977832372765187,-1.20449812330049,0.451230716705322,0.252883557410076,-1.3041942769475,0.651291804947877,-1.14034319980978,-1.17935411193194,-0.158449952464958,0.238085612470094,1.02909239520041,-0.0683946456328086,0.0631924383665318
43.38,-1.65667749624062,-0.940537862590393,-0.047154736714999,1.82182632050187,-1.42708426937094,-2.99306952945667,-0.755468571336332,-0.251455591319518,-0.895612457366194,3.69597216233798,-0.808857988606984,0.0320606714659233,-1.27921457585673,0.509691065818685,0.245690068476721,-1.373784379784,0.740576610973903,-1.07333880550727,-1.19003145364632,-0.157335981546939,0.257420990539388,1.06161695032293,-0.142467925895174,0.0339121926723406
43.385,-1.61030568911677,-0.831257842491618,-0.0580524928515956,1.63078923342085,-1.1516304422906,-3.00700881628594,-0.733871699537675,-0.210487106503581,-0.894510414066604,3.65712541014971,-0.516291899409294,-0.0792269660331373,-1.33469458224269,0.596120526305089,0.221957108650096,-1.46681234362171,0.777132793583862,-0.961395397666727,-1.1942175048893,-0.166578026411092,0.276462668376761,1.10372895207793,-0.199207221273996,0.0165645598747698
43.39,-1.65165748812582,-0.729966090679833,-0.0531330016608617,1.3412773761844,-0.893522137386764,-3.06195791384416,-0.732597915791828,-0.173316830591479,-0.891866817597221,3.54552279838596,-0.26897603959051,-0.190340283557913,-1.35159527744001,0.692161748226362,0.198028869108275,-1.53496350452789,0.784227846227249,-0.828609963172497,-1.20113016452535,-0.170111219796024,0.294642816842165,1.15010918358955,-0.242453317455264,0.00545015799870415
43.395,-1.68223142801987,-0.547527050135404,-0.0207442518080667,0.835590095722602,-0.563115367254739,-3.23249009424744,-0.754816364928032,-0.117500662595753,-0.871051662648924,3.3878432413156,-0.0028499544504099,-0.332129571114776,-1.31909247060612,0.786788857790993,0.173562643529635,-1.50948412886512,0.770438142239871,-0.683479653986107,-1.19944003357046,-0.17063285380119,0.299807752765778,1.18685137325281,-0.281531678131216,-0.00253095468197011
43.4,-1.71569154634428,-0.315740187599747,-0.0616646806017836,0.216789927326126,-0.262455578828867,-3.4094080407544,-0.822965794633838,-0.0312071209024245,-0.805670241747201,3.17095685740281,0.213702824162686,-0.47043262557655,-1.20975024346858,0.851000649498642,0.191423759510309,-1.39460626513474,0.790087539633275,-0.525823338388213,-1.19770222316923,-0.169280129339307,0.299221619064659,1.20927282802447,-0.315007046028926,-0.00509929656982422
43.405,-1.77091721092142,-0.220649051382083,-0.17357015919568,-0.656224990626922,0.0759506082024974,-3.53785999992161,-0.926826676413565,0.0850990545318349,-0.711197932243836,2.88069212514125,0.358875813747565,-0.572277686979957,-1.15445689717674,0.859277299624892,0.129904051320774,-1.13687385784473,0.792751526245113,-0.369998245526601,-1.20047916540232,-0.16421361201,0.302047678281555,1.22784017324094,-0.376904375882931,-0.00867937870100439
43.41,-1.50589946661112,-0.403654595377595,-0.186711049717907,-1.63356422519604,0.560560973198205,-3.7509237489611,-1.09624045205529,0.341842870747876,-0.232172264571773,2.88287444004681,0.488138834943108,-0.658131595159214,-1.13195720755528,0.752148217403303,0.0451556171938232,-0.843439872670295,0.813595283136826,-0.294013902608389,-1.20266745023332,-0.151826609118395,0.309287021332925,1.24054153389853,-0.469761293533878,-0.012669538836837
43.415,-0.681850459058295,-0.193025230302188,0.501755447937495,-2.00185179838147,1.61065991723314,-4.03793796192236,-1.53787320762356,0.923419599983826,0.757353347852767,3.39149104804348,0.361715909867649,-0.729146741526941,-1.12335440894708,0.596141451191972,-0.00818872463880173,-0.680285716753836,0.850317317327699,-0.299739112123453,-1.21156844491097,-0.134284332830774,0.31644878588064,1.2453689553942,-0.573046147438944,-0.0129552882269973
43.42,0.105336321188183,3.10374827606527,2.28354720953844,-1.99125078951858,2.48378783656035,-4.20960706722033,-2.2491171764117,1.53915701862619,1.1636764427669,3.19133284977598,0.15091904201458,-0.475852927096108,-1.21711731169757,0.426668395698282,-0.0289015400175601,-0.661122814161994,0.893821895119187,-0.37849063545744,-1.24106133640709,-0.108632414634974,0.328376546300369,1.24715488298708,-0.656667541438403,-0.0131637481139365
43.425,0.910597286898693,5.73096815670871,2.37896146454348,-3.40722300300925,2.22070940907459,-4.44062838422807,-2.83766642401103,1.55937792762367,0.830042854736767,2.19388342859201,0.198650710393053,-0.2768889840369,-1.61222747837339,0.296548375373369,-0.000849345103626373,-0.830423908621417,0.938202622639032,-0.56614516086319,-1.29385143422363,-0.0853785506101283,0.323204804062608,1.25136744569786,-0.706139235122976,-0.0136511586606503
43.43,0.442512372956194,3.67133876307311,0.748291523228712,-4.48938826405614,1.77738609158153,-3.85956382912784,-3.04408923567644,1.14872614909137,-0.0465724740088189,0.255231936306586,0.325838571325826,-0.197915272001403,-1.95688057041462,0.212600617316915,-0.0237861975967819,-0.973619823843996,0.99226851842522,-0.849756932631898,-1.39778176441986,-0.0651059798815221,0.292804214942723,1.25375080108643,-0.708618364405078,-0.0127042111084247
43.435,-1.70213458626277,0.675684210088634,0.594848647265269,-5.03015868950448,1.97663952737703,-2.2425541622035,-2.5610515030055,0.774745970442387,-0.713790546312644,-0.926937891330361,0.517307939357,-0.19882617891782,-1.99664617716559,0.143561366224771,-0.0578375037583897,-0.797261909752902,1.09290254567368,-1.24719828036167,-1.5076943788743,-0.0642697146898047,0.237280787487263,1.24154304298911,-0.655666225404321,-0.0114121503996316
43.44,-3.47907634597559,-0.36551019091778,0.29929279240697,-5.02458273429213,2.25111984479729,-0.0190044744228308,-1.20835180993072,0.47832975608778,-1.03420342432955,-2.17747778884651,1.14834403298735,-0.374963001930076,-1.99660290522776,0.0656057814560193,-0.0825689739842553,-0.317234148378823,1.26651799587582,-1.62455184613789,-1.5832544326782,-0.0880991401937077,0.168637240197968,1.19994998049784,-0.603418482744755,-0.0108703722819914
43.445,-2.91984074333938,0.0974154160512404,0.661088329828532,-5.44769493728276,2.73290749442591,1.04368534433939,-0.798711981705747,0.395770806152282,-0.871190041406143,-2.66494230399122,1.40182680763193,-0.495048693744005,-1.99665689772709,0.0112369231457237,-0.0943407581481614,0.575595718763334,1.36751043099025,-2.03317193483006,-1.62519697362318,-0.13071149704685,0.071976803723069,1.11150641148678,-0.58778280762052,-0.00269910810564377
43.45,-1.88817509797245,-0.505600280187281,1.54399832836507,-5.84557486488404,2.64204710681068,1.19424530357124,-0.467584796113176,0.234025086837774,-0.284168208530517,-3.28946914168927,1.75450062037988,-0.75484855043834,-1.997974087077,-0.0346696057802101,-0.0215976789158235,1.58992110850941,1.31769857192794,-2.21937111543573,-1.61028968396932,-0.168372828571843,-0.0200944736847567,1.0086879876014,-0.619512653052298,0.00787679722421382
43.455,-0.699514889621346,-1.48268225955464,2.21390684110327,-5.2701966058321,1.81328008791625,0.902978817763436,-0.723393462314908,0.183908769754238,0.20582786260797,-3.59364790783336,1.91406803775928,-0.951621726264185,-1.98412054381692,-0.0730365487179944,0.069000426258945,2.9789817646409,1.06289134171148,-2.13765869423307,-1.55939726188702,-0.181653731068582,-0.0946074967507945,0.923815172466408,-0.707986460843537,0.0166992502813116
43.46,0.151313763267398,-1.87241031686426,2.17454309545545,-3.44669620570817,0.714840613227595,0.48095672934142,-1.17570833121629,0.175055174513552,0.461196198252749,-4.16260014990809,1.94847709691815,-0.908765357808619,-1.82046782930692,-0.063121186724585,0.254544122960778,4.20202578276245,0.749617700099285,-1.85119051239147,-1.48080600841744,-0.182299125858901,-0.143932579374279,0.880798172980277,-0.82224701993607,0.0145031891359545
43.465,0.29372604390946,-1.45649404484095,1.39606512688374,-1.13976132539351,-0.214189380414926,0.00953974790664552,-1.29794489908456,0.000702244085162729,0.321303707287761,-5.27461189435007,1.82352114304511,-0.401266445964357,-1.50073056154417,-0.0529921244066123,0.27678575513887,5.593909032098,0.270184733369653,-1.54978595150285,-1.40463362643769,-0.1698415263691,-0.176787301889916,0.925550664344581,-0.890745985758557,0.0165639956846791
43.47,-0.22186488575499,-0.443345737640919,0.864779010497658,-0.273235747454347,-0.367168020035378,-0.257994769917663,-1.13957112704301,-0.399889280377198,-0.0243941457331057,-5.40733015503144,1.70270972361573,-0.0675712401616996,-1.26721763408875,-0.0247460327533853,0.179906376305563,6.54635243768091,-0.232441531900793,-1.40511404031583,-1.33472821869455,-0.151628830441716,-0.194048455285797,1.03058665447333,-0.81630722010108,0.0100266188244972
43.475,-0.540656060219457,0.521226445533362,0.684960718348388,-0.379162589340257,-0.163383581378612,-0.290006809228396,-0.907879969143606,-0.848343406219633,-0.261333458278362,-4.16009278080559,1.61907435488379,0.041113431700188,-1.25376916611071,0.0615654615666019,-0.0175174476097263,6.82851399314314,-0.603530567284444,-1.51020723705076,-1.27094098530181,-0.134236153434126,-0.18073124785128,1.23683856744264,-0.605809998734951,-0.0208180779485766
43.48,-0.646929862959604,0.96967041594299,0.700833259174466,-0.698309967014594,0.0107814956609718,-0.161751282980002,-0.836823558491663,-0.904872211251442,-0.289093149655517,-2.43355756817922,1.57181514304969,-0.0906031312019213,-1.19314437281968,0.149760458188069,-0.0764769801091284,6.21892153943716,-0.693406476202692,-1.6697248212115,-1.23506778651441,-0.118754147392032,-0.147769537893252,1.51133568134962,-0.314289868757225,-0.0718873045950565
43.485,-0.681929588738672,0.755183725221359,0.792089017263554,-0.824063534403845,0.0623141796676032,0.192017036123888,-0.846242592916395,-0.411263624965204,-0.214857505184909,-0.335759605649451,1.5209486495122,-0.326191245481914,-0.77484203403118,0.357356574741036,-0.325783040019544,4.68184648481181,-0.880057010058391,-1.83926370056257,-1.20619389720703,-0.0513584544629046,-0.116031357279265,1.79970810612821,-0.0153645620652219,-0.148676890202955
43.49,-0.554354037755743,0.310838831067431,0.776117681465787,-0.743581700633912,0.0086994442651595,0.310772639968032,-0.942688759815522,0.207094002902395,-0.125007153559108,1.10964746846488,1.41775658352621,-0.484564861925533,-0.165112188228122,0.280080943509846,-0.347722365973169,1.0126103379173,-0.754709056976867,-1.87683025188922,-1.18163891848634,-0.112115157179272,-0.0654032812524805,2.07405775149115,0.227564912743185,-0.236461756602593
43.495,-0.475430224951066,0.10026865934831,0.764699142139955,-0.672971090076419,-0.038012195481989,0.218435667316006,-0.912249856066558,0.60322878403395,-0.120495931527948,1.99188507036625,1.3198509916445,-0.512848686016879,0.0548014602850531,0.0709122013638013,-0.356320482134347,-1.64933258007815,-0.582266671460517,-2.08638062462598,-1.16620005442036,-0.125264874162419,-0.0335987988323127,2.36024975183459,0.378366113550747,-0.327823056868879
43.5,-0.500279755363561,0.262940509692587,0.755253833399879,-0.499541066826613,-0.0897014745281859,0.0375464858620617,-0.853745756709277,0.688319820213998,-0.123062554760953,2.33171930481397,1.28888580050453,-0.490670327198718,0.121278281402023,-0.140211864871376,-0.419279552666965,-4.12326721426558,-0.377358511444705,-2.24383235319474,-1.1519639041565,-0.146036920923362,-0.018017033968051,2.51269048993289,0.387556476646239,-0.379757404079547
43.505,-0.559333104476662,0.471107161942608,0.739202364213555,-0.396653850431044,-0.117426862464835,-0.0843969479192606,-0.808902912593139,0.66132628874253,-0.116372523643037,2.5463272780696,1.24864930447725,-0.457397528190628,0.101738574314035,-0.26781300900267,-0.53726208900634,-6.00342249772206,-0.14613781887522,-1.95963337892556,-1.12736656952603,-0.177953228482404,-0.0214720198741193,2.64181995378878,0.317122721119443,-0.430849823628918
43.51,-0.531237344740381,0.499971632114515,0.730809741518505,-0.416261112679213,-0.137622033009585,-0.173801333941388,-0.809372650331175,0.551391432597097,-0.112057313819821,2.55396212514665,1.18694903356107,-0.46671076350944,-0.0880702667252476,-0.301806402531798,-0.586933486716742,-7.18343465259643,-0.0683192691112778,-1.32654601051887,-1.0888207592606,-0.203858584448015,-0.0415107990387186,2.68710881198211,0.195330525871646,-0.454391929912188
43.515,-0.419731633595364,0.396558752866828,0.769389304935946,-0.516193292501,-0.166814879646644,-0.25603074215215,-0.824170286614451,0.50718568527697,-0.0562688686412816,2.43019735209997,1.1296731669891,-0.525279416498344,-0.273438716428573,-0.313128659874294,-0.584717221649409,-7.52878027336123,-0.0101914095475072,-0.676748189294672,-1.03723296111473,-0.209834817781752,-0.0770199380029824,2.62928907079867,0.072803155078633,-0.448736094297924
43.52,-0.370611028147024,0.359671010574714,0.791087519507351,-0.571884154286772,-0.214854372202177,-0.301139762566834,-0.842542863688181,0.486512207681633,-0.0726229925968975,2.28941213699683,1.02127443101318,-0.54484624175189,-0.416541495010372,-0.352251254902944,-0.509322114158741,-7.03023483756666,0.0347544722585461,-0.203892419450415,-0.975026221076605,-0.196941764652712,-0.113272466659563,2.52164279693543,-0.0230441558774687,-0.430893620986826
43.525,-0.443483393825795,0.430968123432192,0.757567744228524,-0.659167263282302,-0.317774826447501,-0.349420648651787,-0.825635054688975,0.511659696744013,-0.138408240937409,2.12627482586231,0.885591861052952,-0.481117172757446,-0.552855621212602,-0.437652976316671,-0.357548584581686,-5.75430192932635,-0.0801605481657986,-0.108993787784855,-0.895745979615046,-0.158931942301531,-0.137886233212668,2.36268855299223,-0.0862325835236771,-0.398177111165026
43.53,-0.564667176763261,0.465560704424364,0.732279386133026,-0.788311875572201,-0.403323116669849,-0.386029734439232,-0.794048137123451,0.59203089971569,-0.172963783026385,1.8422036601031,0.792966593516238,-0.400462044862808,-0.663843977011613,-0.548140287869619,-0.246135543862941,-4.33685290801947,-0.351939701903049,-0.460256843632974,-0.806778197796338,-0.0978877408628634,-0.145568284532681,2.15573437792613,-0.126942765546713,-0.349547753085617
43.535,-0.552980133676102,0.410718959044404,0.732116428791495,-0.913018600403558,-0.442135656172511,-0.391197548615659,-0.819784893076389,0.648832701054657,-0.195760801543846,1.38237118934851,0.740055810177976,-0.36624819964645,-0.729808342304921,-0.668734763391877,-0.155580065042516,-3.01843333894699,-0.65867645875287,-0.994804824210247,-0.718021297625093,-0.0385040219278713,-0.138756572878955,1.9493359870368,-0.149811119304136,-0.300849100061627
43.54,-0.497051853027107,0.293908399875627,0.797530842868196,-0.993678563195764,-0.46793367011362,-0.393765598535538,-0.900386123770473,0.648410358105839,-0.176266394000612,0.73923366493444,0.726456334193171,-0.371250005573264,-0.773306024682084,-0.780330507341043,-0.0534921388310866,-1.87573354813819,-0.968975137495494,-1.5724413662446,-0.633575042087319,0.0143796059972203,-0.12350052309466,1.74247604832229,-0.160421727977246,-0.25799108043392
43.545,-0.448101465284935,0.191784606520607,0.846846480157724,-0.972745864824899,-0.453175167949146,-0.380680630219381,-0.991342534400115,0.560318705633524,-0.149143199275923,0.0629022412580743,0.709850089074874,-0.372561480045883,-0.870516994211048,-0.855564371931061,0.0964329294768249,-1.06479806555389,-1.20659545926189,-2.02107797608297,-0.579822809280694,0.0594069430638337,-0.107755023439581,1.55673017850635,-0.162064790725708,-0.242108047008514
43.55,-0.431992665675276,0.119996002318119,0.867909668334842,-0.90348094715496,-0.421834234179511,-0.336283085184457,-1.06109954128627,0.422923503525534,-0.162557761680159,-0.559189963014607,0.669523532073754,-0.36178661755747,-1.02844181959055,-0.8833666023245,0.329029176737704,-0.614319213519083,-1.357205901901,-2.29701732229931,-0.55249219208092,0.0934158876697988,-0.0962025326517978,1.37554030355682,-0.170356376899382,-0.256777759636875
43.555,-0.45593060511632,0.0932810139996923,0.874166467046738,-0.790211098726052,-0.385767523284404,-0.286180154262469,-1.09975003822339,0.266975388536903,-0.196041321703295,-0.940346989167176,0.629265418283149,-0.363754532664945,-1.14726742245008,-0.870940001344524,0.586847913435257,-0.395017713392827,-1.44634412537942,-2.43674193151234,-0.555619395114878,0.123646720072227,-0.0934793323518513,1.18009378704138,-0.185181645350254,-0.2912537248103
43.56,-0.460268211706259,0.102896431965725,0.874593662556535,-0.673269751726446,-0.336701965485872,-0.231078158542578,-1.10700716284454,0.124664325653592,-0.204823161726171,-1.04179663561965,0.592516312381026,-0.389650105321682,-1.13098819617164,-0.842484060571967,0.757958128341897,-0.323921004485401,-1.39127900509483,-2.44661044509362,-0.591802345237852,0.14909691091688,-0.0943371696005209,0.985620225718524,-0.175388591336846,-0.33662922609159
43.565,-0.448736848054871,0.116268983079956,0.883298163739975,-0.545440420904363,-0.279967505318431,-0.164367519517047,-1.11390238843985,-0.0105331118847508,-0.203113819741514,-0.911056282631066,0.547827236029087,-0.417930884942602,-1.16580123982313,-0.804361666568421,0.837808302312991,-0.135246083574849,-1.09433110207613,-2.37755395916966,-0.659770502485603,0.171877063701121,-0.0930952335039065,0.801213729540778,-0.132452404031688,-0.389762403006797
43.57,-0.416202022349196,0.113898538736091,0.882703918237603,-0.431568914639622,-0.260924980181395,-0.131565372753247,-1.14044466111653,-0.0659915023346062,-0.196829396417116,-0.613599924163119,0.503133923368266,-0.425677369319788,-1.17934823326766,-0.768047437984494,0.838903479389845,0.226733411352266,-0.597360242341087,-2.27244394000548,-0.737919645654465,0.187395209757531,-0.0878449024879635,0.672409221286136,-0.0588500995748296,-0.427250301107896
43.575,-0.413030677412155,0.109063386946456,0.871906323420467,-0.321565740714863,-0.196940607823419,-0.091030084664278,-1.15382399718063,-0.0565542402261595,-0.18950218751101,-0.322804087050426,0.475044806552105,-0.406012823424925,-1.13341786921043,-0.667949621353958,0.807653844086802,0.297322831648176,-0.139088200685535,-2.09547817308659,-0.821881998491121,0.193805178969116,-0.0775406079728385,0.569869183485521,0.0589191153153984,-0.443133361697777
43.58,-0.42977793205318,0.123875027377578,0.865685850947657,-0.225210448675859,-0.141848181125176,-0.04281142715488,-1.13791342624024,-0.0268552998542877,-0.187804717307441,-0.0313724914189384,0.458893022379855,-0.37420491709358,-1.09110810023813,-0.483519610416449,0.760505976713546,-0.064461562287087,0.172304127254929,-1.85983244238551,-0.893758802500088,0.183309818801139,-0.063886145786572,0.511669505785911,0.184395866697536,-0.427346835871879
43.585,-0.427531375355432,0.153261929041581,0.854215439533467,-0.136859831452401,-0.101965507337993,0.000483447073322202,-1.07843843999991,0.0380073261404396,-0.17713606288108,0.31152063772848,0.450020762595066,-0.345298217946708,-1.03489837349282,-0.229146777400887,0.709971724721203,-0.919839714390082,0.29593889066408,-1.56920688380083,-0.948505413527236,0.160924737025228,-0.0538412811106709,0.515659098331516,0.278872505934324,-0.38291647360899
43.59,-0.416837395996903,0.200997782253342,0.833425510909414,-0.0718080208753437,-0.0728903857628662,0.030423815218227,-1.00294580027105,0.127351062515363,-0.156889102715338,0.637156717030861,0.440248518705782,-0.330085672001968,-0.964184212663981,-0.00777977310851558,0.663914332249964,-1.91412275639644,0.340249545071799,-1.2965699236618,-1.0044845455145,0.130188500859502,-0.048577770244148,0.588935422370485,0.359200721680031,-0.31010974412206
43.595,-0.422857014823911,0.264571542772393,0.812434305523846,-0.0469063539798763,-0.0593074597990149,0.0454595491617331,-0.941285536004123,0.235964043553633,-0.132412877269223,0.869180732304502,0.41948074005352,-0.320934868398701,-0.887861792487764,0.0504578836105617,0.614233292377539,-2.59539756351124,0.419085035089847,-1.12747279100286,-1.05295097345917,0.0848142088643091,-0.0423513942187898,0.750323759889762,0.413273759653986,-0.216091997447181
43.6,-0.428185437456282,0.310603628399546,0.800279017030283,-0.0467940650622049,-0.0533574931323528,0.0462165870787089,-0.898343329088714,0.385424590300622,-0.0939143649361334,1.02702846209939,0.385589183857623,-0.303630817761075,-0.791914473018352,-0.0492199557748246,0.572122072493106,-2.80332838871044,0.552699330558568,-0.999133764393013,-1.0920181655512,0.0445409484909961,-0.0397742768336563,0.928936808217413,0.408844080230658,-0.13700666581314
43.605,-0.41010533503726,0.325123282916133,0.787462103330217,-0.0526052255674939,-0.0533574931323528,0.030851257483856,-0.883153738662469,0.496550534852334,-0.0636128575739411,1.0280291835533,0.358480467098932,-0.300545504112732,-0.788513103571547,-0.2179795348006,0.575098829208262,-2.50603559819633,0.65083121518118,-0.892688751242502,-1.12078264067945,-0.002308820694064,-0.0338132078487561,1.11150097457986,0.359040906469141,-0.079637972124681
43.61,-0.389234425331607,0.334985663595276,0.749290908096315,-0.0577677994359091,-0.0538874791941406,0.0101648122790666,-0.866778709765181,0.542259481450185,-0.0390446943091138,0.959914971871056,0.322942664640718,-0.307455638388763,-0.801087343371399,-0.364136783164801,0.619953188330687,-1.97744658741854,0.676471707867876,-0.81379484246648,-1.14993200394301,-0.0637735822910123,-0.0198252495199123,1.3669899665938,0.246227556587796,-0.0342914397752082
43.615,-0.407231856377475,0.340345990155586,0.798305043579446,-0.0748302854426952,-0.0789004374788671,-0.010347590026761,-0.846786559595558,0.545717839020641,-0.0351694098494182,0.823274227191647,0.310629435643321,-0.331835581431076,-0.834153060087248,-0.448430687801151,0.630042822551717,-1.26557276751313,0.614081940282242,-0.737853358245139,-1.1818460397327,-0.111313980663049,-0.00913242873775573,1.56117514297941,0.135196981531139,-0.0284314219073203
43.62,-0.473071357583083,0.446072332866894,0.836203442139748,-0.140856314310741,-0.125585872553768,-0.0197786632823422,-0.859625288802396,0.641589641596906,0.0159112017318074,0.811868419810646,0.314240915648354,-0.378171121948127,-0.860421321520579,-0.501072552210375,0.566957018877225,-0.566307753918915,0.534059981614677,-0.68825679551124,-1.19937007883481,-0.149807693262348,-0.0104111022642163,1.71626772435984,0.0418468644377752,-0.0417815271087947
43.625,-0.285761058672629,0.443426190317683,0.682112265727876,-0.156151851267796,-0.0833625085368474,-0.0643368526518466,-0.909112333089579,0.589995490167609,0.0323215083661447,0.509514212509459,0.255438294082648,-0.374811488928858,-0.891321225737739,-0.546046952019275,0.37133177292465,0.324314620703104,0.43054538648508,-0.621081784483434,-1.17974767517485,-0.171796366385493,-0.0145967744156893,1.82571504216599,0.0116398298762812,-0.0208733074356145
43.63,-0.408904317731886,0.0655250185304091,0.845304028050714,-0.241496818069551,-0.142181345752723,-0.206194043739022,-0.905703986139402,0.475851931077546,-0.0595852796179021,0.227413573722503,0.233852462696296,-0.365584972326197,-0.900713761877428,-0.547610063807004,0.211916526969929,0.801355368948418,0.394893438921305,-0.55552410077898,-1.1548071888032,-0.195797872785047,-0.020716547466167,1.88899917739713,0.0418923324194987,0.0131602731477346
43.635,-0.515277368256324,0.27865524939604,0.810239593285447,-0.186847412756166,-0.179523901685299,-0.164599737094277,-0.896996712257847,0.447799335056097,0.0246158603036036,0.442205646117492,0.293440530227153,-0.401073538436436,-0.90255167567151,-0.523099382686793,0.082510562398684,1.10508430230006,0.380285075561324,-0.46962021296648,-1.12829003983554,-0.214150040473945,-0.0307281416121484,1.9123147891451,0.0782711816498455,0.0407004989505951
43.64,-0.278629390959272,0.611840132067882,0.74122567712282,-0.178314711347357,-0.0881490819794914,-0.0110133959940444,-0.926409203069107,0.350264957785902,0.041121216378113,0.435558876320321,0.266623627789155,-0.419870341013793,-0.921984980024059,-0.457552234528405,-0.00960045306363004,1.22234372282518,0.353120188701218,-0.38316262003203,-1.09042173672342,-0.223633671307181,-0.0446467275442361,1.91013300635282,0.122906336706864,0.0496775452362485
43.645,-0.404690386954253,0.174291419374193,0.803160892872248,-0.314135074864781,-0.193131049354325,-0.273675624732614,-0.935895156379364,0.289902277653345,-0.0482764151762098,0.282220620090112,0.260575684169452,-0.376998816248515,-0.946183600292953,-0.355309589114898,-0.0471977480075611,1.17123043605937,0.303798202707819,-0.333175382502824,-1.05626333506826,-0.226927451683768,-0.0505858290165745,1.88306019290834,0.152936529073232,0.0429011779643314
43.65,-0.440654188522953,0.149467883047927,0.868671117738568,-0.238145909480583,-0.209597905575525,-0.301829830968863,-0.922091394821517,0.258002877728091,-0.0232398335298797,0.464089607387383,0.283309303933126,-0.341103624075568,-0.969079979626014,-0.232304135495804,-0.0557179420867944,0.989312374607541,0.246359248333932,-0.314104807425805,-1.02690161874775,-0.208710137212903,-0.0594054316486055,1.83252636172812,0.186375281904644,0.0322542620851915
43.655,-0.390782625437304,0.328938279129136,0.808767688815375,-0.192286826305324,-0.136058058707939,-0.137531306752232,-0.930159380918544,0.225132481717311,-0.046825531603316,0.599243964783367,0.281894076199794,-0.347983858611127,-0.998671546754975,-0.0869015568730034,-0.059135605741709,0.630906264817558,0.175083828902782,-0.358883393667996,-0.986235091366873,-0.193235040770381,-0.060334878002933,1.74739501095513,0.215646246109437,0.0261450711737862
43.66,-0.395105160348428,0.209858914170775,0.807381634371362,-0.212027738286345,-0.174297522609251,-0.243563211093311,-0.938285561151826,0.170744057272008,-0.0786317874285449,0.667872325105406,0.290150904455978,-0.356683746299553,-1.05149799860524,0.0444357169047329,-0.0722046408845898,0.0969239676679032,0.116196151824125,-0.444721939257442,-0.951681310494636,-0.155008053954627,-0.074263089133465,1.6450979241805,0.24855553253027,0.0154700345868371
43.665,-0.431976144546057,0.172495328696958,0.857490135138145,-0.191505347694087,-0.163437652955383,-0.232880662977337,-0.957922596088794,0.18247546702479,-0.0667304000792306,0.803975810624642,0.305594507929737,-0.367090517537185,-1.07469756398465,0.120507647626669,-0.0873601566107357,-0.350191970992434,0.0760044864265297,-0.507758745359249,-0.923472340124296,-0.13483288379701,-0.0878876661433283,1.5524103992906,0.287280013265009,0.018420065567986
43.67,-0.380246788798626,0.230651689843858,0.812420742990774,-0.125233153662004,-0.118304734781364,-0.169199433210116,-0.985471378400352,0.218271120974391,-0.0578596694336273,0.891427867430719,0.308114236660552,-0.386987034196984,-1.09618485475579,0.159789254686948,-0.102000212093137,-0.801888879004795,0.0362090159846623,-0.56829170447057,-0.899499822543179,-0.106386696510536,-0.0943736889287553,1.45473030029711,0.348801425018198,0.0345311065015165
43.675,-0.430278675644958,0.225130467342493,0.849338790304929,-0.122553513631796,-0.130660763322262,-0.169730969717671,-0.972106417683072,0.258234617787681,-0.0884789761735066,0.845508866532572,0.321706053574166,-0.385601151682543,-1.10638784149408,0.168315762112381,-0.126351505236462,-1.1976798344879,0.00323313767044369,-0.606013448085525,-0.886674879818115,-0.0786942833783215,-0.0994165695776426,1.35559250963523,0.409336543127567,0.0506616026609365
43.68,-0.424093323544559,0.192746842204686,0.819236131622784,-0.0988320251159532,-0.140004567845414,-0.190829915462795,-0.967022105163144,0.286276586180463,-0.0598522569040107,0.89218120690968,0.329873691792587,-0.380933917644832,-1.10265730533845,0.144162889386316,-0.145074576199557,-1.36264854774658,-0.0239765634982986,-0.612226919095568,-0.875758587272016,-0.0627123226597047,-0.0846470906939383,1.2880483471961,0.469995509361086,0.0544431167597761
43.685,-0.383118903607935,0.265245680267991,0.821888618018203,-0.0423340911259709,-0.0989048911357395,-0.13175619470503,-0.968753882452183,0.30473904647097,-0.0531157027423436,0.881501541524794,0.33634247654586,-0.415150075344818,-1.07562626768027,0.0891430434657675,-0.17229235779251,-1.53851268729976,-0.047465506650007,-0.605518322457576,-0.865886644070452,-0.0609456756924886,-0.0708404983211634,1.24520423878488,0.532918370493572,0.0456023550610018
43.69,-0.426416404367213,0.223822813409001,0.826345759945565,-0.0679037432618931,-0.11002212677315,-0.152878949196029,-0.966152759954464,0.330275408232204,-0.0456593399769242,0.884839181022816,0.345242857587148,-0.429613170789679,-1.0302512214631,0.00144580795441286,-0.194270705130627,-1.6782214085536,-0.0827892542335079,-0.625534086700236,-0.868159946312833,-0.0525862083572076,-0.0421529987230245,1.24800895635089,0.576670949524524,0.0355339078332463
43.695,-0.383906904334642,0.320114021517317,0.80967907596835,-0.0436435449982539,-0.0926924636667468,-0.14301054645915,-0.969906792550783,0.347191591619239,-0.00491480417000932,0.876780324037138,0.353324306665843,-0.431917036062232,-1.01628892517749,-0.0664191391173771,-0.192373255926598,-1.73561602696278,-0.129534695370951,-0.669297501801238,-0.876885540571406,-0.04488333106567,-0.0128999717135571,1.3023238660445,0.5900988355725,0.00924495667804901
43.7,-0.375373262849789,0.265573867866103,0.808430694456892,-0.0592058142277739,-0.103867576662685,-0.168573522492179,-0.951767203168892,0.36884439292071,-0.00440354139289713,0.802720789145792,0.361332833575934,-0.42749199423754,-0.999413779932538,-0.130417357580962,-0.180239129327473,-1.76926875815635,-0.187015000324724,-0.752692814985904,-0.896550641419274,-0.0407423361527049,0.0123833934072085,1.38186313535629,0.572827497168313,-0.0223334124379194
43.705,-0.395845448557532,0.282402543618934,0.807069631504979,-0.0635317787528038,-0.109357756795225,-0.200614725983319,-0.930884379443958,0.364735348944302,-0.00587267721697466,0.758837556939145,0.379887581549293,-0.418067390090534,-0.989791858009201,-0.181745923801463,-0.124632680873678,-1.88044784419752,-0.286380105841127,-0.866824357723887,-0.911248068399574,-0.0265226992848696,0.0221510286636341,1.50626228396068,0.512631836005537,-0.0686782830008443
43.71,-0.38806628564655,0.322734298284958,0.797490760855375,-0.0742747921610701,-0.118797288470184,-0.195645813950405,-0.909370381022398,0.35638129922617,-0.0060037079732858,0.734056753031041,0.38604062583892,-0.414948711258321,-1.03531928487226,-0.247056262221081,-0.0624045230534619,-1.84331102010508,-0.270356696842271,-0.843290610479963,-0.890999434517636,-0.0247664515031731,0.0431671147852719,1.64524289682835,0.453771678069703,-0.107267469389672
43.715,-0.394184735473817,0.308682797380894,0.807731893460141,-0.0958547602998371,-0.129791496912887,-0.213241010445264,-0.896010865846983,0.346870329539449,-0.0172544436892123,0.707978270187963,0.397745402571089,-0.410508419476819,-0.950807535007901,-0.282284232677408,0.00945168004870606,-1.90126865362476,-0.356966901576052,-0.907951087337879,-0.978235094346467,-0.00223883228034743,0.0312305043177922,1.80288915746852,0.351035566208645,-0.115626728822995
43.72,-0.395747307006162,0.307379803233,0.814453112393286,-0.110382569545822,-0.144391756587184,-0.242123613953931,-0.902354798863669,0.339373446595618,-0.0187424441722747,0.699181864597069,0.411269215942227,-0.400918544445413,-0.962160739716739,-0.334836454388789,0.06593142032467,-1.85282730670581,-0.517243762395889,-1.07219183280045,-0.977576548963942,0.0199069875961851,0.0266791717928843,1.90018910693154,0.283413964226093,-0.052819799888971
43.725,-0.395446726469158,0.277881142847909,0.819115424015651,-0.126715327733988,-0.152607117522688,-0.253322922879967,-0.921059661503123,0.323435880065861,-0.0307771792850268,0.702304496233579,0.419841554303436,-0.388985632131233,-0.967411561775276,-0.366927752856893,0.156644885903176,-1.99241072470849,-0.69723899556924,-0.919377466125864,-0.974687689786409,0.00195811906418278,0.0174860312483407,2.02404318943274,0.252342740915143,-0.0478835796159454
43.73,-0.387010101356762,0.255640797007385,0.820750123152573,-0.126225838948875,-0.152250969662436,-0.263431913382674,-0.941247671268637,0.309470337595383,-0.0480629139793795,0.708595801486626,0.430680811373379,-0.389458014289362,-0.967387129730898,-0.39302761899106,0.219515600473468,-1.91621528326774,-0.741573392608908,-0.71514801463791,-1.00330966909059,0.00166033009695283,0.0168546717968634,2.15941141812947,0.20939300971866,-0.152946678629162
43.735,-0.400090359192261,0.224389666202107,0.824777565248016,-0.12606413743846,-0.157614677876229,-0.26734844260031,-0.94571650417431,0.28668417548236,-0.0705144897422163,0.717430004751356,0.447310417336385,-0.39255807957778,-0.951058185475912,-0.402607510625328,0.271794173406701,-1.904778797865,-0.714559168985707,-0.482651698537051,-1.02933472449259,0.0102156427149057,0.0059123476262625,2.20712131924818,0.139955806821022,-0.172187600013949
43.74,-0.416537486747502,0.249430883871312,0.812468210274217,-0.108834125916819,-0.155741148222263,-0.255169079287618,-0.947072883933184,0.281828733081526,-0.0821852438696382,0.751615642686421,0.466510713134186,-0.410091624783735,-0.907182875405095,-0.40274337940179,0.337409326944017,-1.94385997819965,-0.678989345693068,-0.292105530029907,-1.03361195456049,0.0106167596501846,-0.000861015753961216,2.22945338137977,0.0826903109598899,-0.135461531121874
43.745,-0.420217955640384,0.272000384112369,0.804831358174307,-0.107779668408511,-0.153019005496309,-0.24539642904656,-0.945128333025036,0.289684248512383,-0.0843712746812427,0.777420485620439,0.487501138835044,-0.427735601976815,-0.895639796232765,-0.412532760836795,0.381209082079846,-1.96519298593524,-0.66341230241232,-0.21492924407664,-1.03289239758309,0.00404872132572318,-0.000637209361925898,2.2563172372559,0.0781642211340213,-0.126490527245233
43.75,-0.403947645823232,0.270840055778533,0.811573843173746,-0.113977009027306,-0.161036674202082,-0.246466362541613,-0.933856190077636,0.303251923410751,-0.0917383968977923,0.79652170269052,0.502985561209186,-0.439399082177856,-0.901530675919659,-0.43707326268318,0.436393348742266,-2.06408357505816,-0.659519501058034,-0.0553063126039497,-1.02490372442109,-0.00785063647981876,0.00171606430379179,2.2844535117259,0.107827502569229,-0.193035170199264
43.755,-0.40024740929105,0.270739276510894,0.809345492107513,-0.114210942669871,-0.166965675810603,-0.250803814451099,-0.917632568234756,0.319504493811929,-0.101267667581852,0.786101520282786,0.506822540367703,-0.448557617867212,-0.896958958347527,-0.43485410802431,0.488715037027945,-2.13485332689491,-0.647151633936515,0.0929212841180742,-1.02090256852859,-0.00981719645913153,0.00261029886222667,2.2731943795388,0.106947145677394,-0.258134125909478
43.76,-0.41505036142692,0.269322543811112,0.811882027590129,-0.124318856472734,-0.173433954292936,-0.259804002814771,-0.905601174750884,0.326332269373918,-0.112187623165389,0.736177759618784,0.505248489428186,-0.445391782858142,-0.912815512318979,-0.410407098504258,0.499348084094678,-2.10776372350023,-0.593641093741619,0.168265541507078,-1.00646156541366,-0.0135028799293969,0.012026822880208,2.22531697275576,0.0657136858441736,-0.277891247086198
43.765,-0.416240016682904,0.237941621934284,0.821983983902072,-0.127025836632906,-0.176112240298711,-0.265521722308256,-0.905799372116898,0.309663531704207,-0.128578913105359,0.658428288591967,0.502634841673862,-0.441227780406377,-0.920214328329738,-0.372519101641037,0.485660757684123,-2.07692554825204,-0.52341415176505,0.236612228856994,-0.990440926997451,-0.0280060110768252,0.0275794412708156,2.19162726154327,0.015478248905895,-0.298907640129647
43.77,-0.421682539692147,0.224208473787866,0.815958593934146,-0.120174019112773,-0.183190229386912,-0.268819557684344,-0.920122493538596,0.283309283867769,-0.141428897855478,0.600906630783358,0.498370796096797,-0.447904924470629,-0.916741531000423,-0.344650651541092,0.446552246514688,-1.92579444954157,-0.392053178198924,0.312390256999912,-0.989815870297469,-0.0383442660673847,0.0321411719368858,2.16791288200274,-0.0188478613188922,-0.368105253201572
43.775,-0.420691634888462,0.267396038956704,0.806982327374245,-0.108025130133256,-0.16267749917611,-0.24494940440401,-0.945904590879665,0.279385727521477,-0.138785676618995,0.620021689490488,0.510946803929058,-0.452863751579104,-0.902019751912284,-0.331314582606711,0.413961323199658,-1.79736949640612,-0.291601471219799,0.337730707455651,-0.987249551970178,-0.0397380106884833,0.0292222874023161,2.14408618764361,-0.0263894416870655,-0.41084723385099
43.78,-0.404329624672728,0.280269766159282,0.817158153780017,-0.131946682929993,-0.190938008259035,-0.257966312450298,-0.94290616262272,0.261183479961114,-0.136964940246844,0.612281164570092,0.507282018661499,-0.445677992149348,-0.903828663328067,-0.315079236755397,0.39138664439302,-1.73932398095708,-0.247169857928362,0.319780969164124,-0.973638718001488,-0.0465613222592373,0.0347644975833619,2.13906004947652,-0.0192361181882417,-0.412197086106657
43.785,-0.395174788541143,0.2644066192252,0.811678670861387,-0.137627261259438,-0.19334074013574,-0.266594642340007,-0.945505080282668,0.249024735292864,-0.131789764786222,0.618263558318893,0.506597357844808,-0.430577980832804,-0.904395088337618,-0.286096246952111,0.356831618507793,-1.65703263222896,-0.223042310505498,0.298148221711737,-0.97047981103861,-0.0550192087127744,0.0387408031699453,2.13454493624008,0.00600419866366462,-0.42723304799052
43.79,-0.392965442816043,0.255366985882414,0.821733463208726,-0.146367205622987,-0.194781752270429,-0.273799719444989,-0.951287455288518,0.250015809956737,-0.130414144174466,0.619699145099674,0.503364580385884,-0.428429931402206,-0.903451522954355,-0.265174649054109,0.318224068266457,-1.56015092099569,-0.191605983819506,0.266622668417451,-0.957947784679364,-0.0597947478916561,0.0482473129372581,2.14160800452005,0.0290719001354343,-0.463157323747925
43.795,-0.390118614195877,0.259333855215225,0.820135854443156,-0.147828713059425,-0.197072520587236,-0.26926580422242,-0.959766598206999,0.25039352713938,-0.128479514451373,0.634633801078684,0.497524719312335,-0.431352244157769,-0.902866117005012,-0.265841687756203,0.289642708846772,-1.44819645662658,-0.136907417777303,0.269250954357041,-0.952798655099023,-0.0572517382050939,0.0467022002020096,2.14344571607944,0.0444510842876467,-0.484053058006208
43.8,-0.382800337387201,0.255033018411101,0.819525309646574,-0.148878711695505,-0.188067400770102,-0.261631026671138,-0.964962803925332,0.258161780207834,-0.131025199346433,0.63014614493757,0.496286749839783,-0.442346959013223,-0.902710522508859,-0.281122454875249,0.270441227137549,-1.37763400403577,-0.086661669308073,0.265346573766603,-0.943908349605452,-0.0506232636115516,0.0457292950780498,2.14314436912537,0.051738836672678,-0.497767135605384
43.805,-0.395000725348731,0.268721884607459,0.819896138497542,-0.149050399661064,-0.176887809610063,-0.24711275185905,-0.966935666709219,0.272650842695696,-0.131283342991634,0.610652790467845,0.508548711302636,-0.447141643917751,-0.902346567085811,-0.302185751987445,0.245626137656936,-1.41680978268122,-0.0660431910196016,0.223514258972234,-0.940246743741887,-0.0418186564639208,0.0533785413598643,2.15277020069538,0.0538285044763209,-0.500232188245056
43.81,-0.39648162091486,0.27829920170159,0.818998426263478,-0.149973408010366,-0.181689267042748,-0.241651168874691,-0.963347462469177,0.286772907962303,-0.132282636377854,0.555891263664506,0.50407359565054,-0.450675440671432,-0.909685135289228,-0.302960518683878,0.229239783593598,-1.45735891947172,-0.0542031658064469,0.178668670801776,-0.94557792053177,-0.033309271684601,0.0554894529941479,2.1658873263945,0.0533292900963714,-0.494810566824779
43.815,-0.382344482900429,0.264041246724344,0.831260510812834,-0.154666022755229,-0.178806098219563,-0.235781079656959,-0.966369477157673,0.293465611369407,-0.130536984712559,0.48213730130445,0.494381850779704,-0.45843381020647,-0.918221549920704,-0.301984115503897,0.222852295981929,-1.45267417929248,-0.0333512805874606,0.153696213345361,-0.949844018130862,-0.0247036774868941,0.0551096139902412,2.1708072385722,0.0553099036635336,-0.487842489055247
43.82,-0.382226229093106,0.243120507341231,0.830110103413833,-0.15375440734003,-0.167994746061717,-0.235474377426939,-0.976257029026812,0.278318336720401,-0.144166165973508,0.416200061363202,0.492243597216405,-0.468164543471532,-0.926775756359669,-0.310282339546066,0.199156754417237,-1.43143105849561,0.00564881998491716,0.126484260517114,-0.946448816903553,-0.0137851785801493,0.0580429830740362,2.17275370444015,0.067945927530933,-0.473897827404583
43.825,-0.38986988144732,0.242906331783865,0.818745547687406,-0.148353750938945,-0.163659340940589,-0.234422301279256,-0.975464534490988,0.246629389477812,-0.151575649409335,0.385074213483939,0.488421799105419,-0.470349260690805,-0.930424614365191,-0.315757823185589,0.180489764184648,-1.42903608469185,0.0376119353398575,0.136034853605092,-0.945047870492862,0.00763150303025271,0.0583001179833555,2.17591691195582,0.0823775747924716,-0.447572356382704
43.83,-0.397345491402991,0.260763746601052,0.823729744939926,-0.154726609850578,-0.157626284438225,-0.221544223102211,-0.964706749873701,0.227046080906537,-0.15868590779552,0.38485363597485,0.489659028348496,-0.467608166087712,-0.940324758007241,-0.315162426126902,0.188964727079516,-1.44346852560779,0.0452968564052143,0.202021417241733,-0.942303777877339,0.0279995960241143,0.0611402358299143,2.17160927106827,0.0972106344792874,-0.418625452660643
43.835,-0.392536147320618,0.258068490873332,0.825969337237591,-0.165038172922515,-0.156311691930389,-0.221612398348235,-0.960473003434723,0.228343356211594,-0.164603715151041,0.387900292873383,0.492151749953948,-0.467054230794631,-0.948297930937962,-0.31341038333846,0.183705611218401,-1.44707119905078,0.0422654960959516,0.274950146094012,-0.942554789452032,0.0474074259567369,0.0689305923810552,2.16429838574906,0.122632862245461,-0.384732467092315
43.84,-0.393081964470825,0.248937653591837,0.834368543041149,-0.167877498875634,-0.15432146402505,-0.226611777085528,-0.954751236862762,0.228150012288256,-0.173432812784717,0.380452434605692,0.490590452958804,-0.455336764935983,-0.945452389789986,-0.312042737394588,0.169229105731009,-1.42181445654015,0.0463368306121712,0.319509352784354,-0.944220767405016,0.0654026512345229,0.0768897582753194,2.15847778301952,0.153432693100788,-0.348743252928812
43.845,-0.393302880064691,0.236529890024725,0.832793250379653,-0.162576690917242,-0.150715043347752,-0.230814550913024,-0.951311152976116,0.21289545076732,-0.186410104793845,0.384309387396103,0.487441556928337,-0.432655857967214,-0.932483663804228,-0.311093273481754,0.146937278716769,-1.36943757573054,0.0574193530336016,0.345095150475238,-0.942222090668104,0.0778561904899822,0.0818045366107301,2.14905810803102,0.185123012373624,-0.312381646547329
43.85,-0.396434246524976,0.221622367131853,0.830896220425128,-0.155986410684743,-0.151495063375075,-0.236561161935883,-0.954602298913259,0.189717474568455,-0.195560962564631,0.403782040995725,0.486513197422028,-0.42713632013423,-0.91543534576101,-0.302362104506529,0.101414045646644,-1.32624662120594,0.0561564988166576,0.342821548247697,-0.942169913273414,0.0867463560199009,0.0860276958029438,2.14214798570943,0.224471232635993,-0.269469340077106
43.855,-0.404220189761534,0.198884328894275,0.827465909707421,-0.149932889878242,-0.14270444191927,-0.233805231637927,-0.951820003691935,0.171887725927785,-0.194693970566463,0.462633118385175,0.491126992558303,-0.42458511462752,-0.905929018650142,-0.292349088724599,0.045866316032813,-1.32644537789778,0.0410634925630918,0.347820691983765,-0.943323419179206,0.0922566525892142,0.0926885152812533,2.13883321833943,0.256013979821067,-0.233848831923079
43.86,-0.40650097041069,0.197001691074323,0.830486917121814,-0.145740459359362,-0.144615255230202,-0.227799802531766,-0.945367108845171,0.173424883793782,-0.190498032153867,0.534459810659387,0.501874410653005,-0.427006252039615,-0.901303972096989,-0.286914510440086,0.0111726471271138,-1.39040602090436,0.0127709115163173,0.367918682083269,-0.949204963558701,0.0933180926916442,0.100445847824177,2.13649947866571,0.278315949132374,-0.199965579623957
43.865,-0.405085157336821,0.211908155098817,0.833402721573962,-0.136539642354942,-0.149236028603162,-0.218818427242419,-0.935997021680101,0.200799492480099,-0.181689345538536,0.597900603993196,0.512152370626116,-0.4345220147386,-0.915324405247372,-0.279610854550894,0.00166730416766233,-1.44463373652893,-0.0074197121956418,0.383928107354617,-0.957964553964859,0.0828904185832882,0.106798287446941,2.13742183351512,0.291569629977436,-0.167713499779135
43.87,-0.39775350246155,0.222500409231465,0.832658121877516,-0.12822253274544,-0.153132333918883,-0.216797090541604,-0.931532284321352,0.232928232733339,-0.170234334185821,0.632283693521932,0.519532319948657,-0.434505033583454,-0.940452029499411,-0.248579260494141,0.011476916272937,-1.46569650383679,0.00966112926106754,0.404990896836444,-0.965397045433658,0.0608909594505931,0.110337861052247,2.13893723502057,0.290374174065696,-0.140728855663142
43.875,-0.388529923740822,0.226933461560175,0.833723041733628,-0.111674202792058,-0.151606731773205,-0.228677163778562,-0.937290082113155,0.242081000920093,-0.160967156665006,0.640351818012469,0.524454398703051,-0.431518501075987,-0.945998387229917,-0.211840332823649,0.0283103376334385,-1.50488683588545,0.0504478827247745,0.428803889516948,-0.972205823726868,0.0399103283775256,0.111700650377806,2.13368916350086,0.283441707453007,-0.117242284728301
43.88,-0.381377810380077,0.238855451371461,0.834633676872052,-0.102910843823936,-0.147427976131439,-0.236309417782251,-0.944929701730854,0.238740721421865,-0.155826696361407,0.656057904905783,0.528050013152803,-0.434537582360674,-0.945154930427321,-0.195643811996999,0.0484802754235301,-1.58718229370693,0.097522517405718,0.450539233323129,-0.975631584016261,0.0166927664056099,0.108392843068436,2.12356241074066,0.275266835077517,-0.105371216913695
43.885,-0.379163253778577,0.25156622948959,0.832507771439995,-0.101048462589905,-0.15882062146058,-0.244090245744695,-0.950519690429845,0.227119996421673,-0.155717797777097,0.680474183598961,0.534762035960325,-0.437591484073055,-0.939346059538847,-0.177891592849668,0.0711179837672704,-1.72014157610171,0.134475675397509,0.510207619666757,-0.980936669117037,-0.00789315783049656,0.100087459109744,2.11312078041145,0.261549170133052,-0.0952180188422573
43.89,-0.386606964565316,0.251676382475648,0.829039393132582,-0.10583132238374,-0.159430346272524,-0.255000369754638,-0.949095137601108,0.211905873288849,-0.164287717603091,0.716824473304208,0.546853079282855,-0.439504660804273,-0.932975803733556,-0.163874297670621,0.0954094780689054,-1.83356242218787,0.130316383665204,0.581433850334856,-0.987039420269684,-0.0215614962380406,0.0898493951951143,2.10362846225307,0.248586570860769,-0.0924234532124945
43.895,-0.397843286242652,0.245890649023086,0.828175296144301,-0.111172114793064,-0.159679442741861,-0.26858505986134,-0.93820898683336,0.213006269154779,-0.170317049756458,0.756422606834839,0.559479295690951,-0.437760442753584,-0.929950581655028,-0.147103563507807,0.12015415697058,-1.8783766493755,0.114662413137959,0.616478495878974,-0.990970823434597,-0.0296858377658537,0.0800655007942961,2.0932299895096,0.24723177166116,-0.0945446838188134
43.9,-0.393460163047687,0.256469357196788,0.826699733415018,-0.11307826122756,-0.163852991020223,-0.269587176366958,-0.932493987282271,0.223328795605619,-0.163486667774405,0.790328398414106,0.574629122433346,-0.432797266161982,-0.925192520996933,-0.125302824547233,0.143661773251765,-1.87169621328064,0.105167728920592,0.618500992440821,-0.992415065262549,-0.0389814345107629,0.0741393435538983,2.07763214671895,0.252831088768562,-0.0977079656060141
43.905,-0.378004287593833,0.273349235132306,0.826023508209626,-0.121429787266866,-0.159333706900228,-0.257990345077824,-0.941805714942095,0.232545995783353,-0.158454357610364,0.786601898506705,0.590131220291909,-0.425726195721777,-0.922078804139797,-0.118675784743937,0.166580990222695,-1.85871445805783,0.102439294416832,0.586901328436243,-0.991286195408824,-0.0533677958208277,0.0708812195952883,2.0522452723247,0.259707980907793,-0.103781920760701
43.91,-0.37288803168464,0.255211266436564,0.831773860741103,-0.144329490018987,-0.161901980700751,-0.270788731480664,-0.95180797795168,0.242951116946302,-0.165762638734286,0.73850769366752,0.594022333621979,-0.421177990602381,-0.928477196809324,-0.130596822144488,0.164473330453485,-1.83696712365648,0.101857668418391,0.545792132823552,-0.987213374283027,-0.0710408528920531,0.0673669633601708,2.02411803175216,0.271760573984941,-0.123988558635932
43.915,-0.394347867170586,0.245427780564476,0.830080530484884,-0.146174976127992,-0.160297759949988,-0.282781005704522,-0.946024761189866,0.234611805984492,-0.177376329328384,0.696828708661524,0.604064286394067,-0.419193156437832,-0.92463037825346,-0.140825502701731,0.14558415364701,-1.75403580477001,0.0497340418103257,0.507661021949548,-0.979552635925742,-0.0736827232058278,0.0639058015519786,2.00753332270168,0.273624641651721,-0.139337859199691
43.92,-0.3950971411161,0.240525679702662,0.825067153879158,-0.155559145155744,-0.163720710724393,-0.27893674960395,-0.94286695093148,0.231249497763427,-0.174274574671483,0.671206641535924,0.61259471626791,-0.427515310988994,-0.924270557303154,-0.140231365782154,0.14437449731439,-1.70254761068207,0.00279196082080519,0.488809332530989,-0.9745114871944,-0.0784141718778512,0.0708600145013983,2.00441991983216,0.281210901970005,-0.167211120789581
43.925,-0.385817234240999,0.251498449681229,0.820498478804164,-0.159467216645893,-0.156107828195957,-0.271531320978767,-0.946582051773691,0.227861235113334,-0.172596738406057,0.632426337251936,0.628933471701357,-0.433627231819064,-0.924139404934229,-0.139730915267869,0.139641041184379,-1.60455369432971,-0.0339760588292034,0.454900216617705,-0.970096510649734,-0.081468335379125,0.0733876965581633,2.01393387877427,0.299775139107197,-0.195723060687717
43.93,-0.374375273245114,0.254093272614645,0.828211782538057,-0.157844507809569,-0.154758140444756,-0.266063164304793,-0.949184349090145,0.221170530492453,-0.165851868029314,0.594224653176372,0.645650777685035,-0.433586645558793,-0.925925271008101,-0.142446380152819,0.134334213335265,-1.50187511936648,-0.0675650024881798,0.402157076740504,-0.972730630233621,-0.0755497106470527,0.0820499577174003,2.06102019334212,0.332358549872075,-0.240961398294567
43.935,-0.37714911003618,0.245428251939035,0.835177174944324,-0.168840420018818,-0.157202549653615,-0.271597169714535,-0.946839312166673,0.224886422917172,-0.177087662418335,0.564040842251276,0.651046049011555,-0.428609320449288,-0.94977423076186,-0.161626967311341,0.14878958653582,-1.48744690944831,-0.0909919444189259,0.404351205464095,-0.973500501602512,-0.0713514079449815,0.0849303445856219,2.10901899915508,0.364475847197568,-0.275837397760184
43.94,-0.382187717510956,0.243619835676983,0.832877956257819,-0.177599755812453,-0.152094598098088,-0.273068217568843,-0.9415259067074,0.228726656788142,-0.179766640435246,0.550835976889373,0.663401463580972,-0.428044264460922,-0.969887990947819,-0.180777327228727,0.172565258701805,-1.57178119295042,-0.121603985573762,0.444758067437945,-0.969838259022484,-0.0650886604011967,0.0931174162855139,2.1666049565683,0.393924362945539,-0.312760007890342
43.945,-0.376079347920413,0.266595426971241,0.834974756397312,-0.19051297086882,-0.121075983583892,-0.251252577973931,-0.942438849898086,0.222969318072842,-0.179507411241209,0.536123750815339,0.6779650872526,-0.425986558198929,-0.969116403762141,-0.19479779593427,0.205715200040665,-1.63655720746722,-0.131735781211358,0.485872492164755,-0.968346403992694,-0.0551013554049569,0.100011190029158,2.21457731620321,0.406753058150831,-0.346821700643331
43.95,-0.369499919862317,0.24476499183658,0.834320625441658,-0.195037856987368,-0.138002217394612,-0.264662731951136,-0.946931217661457,0.226986943070212,-0.193568068968331,0.508465209178241,0.68499210761285,-0.438579731631769,-0.951469207931188,-0.197610226257421,0.230654684834037,-1.68492226403678,-0.124205642574239,0.493379546307409,-0.961243687800888,-0.0496382116275262,0.105934194956788,2.27639887052379,0.390984243361735,-0.389589570534609
43.955,-0.374726596901856,0.236682190516421,0.837964260999935,-0.193031415343285,-0.131595504267521,-0.274832010056063,-0.954593810641471,0.21603516091109,-0.213713123362661,0.465642081758878,0.688539477159791,-0.444220190688532,-0.940655815890174,-0.192191458122287,0.238572345165108,-1.67890497864505,-0.111019813716493,0.484449911777243,-0.961366312875951,-0.0433958836303613,0.102022888565548,2.31422789112224,0.34942948486181,-0.420258849227307
43.96,-0.38616285328715,0.230048401321162,0.835455728559229,-0.192170261558024,-0.124436262260808,-0.271235590389035,-0.955717885591246,0.213892866024567,-0.238814725897344,0.46235803058196,0.695168848673405,-0.452929464077464,-0.922829545213778,-0.187559441229855,0.23784225041844,-1.58292276750293,-0.0974002071397654,0.472369687775194,-0.963197575771997,-0.0262652166887041,0.0935305907929753,2.35165194462467,0.284035490052705,-0.453370294920204
43.965,-0.392912004154315,0.238793470020928,0.830665778797001,-0.192960653642481,-0.116088476469106,-0.268143328341042,-0.955455841080364,0.201262076270457,-0.244810441418893,0.478191872049108,0.702397043323288,-0.458616168672593,-0.906606186869518,-0.186195641252022,0.223798290754807,-1.47158390264435,-0.0971562167182736,0.477537085682222,-0.96504734409582,-0.0142206632160772,0.0824231478598242,2.36931039430425,0.209637652243494,-0.488393150363501
43.97,-0.389010813055026,0.224712519169612,0.834785843342426,-0.204764590661173,-0.120550692081451,-0.286510648330937,-0.93612964662999,0.20384497494615,-0.252008732466813,0.514409618472282,0.711602547037985,-0.461187266986178,-0.897979727379267,-0.199944479988042,0.215909176174907,-1.3961652732335,-0.104317086064622,0.479073989247268,-0.966842448994798,0.00855472147493484,0.0746789958382494,2.37600626753497,0.140337282871427,-0.521063939001296
43.975,-0.387315506638472,0.222332099453378,0.833979962807391,-0.207172338972209,-0.124186508059772,-0.292884353610922,-0.922526722184433,0.202656620215259,-0.252884436665278,0.537273673883992,0.72202504711782,-0.462688818117965,-0.86616887649381,-0.208516527816076,0.217870331464583,-1.38123953486926,-0.120638771191607,0.460436356080591,-0.978964913820735,0.0396171715400106,0.0652466778262206,2.38671476147048,0.0721284578710705,-0.555549478017872
43.98,-0.385835847611466,0.217608043522321,0.834500626272081,-0.209703169561471,-0.125869435732558,-0.291161798693971,-0.913044439787467,0.206851811280449,-0.254556769978287,0.540687217599686,0.719856858253479,-0.468670771234695,-0.911121279642265,-0.215114027665823,0.225848341710083,-1.32647043467562,-0.0858526292353955,0.346396684656546,-0.968972072848935,0.0779495217889452,0.058188811895458,2.38448792270789,0.0388430772072019,-0.587297594664725
43.985,-0.385760835470637,0.221791285930857,0.837181615691391,-0.212554976326222,-0.127810224406295,-0.286327094467644,-0.903981484799664,0.212337973737855,-0.257495805687155,0.545291050319959,0.7210369448205,-0.484129014706329,-0.93968465095613,-0.201639070465431,0.256608767972885,-1.31703209494794,-0.022240568944159,0.407367398938372,-1.00839140404329,0.0996578705391728,0.0584029136333412,2.38823576886686,0.0159255391682799,-0.612470824439806
43.99,-0.394851230635836,0.199800247091509,0.849007807516575,-0.218139378831677,-0.123780318600751,-0.281425775844622,-0.926678070563273,0.216666607305885,-0.272754599839535,0.533447210168656,0.721893728585378,-0.500838216082147,-0.867483823320609,-0.235082576282642,0.266769104421487,-1.33382179042727,0.0216586337107975,0.370512855421602,-1.01661290142265,0.130494418971901,0.0559181049451928,2.39987797591305,0.0023626397352359,-0.657557172471861
43.995,-0.388725572059869,0.236436485406258,0.845137154873854,-0.215021908283234,-0.131198284028161,-0.283683938373299,-0.930224608980661,0.218960596770136,-0.271303702059092,0.554730616052545,0.725255958912721,-0.524628588940829,-0.865811161016108,-0.238282470491315,0.30577186708398,-1.40563353639901,0.0248820716373311,0.28860842858392,-1.00161431808319,0.151955747693029,0.0586615423317969,2.37521406984704,0.0372755163608465,-0.66455232838517
44,-0.381167482855534,0.21301606423844,0.846901223658614,-0.22226895336084,-0.12463224160512,-0.286145630140337,-0.934079418345389,0.226148255920371,-0.267615023489571,0.568468827888195,0.73096323494534,-0.54058356969041,-0.894708625477317,-0.238566761993692,0.346664859089051,-1.34007066663154,0.0591995750716105,0.281481791831372,-1.00393490471772,0.173805171528132,0.0495650425907554,2.36552407007617,0.100935539858372,-0.64091895175979
44.005,-0.388707797303104,0.200050233466054,0.846996252455642,-0.233250487151828,-0.121115780532594,-0.28287658866309,-0.938214642204326,0.223114522055431,-0.262542714011489,0.573393080012491,0.737772749502601,-0.562795470307979,-0.90598482970269,-0.240438931165925,0.369984400630707,-1.28480867801845,0.0990125590774714,0.334388713471701,-1.00019212675213,0.194012301960211,0.0521660942004736,2.34884421002482,0.109350789616076,-0.627169318989898
44.01,-0.382457389288243,0.216399734257009,0.843439753098608,-0.218250819888186,-0.123547366569371,-0.274011240482775,-0.941589778681267,0.228257892524823,-0.260579545804784,0.58059032217377,0.74127538322342,-0.588055644468106,-0.922362239149853,-0.249054808901282,0.400147175405817,-1.31281087734651,0.128290175316667,0.391709800981276,-1.00293783479513,0.214418287473524,0.0536282659892817,2.29912796535318,0.0504202768701677,-0.617461139962118
44.015,-0.376210261425293,0.247539030606424,0.847128220434369,-0.215424992682302,-0.111302134492159,-0.257998257946002,-0.950752025547231,0.238078455312785,-0.261662553233621,0.569608788438007,0.745851052045082,-0.610933765338211,-0.935291100284794,-0.256521988807661,0.429494927692853,-1.35034848812412,0.155756713115065,0.442065137959575,-1.00208318363234,0.225729548937663,0.0462044948011023,2.23450744060618,0.0252434368164354,-0.608229630577594
44.02,-0.367682183883964,0.244025741613257,0.840348788324273,-0.226679027537481,-0.107890136861139,-0.266538571851129,-0.9583650371119,0.252567322928982,-0.274392511710487,0.533766498913455,0.745949913149917,-0.637308278571073,-0.944496278172411,-0.258913803544889,0.435076136978086,-1.31166156909261,0.183810115451665,0.474998763399544,-1.00249561368438,0.237745213681146,0.0338713215487747,2.15063483897295,0.0543803758702569,-0.555796368852145
44.025,-0.365722210339545,0.253579240413952,0.836523625279963,-0.235525101691889,-0.104392477318221,-0.27431570644719,-0.959053472292371,0.262287276274747,-0.281307822780642,0.494557478166284,0.742962558828329,-0.661031120244189,-0.946179541778195,-0.255234435134721,0.418883482761412,-1.20169550886654,0.221986276625289,0.487013984460598,-1.00044824175644,0.244851356225027,0.0301213319275871,2.05817084758723,0.124148399233582,-0.465943371002261
44.03,-0.374547913728078,0.259099278909284,0.830460144974838,-0.245788482207384,-0.10033667897723,-0.290332613312214,-0.954020333338737,0.257745155118404,-0.285149409206233,0.467479167812139,0.740625619888306,-0.679331509448393,-0.941673806277959,-0.24601742830806,0.375879422921996,-1.02712418107285,0.265598656312085,0.489145045760724,-0.994509412964812,0.241578106138301,0.0399400744941912,1.97137927786966,0.188688097381717,-0.378482096704771
44.035,-0.374940699573716,0.246323812656275,0.83938218690314,-0.261207800907708,-0.093710721892149,-0.310288010380334,-0.952124256675108,0.23283234290992,-0.291901295649365,0.43527539891118,0.734913544835221,-0.693775987908965,-0.933684387050468,-0.234324789989719,0.319108955114035,-0.826463442898477,0.297546454439067,0.491929468543943,-0.988278879124422,0.227486456396021,0.0534167568989748,1.90158912052371,0.22704767838076,-0.327570880024663
44.04,-0.370279242678701,0.225601880238979,0.849649284530405,-0.266153941113721,-0.0872067052296169,-0.327484032861759,-0.955773943017173,0.205642233806158,-0.311119902487394,0.399316203205317,0.72833593029892,-0.698351606904847,-0.925592958262878,-0.224707429525761,0.270645996214662,-0.666687342910321,0.3124633635861,0.482180137280162,-0.982581482658381,0.206185371915493,0.0663421345110802,1.85210504206278,0.264582610742567,-0.291256462665129
44.045,-0.383092843789422,0.201051080034528,0.851361532766653,-0.265111356973648,-0.0779708727170106,-0.342846560561274,-0.958427721265071,0.178899885181223,-0.331519924576356,0.377436204884537,0.725954695237876,-0.702132020835504,-0.922207126146934,-0.21610957261301,0.223584972648199,-0.562736972033249,0.31448043533978,0.449548924524455,-0.979818281258778,0.177671266400224,0.0825784694239284,1.81073987887852,0.324402727588577,-0.233155939715433
44.05,-0.385398791298417,0.186316940124074,0.864970145862555,-0.258675849348311,-0.0623871681053717,-0.339267143633653,-0.959527585164347,0.15793946428303,-0.339566523335146,0.383211938858771,0.726094424154035,-0.719133439302053,-0.926483768857102,-0.207947956802367,0.181266526275378,-0.509076161924727,0.30560782709545,0.377716775446361,-0.988486319866102,0.138144724660665,0.106673371523818,1.78421746801448,0.387617553743565,-0.167790494685978
44.055,-0.378875730720007,0.185568525611457,0.877883883029375,-0.240899530765408,-0.0449166280429993,-0.326461278548071,-0.969117092469814,0.156752627065906,-0.342812901809008,0.398035830655155,0.725784332521317,-0.740188206825485,-0.940869811501454,-0.204705905952771,0.150902921414504,-0.49192969225109,0.305005513412459,0.29145531986704,-1.0219341030291,0.088357372768838,0.130832421965125,1.76286904417203,0.429742754899845,-0.110610691475291
44.06,-0.373153726205022,0.181216612905177,0.861162464908528,-0.221329574162754,-0.0266794073482695,-0.326441943514425,-0.979812255730999,0.154926895143005,-0.340092747372991,0.389012202225068,0.722783888772653,-0.751126842531818,-0.961220741657226,-0.1985110503899,0.126900291260081,-0.470018271962455,0.312529035895001,0.213467451351184,-1.06255188816754,0.0436227690217012,0.145626195474259,1.74917900041715,0.45754074643098,-0.0587520950924937
44.065,-0.362846725014475,0.191440687613049,0.879065191706256,-0.186167703399241,-0.00503004657972392,-0.332701012604947,-0.987383104720496,0.155655109930842,-0.335061424104525,0.389383152663875,0.718127160743435,-0.758713190276883,-0.978611203073531,-0.189351221738258,0.100323142209381,-0.444668632220595,0.326521808102227,0.148339129891782,-1.10016149708446,0.00529970771253548,0.141147620238385,1.75711874419503,0.462352545343223,-0.0260503486903821
44.07,-0.374117649904881,0.201814759992269,0.887334527142613,-0.155513288393726,0.00829377934149033,-0.346543769411314,-0.989225921659251,0.156009714495732,-0.344723432955923,0.401723681776037,0.711757244888325,-0.769215226537512,-0.984544426534532,-0.18098763865081,0.0704592863671157,-0.432243757088064,0.345691342498572,0.106635435232101,-1.13546521171786,-0.0373828694630884,0.121965435573989,1.77866390773105,0.445748160358416,-0.00931010875826892
44.075,-0.379810226650844,0.178273772052269,0.865381513796997,-0.123052829183088,0.0361681969593589,-0.377087496224648,-0.983834241595391,0.134275000916634,-0.352851093493314,0.446114892546811,0.707639932632446,-0.777107349295368,-0.986963870582579,-0.170645540045604,0.0490175051589492,-0.457569930291004,0.363179173388809,0.0796959533660047,-1.15651029739966,-0.0775259032790748,0.0950473667536343,1.80171401054336,0.395665997860025,0.00335730296844111
44.08,-0.37973110284687,0.227166277394231,0.901892576467708,-0.0812436094127706,0.0735860884763721,-0.377765432776358,-0.984868530833037,0.114207158134241,-0.348850363700938,0.537335790785679,0.705947820382224,-0.779902307174153,-0.995135032665347,-0.173046233753787,0.0360070944170309,-0.528889474316512,0.378706164068399,0.0502629060038067,-1.17303881147984,-0.107019852901107,0.0622774491946597,1.81759779526126,0.320580995704437,0.0160285841242196
44.085,-0.362786983535187,0.225816840340092,0.852120960798789,-0.0648519477170758,0.134152580097346,-0.411322251288729,-0.989383761601071,0.12237309489179,-0.34806254289912,0.620932017853406,0.705196499824524,-0.776630534613743,-0.995260689749908,-0.192452826809892,0.0221640827594643,-0.681006892480456,0.374321597097451,0.0411173391582887,-1.19244907257082,-0.129224114532976,0.0330040618416229,1.8217469111655,0.249258613145323,0.0304497089699334
44.09,-0.341004139450623,0.19376559307911,0.908355126757233,-0.0620784489188708,0.178577847529039,-0.435203936979163,-0.990108371526081,0.0966945831076246,-0.355927367261897,0.622167759011752,0.692147509142252,-0.76533380462451,-0.988086435779938,-0.187348428765194,0.00793224148395851,-0.753434063116954,0.368392285525705,0.0256183440812406,-1.19681929860796,-0.118935377023046,0.0264210931717292,1.83256052600559,0.197532085308558,0.0302871464418244
44.095,-0.37614634910934,0.235404998208663,0.889701280097251,0.0225141508327837,0.240284232339357,-0.459625022776231,-0.993716632975828,0.135405541402868,-0.37073153744385,0.736133365172648,0.696487513271186,-0.758807551554165,-0.982462547705696,-0.183420269122268,-0.0214827182749357,-0.829300413073666,0.358874117768821,-0.00513301768906451,-1.20174024128616,-0.112572124718397,0.0310243959028123,1.84350076335353,0.174905620278304,0.0209716034119913
44.1,-0.400519889659337,0.340089907223713,0.882668015171363,0.049722575618524,0.318682557895282,-0.492835523604408,-0.993298383024962,0.179967575093302,-0.334056887210048,0.782941370251864,0.685082772609583,-0.752285210843076,-0.975390554881383,-0.169784668291071,-0.0334327974946132,-0.845264121563103,0.361164358348484,-0.0330652738336872,-1.21577027877853,-0.103915363813427,0.0370052838468035,1.86607243110531,0.172742694783661,0.00541675323365139
44.105,-0.360408826739192,0.181693163152674,0.896575945418676,0.016660127093584,0.364205611667459,-0.547580940362199,-0.969893660013828,0.169837936039862,-0.35787156988308,0.713693765106206,0.658139957391062,-0.717823557544826,-0.98665072884962,-0.132242296795752,-0.0515346258159122,-0.808064413435615,0.370353695896602,-0.0476602832914134,-1.20415951031986,-0.0963665415654854,0.0494187531447162,1.91331809454348,0.183111319328438,-0.0228612847225963
44.11,-0.401945320489713,0.270057261695706,0.870714688018122,0.0448096505105375,0.459782375210939,-0.610219086886021,-0.989494953975688,0.16138726804518,-0.317314668752971,0.709700621383875,0.641675806594035,-0.700985933780727,-0.996114074568397,-0.114128396510426,-0.0561174348575001,-0.770714436820996,0.365225404311478,-0.0688718811445561,-1.19737460233306,-0.0984734592160294,0.0555913641314787,1.95834778476636,0.210529166042342,-0.0528981499234809
44.115,-0.412070477108093,0.281306802621345,0.867642785796614,0.0133923640207923,0.516425628918886,-0.647717014844675,-0.982268565601498,0.134333750107186,-0.317609478212475,0.650060636427001,0.617883655270963,-0.697202742099762,-1.00925146453226,-0.1001666649503,-0.0473454212734692,-0.78631432860073,0.355476194205191,-0.0815220092613611,-1.18565428894542,-0.105656356912874,0.0535812146124649,1.98470244166045,0.224350361155548,-0.0810614537322583
44.12,-0.429374150252315,0.286156067581794,0.860052896864501,-0.0329572389037672,0.510191945573871,-0.746979952695784,-1.00148211962618,0.151776954362386,-0.310747508829036,0.649463603512745,0.614730828712884,-0.694880018250446,-1.02548087907832,-0.0863708534336202,-0.0259858374738409,-0.888368996860529,0.3207649536493,-0.107259228854881,-1.16541309039974,-0.0970470397204891,0.0402713862126397,1.97562707214621,0.202110920897315,-0.127467214027994
44.125,-0.43986079737797,0.265685111573618,0.874496070399819,-0.0829023036764697,0.535345604574239,-0.847358960627651,-1.0204417289433,0.183806901485171,-0.318970895450243,0.694242615951864,0.605351135110925,-0.677655637264252,-1.04339302902332,-0.0777366235866648,-0.00236769603271802,-0.978487842850558,0.285089249089192,-0.143847743267403,-1.14755264318633,-0.0820380169142114,0.0254476154621975,1.94621479200493,0.162915109862947,-0.160981180843831
44.13,-0.476250531110153,0.301093181436702,0.844689096406874,-0.0752977177587855,0.591759973205661,-0.910924842565499,-1.04735668173408,0.234489307919853,-0.322916452568894,0.792265952535964,0.594170388242698,-0.662037106472452,-1.06288093210801,-0.0612068080974756,0.0137631545804012,-1.0199959128299,0.249468481630399,-0.175323342479693,-1.11481544183312,-0.0529433186064269,0.00302880769230165,1.87368584150828,0.0803355512060885,-0.210655647638056
44.135,-0.504038756042881,0.35609041465776,0.873029211388469,-0.0644142842271367,0.632618310508959,-1.01374305679171,-1.07436490606122,0.290310711122266,-0.29404459433689,0.848464358271819,0.589615027019261,-0.616585683403748,-1.10010090632811,-0.0298524738514164,0.00995608543698736,-1.01309929102995,0.221417259848529,-0.17251653204139,-1.08145303842232,-0.0213641788319236,-0.0112472773442891,1.8029824952259,0.0113445762192602,-0.243849169057068
44.14,-0.525013996265034,0.332289822756102,0.829970839638725,-0.00359614224085161,0.733467487629427,-1.15307159600529,-1.09593889333229,0.351650211449646,-0.351008242545174,0.819600712196311,0.580156058622765,-0.530121041548936,-1.13379567116914,-0.00645757252477307,-0.0194843278630351,-1.00406062602997,0.184234435042124,-0.155746688493632,-1.02435704321628,0.0104273815162002,-0.029270483655724,1.71904129190687,-0.0680879530508329,-0.286137885448686
44.145,-0.616062760138566,0.446139577885187,0.793788662886891,0.137732121637904,0.77829128358366,-1.24480047499046,-1.1120065587678,0.390448065408233,-0.286758710696329,0.896715454233826,0.583935031075982,-0.472022850442664,-1.16756713291067,0.0234148001907192,-0.0511615313977904,-1.00099156904395,0.157918256971507,-0.100537047388891,-0.996764316638087,0.0253066791941425,-0.0332413558722728,1.65101109369421,-0.103747289467667,-0.30402964652178
44.15,-0.620662806516222,0.468993586143572,0.763705374045963,0.200929553465841,0.816488981246948,-1.4432408727215,-1.11660593842743,0.414115869132335,-0.314600494403533,0.887770234885908,0.560011719524546,-0.389476997620022,-1.19846537215511,0.0509748582197164,-0.0982380556115363,-0.984057434442681,0.133597667112663,-0.0152997224587348,-0.947866577670443,0.0527155102679528,-0.0323082027281407,1.57922231094178,-0.129510740839937,-0.313038264096202
44.155,-0.635148785780192,0.427122904029318,0.757122209982577,0.269803055365169,0.804826201672086,-1.73839669284581,-1.10551581468276,0.446389720343499,-0.292517626823826,0.947192870653739,0.55832705589299,-0.293357154436441,-1.21830583170809,0.0665863967464304,-0.145854202126081,-0.988851422876992,0.105131679718421,0.0897284365520129,-0.906885541898528,0.0629135671845386,-0.0240948958606479,1.52236817322418,-0.131629404861274,-0.311320117272982
44.16,-0.606649428515882,0.495687788086812,0.774621120178871,0.420807725081803,0.774500959427274,-1.98083283342455,-1.10439721904648,0.429057341640735,-0.23019389932251,1.12278876730915,0.495505056325437,-0.182685390992004,-1.22137348008853,0.0702402027080511,-0.174729409686803,-1.01634870672418,0.0813896244959038,0.204793912451711,-0.867987725509487,0.0654942511433427,-0.00417740681318129,1.43479320522747,-0.101500690997033,-0.29012288810952
44.165,-0.586889965466114,0.470917807998185,0.787645215983869,0.51514508266646,0.804408371678624,-2.17791119167464,-1.08322687553361,0.409660851516126,-0.289838378624071,1.19459273325296,0.431448510603992,-0.0709231418419415,-1.20883992575374,0.0547447364557387,-0.190591382873738,-1.10781247931968,0.0239718346669225,0.38120566732891,-0.841919310428036,0.0382406531792016,0.0101664448197541,1.35458220719561,-0.0473317152662447,-0.244639928117014
44.17,-0.614702130106914,0.49213977494798,0.820177362601332,0.560385435662163,0.844961669813963,-2.3821978155903,-1.06136678020023,0.378029659086306,-0.295733539733363,1.3558111264238,0.459382640059695,0.0514038411138058,-1.19969111449721,0.0334896661857837,-0.182275402055486,-1.1804840481909,-0.0250133880229157,0.522090485661525,-0.838388699345961,-0.0148487736919918,0.0312615386246713,1.26302000750353,0.0292825532067849,-0.176080410895718
44.175,-0.597735610298726,0.574925796160182,0.872914548094993,0.626082492593065,0.923957032766846,-2.55822512434712,-1.07585352707899,0.353347969006507,-0.287552979502226,1.57634021770792,0.503669541000019,0.133835371905307,-1.19021145881169,-0.000933556217263262,-0.172212783069843,-1.30067014876774,-0.0947368019984848,0.713547408656045,-0.860721354640415,-0.0936460841340687,0.0446011210346827,1.17411263580876,0.109878905803593,-0.0865293842964654
44.18,-0.568455319706134,0.633747850769208,0.897719354513042,0.670060352371319,1.0122381579364,-2.68025252005626,-1.12220951332978,0.387345437725842,-0.307339204935582,1.73456646029969,0.53831898057264,0.201795073399257,-1.19316590467104,-0.0305794795356763,-0.151856559015816,-1.39214842508962,-0.146985893381209,0.842948809280054,-0.911452344869588,-0.1818918384458,0.036373666529033,1.13143240514468,0.195818662782751,-0.00744553456108825
44.185,-0.592454837451921,0.70897796628323,0.815724781200298,0.681663058462368,1.08315482907376,-2.81730458616892,-1.1834842601448,0.418860053631202,-0.326802514693469,1.8953496815565,0.56870464044334,0.314820417515632,-1.21833497499681,-0.0825872085041072,-0.118668390424551,-1.52549827067095,-0.192509713319164,1.03420919925744,-1.00936149769577,-0.308504906598087,0.00340414190582736,1.12807195260768,0.28801507019104,0.0810276380202879
44.19,-0.576324332753935,0.781691040639068,0.826873108843233,0.626130126998622,1.12408800223186,-2.97093154995016,-1.23687938179786,0.446476202422385,-0.269819136673622,2.08205797448058,0.599125275396425,0.400974421352927,-1.24338581929973,-0.120300603988838,-0.116321146041074,-1.58701587170772,-0.232525538838872,1.16733456641021,-1.12734303430119,-0.416725264681464,-0.0601539924021024,1.15081651260274,0.372971659633935,0.129080683400947
44.195,-0.544769175623639,0.712058641390233,0.876731599433091,0.5902838739232,1.17634108393161,-3.17038188952843,-1.24941439965151,0.470523780690388,-0.301803102792083,2.16112831136788,0.6251476296614,0.513989949616294,-1.25701347631391,-0.14695021868251,-0.138772610115458,-1.60302324738697,-0.261978019801798,1.2847570093647,-1.22110755185331,-0.480475108318026,-0.135903865740845,1.1871651351769,0.400117218353878,0.136889479594698
44.2,-0.560961001381637,0.622775569644431,0.93746661339334,0.635161932059026,1.21961186426459,-3.42172703368219,-1.22749559893166,0.474946693884645,-0.322188985961699,2.24580711242195,0.705499928246393,0.634381522421807,-1.25916571610794,-0.17246247178681,-0.208138685097526,-1.58899160595487,-0.279486118227906,1.46494473533064,-1.27157010254228,-0.492662612285362,-0.245563179030958,1.26628408366882,0.381177998933273,0.10215673875472
44.205,-0.566170315651447,0.664742784743393,0.83390516665633,0.667180321223134,1.13837552219312,-3.59229898207718,-1.14626390518176,0.462152226156796,-0.296739672300045,2.40710609459539,0.772069577615199,0.773077181145466,-1.24698067455362,-0.188854688266357,-0.260436960772458,-1.54226867608921,-0.277150380058715,1.5888536847064,-1.25446769376532,-0.490835949248261,-0.310333773827586,1.31740888725314,0.293062110444699,0.0515513480825089
44.21,-0.521887696207288,0.723881987474753,0.861334748696373,0.648421412403901,1.0455161309127,-3.81301211339821,-1.05813343146649,0.45518420287991,-0.287776481713808,2.56399540186356,0.808041403869635,0.895715247286909,-1.2280851096024,-0.201366260343467,-0.346442651719415,-1.47693690522705,-0.252863621296446,1.82714122097584,-1.19803587629719,-0.488096527635195,-0.316229143791211,1.30299835426321,0.155341480549913,0.000646619861274957
44.215,-0.473125397377649,0.801291956860875,0.888401066319739,0.648987956659306,0.827316273049968,-4.07682300090838,-0.983110861718655,0.462461457639894,-0.256135328221559,2.73133660924622,0.806847536482627,1.00719986119352,-1.21099957251097,-0.212708085660891,-0.40535173661167,-1.48373351867796,-0.219312287751726,2.04112150413085,-1.14569190810919,-0.483341482727669,-0.274443108426856,1.24108983886605,0.0240436099771535,-0.0303733397963081
44.22,-0.412934726630555,0.828155215910121,0.850358488504327,0.68345748191889,0.619013196706457,-4.29903675202442,-0.934875355927156,0.442324959307917,-0.212015608573458,2.87701100199286,0.752547988388986,1.10304227534576,-1.14787788965965,-0.311762372411635,-0.436980162331305,-1.64326569954022,-0.190384224966477,2.27813405889815,-1.07209702109872,-0.476399412979275,-0.189034284038394,1.07860141513322,-0.106628351845394,-0.0657238224526747
44.225,-0.342830231418466,0.640312377553983,0.778144577646399,0.953047077095366,0.448787374706347,-4.51933067727574,-0.909799177923089,0.415489105103474,-0.207422359430531,2.95919729146453,0.658863955137598,1.20347709553241,-1.07026035676035,-0.441031432861204,-0.477764050226179,-1.98410382539254,-0.193843076170795,2.26772452121108,-1.02888780992931,-0.447704375881,-0.121594402542878,0.958348705364326,-0.116091302217435,-0.0902840388491681
44.23,-0.304263554762471,0.60693640284858,0.784992486735383,1.40334992344469,0.305107600114276,-4.52965897815223,-0.889825917329153,0.405810284253523,-0.22726337208596,2.98771050773004,0.563980323260543,1.30248246180579,-0.985358987660223,-0.554394931216933,-0.512769660404109,-2.50863710773779,-0.211931357587819,2.06075586715682,-1.0111394933468,-0.37813239829058,-0.0620119398059974,0.852728168989044,-0.0591402179963542,-0.134143748674633
44.235,-0.314662978115651,0.761525776021102,0.842616529496052,1.92709426802034,0.116918154826767,-4.42386864364087,-0.865385114233501,0.424177385578785,-0.226371606383799,3.01323814082218,0.487666736799222,1.37626156264379,-0.911701990501656,-0.632588976149112,-0.538527794758264,-3.00059373348594,-0.235357338205038,1.74871156561025,-1.0054317057758,-0.301096148630711,-0.0250363200098811,0.790369189409672,0.0231016213903876,-0.185991344028294
44.24,-0.303617278180842,0.937814461512683,0.961458889021588,2.17840339159401,-0.192994207447541,-4.183194629551,-0.843575199198545,0.445219937145328,-0.209732061486323,3.05933870627049,0.394373769286655,1.43268130739941,-0.883709602184207,-0.666386120645557,-0.531204732761543,-3.3223384572824,-0.232096301318963,1.37014917850541,-1.01961755921676,-0.252806564968675,0.00361612596014689,0.777670671868612,0.103187628930317,-0.232098389235416
44.245,-0.249512923677969,0.802141060337583,0.935258550679949,2.08703992424035,-0.425168196405039,-4.12857340532348,-0.82983872034392,0.470123796037517,-0.143415921894604,3.06674583578231,0.251662837694424,1.50777189416858,-0.876044594579827,-0.679742821335501,-0.47085371093089,-3.41246584023334,-0.2059685620042,1.09723182580209,-1.02649660313164,-0.196764829769154,0.0252943550023859,0.803464019143266,0.185713798384761,-0.292795152636579
44.25,-0.165665559781185,0.582416422008778,1.00194143385571,2.01934081856841,-0.677529112494248,-4.200775913706,-0.824677159812068,0.438032158872827,-0.125051971823472,3.00151953958162,0.0954857321395499,1.57972377379578,-0.883162854225092,-0.678023804507584,-0.38039878365957,-3.4264328424053,-0.195581108706205,0.904562606585721,-1.042744902347,-0.18086906278387,0.0500480774023854,0.824687912382983,0.210663642864843,-0.320048406042956
44.255,-0.108337347039201,0.363893648856228,0.98512749893784,1.98526295982926,-0.91791892602147,-4.30320644431856,-0.833419961426051,0.357379525559833,-0.127800177454456,2.9055429816861,-0.0605134839485764,1.64097984078627,-0.897429139310004,-0.676218485389005,-0.277519514396133,-3.36690895317016,-0.202553662528612,0.780103678619253,-1.0540623472743,-0.170164278558994,0.0681386727560298,0.841676008132944,0.189470734963792,-0.338918486811299
44.26,-0.125262066427535,0.193813438310414,1.03432712112988,1.97400255538074,-1.1243411834951,-4.43906316460885,-0.854378915920313,0.264922500099665,-0.146002399806036,2.84689249055604,-0.188057257444521,1.68674715793425,-0.915562488474671,-0.673719416188637,-0.174085024640935,-3.26927391877259,-0.225633641638927,0.688154300288545,-1.0666822105424,-0.155446038892312,0.0718628655323054,0.862635214461413,0.120055059737663,-0.343421503506746
44.265,-0.228511221976219,0.212226626280544,1.09642992017578,2.13074838223136,-1.52225208330235,-4.65317104865177,-0.824695676682896,0.132822636649292,-0.213345573499432,2.90607943305761,-0.319875111714754,1.73543579582018,-0.934900014264261,-0.659566963169611,-0.117178682947762,-3.20897312981104,-0.251483824037362,0.612982779342349,-1.06828978827545,-0.145968108106512,0.0761600353928418,0.904112311534157,0.0519989629562488,-0.331358553089983
44.27,-0.286833700965442,0.424006776820315,0.945458087434674,2.30687146408574,-1.81820343438635,-4.71636188153326,-0.833953055071941,-0.0308509776096454,-0.204522433813972,3.22658128312987,-0.44609828998061,1.75437331821635,-0.942401004669744,-0.639472703517335,-0.0938317083531661,-3.14847972538499,-0.281742356444138,0.520735455771014,-1.06264125469863,-0.132337740464512,0.0691638759555589,0.967785149393899,-0.0108748697412188,-0.313257066513108
44.275,-0.191271457200468,0.739079479219151,0.706183084421084,2.39716690696323,-1.96551137632783,-4.5878175821756,-0.853186977478996,-0.15473234508035,-0.194986500367357,3.66915576272326,-0.55375677069615,1.76247513585162,-0.939934348755036,-0.615480366667971,-0.0994336378374237,-3.03845107023309,-0.303067621140252,0.427721901100886,-1.0507828805636,-0.115529741246858,0.0685031755590264,1.01855059163264,-0.0449407325675513,-0.299924360339293
44.28,-0.111760238457476,0.741762103024303,0.610124585663717,2.39052882114191,-1.96386959424994,-4.42319802628176,-0.875793248355194,-0.195568760675067,-0.189909274464998,4.14984661213126,-0.647089883203343,1.79855792008993,-0.940702283055909,-0.595443403065192,-0.121516913565371,-2.93513616582168,-0.313175303857159,0.339723789179947,-1.03039638190073,-0.0989444059593582,0.0783143980162301,1.05832742901415,-0.0742461804672223,-0.275957020692288
44.285,-0.083351984812409,0.461865056076691,0.516124456098592,2.40101143410287,-1.83916901267961,-4.15626856692006,-0.869787820518717,-0.180664096333134,-0.215866045204091,4.68995639053835,-0.737488181838646,1.86239744606812,-0.946222572929252,-0.556924172188979,-0.151491303443471,-2.78304312866853,-0.297205227734877,0.298303459155796,-0.989778306288323,-0.0921985095212533,0.0877939217933811,1.05518060270031,-0.0842041927423083,-0.252794000471428
44.29,-0.11478816051584,0.349246116298982,0.517748861120067,2.54307437958528,-1.70335541108692,-3.94107141258062,-0.835131002846019,-0.114984587397749,-0.246442077735406,5.02536643687715,-0.800135224452707,1.91623197533516,-0.944672043334283,-0.531443200040481,-0.169180375168328,-2.69507231579071,-0.273193792099881,0.326397798615627,-0.948139222034936,-0.0921499442331187,0.0994418336894121,1.01284419385321,-0.0918361107414583,-0.230850326531287
44.295,-0.148361661064699,0.406485426998186,0.582364866618662,2.80232255092185,-1.63115291176544,-3.69036180146435,-0.769483249728152,-0.0222527446280504,-0.261631215896668,5.32214820928184,-0.859391527902037,1.94798700892716,-0.916119461817893,-0.524861161856958,-0.180273142218483,-2.65704529302337,-0.249866005208371,0.396046194530345,-0.906453577484829,-0.0989277787830775,0.104274053252568,0.940796208577579,-0.0897574209846595,-0.213658295115812
44.3,-0.168931817831572,0.445969648748253,0.611919820941163,2.89260524478485,-1.61564325257891,-3.56074253268323,-0.742103935539968,0.026659431094376,-0.261644514560957,5.36508369445801,-0.901521443173218,1.95821686349424,-0.880920321730838,-0.527646738192086,-0.179710765998952,-2.68733365203094,-0.244263698634479,0.423781166279303,-0.882980664981331,-0.10008595942931,0.0999365655578277,0.847977042807256,-0.0950314346863936,-0.204075677304058
44.305,-0.180998706154046,0.40764843252918,0.635153444807949,2.94205683708191,-1.58449425336476,-3.29193561588322,-0.73507990017013,0.0641696539921011,-0.250562424027093,5.28670802267317,-0.938840990980712,1.94112022964642,-0.834360716044359,-0.521709131131843,-0.166196511664413,-2.68590408284215,-0.253127743017764,0.413916157774336,-0.868429712600803,-0.0993339990661671,0.0886141121468393,0.749282911022838,-0.10243228820973,-0.191995478869317
44.31,-0.156248133772176,0.301132310076445,0.640059375117333,2.96867926951223,-1.54353528427198,-3.01595883196659,-0.736509309001287,0.0880942888821853,-0.235146938872754,5.08027349372672,-0.966641918354028,1.90503481725629,-0.792380551750586,-0.514495885165179,-0.1411890848422,-2.64904268890468,-0.274662367025101,0.356252426212178,-0.876911894170662,-0.10562051867431,0.0730625229829325,0.65866104122823,-0.107717292024512,-0.173621556677386
44.315,-0.104281576525815,0.209516692350371,0.642626663110102,3.0047029493764,-1.48332498663363,-2.7611307139093,-0.747694659972784,0.0897958394246354,-0.218462230892439,4.73942921163848,-0.984675325273241,1.86953513879432,-0.773917200340659,-0.491664681181523,-0.0991242713355074,-2.6083822481517,-0.299843801604449,0.31853369629011,-0.891280680588913,-0.123581872418115,0.0521990041208208,0.571745187852978,-0.105433688914571,-0.151047272585442
44.32,-0.0560602121793241,0.152183251691418,0.663906075699386,3.06200906929216,-1.4169490831768,-2.48931118492206,-0.766875237877333,0.0661662047872728,-0.20654265894421,4.23919228998855,-1.00625770880431,1.85135695662324,-0.755217655270281,-0.454494367826854,-0.0232953429038949,-2.55429146129708,-0.346060170275879,0.289491388593326,-0.912857113128133,-0.143708351581861,0.0350969335602948,0.535418569799175,-0.0972803717282747,-0.127199522739119
44.325,-0.0376403329666999,0.10633877367911,0.697922306978056,3.0815217795983,-1.35710634137171,-2.27563566194994,-0.791689901763932,0.00811422010888186,-0.214971283714123,3.57567208657149,-1.03563245224363,1.82168024846282,-0.737905067767389,-0.428294434139849,0.0579087812359551,-2.49378448255418,-0.407218282147666,0.251826119155818,-0.93888801416684,-0.175223181333669,0.0208673668528014,0.507506828815584,-0.0828660662675067,-0.106711358895318
44.33,-0.0405075582963016,0.0429161639953231,0.733985008443822,3.07822436627707,-1.30970103795458,-2.07754504715304,-0.810675758484662,-0.0603898405169304,-0.225994115360134,3.00789972010216,-1.06736709354744,1.77568242357667,-0.719738496026602,-0.409857497863034,0.124502272114967,-2.4298602200128,-0.465327707309952,0.192662996821666,-0.961279413144132,-0.205140800684852,0.0123151787323985,0.500235265174069,-0.0744627786490777,-0.0903861745707047
44.335,-0.0511743436482681,-0.0415036127428659,0.755319595607923,3.04854244548509,-1.25823807751968,-1.85077092046083,-0.821368267102941,-0.156640106766155,-0.233259475254714,2.50585783304791,-1.07920935816822,1.73189523803023,-0.718188347188963,-0.400683035270703,0.195685414348194,-2.35171947835137,-0.523019827429348,0.103844470247336,-0.987184731775119,-0.242866423720303,0.00960054907633542,0.504347273230501,-0.0608815724221507,-0.072437433216664
44.34,-0.0337792953791532,-0.107069078340573,0.768072278449961,3.00045263225,-1.20316619621987,-1.60783423384572,-0.818563220391704,-0.238996196136609,-0.232336273828872,2.22030043813734,-1.10029644970904,1.67597399431392,-0.732558229951117,-0.375438391153707,0.268923959318883,-2.2690324592437,-0.572760593460219,0.0240007100594332,-0.998498206715673,-0.281846164822621,0.015898498466624,0.515204527056415,-0.0438792331143137,-0.063225424272676
44.345,0.00223941542386853,-0.127552534563394,0.779885421721107,2.92522789023424,-1.15331165068035,-1.41018173136465,-0.812170122152892,-0.338592355339662,-0.230824892986351,1.72872921968093,-1.13350786567776,1.60617683915764,-0.743533925200575,-0.344953263177218,0.318446171182024,-2.22074421660805,-0.595842935886352,-0.022561603374134,-0.999695636786291,-0.310748126941372,0.0226267962022304,0.526530060981496,-0.0393942854806872,-0.0671242264851959
44.35,0.0367852612950001,-0.168209531827121,0.801106793368333,2.80720236518763,-1.08518202606989,-1.22319487967013,-0.798421564774538,-0.422266770734576,-0.248806933193177,1.49506083528486,-1.17279983188496,1.5278082231709,-0.748494892917569,-0.321505798277367,0.359332554852312,-2.15984517056645,-0.596880067442451,-0.0366590804842761,-0.993696384062239,-0.338574350543913,0.0340874967377941,0.542496856912384,-0.0391484440850139,-0.0763185147829871
44.355,0.054548439400037,-0.25396316395727,0.824019865250277,2.70207986273605,-1.02510498686997,-1.04548549714248,-0.792365652670205,-0.477612106993743,-0.255338125235405,1.43057816205578,-1.20561065319861,1.42956627980688,-0.774053057599429,-0.316770288354923,0.403539853590509,-2.04800933699315,-0.590606114809501,-0.0740241638217439,-0.976445235177197,-0.360456262259988,0.0389798939231735,0.564108808468403,-0.0445800551741501,-0.0947974392271784
44.36,0.0707244054688762,-0.324002389592038,0.817166503266702,2.67271012451459,-0.958295209590711,-0.898485354580208,-0.779126787844626,-0.534463996913983,-0.254771767587754,1.44615360989186,-1.24489375843617,1.32268722338054,-0.780232444555336,-0.328301727653163,0.422880980361007,-1.9223941959734,-0.578339477058449,-0.141895643930184,-0.95262124421094,-0.373154997240518,0.0483589915383663,0.592934741719439,-0.0572161537978651,-0.125854309566272
44.365,0.0894424851234196,-0.341440497758387,0.823220387169578,2.7265692030179,-0.860656478222139,-0.681429135678253,-0.775381958365918,-0.566196838334863,-0.245069733052074,1.55362827860507,-1.28799021660242,1.1992387270777,-0.785084950985738,-0.358127658999883,0.440546884370074,-1.77771676541733,-0.549295908328701,-0.259134593005291,-0.938678797858917,-0.384304550442809,0.0534250021814321,0.608251799143271,-0.0628854593439122,-0.153590816969187
44.37,0.066652228772598,-0.236067776915056,0.831081964967506,2.82940807909834,-0.777852231765575,-0.572744180222631,-0.792785902313365,-0.565031003696017,-0.24883329982528,1.73455059161999,-1.33056287222887,1.05971779236158,-0.790786828772363,-0.387514983275945,0.422866595066656,-1.65904840480296,-0.50541746423678,-0.352862664063629,-0.92160756572136,-0.385340277578681,0.0567492897103475,0.615052747290656,-0.073367847720124,-0.191502764702313
44.375,0.205063855127227,-0.191805580899724,0.760033865233966,2.86236106364341,-0.731414350349677,-0.368991597716728,-0.817297941383837,-0.553501471862727,-0.248247820789857,1.91623004024101,-1.38382290480091,0.9290291552742,-0.806619282480972,-0.4076672530277,0.392366344899068,-1.5621496888948,-0.466438184766547,-0.426746040559652,-0.912887690468328,-0.377353760208969,0.0493051813615834,0.611737531881582,-0.0805612957517705,-0.209173256374457
44.38,0.191145744605174,-0.240942462544045,0.69044501338201,2.94019525123202,-0.568199675353009,-0.0347556377187826,-0.82955887847655,-0.548953860753889,-0.242139151444288,2.04165401060942,-1.42272995124976,0.83951709568562,-0.813389297446032,-0.417716597882608,0.365162146683771,-1.4671435057545,-0.428936452029973,-0.458703688638781,-0.90353424797047,-0.365874448979903,0.0357256708374879,0.59348069920223,-0.0928804256974979,-0.218916407467625
44.385,0.182136390910725,-0.201270939779548,0.593477236563442,2.97263130149289,-0.384319914509159,0.0877613700992207,-0.834124473120415,-0.538280303253913,-0.220908321315356,2.09148271753955,-1.47736137182164,0.757834220289928,-0.811311140495202,-0.443923424578592,0.307658450336911,-1.28313248505372,-0.355763699748579,-0.501692071255667,-0.897576938617793,-0.351209616920439,0.0305788943066984,0.55514789926955,-0.1263141701302,-0.221224173716844
44.39,0.261511794348062,-0.20903830080213,0.503086325018066,3.04613081368235,-0.091586896378114,0.262147403974014,-0.861145125758345,-0.521282821051457,-0.198793180262061,2.05776720662807,-1.51873518958766,0.694181427394101,-0.80649725503073,-0.450354730239848,0.245047400351057,-1.07935792860008,-0.288545130989922,-0.509018999884105,-0.899902081150251,-0.317939961387975,0.0221768124854501,0.528883791502862,-0.155767707551837,-0.224413577789494
44.395,0.301172629207132,-0.17548919758219,0.46103882879818,3.16588253118977,0.221703585789333,0.409736370751848,-0.898951407270099,-0.505010437394682,-0.160863140050917,1.94541128387811,-1.58796968719616,0.630787774879086,-0.805837486683714,-0.452501012387941,0.173992625807339,-0.786845485541786,-0.196743384615008,-0.483026276242216,-0.904806648775414,-0.275804480047537,0.0191769726968931,0.505513946683108,-0.172024953989066,-0.220189732935549
44.4,0.345808844281349,-0.107185492158918,0.454541813246262,3.27128000565249,0.616930431758814,0.615131470721541,-0.928844464863398,-0.467403197045103,-0.152781170799652,1.7845361874919,-1.65570542092807,0.599423514150101,-0.802692898781136,-0.460426653403237,0.085066195608255,-0.628607895868942,-0.118777142268686,-0.432730658301674,-0.910291361764339,-0.239967575046187,0.0252916347698715,0.495132872884416,-0.179123190153415,-0.209194802182567
44.405,0.305171320672133,-0.0584090840324123,0.474316949900385,3.34248707427973,0.944415423338786,0.808389938242276,-0.953560808898774,-0.411037254116035,-0.155349564406851,1.54088664690312,-1.71624384151858,0.585113150935223,-0.79870300616769,-0.465487402674906,0.00846491591115084,-0.597312930086448,-0.0302041262716183,-0.410936385393143,-0.923892643743536,-0.195822400561319,0.039913083612921,0.486491950504745,-0.172157684021325,-0.185681061684427
44.41,0.133389034944388,-0.000187232104800407,0.54290631755716,3.40228773533565,1.27510952639773,0.9732189188705,-0.955251453309882,-0.369996336907927,-0.186714748125058,1.32268219343784,-1.75637640220325,0.589516530537637,-0.785686131462203,-0.481004630958721,-0.0574005631219678,-0.684324728627788,0.0647797072388492,-0.442354684147189,-0.926709310520681,-0.167800879883246,0.0528605157817094,0.474812057132262,-0.164459963854477,-0.166793023037139
44.415,-0.277116187858821,0.602085322119587,1.0013203781604,3.04514069750486,1.57363277702594,0.898475159204022,-0.939148476714725,-0.26250897836518,-0.271422392514494,1.15137582901283,-1.76751315593719,0.607635486661931,-0.795775913207836,-0.483157170798468,-0.122034842087085,-0.779496951740968,0.148130042236384,-0.515412858070832,-0.932196769024665,-0.142704993760175,0.0710126301781609,0.449951298085546,-0.154647041549504,-0.142048397498337
44.42,-1.06266387388685,0.676906552471354,2.56965656235902,-0.59162796729939,1.27909655871394,0.145668687217167,-0.921161485143159,-0.0187412790625405,-0.208958382542837,1.33561234292126,-1.76106668328853,0.627031159366933,-0.81504197034389,-0.454884966729174,-0.165240273174962,-0.800792520683424,0.204493644110701,-0.598061001470512,-0.932684652983016,-0.121049259172683,0.0935690467727238,0.409895646382176,-0.147452429335572,-0.117687063169744
44.425,-1.24557431242082,-0.279823057429992,2.55329083323716,-2.74263007304925,0.285215945176491,-0.704623966976024,-0.891104777796549,0.105418054317305,-0.482425314084279,1.00505289023668,-1.7015106678467,0.702828104251747,-0.865021323811948,-0.377199116218223,-0.194286416889421,-0.695965755465606,0.239459792502247,-0.643938391582846,-0.93567608458929,-0.12376322483841,0.0993674379985105,0.363520369697021,-0.157083015291275,-0.0968213911394427
44.43,-1.45830283840796,-2.0467703592325,2.35667585393054,-3.93036096719408,-0.909647854231577,-1.73888319626641,-0.81776741122102,-0.0418966072493249,-0.586950953285407,0.353303830432219,-1.62339306783744,0.741097839759872,-0.936509617685999,-0.240565012472916,-0.190048558801077,-0.51194303535349,0.332385201479137,-0.704411012868144,-0.942285551447202,-0.126314248775351,0.103669598520494,0.304101378473011,-0.178852857635986,-0.0756820812659193
44.435,-1.39496577223347,-3.2620822351625,1.75733795090847,-3.98965375160863,-1.78317174924867,-3.24654008735994,-0.795121614683471,-0.278650693548157,-0.743219537309656,-0.306827493847971,-1.53244893001807,0.639560524637167,-0.946751595052472,-0.0601003509887588,-0.118055667362637,-0.332914722388876,0.416536861465464,-0.747696591903073,-0.959809033982527,-0.132107226086512,0.101611316768968,0.240612760736229,-0.200003162060244,-0.0595096371034103
44.44,-0.911759934318408,-2.45857077438407,1.14815405537484,-2.32696310223828,-2.20769851738039,-4.13440767932045,-0.906054611640106,-0.566396250195189,-0.93377987630116,-0.913494015014558,-1.4132940715509,0.437630678220607,-1.10339932348316,0.0438579297136468,-0.0434277772519317,-0.116893876057402,0.493863537750526,-0.745975883509575,-0.894599746595401,-0.151772992155081,0.093988892339927,0.187753748556408,-0.214466206479765,-0.0407420665433097
44.445,-1.18223454275169,-0.653884144849654,1.05225553873791,-1.16167660521199,-2.13801593922946,-3.71648343446496,-0.979998608513841,-0.919837626267035,-1.02846245139141,-0.728766363294399,-1.23529993312155,0.204251602978113,-0.980286321333565,0.160161872270718,0.0126302235836093,0.0319467875058044,0.486716223226198,-0.546434710328699,-1.00156077693206,-0.154542472445605,0.0584801439160477,0.136346804373833,-0.23385377054223,-0.00446961979229393
44.45,-1.78370809585246,1.19304912226112,0.604686339728005,-0.891664712295978,-2.06740881673092,-2.60730350557307,-1.0382307037701,-1.19940474535341,-1.11187208804517,0.264225645927328,-0.984395144776912,-0.0372192266772404,-0.985740722015708,0.19524919830344,-0.0804803237496219,0.328138684361471,0.406849681304088,-0.619010284046653,-0.988967185944264,-0.149826978737779,0.0325313462194446,0.0667592835563793,-0.243491737688791,0.0925563721609503
44.455,-1.93648575366918,2.19694276358966,0.216199149425584,-1.37448060156719,-1.92818229805222,-1.16628067798484,-1.0798419938229,-1.19782170888193,-1.08808722082202,1.53192487139538,-0.754704536757653,-0.125570586761701,-1.08099791363029,0.229370107332441,-0.22885100733361,0.480070785774569,0.269259877122284,-0.599477519482692,-0.967465975559953,-0.158047303626902,0.0060976221720579,0.0138526781942473,-0.244687902146323,0.203970790173146
44.46,-1.16875802167045,1.83764468883678,0.365800203909391,-2.5087807501496,-1.42661371866528,-0.157765495065848,-1.07393608700279,-1.06931419354786,-0.991908001488681,2.88448903077275,-0.547839917427479,-0.156273724855654,-1.14957868992865,0.239272646269447,-0.371795999232922,0.638742257634526,0.265116784618437,-0.563618451083202,-0.974598034668011,-0.164370096944093,-0.00648439115397968,0.00368215120186844,-0.214872796043751,0.175191804271464
44.465,-0.657901056680261,-0.378526277031068,1.16835963477762,-3.40958558295814,-1.22853597448749,-0.211815295428593,-1.07517115925094,-0.705089732137339,-0.753438912559458,4.09753182180197,-0.310373295976435,-0.232977155309547,-1.22128847317274,0.18225992332969,-0.553852796621658,0.417333023010615,0.373834687143324,-0.645841589505656,-0.971073814711626,-0.142388077374402,-0.0228121535307755,-0.0107919238282798,-0.23454463318669,0.161873055338166
44.47,-0.381183870955423,-1.78670591138627,1.41379490208597,-2.8708606885761,-1.34495758378821,-0.742210208865406,-1.17226895841277,-0.393983874074579,-0.343845961316811,4.43515388846411,-0.179969226621438,-0.24475422795906,-1.23027876533125,0.0725041415986924,-0.611987518707007,-0.273925951040992,0.43461924325212,-0.838643783216961,-0.985804692622739,-0.108979784060267,-0.0147791725219878,-0.0272554729212322,-0.278949252819918,0.204701985382701
44.475,0.118481704578878,-1.73902493847584,1.46391810945601,-1.77755554078712,-1.13170667147712,-0.764318222166847,-1.29772847635783,-0.0944458289686906,0.0282891218604061,3.93395305825944,-0.163754402973496,-0.18850999411213,-1.26463575823563,-0.051571720018582,-0.64816186265765,-1.17350057066461,0.472734072565515,-1.18150638213119,-1.00621662907489,-0.0920027760535448,-0.00702499143321498,-0.0248606281013832,-0.285507629948037,0.233079429636939
44.48,0.395320022322287,-0.601439495204434,1.3455820281926,-0.591402026053195,-0.682927539391715,-0.262038377099984,-1.39876346655098,0.1128342470948,0.197872641313234,2.91536535957903,-0.26056052037614,-0.121690437013786,-1.33055552600083,-0.0955286785786531,-0.649880764783197,-1.67203054651524,0.483149218314048,-1.32958196627295,-1.03642350045463,-0.0776585176833487,-0.00127462861165837,-0.00148919676200956,-0.201653175835217,0.253899931907654
44.485,0.236207970351662,0.32998766580754,1.20855019974363,-0.179733891434653,-0.535813653311814,0.0415065529131806,-1.44618970083355,0.15675374693675,0.190851605847044,1.9921580285779,-0.390560721741292,-0.117528048084911,-1.39187201915981,-0.111447006500628,-0.621568689752282,-1.81443380390458,0.492481790934566,-1.33961309343027,-1.06492911787794,-0.0656963853891524,0.0121056051089027,0.0201896205681511,-0.123789041097602,0.252148358356571
44.49,-0.0669869779513597,0.76014304822015,1.07751102114218,-0.147591880124615,-0.411792060329972,0.200473145798391,-1.42831403514656,0.110580044033463,0.127078586065012,1.28315530990664,-0.510968012404775,-0.184675327384355,-1.46104790956693,-0.0786482346673274,-0.548306283665015,-1.72686703748198,0.511770860301486,-1.27211075598796,-1.10166807221402,-0.0556268884638648,0.0310893759795418,0.0135652001979152,-0.0694541935070483,0.24092031943514
44.495,-0.286775621599182,0.567318288349883,1.03920975829728,-0.28255742500765,-0.311340660188684,0.197169257144779,-1.38171262269659,0.0770477243919804,0.0437021515396754,0.613445459926882,-0.554015906983338,-0.171971274550138,-1.50894937090382,0.00127140010264743,-0.475744328782924,-1.40859459738,0.540759174718294,-1.15751362401056,-1.13754771649909,-0.0433602849777114,0.0582136395567551,-0.00976156008711845,-0.0457282407724455,0.209634129590007
44.5,-0.310092155749981,0.0711636336588564,1.01836209512978,-0.303295108502574,-0.237842408585385,0.140765417151169,-1.3682073134589,0.0468779960072836,-0.0148311548971956,-0.0997824265060281,-0.51998441238973,-0.0713096895720781,-1.49141099527478,0.161738280765712,-0.403996564075351,-0.937716700421537,0.53787016550846,-0.875854905300281,-1.16315785257901,-0.0327589739907637,0.0826961272745031,-0.0168098439056547,-0.0350144770071644,0.167184095259324
44.505,-0.272496481377527,-0.405343473113294,1.03339698387888,-0.0555693599623497,-0.0668682782240163,0.200654630786782,-1.35626987162371,0.027026348708301,-0.0936723357099596,-1.05343545757277,-0.419639544907534,0.0478809004960133,-1.42223489569018,0.280848831991333,-0.335409153976397,-0.710927135190094,0.493765136928972,-0.641834361656901,-1.18456338724106,-0.014284265482192,0.103889645802544,-0.00722487965646125,-0.0120121600196379,0.116409171487046
44.51,-0.280210279454529,-0.351188392696864,0.970887519854372,0.240858434820906,0.0675928058711694,0.327261593113534,-1.33443897828872,-3.21913023694212e-05,-0.124796739820685,-1.59779100182862,-0.334519213211772,0.0912876669657119,-1.28172526435176,0.375140606238073,-0.19718697673553,-0.735259878328162,0.419066313370473,-0.484990598899104,-1.18933326661319,0.00222474318345255,0.118294081670806,0.00143840117248246,0.00761486507693749,0.113344683795964
44.515,-0.339516782932708,0.0763492838310873,0.894648184827966,0.465288279204553,0.184628508913953,0.455273040564429,-1.26079796766953,-0.0545284212234365,-0.130418161265607,-1.87673197625158,-0.253575793514718,0.0921443528553599,-1.16405540384645,0.348492897018734,-0.0905179754115338,-0.892625870763809,0.301956322797027,-0.443922132253647,-1.18343785109266,0.0130344218173868,0.117957652108976,0.0174810446108699,0.0295905401491713,0.128150535999011
44.52,-0.37006428074993,0.299728147459292,0.858209199513134,0.444163232599187,0.210823304966816,0.446666529776888,-1.09463346973435,-0.140692094456683,-0.141183272366337,-1.74159931007778,-0.219980360571474,0.0960667574987616,-1.0268176124895,0.194833404161636,0.026358083588674,-1.18231519374246,0.17523037503699,-0.484085946601951,-1.15221429625545,0.00288410085633629,0.102542117258698,0.02591355740682,0.0234515085604207,0.126227776644655
44.525,-0.407287948943755,0.402660651057842,0.817045056563138,0.277079470266182,0.162761679807769,0.342632768610054,-0.933161183884107,-0.164327982973058,-0.15530479777058,-1.283478233294,-0.229483460228154,0.136707771899216,-0.931505208823774,0.0387583257862569,0.0980436543259934,-1.37582132634314,0.0249193606031048,-0.559664168248638,-1.11999305274471,-0.00601212422029269,0.0844780034545529,0.024349615884422,-0.0433053804611381,0.0965709616292639
44.53,-0.421473528873894,0.351372662338048,0.809680520286364,0.174856598084931,0.101179165687687,0.248058948972206,-0.758154295956624,-0.124600618155296,-0.16986301289939,-0.513313641807698,-0.255743528563923,0.17141573540889,-0.867650550059916,-0.0391232517576581,0.125773215113564,-1.42576488887375,-0.0687245000414263,-0.61906371343775,-1.08024011396675,-0.0264357820220936,0.0655080105872784,0.0216554605907131,-0.122087525754573,0.0576377261829627
44.535,-0.438026147119428,0.292676333448583,0.802978876447308,0.147960954776314,0.054199524716818,0.205994723320756,-0.641941529051623,-0.027307562797634,-0.181195757033491,0.358072194697192,-0.29476588772169,0.162459752199973,-0.833409480235755,-0.112346231397508,0.164538768159537,-1.49108416857853,-0.135184941914285,-0.685440387783475,-1.04752011838477,-0.0493951295182407,0.0540929711173473,0.0282958347710065,-0.184991011273797,0.023565792586747
44.54,-0.421621138271366,0.305061552554974,0.797835236160258,0.177437336563859,-0.0172901179487529,0.155001482842991,-0.62058451611186,0.0938045694207381,-0.180613324447109,1.01984194875536,-0.321330815982765,0.107601767039057,-0.817945687677154,-0.144409586566479,0.184460276881759,-1.47332866814368,-0.110956686508949,-0.730855586264875,-1.02057706230091,-0.0793197413066088,0.0397466008374499,0.0643813266823538,-0.23214443505283,-0.023796963053675
44.545,-0.406593679097588,0.3359368779951,0.790427090813914,0.196470319689429,-0.0284166760434741,0.120936171852758,-0.677233095176755,0.205980025320609,-0.163246152126823,1.55607026591252,-0.333339749609156,0.0252254229451937,-0.838814985397258,-0.17528239542385,0.236049708444032,-1.44245842072131,0.000570980272260326,-0.761672146865779,-0.99738436930871,-0.112810501601279,0.0361257886277831,0.113196141007961,-0.224542495884268,-0.0556055095151568
44.55,-0.406335458961784,0.39888212868898,0.790770749819139,0.192887440921421,-0.0345069677604918,0.0738246445082292,-0.773987364919285,0.297562646327757,-0.146898416522117,1.86940859607785,-0.344239056110382,-0.0633010576850878,-0.860680310040988,-0.178361739492117,0.289492685679436,-1.41977120817446,0.0794849286159949,-0.716763072264444,-0.967759598042132,-0.14358231396485,0.0378259969772498,0.160065337726156,-0.18210449316578,-0.0790560621844909
44.555,-0.408867529705258,0.422020143195168,0.797748341493328,0.143216684119926,-0.0209074539212796,0.0039431809702309,-0.886868597481762,0.357554433620224,-0.123200699981841,1.92909600389012,-0.34218420896898,-0.11859433601695,-0.878744266864026,-0.145460561932686,0.383148855886165,-1.31673971865322,0.138428308125591,-0.642767597423052,-0.944266248192109,-0.169468075732158,0.0533948602631177,0.201988326839491,-0.11676403931842,-0.108636299326371
44.56,-0.392830302356916,0.359960078474945,0.79210044784173,0.0534722988571206,-0.0299831664975016,-0.0817174035654815,-0.951286918250391,0.34123871122282,-0.110209287213947,1.82539251939735,-0.339055741896825,-0.131883499743193,-0.903933212595859,-0.134093789746954,0.436703751077438,-1.07880470471873,0.176540336885119,-0.555770747237882,-0.923051369246471,-0.190104183585903,0.0691622341827343,0.228674445299733,-0.0541204793478893,-0.127417959730977
44.565,-0.388327971861766,0.322858106007199,0.810340471811375,-0.00427819632332895,-0.0463320502462193,-0.125297510713414,-0.981550725126161,0.321424380272433,-0.108005111706808,1.61626953758456,-0.319081659782749,-0.133627399122378,-0.94863159452348,-0.153452347910634,0.450305928807919,-0.723849856789151,0.181875812192759,-0.458031104103613,-0.896778172164702,-0.201593074787044,0.0847531342731719,0.222573075193511,-0.0100651182258926,-0.145391608769734
44.57,-0.352367319213931,0.288113250905983,0.830820990277007,-0.0733211233029225,-0.0786128611220695,-0.132931178537288,-0.997948952332399,0.295983046278096,-0.104730054404073,1.25151078488203,-0.299926604263718,-0.122396823565773,-0.978338389185145,-0.190568882454958,0.430550533631606,-0.324113468438178,0.153350135743115,-0.326531473101583,-0.884902180104417,-0.208296943251492,0.107854308896598,0.212182113567413,-0.00896007235972718,-0.166219120580124
44.575,-0.359130145382602,0.254729574178077,0.847851832256889,-0.147737043359474,-0.0931893756351117,-0.0979077168290351,-1.00295031100949,0.250904372446229,-0.105248541611958,0.799188242261178,-0.278443949465031,-0.106552166495158,-0.99133641267516,-0.206093981465011,0.379089844878053,0.0203747951055544,0.117635916396235,-0.258346914382709,-0.874111595912071,-0.20405015158464,0.117598730772491,0.186956389127099,-0.0216525328152901,-0.175874227308173
44.58,-0.366078312491385,0.250676527207216,0.862574554498556,-0.191824046298102,-0.117180278977826,-0.121651047100172,-0.998689340488966,0.212666760815269,-0.117905709677059,0.315704055818225,-0.266098483997001,-0.079608011076559,-0.996493440826456,-0.20891515453801,0.300612436070065,0.32419953440635,0.085040540476895,-0.189173756975195,-0.867679069221959,-0.20091682715046,0.123423846638665,0.149023247542224,-0.0300823372828764,-0.159958569009834
44.585,-0.4690386428412,0.15772297974079,0.861241789440942,-0.238923630196519,-0.118581360060099,-0.14150440499084,-0.985684998483263,0.162093743539457,-0.1358089973727,-0.137894718804003,-0.24984737028025,-0.0363091845115774,-1.01238580989055,-0.206553406423281,0.181317501335852,0.663776631100304,0.0497282182787776,-0.164515673412663,-0.860911084235849,-0.181927618529489,0.131187437537827,0.124373345666879,-0.0283557153925602,-0.13651062458133
44.59,-0.385759665938544,0.141044339682852,0.854110239782619,-0.344538452056496,-0.114049293373933,-0.136344092625452,-0.969482843582922,0.0764623903303585,-0.162074062071921,-0.560719782885226,-0.228873532088385,-0.00816271122202958,-1.01745677614568,-0.212365312724145,0.0606350671832099,0.908346320660787,0.060715243985239,-0.0802107808497476,-0.853893259465934,-0.161175188322595,0.138634978638464,0.102585206969227,-0.0326749573006744,-0.10195667076055
44.595,-0.339172500977403,0.0965321535073685,0.858518617691641,-0.374717190997188,-0.092790069706801,-0.0994855776815368,-0.977026067803101,0.0244311595640839,-0.179583369728084,-0.933798844883211,-0.200666882264632,0.0140391844060659,-0.995747478541157,-0.22847429474359,-0.0600366041146411,1.11264967274866,0.101719786464122,0.00115743888420724,-0.834152392317464,-0.143739081460572,0.14128603824678,0.0861156257507398,-0.0293273298452612,-0.0454127832995797
44.6,-0.42000408757024,0.0751746267215886,0.85972437177345,-0.356497751000831,-0.0681520304916645,-0.0621633969607595,-0.962235658951809,-0.0181548609285713,-0.196654387599972,-1.11421432443718,-0.190441198283457,0.0490899348110213,-0.972272816870077,-0.242519639819804,-0.147548345802032,1.20514841135519,0.159874677314939,0.0326029454292858,-0.824764618630705,-0.128677315887694,0.137780939846224,0.0673431161617726,-0.00785267174037847,0.0256505535104364
44.605,-0.409981984451093,0.0811600267864182,0.86408791397608,-0.332959118465313,-0.067450667897591,-0.0413178370544295,-0.947600883019085,-0.0797894829837787,-0.217410468630734,-1.1612640547101,-0.180155322880305,0.0724648162722588,-0.942657277710334,-0.249737145456932,-0.20249046047507,1.19886245464181,0.205624365965003,0.030820246299892,-0.83098088476242,-0.119205331237234,0.129206158715115,0.0325880866983613,0.0548649843296328,0.0758702535226277
44.61,-0.378897346988604,0.0745271403799115,0.867630925641678,-0.296541753880241,-0.0607310679460229,-0.0173869167641364,-0.941013984430961,-0.121709020680929,-0.236038535002504,-1.07928709638119,-0.1782594268887,0.0598854335572382,-0.925674246400052,-0.246020980724058,-0.242734848060978,1.1335961760757,0.240198164728845,0.0284611541527677,-0.855424951885253,-0.110632888040167,0.12786652704958,-0.00125894633610567,0.0719411703127422,0.111850501784894
44.615,-0.363578099964095,0.0536629869524182,0.870491920223165,-0.231127900512648,-0.0646245714080881,0.034666909647874,-0.938428780725095,-0.161889390253465,-0.237997446696939,-0.824165788296865,-0.169418933190862,0.0266068790957771,-0.935910535929294,-0.238512438588484,-0.255076359671909,1.07545833071529,0.267412162534543,0.0392093263063674,-0.884106621641816,-0.103645921564795,0.124405052381298,-0.0437920585538897,0.0740113182741509,0.134593734232735
44.62,-0.374903019120974,0.0538129730159703,0.873464981428203,-0.159631140845218,-0.0478279483655906,0.0652251282093654,-0.948694805982869,-0.173033895934119,-0.240926331277734,-0.55546399109278,-0.168553025807733,-0.00616773625298414,-0.949140612416345,-0.226541059395461,-0.253447220288644,0.972440611694787,0.302099762299756,0.06949295797425,-0.908016757111303,-0.101965068776926,0.107766334645149,-0.0819157031635568,0.0752746672606888,0.14296197694942
44.625,-0.371309910566172,0.0725715285508504,0.870691578713453,-0.0851789424405892,-0.0315568577514777,0.0936310831612118,-0.965360820092191,-0.139554753135672,-0.242206995610285,-0.29007604528623,-0.171612037414059,-0.0263003870314832,-0.938360894895136,-0.222741865267342,-0.251348782688388,0.871471562806298,0.343782719066427,0.0788747802364573,-0.960473548451786,-0.082351466185768,0.101206585974479,-0.103826429713589,0.0977780868719906,0.155658994492279
44.63,-0.371331303259327,0.089865785716393,0.868530247305912,-0.0373821626746638,-0.0133868037880109,0.102662023987483,-0.981890868562042,-0.10108631447742,-0.233648924883918,-0.0536801395060236,-0.172512034561619,-0.0302157035912518,-0.926261800724069,-0.216450555481751,-0.251449622701815,0.74772910175613,0.375328133785804,0.0686322419392307,-0.999738841966924,-0.0803553511235453,0.0969147689619758,-0.115787132673015,0.123903426546901,0.154308912511828
44.635,-0.371188077697089,0.103122303082936,0.860873809913308,0.0219994668443082,-0.000253662678652319,0.0946379300774263,-0.977997109095741,-0.0699265080496298,-0.222288767959988,0.119584215640516,-0.17100026517541,-0.0284522052607796,-0.933145599293701,-0.218944780536881,-0.252376181616799,0.632668778734634,0.395854921943004,0.0324022114611875,-1.04377348595199,-0.0788130118020029,0.0891880114020777,-0.131301958305963,0.150863745565026,0.125098041805966
44.64,-0.371466651658361,0.119021068981456,0.871221090386563,0.0416978132036032,0.00857988628868306,0.107293038028303,-0.975928838651755,-0.0353165219187543,-0.212895227870671,0.218259783803323,-0.173333091718735,-0.0275391167867157,-0.943695720374478,-0.223634878745539,-0.245490507569071,0.526146330084729,0.404730200767517,-0.00456161602579224,-1.066656812307,-0.0744538295494538,0.0826847169882537,-0.137691352213426,0.164873814363051,0.0788601155578249
44.645,-0.37040405181486,0.141099989883984,0.866155138053048,0.057502544775591,0.0170647018017339,0.11917297670248,-0.979048642083132,-0.0033627774887688,-0.210181837490693,0.208553849622024,-0.178926585791636,-0.0182960788548619,-0.948250009766712,-0.234544549197415,-0.231029484271719,0.347895505717572,0.403260070499161,-0.0550967254549538,-1.09174098787695,-0.0700056462266215,0.0806627907014849,-0.133051868524248,0.16187487078801,0.0296912858809983
44.65,-0.371085500050122,0.146752279186462,0.871559637689264,0.0598593652248383,0.00660102175477663,0.112225935152707,-0.978871280638485,0.0395500785584888,-0.20464841522127,0.144972092328209,-0.187290507609772,0.00283745575935984,-0.960595014172247,-0.242027318249677,-0.214933871820652,0.222011603008269,0.391817548735975,-0.113824266328616,-1.10669906642286,-0.0617663670888613,0.0805083603340262,-0.120021375544625,0.13817124405535,-0.0351801125547175
