Header,foot_Accel_X,foot_Accel_Y,foot_Accel_Z,foot_Gyro_X,foot_Gyro_Y,foot_Gyro_Z,shank_Accel_X,shank_Accel_Y,shank_Accel_Z,shank_Gyro_X,shank_Gyro_Y,shank_Gyro_Z,thigh_Accel_X,thigh_Accel_Y,thigh_Accel_Z,thigh_Gyro_X,thigh_Gyro_Y,thigh_Gyro_Z,trunk_Accel_X,trunk_Accel_Y,trunk_Accel_Z,trunk_Gyro_X,trunk_Gyro_Y,trunk_Gyro_Z
0,-0.755927467898459,-5.37522434378428,3.91654315673463,-0.0307112265614347,-0.0240930537840185,-0.055748640325084,5.51553337862629,7.11810696916165,2.9748496803981,-0.0291897541050957,0.0554929571413837,-0.00482734231204866,-1.50738109269719,6.391000221139,5.01710955289931,-0.0371256439968308,-0.00442278801185739,0.0797554522254928,3.58111868798665,4.05381519816574,6.46188484213386,-0.194995012907373,0.516868983353565,0.03731552139933
0.005,-0.755666560553721,-5.37053298505379,3.91396329530585,-0.0309162278805515,-0.0235018776731643,-0.0557850681045145,5.51012614268666,7.11223289437313,2.97241175530093,-0.0301646879986822,0.0565135235306823,-0.00434851070898686,-1.50693239532984,6.3854976153001,5.01292616734409,-0.0383308669118187,-0.00397015458548179,0.0806000805176212,3.57731765123117,4.05040563749952,6.45652102779079,-0.201062617707447,0.518615669773243,0.0365202087682022
0.01,-0.755405653208982,-5.3658416263234,3.91138343387718,-0.0313465811134536,-0.0216296541438835,-0.0557817749175525,5.5047189067468,7.10635881958461,2.96997383020377,-0.0321893343852703,0.0582589411014931,-0.00349064828003522,-1.50648369796272,6.3799950094612,5.00874278178886,-0.040722298903342,-0.00325426745315389,0.0825020233390384,3.57351661447547,4.04699607683329,6.45115721344771,-0.212128182731325,0.52355945169036,0.0361459353881798
0.015,-0.755144745864243,-5.3611502675929,3.90880357244851,-0.0317765852944073,-0.0185045486400496,-0.055571305825993,5.49931167080717,7.10048474479608,2.9675359051066,-0.0343476687942856,0.0594578691124161,-0.00278273669077138,-1.5060350005956,6.3744924036223,5.00455939623364,-0.0430887602652136,-0.0027974405648868,0.0845876158204202,3.56971557771976,4.04358651616706,6.44579339910464,-0.221787589127579,0.529199650041777,0.0368303571027906
0.02,-0.754883838519504,-5.35645890886246,3.90622371101972,-0.0320763269258639,-0.0143915701519524,-0.0550154393270086,5.49390443486755,7.09461067000755,2.96509798000944,-0.0365782065788615,0.0602243156949394,-0.00206515879435554,-1.50558630322848,6.3689897977834,5.00037601067842,-0.0454438577607448,-0.00238769599531365,0.0862243384227377,3.56591454096429,4.04017695550084,6.44042958476157,-0.230387159342006,0.530935745427444,0.0374780178921258
0.025,-0.754622931174765,-5.35176755013202,3.90364384959105,-0.0320697134212098,-0.00961151724299939,-0.0539147138103594,5.48849719892792,7.08873659521903,2.96266005491227,-0.0387769693213577,0.060692909893469,-0.00115304194175074,-1.50513760586114,6.3634871919445,4.99619262512319,-0.0477758184565886,-0.00176945504165463,0.0865793126591373,3.56211350420858,4.03676739483461,6.43506577041849,-0.238274663400062,0.522882807411624,0.0366802344939761
0.03,-0.754362023830083,-5.34707619140158,3.90106398816226,-0.0316201797580564,-0.00444904753586334,-0.0521352645913818,5.48308996298829,7.08286252043051,2.96022212981511,-0.0408376478664208,0.0609844319560679,8.06261847167231e-05,-1.50468890849379,6.35798458610554,4.99200923956797,-0.0500543839989649,-0.000751393416720402,0.0849459654807355,3.55831246745288,4.03335783416839,6.42970195607542,-0.245630992892761,0.500272568063955,0.03326428367151
0.035,-0.754101116485288,-5.34238483267109,3.89848412673359,-0.0307319216354378,0.0009502559789444,-0.0497653170522247,5.47768272704866,7.07698844564199,2.95778420471794,-0.0427088638475295,0.0611618783291561,0.00161963248023604,-1.50424021112667,6.35248198026665,4.98782585401274,-0.0522482528334395,0.000675142893780878,0.0811667285737312,3.55451143069718,4.02994827350216,6.42433814173234,-0.252326803494822,0.462496926370609,0.0269985977045145
0.04,-0.753840209140606,-5.3376934739407,3.89590426530492,-0.029542049736986,0.00656851257705927,-0.0470945845182743,5.47227549110903,7.07111437085346,2.95534627962078,-0.0443994742863855,0.0612207959051646,0.00332229011118426,-1.50379151375955,6.34697937442775,4.98364246845752,-0.0543296203870521,0.00235006816710568,0.0756609968156241,3.5507103939417,4.02653871283594,6.41897432738927,-0.258007133787475,0.413233718172165,0.0186347996053044
0.045,-0.753579301795867,-5.33300211521021,3.89332440387625,-0.0282127209464372,0.0124030772749654,-0.0444340338729722,5.4668682551694,7.06524029606494,2.95290835452361,-0.0459266393292961,0.0611196719211041,0.00502230370768542,-1.50334281639221,6.34147676858879,4.97945908290229,-0.0562592311046671,0.00407307245298913,0.0690519255355806,3.546909357186,4.02312915216972,6.4136105130462,-0.262316196045831,0.357639216207445,0.0092690741810016
0.05,-0.753318394451071,-5.32831075647977,3.89074454244746,-0.0268520583261023,0.0183987363001435,-0.0419901156685287,5.46146101922977,7.05936622127642,2.95047042942645,-0.0472750642407095,0.0608134592626993,0.00659613349735385,-1.50289411902509,6.33597416274989,4.97527569734707,-0.05797484095022,0.00569411578827181,0.0618785859292919,3.54310832043052,4.0197195915035,6.40824669870312,-0.265014618768881,0.30014045976004,-0.000164806113640337
0.055,-0.753057487106389,-5.32361939774933,3.88816468101879,-0.0255066273308905,0.0244568922561309,-0.0398506135800121,5.45605378329037,7.0534921464879,2.94803250432928,-0.0483983691750579,0.060271379596111,0.00796937682527875,-1.50244542165774,6.33047155691099,4.97109231179184,-0.0593990501421576,0.00712419168062554,0.0545511731254887,3.53930728367482,4.01631003083727,6.40288288436005,-0.265968664234645,0.244002990627485,-0.00899155055284177
0.06,-0.752796579761593,-5.31892803901889,3.88558481959012,-0.0241800772728154,0.0304509609236074,-0.0380104647186419,5.45064654735074,7.04761807169937,2.94559457923212,-0.0492356906017526,0.0594809669394952,0.00910638981371581,-1.50199672429062,6.32496895107204,4.96690892623662,-0.0604537495536571,0.00832198863703908,0.0473767778868684,3.53550624691934,4.01290047017104,6.39751907001698,-0.265119889242895,0.191496902395585,-0.0167538720668753
0.065,-0.752535672416855,-5.31423668028845,3.88300495816145,-0.0228451317286599,0.0362269828332036,-0.0364062389504356,5.44523931141089,7.04174399691085,2.94315665413495,-0.0497165548253337,0.0584420235674902,0.0100027421201217,-1.5015480269235,6.31946634523314,4.9627255406814,-0.0610617479428534,0.00928408839481146,0.0405750086854169,3.53170521016364,4.00949090950481,6.3921552556739,-0.262471200299449,0.144071986406274,-0.0231772018810527
0.07,-0.752274765072173,-5.30954532155801,3.88042509673267,-0.0214488404347075,0.0416164211024484,-0.034941749818992,5.43983207547126,7.03586992212233,2.94071872903778,-0.0497598631060714,0.0571610817916382,0.0106773143810836,-1.50109932955615,6.31396373939424,4.95854215512617,-0.0611428360237471,0.0100358390994246,0.0342936193337744,3.52790417340793,4.00608134883859,6.38679144133083,-0.25807822968967,0.102523746113958,-0.0281372238318738
0.075,-0.752013857727377,-5.30485396282756,3.87784523530399,-0.019921424226894,0.0464594597185367,-0.0334953405544207,5.43442483953163,7.0299958473338,2.93828080394062,-0.049281220273785,0.0556515910138194,0.0111627505687811,-1.50065063218904,6.30846113355528,4.95435876957095,-0.0606190097695875,0.010620131245156,0.0286256073922774,3.52410313665246,4.00267178817237,6.38142762698776,-0.252039090808411,0.0671354314630484,-0.0316273527782085
0.08,-0.751752950382695,-5.30016260409707,3.87526537387532,-0.0181860088537856,0.0506162353994178,-0.0319273654419432,5.429017603592,7.02412177254528,2.93584287884346,-0.0482002364464157,0.0539327879150925,0.0114976454225303,-1.50020193482169,6.30295852771638,4.95017538401572,-0.0594198128735872,0.0110878922165259,0.0236213641495014,3.52030209989675,3.99926222750614,6.37606381264468,-0.244487717519801,0.0378039998663694,-0.0337292886376321
0.085,-0.751492043037899,-5.29547124536668,3.87268551244654,-0.0161624606947517,0.0539704211315928,-0.0300942258101382,5.42361036765237,7.01824769775676,2.93340495374629,-0.0464401358602767,0.0520255044697859,0.011722117587658,-1.49975323745457,6.29745592187749,4.9459919984605,-0.0574801464315154,0.0114928096737097,0.0192966135786964,3.51650106314105,3.99585266683992,6.37069999830161,-0.235592992225417,0.0141549990921116,-0.0345882856633897
0.09,-0.751231135693217,-5.29077988663619,3.87010565101798,-0.0137680780734676,0.0564361099477902,-0.027858715733862,5.41820313171274,7.01237362296824,2.93096702864913,-0.0439258323542878,0.0499488200830013,0.0118750169723913,-1.49930454008745,6.29195331603853,4.94180861290527,-0.0547369988113144,0.0118880189432002,0.0156403043757428,3.51270002638535,3.9924431061737,6.36533618395854,-0.225556679682657,-0.00435915898992533,-0.0343909609255853
0.095,-0.750970228348478,-5.28608852790575,3.86752578958919,-0.0109191434147347,0.0579641156912027,-0.0250948582386502,5.41279589577312,7.00649954817971,2.92852910355196,-0.0405839368328307,0.0477182544092308,0.0119912660207394,-1.4988558427201,6.28645071019963,4.93762522735005,-0.0511284111614732,0.0123228497302188,0.0126225662852199,3.50889898962987,3.98903354550747,6.35997236961546,-0.214605940473817,-0.0183787114266176,-0.0333447846079906
0.1,-0.75070932100374,-5.28139716917531,3.86494592816041,-0.00753299338133832,0.0585467156342592,-0.0216912827716112,5.40738865983349,7.00062547339119,2.9260911784548,-0.0363436181556597,0.0453460431162209,0.0120994096461618,-1.49840714535299,6.28094810436073,4.93344184179482,-0.0465937766788533,0.0128399785811949,0.0102025160614313,3.50509795287439,3.98562398484125,6.35460855527239,-0.202982838756382,-0.0285736359250676,-0.0316608946550576
0.105,-0.750448413659001,-5.27670581044487,3.86236606673174,-0.00353220182997621,0.058221599798453,-0.0175479705017577,5.40198142389386,6.99475139860267,2.92365325335763,-0.0311420584182237,0.0428427617770484,0.0122200902221787,-1.49795844798564,6.27544549852183,4.9292584562396,-0.0410790578552331,0.0134730372698468,0.008334637444862,3.50129691611869,3.98221442417503,6.34924474092932,-0.190929871843197,-0.0355965566265748,-0.0295408809414625
0.11,-0.750187506314262,-5.27201445171437,3.85978620530307,0.00114348843110754,0.0570697179547871,-0.0125589333851505,5.39657418795423,6.98887732381414,2.92121532826047,-0.0249416452996818,0.0402178970072449,0.0123651558729711,-1.49750975061852,6.26994289268293,4.92507507068438,-0.0345533074692046,0.0142429594708449,0.00697205766939279,3.49749587936299,3.97880486350881,6.34388092658624,-0.17866473083808,-0.0400463038728148,-0.0271641357874513
0.115,-0.749926598969523,-5.26732309298399,3.8572063438744,0.00652794277671511,0.0552052251548671,-0.00661334072516568,5.3911669520146,6.98300324902561,2.9187774031633,-0.0177404793747694,0.0374814322153872,0.0125379000175542,-1.49706105325117,6.26444028684404,4.92089168512915,-0.0270190826529101,0.0151566471183007,0.00607018127826966,3.49369484260751,3.97539530284258,6.33851711224317,-0.166362085552119,-0.0424469643070816,-0.0246779369012476
0.12,-0.749665691624784,-5.26263173425349,3.85462648244572,0.0126412040174751,0.0527608732465154,0.000355033209417687,5.38575971607474,6.9771291742371,2.91633947806613,-0.00954964713617179,0.0346442788205211,0.0127375917546895,-1.49661235588405,6.25893768100508,4.91670829957393,-0.0184910802775562,0.016214995952173,0.00558790205125244,3.48989380585181,3.97198574217635,6.3331532979001,-0.154171790939784,-0.0432476100171015,-0.0222017422714563
0.125,-0.749404784280102,-5.25794037552305,3.85204662101694,0.0195042166792918,0.0498784410211742,0.00833251695360594,5.38035248013512,6.97125509944857,2.91390155296897,-0.0003719804860152,0.0317128801686094,0.0129658855461548,-1.49616365851693,6.25343507516618,4.9125249140187,-0.0089754466745504,0.0174219590162327,0.00547998873907741,3.4860927690961,3.96857618151013,6.32778948355702,-0.142243684076735,-0.0428293234635147,-0.0198416541644275
0.13,-0.749143876935307,-5.25324901679261,3.84946675958827,0.0271206293823806,0.0467151170583713,0.0172558448466971,5.37494524419549,6.96538102466005,2.9114636278718,0.0097681487139159,0.0286890805907963,0.0132260647832319,-1.49571496114959,6.24793246932728,4.90834152846348,0.00150142733082951,0.0187792009384522,0.00569419762853647,3.4822917323404,3.96516662084391,6.32242566921395,-0.130706937883056,-0.0415063350137083,-0.0176916230335312
0.135,-0.748882969590625,-5.24855765806217,3.8468868981596,0.0354428105092014,0.0434483805726265,0.0270373624812341,5.36953800825586,6.95950694987152,2.90902570277464,0.020778872085945,0.0255819810380639,0.0135165295380368,-1.49526626378247,6.24242986348833,4.90415814290825,0.0128469878220732,0.0202739285039023,0.00618234739279392,3.47849069558492,3.96175706017768,6.31706185487088,-0.119631154107301,-0.0395267294398697,-0.0158193603630464
0.14,-0.748622062245829,-5.24386629933167,3.84430703673081,0.044360416695179,0.0402542202517393,0.0375303531178042,5.36413077231623,6.953632875083,2.90658777767747,0.0324941080383582,0.022416128485538,0.0138301631799116,-1.49481756641512,6.23692725764943,4.89997475735303,0.0248943714451672,0.0218784034703103,0.0069042463528523,3.47468965882922,3.95834749951146,6.3116980405278,-0.109030445779802,-0.0370862020832968,-0.014264048989715
0.145,-0.748361154901147,-5.23917494060129,3.84172717530214,0.0537031089076717,0.0372768059231864,0.0484900415438833,5.3587235363766,6.94775880029448,2.90414985258031,0.0446832788628045,0.0192279014933005,0.0141600660633637,-1.494368869048,6.23142465181053,4.89579137179781,0.0374113911927555,0.0235571382699552,0.00781438589561428,3.47088862207374,3.95493793884523,6.30633422618473,-0.0988963478632881,-0.0343517110084531,-0.0130527638329786
0.15,-0.748100247556408,-5.23448358187079,3.83914731387347,0.0632288710955611,0.0346161306491885,0.0595740818636342,5.35331630043697,6.94188472550596,2.90171192748315,0.0570352168283996,0.0160609233032042,0.0145018856032072,-1.49392017168088,6.22592204597163,4.89160798624258,0.0500852932639888,0.0252664721172415,0.00885096258960574,3.46708758531827,3.95152837817901,6.30097041184165,-0.0892067136791862,-0.0314750400672501,-0.0122115422038694
0.155,-0.747839340211613,-5.22979222314035,3.8365674524448,0.0725990139529795,0.0323216078674372,0.0703538094011043,5.34790906449734,6.93601065071744,2.89927400238598,0.0691253693785495,0.0129665389828244,0.0148511421074947,-1.49347147431354,6.22041944013267,4.88742460068736,0.0624912285313965,0.0269470263440475,0.00993553119388591,3.46328654856256,3.94811881751279,6.29560659749858,-0.0799148289473749,-0.0285924895934703,-0.0117628731787987
0.16,-0.747578432866931,-5.22510086440991,3.83398759101601,0.0813537379039755,0.0303764477382038,0.0803112537894942,5.34250182855772,6.93013657592891,2.89683607728881,0.0803874128757023,0.0100051092385542,0.0152007221837089,-1.49302277694642,6.21491683429377,4.88324121513213,0.0740647860697948,0.0285171820412343,0.0109731197510189,3.45948551180686,3.94470925684656,6.29024278315551,-0.0709488091801275,-0.0258217968170375,-0.0117226440272586
0.165,-0.747317525522135,-5.22040950567947,3.83140772958745,0.0888932643752109,0.0286822797568814,0.0888307584768287,5.33709459261809,6.92426250114038,2.89439815219165,0.0900921449708792,0.00724738146351015,0.0155395055265587,-1.49257407957907,6.2094142284549,4.87905782957691,0.0840813533983404,0.0298689173381055,0.0118511843809957,3.45568447505116,3.94129969618034,6.28487896881243,-0.0622214275618218,-0.0232608326954662,-0.0121011619024936
0.17,-0.747056618177453,-5.21571814694897,3.82882786815867,0.0944829420584848,0.0270538939123752,0.0952087978878095,5.33168735667846,6.91838842635187,2.89196022709449,0.097354006453984,0.00477530879172801,0.0158523636722298,-1.49212538221195,6.20391162261595,4.87487444402169,0.0916622423946865,0.0308691317386969,0.0124408225418817,3.45188343829568,3.93789013551411,6.27951515446936,-0.0536485737217298,-0.0209924365857382,-0.0129093994241591
0.175,-0.746795710832714,-5.21102678821859,3.82624800672988,0.0973836845261968,0.0252534368137702,0.0987538564238958,5.3262801207386,6.91251435156334,2.88952230199732,0.101286541389114,0.00266875758098012,0.0161268102451946,-1.49167668484483,6.19840901677705,4.87069105846646,0.0959278588538223,0.0313877370913212,0.0126120520335339,3.44808240153998,3.93448057484789,6.27415134012629,-0.0451768672561672,-0.0190960041158968,-0.0141709784386931
0.18,-0.746534803487975,-5.20633542948809,3.82366814530133,0.0972086132189674,0.0231212298018852,0.0990533927559423,5.32087288479897,6.90664027677482,2.88708437690016,0.101424609827882,0.000971054078422006,0.0163670488720822,-1.49122798747749,6.19290641093815,4.86650767291124,0.0964145439019122,0.0313689542114793,0.0122907824806679,3.44428136478427,3.93107101418167,6.26878752578321,-0.0367948502571551,-0.0176519996807775,-0.0159228349728992
0.185,-0.746273896143236,-5.20164407075765,3.82108828387254,0.0942503453797414,0.0207305062465998,0.0962496684012059,5.31546564885934,6.9007662019863,2.88464645180299,0.0981063235737635,-0.000338737679503741,0.0166012774462563,-1.49077929011014,6.18740380509919,4.86232428735601,0.0934522763789571,0.0308897497315307,0.0115264701452205,3.44048032802857,3.92766145351544,6.26342371144014,-0.0285080963375571,-0.016723300972294,-0.0181903604143873
0.19,-0.746012988798498,-5.19695271202721,3.81850842244387,0.0893498890385018,0.0183668389647008,0.0910032762838306,5.31005841291972,6.89489212719777,2.88220852670582,0.0923119397892341,-0.00133446337914078,0.0168706453227834,-1.49033059274302,6.1819011992603,4.85814090180079,0.0880073134565299,0.0301253991417473,0.0104811169816255,3.43667929127332,3.92425189284922,6.25805989709707,-0.0203071832784782,-0.0163225704604199,-0.0209591405044105
0.195,-0.745752081453759,-5.19226135329677,3.81592856101508,0.083443884596561,0.0163435254523478,0.0841689997628332,5.30465117698009,6.88901805240925,2.87977060160866,0.085132682099387,-0.00210508618745951,0.0172115203068156,-1.4898818953759,6.1763985934214,4.85395751624556,0.0811587602116322,0.029258849788835,0.0093487604256706,3.43287825451762,3.92084233218299,6.25269608275399,-0.0121653083814696,-0.0164008081293623,-0.02417139022425
0.2,-0.74549117410902,-5.18756999456627,3.81334869958653,0.0772783309217304,0.014869438508379,0.076522539379401,5.29924394104046,6.88314397762073,2.8773326765115,0.077443250615789,-0.00272881065822177,0.017647263001334,-1.48943319800878,6.17089598758244,4.84977413069034,0.0737745770448681,0.0284286726185915,0.00829906609196055,3.42907721776191,3.91743277151676,6.24733226841092,-0.0040553249984024,-0.0168629662186417,-0.0277360242298442
0.205,-0.745230266764281,-5.18287863583589,3.81076883815774,0.0713721823572738,0.0140340798777502,0.068669357780821,5.29383670510083,6.8772699028322,2.87489475141432,0.0698654409557994,-0.00327161814480025,0.0181881484831644,-1.48898450064144,6.16539338174357,4.84559074513512,0.0664755252343095,0.0277244606328597,0.00746573692571183,3.42527618100621,3.91402321085054,6.24196845406785,0.00404208369213482,-0.0175760569498233,-0.0315286957362301
0.21,-0.744969359419542,-5.17818727710539,3.80818897672907,0.0660467615670956,0.0138288855151825,0.0610409286717289,5.2884294691612,6.87139582804368,2.87245682631716,0.0628034749423821,-0.00379118344073143,0.0188321441592377,-1.48853580327409,6.15989077590467,4.84140735957989,0.0596701128814826,0.0271927136634688,0.00694729870530396,3.42147514425073,3.91061365018432,6.23660463972477,0.0121384389831501,-0.0183670794744365,-0.0353893101974397
0.215,-0.744708452074804,-5.17349591837495,3.80560911530029,0.0614534189387584,0.0141737590940475,0.0539182917839224,5.28302223322157,6.86552175325515,2.87001890122,0.0564715991271174,-0.00432732644351084,0.0195654500891159,-1.48808710590697,6.15438817006572,4.83722397402467,0.0535791964373271,0.0268431640377804,0.0068120409813149,3.41767410749503,3.9072040895181,6.2312408253817,0.0202307286494328,-0.0190466483905546,-0.0391394407877496
0.22,-0.744447544730065,-5.16880455964451,3.80302925387161,0.0576053837527139,0.0149487939024814,0.0474662646293995,5.27761499728194,6.85964767846664,2.86758097612283,0.0509234432398952,-0.00488716847729568,0.0203642944437885,-1.48763840853985,6.14888556422682,4.83304058846944,0.048260984132248,0.026657313167117,0.00710394688079507,3.41387307073933,3.90379452885187,6.22587701103863,0.0282882757317448,-0.0194557371311496,-0.0426124963571664
0.225,-0.744186637385326,-5.16411320091407,3.80044939244294,0.0544195544717298,0.0160149372647532,0.0417588224761646,5.27220776134232,6.85377360367811,2.86514305102567,0.0460973963669543,-0.00545003374749301,0.0211997176706707,-1.48718971117273,6.14338295838792,4.82885720291422,0.0436552183893373,0.0265996752172964,0.00783637719005138,3.41007203398385,3.90038496818565,6.22051319669555,0.0362452383340894,-0.0194967507155144,-0.0456710309388444
0.23,-0.743925730040587,-5.15942184218358,3.79786953101416,0.0517654634496754,0.0172223057943834,0.0367960910101239,5.26680052540246,6.84789952888959,2.86270512592851,0.0418753858957563,-0.00599151811479156,0.022044353173136,-1.48674101380516,6.13788035254896,4.82467381735899,0.0396440842706515,0.0266303631016766,0.0089760278187411,3.40627099722815,3.89697540751942,6.21514938235248,0.0440032737442249,-0.0191385683316544,-0.0482098291147572
0.235,-0.743664822695848,-5.15473048345319,3.79528966958549,0.049497287298854,0.0184188801279709,0.0325229764677675,5.26139328946306,6.84202545410106,2.86026720083134,0.038121749007787,-0.0064977765198583,0.0228746755166956,-1.48629231643804,6.13237774671006,4.82049043180377,0.0360926661167141,0.0267111587134674,0.0104394619313611,3.40246996047244,3.8935658468532,6.20978556800941,0.0514358217503417,-0.0184042999088854,-0.0501514758564114
0.24,-0.743403915351166,-5.1500391247227,3.79270980815693,0.0474586567619061,0.0194603496428988,0.0288458866350044,5.25598605352343,6.83615137931254,2.85782927573418,0.0346891132256714,-0.00696076071293875,0.0236670943535528,-1.48584361907092,6.12687514087116,4.81630704624855,0.032854645299398,0.0268026532715414,0.0121090346770031,3.39866892371697,3.89015628618697,6.20442175366633,0.0583890126838343,-0.0173458793903109,-0.0514360603928516
0.245,-0.743143008006371,-5.14534776599226,3.79012994672814,0.0454819147491546,0.0202161514046632,0.0256445536958557,5.2505788175838,6.83027730452402,2.85539135063701,0.0314167533901356,-0.00737142706202362,0.0243952374827455,-1.4853949217038,6.12137253503221,4.81212366069332,0.0297702365934825,0.0268615771788211,0.013851733509995,3.39486788696149,3.88674672552074,6.19905793932326,0.0646849594229103,-0.0160191509805842,-0.0520182530639603
0.25,-0.742882100661689,-5.14065640726182,3.78755008529936,0.0433952053972317,0.0205747349905496,0.0227834840745596,5.24517158164417,6.8244032297355,2.85295342553984,0.0281365101267368,-0.00771801973509671,0.0250311639722904,-1.48494622433668,6.11586992919334,4.8079402751381,0.0266719077965354,0.0268425766246546,0.0155323287906984,3.39106685020579,3.88333716485452,6.19369412498019,0.070130381922763,-0.0144702596565198,-0.0518753827956678
0.255,-0.74262119331695,-5.13596504853138,3.7849702238708,0.0410310092277808,0.0204499363883289,0.0201237202686916,5.23976434570454,6.81852915494697,2.85051550044268,0.0246799450623081,-0.00798494445238874,0.0255470913732383,-1.48449752696911,6.11036732335444,4.80375688958287,0.023391293242191,0.0267006761719973,0.0170245799955557,3.38726581345009,3.8799276041883,6.18833031063711,0.0745284906285245,-0.0127287132509774,-0.0510151874397804
0.26,-0.742360285972211,-5.13127368980088,3.78239036244202,0.0382327324887739,0.0197788471278035,0.0175285780078935,5.23435710976491,6.81265508015845,2.84807757534551,0.020886603477707,-0.00815370002025783,0.0259162253800152,-1.48404882960199,6.10486471751548,4.79957350402765,0.0197676498915509,0.0263928231440451,0.0182197677815711,3.38346477669438,3.87651804352208,6.18296649629404,0.0776902549448456,-0.0108024147678753,-0.0494738191950584
0.265,-0.742099378627472,-5.12658233107049,3.77981050101323,0.0348613218020013,0.0185046289759902,0.0148581348067627,5.22894987382529,6.80678100536993,2.84563965024834,0.0166181172138314,-0.00820810538560121,0.0261130616583151,-1.48360013223487,6.09936211167658,4.79539011847242,0.0156627950501424,0.025879361818151,0.019029914310942,3.37966373993891,3.87310848285586,6.17760268195097,0.0794404694015574,-0.00867634898292444,-0.0472994246296121
0.27,-0.741838471282676,-5.12189097234,3.77723063958467,0.0308017735042319,0.016570585455658,0.0119693835706425,5.22354263788566,6.8009069305814,2.84320172515118,0.0117675205204366,-0.00813633487766026,0.0261146739707786,-1.48315143486775,6.09385950583768,4.7912067329172,0.0109706308296628,0.025126169331862,0.0193924965195196,3.3758627031832,3.86969892218963,6.17223886760789,0.0796286610365999,-0.00631518921878791,-0.0445435914069011
0.275,-0.741577563937994,-5.11719961360956,3.774650778156,0.025969229442576,0.0139454038332513,0.00873829049660874,5.21813540194603,6.79503285579288,2.84076380005402,0.00625527754565282,-0.00792643146028959,0.0259040670045762,-1.4827027375004,6.08835689999873,4.78702334736198,0.00561229016113578,0.0241075703576049,0.0192802064573381,3.3720616664275,3.86628936152341,6.16687505326482,0.078154355433366,-0.00366634904050457,-0.0412802357937667
0.28,-0.741316656593256,-5.11250825487917,3.77207091672722,0.0203173494567357,0.0106383454304136,0.00507711520132543,5.21272816600617,6.78915878100436,2.83832587495685,3.25449206946781e-05,-0.0075674837730885,0.0254728614718744,-1.48225404013306,6.08285429415983,4.78283996180675,-0.000460646282124919,0.0228091442348665,0.0187031816669453,3.36826062967179,3.86287980085718,6.16151123892175,0.0749838459707416,-0.000663456755342164,-0.0376141804112118
0.285,-0.74105574924846,-5.10781689614868,3.76949105529854,0.0138489822490952,0.00668696969187318,0.000930068355563465,5.20732093006654,6.78328470621583,2.83588794985969,-0.00689963781921151,-0.00705642199095368,0.024820893957886,-1.48180534276594,6.07735168832093,4.77865657625153,-0.00724623180520311,0.0212294678094101,0.0177026049943978,3.36445959291655,3.85947024019095,6.15614742457867,0.0701445609394231,0.00276558379417803,-0.0336585025076175
0.29,-0.740794841903778,-5.10312553741824,3.76691119386987,0.00662538662062909,0.00215849335672417,-0.00372527077726482,5.20191369412692,6.77741063142732,2.83345002476253,-0.0144767653005873,-0.0063971935337884,0.0239549000137894,-1.48135664539882,6.071849082482,4.7744731906963,-0.0146791218681598,0.0193811348258109,0.0163486898732428,3.36065855616084,3.85606067952473,6.1507836102356,0.0637188660430227,0.00668750569848967,-0.0295193227873821
0.295,-0.740533934558982,-5.0984341786878,3.76433133244109,-0.00122641756077921,-0.00283307883160873,-0.00886076800710111,5.19650645818729,6.77153655663879,2.83101209966536,-0.0225670792914864,-0.00559710914931986,0.0228885355092688,-1.4809079480317,6.0663464766431,4.77028980514108,-0.0226277864358496,0.0172919984112191,0.0147396320406678,3.35685751940514,3.8526511188585,6.14541979589253,0.0558457443438325,0.0111556195011119,-0.025299603440186
0.3,-0.7402730272143,-5.09374281995736,3.76175147101242,-0.0095067875207959,-0.00811860800615239,-0.0143797089805304,5.19109922224766,6.76566248185027,2.8285741745682,-0.030966479975706,-0.00466884967986462,0.0216429038361534,-1.48045925066435,6.06084387080421,4.76610641958585,-0.0308894645986254,0.0150064769401093,0.0129948882273445,3.35305648264966,3.84924155819228,6.14005598154945,0.0467195664550508,0.0162047269029309,-0.0211016416662789
0.305,-0.740012119869562,-5.08905146122686,3.75917160958375,-0.0179373217762624,-0.0134724607693999,-0.0201026100155241,5.18569198630803,6.75978840706174,2.82613624947103,-0.0393917065434344,-0.00363388978594983,0.0202466525718038,-1.48001055329701,6.05534126496528,4.76192303403063,-0.0391831113558014,0.0125865403588483,0.0112476778717302,3.34925544589396,3.84583199752606,6.13469216720638,0.0365839145233168,0.0218456740544268,-0.0170256429041113
0.31,-0.739751212524823,-5.08436010249648,3.75659174815507,-0.0261523377000918,-0.018614424794165,-0.0257566571035182,5.1802847503684,6.75391433227322,2.82369832437386,-0.0474684983245766,-0.00252465280704215,0.0187355553989589,-1.47956185592989,6.04983865912635,4.75773964847541,-0.0471376850754247,0.0101131500124972,0.00963854193429845,3.34545440913826,3.84242243685983,6.12932835286331,0.0257198256134761,0.0280561427695102,-0.0131641974821543
0.315,-0.739490305180084,-5.07966874376598,3.75401188672629,-0.0336824352471584,-0.0232167510311684,-0.0309695241473953,5.17487751442877,6.7480402574847,2.8212603992767,-0.0547056468902179,-0.00138602646045173,0.0171507324681178,-1.47911315856277,6.04433605328745,4.75355626292018,-0.0542668275664418,0.00768872021797881,0.00830776847099211,3.34165337238255,3.83901287619361,6.12396453852023,0.0144215664655744,0.034761625805178,-0.00958414330916247
0.32,-0.739229397835402,-5.07497738503554,3.75143202529762,-0.0399334282810834,-0.0269077868866516,-0.0352615263117508,5.16947027848914,6.74216618269617,2.81882247417953,-0.0604624405174876,-0.000274787544413347,0.0155355178126793,-1.47866446119565,6.03883344744852,4.74937287736496,-0.0599374534830812,0.00543960010319002,0.00738837203609739,3.33785233562708,3.83560331552739,6.11860072417716,0.00296652386445336,0.041807244447161,-0.00630222557616498
0.325,-0.738968490490606,-5.0702860263051,3.74885216386883,-0.0442305739100564,-0.0292943359080311,-0.0380839915952441,5.16406304254951,6.73629210790764,2.81638454908237,-0.063997959324813,0.000747827312061306,0.0139327366732201,-1.4782157638283,6.03333084160963,4.74518949180973,-0.0634192431370451,0.00350752727384787,0.00699599640348017,3.33405129887137,3.83219375486116,6.11323690983409,-0.00839682684699546,0.0489457393104124,-0.0032838629070313
0.33,-0.738707583145867,-5.06559466757466,3.74627230244027,-0.0460535657791145,-0.0300729943967909,-0.0390159431464774,5.15865580660989,6.73041803311913,2.8139466239852,-0.0647471606855608,0.00163741753245272,0.0123824186345442,-1.47776706646096,6.02782823577073,4.74100610625451,-0.064157463954576,0.0020094187638373,0.0071998073269089,3.33025026211567,3.82878419419494,6.10787309549101,-0.0194385705511423,0.0558787836917258,-0.00048634717233482
0.335,-0.738446675801129,-5.06090330884416,3.74369244101149,-0.0453431947205788,-0.0291808924894557,-0.0380187953508723,5.15324857067003,6.7245439583306,2.81150869888804,-0.062680446037563,0.00239111156643175,0.0109192529960969,-1.47731836909384,6.0223256299318,4.73682272069929,-0.0621276200958023,0.000984734871734836,0.00798422627554302,3.32644922536019,3.82537463352871,6.10250928114794,-0.0299409452289848,0.0623280597925692,0.00208457845710313
0.34,-0.73818576845639,-5.05621195011378,3.7411125795827,-0.0425142562086659,-0.0268089712946233,-0.0354363985300308,5.1478413347304,6.71866988354208,2.80907077379088,-0.0583183482053232,0.00304493818746921,0.00957237291124137,-1.47686967172672,6.01682302409287,4.73263933514406,-0.0578491918007232,0.00039245883443996,0.00924381969320726,3.32264818860472,3.82196507286249,6.09714546680487,-0.0397154623657157,0.0680597932057973,0.0043660299576568
0.345,-0.737924861111708,-5.05152059138328,3.73853271815415,-0.0381681497445425,-0.0232761832802746,-0.0317433914788064,5.14243409879077,6.71279580875355,2.8066328486937,-0.0523930814459689,0.00364305563586216,0.00836839013122812,-1.47642097435937,6.01132041825397,4.72845594958884,-0.052050381331036,0.000159969780191359,0.0108126570597037,3.31884715184901,3.81855551219627,6.09178165246179,-0.0486284015430406,0.0728524211957029,0.00627592342273349
0.35,-0.737663953766912,-5.04682923265284,3.73595285672536,-0.0328699033891539,-0.0189212660288155,-0.0273491146351584,5.13702686285114,6.70692173396504,2.80419492359655,-0.0455873366580997,0.00421807165893484,0.00733218015578397,-1.47597227699225,6.00581781241505,4.72427256403361,-0.0454100057531053,0.000219934843398432,0.0124903176603322,3.31504611509331,3.81514595153004,6.08641783811872,-0.0566120147331916,0.0764611110301903,0.00774209954675088
0.355,-0.737403046422173,-5.04213787392234,3.73337299529669,-0.0271112848533623,-0.0140692592399313,-0.0225714338048758,5.13161962691152,6.70104765917651,2.80175699849938,-0.0384902015320631,0.00479548358673765,0.00648259236461657,-1.47552357962491,6.00031520657615,4.72008917847839,-0.0385147259655008,0.000513077501073201,0.0140580866691476,3.31124507833761,3.81173639086382,6.08105402377565,-0.0636738006508768,0.0786244024148776,0.00871085070987689
0.36,-0.737142139077434,-5.03744651519196,3.73079313386802,-0.02132921858399,-0.00904422695405773,-0.0176886041586745,5.12621239097189,6.69517358438799,2.79931907340221,-0.0316095716667523,0.00539629753256238,0.00582837665054298,-1.47507488225779,5.99481260073722,4.71590579292316,-0.0318705684516499,0.000982189530428968,0.015294137066336,3.30744404158213,3.80832683019759,6.07569020943257,-0.0699144207151458,0.0791215107465245,0.00915631123192454
0.365,-0.736881231732696,-5.03275515646146,3.72821327243935,-0.0159184288151748,-0.0041807648008021,-0.0129846966306423,5.12080515503226,6.68929950959946,2.79688114830505,-0.0253792639913775,0.00603328340740193,0.00536633662173658,-1.47462618489067,5.98930999489829,4.71172240736794,-0.0259082028308026,0.00156816911532687,0.0159869673741117,3.30364300482643,3.80491726953137,6.0703263950895,-0.0755311364330707,0.077831302689727,0.00908954566931951
0.37,-0.736620324388014,-5.02806379773108,3.72563341101056,-0.0112449890239149,0.000200383000632361,-0.0087627157583852,5.11539791909263,6.68342543481094,2.79444322320789,-0.0201800927015687,0.00671815853444234,0.00507908535361517,-1.47417748752332,5.98380738905942,4.70753902181272,-0.0210040060397459,0.00220503215336975,0.0159531656884399,3.29984196807072,3.80150770886514,6.06496258074643,-0.0807972694565909,0.0747537502121357,0.008557231883696
0.375,-0.736359417043218,-5.02337243900058,3.72305354958189,-0.00763675329795325,0.00382751454505495,-0.00531955923936709,5.109990683153,6.67755136002241,2.79200529811072,-0.016338799310133,0.00747034645945506,0.00493554350740058,-1.4737287901562,5.97830478322049,4.70335563625749,-0.0174803277080142,0.00282115814361667,0.0150566514050585,3.29604093131525,3.79809814819892,6.05959876640335,-0.0860243807370614,0.0700023759673124,0.00763233055936597
0.38,-0.736098509698536,-5.01868108027014,3.72047368815322,-0.00530562950247797,0.00650584736600177,-0.0028579135937423,5.10458344721337,6.6716772852339,2.78956737301355,-0.0140422488341611,0.00830873628214927,0.00489673480354573,-1.47328009278885,5.97280217738157,4.69917225070227,-0.0155206408321892,0.00335611925114603,0.0132249144780213,3.29223989455977,3.79468858753269,6.05423495206028,-0.091512722163339,0.0637790861942685,0.0064107254836101
0.385,-0.735837602353797,-5.0139897215397,3.71789382672443,-0.00424738423034385,0.00814609001917266,-0.00138447799705422,5.09917621127374,6.66580321044537,2.78712944791639,-0.013222812688495,0.00923652191614424,0.00492256015091899,-1.47283139542174,5.96729957154267,4.69498886514704,-0.0150554002838176,0.00378176943211824,0.0104636110611138,3.28843885780407,3.79127902686647,6.04887113771721,-0.0975093255065507,0.0563450184858518,0.00501749419132603
0.39,-0.735576695009058,-5.00929836280926,3.71531396529576,-0.00424853736160891,0.00877451957755325,-0.000713991243553578,5.09376897533389,6.65992913565685,2.78469152281922,-0.0135746549198989,0.0102376026142393,0.00497673812103297,-1.47238269805439,5.96179696570374,4.69080547959182,-0.015777766330563,0.00410406398470805,0.00685056549136253,3.28463782104836,3.78786946620025,6.04350732337413,-0.104183969834745,0.0479886298742236,0.00360319887425112
0.395,-0.735315787664319,-5.00460700407876,3.71273410386709,-0.00499820973902582,0.00851011332017182,-0.000573710839470725,5.08836173939426,6.65405506086832,2.78225359772205,-0.0146957301692768,0.0112831324160367,0.005030641431621,-1.47193400068727,5.95629435986481,4.6866220940366,-0.0172840677386452,0.00434714633731345,0.00250640543448234,3.28083678429289,3.78445990553402,6.03814350903106,-0.111613942451056,0.0389904138476491,0.00232240931754222
0.4,-0.735054880319581,-4.99991564534832,3.71015424243831,-0.00617332984651954,0.00752450451641656,-0.000693555734038463,5.08295450345463,6.6481809860798,2.77981567262489,-0.0161895070311154,0.0123375089602909,0.00506635156757249,-1.47148530332015,5.95079175402591,4.68243870848137,-0.0191747236238535,0.00454248746012582,-0.00242542054759748,3.27703574753718,3.7810503448678,6.03277969468798,-0.119774185622985,0.029608797347338,0.00131003183996387
0.405,-0.734793972974842,-4.99522428661788,3.70757438100964,-0.00746046879511057,0.00600907335134505,-0.000833167430613743,5.077547267515,6.64230691129128,2.77737774752772,-0.0176853855298811,0.0133629354713943,0.00507744276696737,-1.4710366059528,5.94528914818699,4.67825532292615,-0.0210751553760954,0.004727323917741,-0.00777928855250718,3.27323471078148,3.77764078420157,6.02741588034491,-0.128535708418604,0.0200867236757458,0.00066693629911513
0.41,-0.734533065630103,-4.99053292788744,3.70499451958096,-0.0085665279175361,0.00415958772715209,-0.000771494871263448,5.07214003157537,6.63643283650276,2.77493982243056,-0.0188488050230036,0.0143244851605943,0.00506629938404136,-1.47058790858568,5.93978654234806,4.67407193737092,-0.0226465165371886,0.00494149395072407,-0.0133698655277567,3.26943367402578,3.77423122353535,6.02205206600184,-0.137679753407042,0.0106502650158075,0.000457360721757552
0.415,-0.734272158285364,-4.985841569157,3.70241465815218,-0.0092312959300177,0.00216370476313916,-0.000299660041181461,5.06673279563597,6.63055876171423,2.7725018973334,-0.0193932296455943,0.0151911867891985,0.00504072292491225,-1.47013921121834,5.93428393650919,4.6698885518157,-0.0235976919419864,0.00522314237950636,-0.0190054801919462,3.2656326372703,3.77082166286912,6.01668825165876,-0.146934595269343,0.00150110510591262,0.000712816993872479
0.42,-0.734011250940625,-4.98115021042656,3.69983479672362,-0.00923046841705143,0.0001886882054399,0.000767293974502979,5.06132555969634,6.62468468692571,2.77006397223623,-0.0190776693939701,0.0159342791174659,0.00501178490467701,-1.46969051385122,5.92878133067026,4.66570516626047,-0.0236827504932457,0.00560733891201174,-0.024500165997665,3.2618316005146,3.7674121022029,6.01132443731569,-0.156016036700974,-0.00717915365513376,0.0014349936768461
0.425,-0.733750343595887,-4.97645885169607,3.69725493529484,-0.00837589706957472,-0.00161867352111731,0.00258255734535041,5.05591832375671,6.61881061213718,2.76762604713907,-0.0177033282572681,0.0165279980325177,0.00499113772901725,-1.4692418164841,5.92327872483133,4.66152178070525,-0.0226977483232635,0.00612433125441564,-0.0296778483618206,3.25803056375912,3.76400254153668,6.00596062297262,-0.164649446710237,-0.01521925630279,0.00259992026308195
0.43,-0.733489436251148,-4.97176749296568,3.69467507386616,-0.00651946764285497,-0.00313102775838236,0.00527011297456592,5.05051108781709,6.61293653734867,2.76518812204191,-0.0151164336964834,0.0169498457252562,0.00498795012425065,-1.46879311911675,5.91777611899244,4.65733839515002,-0.0204833373655353,0.0067963561880005,-0.0343763969737181,3.25422952700342,3.76059298087046,6.00059680862954,-0.172583825447248,-0.0224530996045294,0.00416622053602037
0.435,-0.733228528906409,-4.96707613423519,3.69209521243749,-0.00355754790188635,-0.00424544743359889,0.00892359312385479,5.04510385187746,6.60706246256014,2.76275019694474,-0.0112105807499273,0.0171789679608689,0.00500653660813885,-1.46834442174963,5.91227351315351,4.6531550095948,-0.0169266057841379,0.00763492749163707,-0.0384531729514382,3.25042849024794,3.75718342020423,5.99523299428647,-0.179606736923616,-0.0287165519204344,0.00608347769245987
0.44,-0.73296762156167,-4.96238477550474,3.68951535100882,0.000565159631640119,-0.00488415864878928,0.0136018822271555,5.03969661593783,6.60118838777161,2.76031227184757,-0.00592971980917626,0.017197012181629,0.00504465132167975,-1.46789572438229,5.90677090731461,4.64897162403957,-0.0119640557323723,0.00863890033104872,-0.0417875422331595,3.24662745349224,3.75377385953801,5.9898691799434,-0.185550340718612,-0.0338459458717719,0.00829802959818888
0.445,-0.732706714216931,-4.95769341677425,3.68693548958004,0.00585210597690843,-0.00499272105151126,0.019324086208654,5.03428937999797,6.59531431298309,2.75787434675041,0.000726732967744893,0.0169906539945203,0.00509370547542576,-1.46744702701517,5.90126830147568,4.64478823848435,-0.00558715221582439,0.00979423080692176,-0.0442813421017189,3.24282641673653,3.75036429887178,5.98450536560032,-0.190288436064235,-0.0376804371432502,0.0107565941130015
0.45,-0.732445806872249,-4.95300205804386,3.68435562815137,0.0122540362915112,-0.00453694298276586,0.0260613884142095,5.02888214405834,6.58944023819458,2.75543642165324,0.00870054552018262,0.01655536566535,0.00514086753505461,-1.46699832964805,5.89576569563675,4.64060485292912,0.00215337747190955,0.0110759667611873,-0.0458581203641103,3.23902537998106,3.74695473820556,5.97914155125725,-0.193733053899741,-0.0400741807908523,0.0134070213995024
0.455,-0.732184899527454,-4.94831069931337,3.68177576672269,0.0196742181407747,-0.00349563957167203,0.0337284019250027,5.02347490811871,6.58356616340605,2.75299849655607,0.0178780779530632,0.0159001853146037,0.00517183809549698,-1.4665496322807,5.89026308979788,4.6364214673739,0.0111494277002359,0.0124521417159114,-0.0464634163918525,3.23522434322535,3.74354517753933,5.97377773691418,-0.195834421503047,-0.0409218251312295,0.0161947234178018
0.46,-0.731923992182772,-4.94361934058298,3.67919590529391,0.0279724137111345,-0.00186601461074531,0.0421802211480041,5.01806767217909,6.57769208861752,2.75056057145891,0.0280935876515445,0.0150451089537869,0.00517469189909425,-1.46610093491336,5.88476048395896,4.63223808181868,0.0212384925023526,0.0138879178911934,-0.0460740324911715,3.23142330646965,3.7401356168731,5.9684139225711,-0.19657976133703,-0.0401781297596943,0.0190577152787439
0.465,-0.731663084837976,-4.93892798185249,3.67661604386535,0.036954500750137,0.000315826845694321,0.051211913749019,5.01266043623946,6.571818013829,2.74812264636174,0.039117005047393,0.0140151938025708,0.00514270282746276,-1.46565223754624,5.87925787812003,4.62805469626345,0.0321923460177583,0.015345981248493,-0.0447108693248556,3.22762226971395,3.73672605620688,5.96305010822803,-0.195987037967561,-0.0378607308785988,0.0219261222584838
0.47,-0.731402177493294,-4.93423662312205,3.67403618243657,0.0463580087757597,0.00296972578362097,0.0605515946683994,5.00725320029983,6.56594393904048,2.74568472126458,0.050636244993839,0.0128467950393064,0.00507324028323518,-1.46520354017912,5.87375527228113,4.62387131070823,0.0436985635378507,0.0167837461547187,-0.0424407181722398,3.22382123295847,3.73331649554066,5.95768629388496,-0.194102736147537,-0.0340613055228443,0.0247241045986662
0.475,-0.731141270148555,-4.92954526439161,3.67145632100789,0.0558501585261587,0.0059820475251988,0.0698543562295551,5.0018459643602,6.56006986425196,2.74324679616742,0.062254057391991,0.0115971522327673,0.00496545512893225,-1.464754842812,5.8682526664422,4.619687925153,0.0553556585262701,0.0181520216867754,-0.0393734755151264,3.220020196203,3.72990693487444,5.95232247954188,-0.191007566915419,-0.0289679017407182,0.0273683824280565
0.48,-0.730880362803759,-4.92485390566117,3.66887645957911,0.0650261380667636,0.00920203253719853,0.0787051053383958,4.99643872842057,6.55419578946344,2.74080887107025,0.0734866003017553,0.0103420344084078,0.00481965501744994,-1.46430614544465,5.86275006060328,4.61550453959778,0.0666721308638466,0.0193940579982476,-0.035666341616039,3.21621915944729,3.72649737420821,5.94695866519881,-0.186819593914041,-0.0228650971339241,0.0297668682838544
0.485,-0.730619455459077,-4.92016254693067,3.66629659815044,0.0733916353353621,0.0124242703090418,0.0866174222009028,4.99103149248094,6.54832171467491,2.73837094597308,0.0837441054671239,0.00917000409969136,0.00463670267557754,-1.46385744807731,5.85724745476438,4.61132115404255,0.0770489625632002,0.0204413654667035,-0.0315279728864366,3.21241812269159,3.72308781354199,5.94159485085573,-0.181691251594599,-0.0161076123809349,0.0318216198576736
0.49,-0.730358548114339,-4.91547118820023,3.66371673672165,0.0803357419839816,0.0153728946089164,0.0930173271432767,4.98562425654131,6.54244763988639,2.73593302087592,0.0923004896787932,0.0081811040315472,0.00441625484104229,-1.46340875071019,5.85174484892548,4.60713776848733,0.0857507708557856,0.0212072136339073,-0.0272169228647637,3.20861708593611,3.71967825287577,5.93623103651266,-0.175804360757769,-0.00909021416593002,0.0334328301260878
0.495,-0.7300976407696,-4.91077982946979,3.66113687529298,0.0851038024391362,0.0176847382163605,0.097216862748206,4.98021702060169,6.53657356509786,2.73349509577875,0.0982646162085626,0.00748321517252281,0.00415500971462934,-1.46296005334307,5.84624224308655,4.60295438293211,0.0918790723108396,0.021580095046331,-0.0230403213417026,3.20481604918041,3.71626869220954,5.93086722216959,-0.169361944319582,-0.00222103132776394,0.0345017415132409
0.5,-0.729836733424861,-4.90608847073935,3.65855701386431,0.086869986182377,0.0189354221110492,0.098475718539665,4.97480978466183,6.53069949030935,2.73105717068159,0.100666216417663,0.00717488042512891,0.00384964948133536,-1.46251135597595,5.84073963724765,4.59877099737688,0.0944595363701577,0.0214368436912043,-0.0193385110907128,3.2010150124247,3.71285913154331,5.92550340782651,-0.162576604523773,0.00411109090160309,0.0349288880511776
0.505,-0.729575826080065,-4.90139711200896,3.65597715243553,0.0851073715608679,0.018811290762599,0.0963303081635794,4.9694025487222,6.52482541552082,2.72861924558443,0.0988817166488762,0.00730719230126404,0.0035098498935751,-1.4620626586086,5.83523703140872,4.59458761182166,0.092863895324058,0.0207124009217889,-0.0164122139031644,3.197213975669,3.70944957087709,5.92013959348344,-0.155663438874941,0.00957704452906477,0.0346065137022495
0.51,-0.729314918735383,-4.89670575327847,3.65339729100697,0.0800534377910991,0.0173454582615739,0.091004420324069,4.96399531278257,6.51895134073229,2.72618132048726,0.0931695261595751,0.00785506588969151,0.00316996776456675,-1.46161396124126,5.8297344255698,4.59040422626643,0.0873371675168414,0.019484836457841,-0.0144158507753798,3.19341293891353,3.70604001021087,5.91477577914037,-0.148828928199446,0.0139281702417137,0.0334245206375776
0.515,-0.729054011390645,-4.89201439454803,3.65081742957818,0.0726702852395978,0.0149372115421046,0.0833749814013465,4.95858807684294,6.51307726594377,2.72374339539009,0.0846226778761301,0.00874355233401158,0.00287995394855318,-1.46116526387414,5.8242318197309,4.58622084071121,0.0789480518293733,0.0179615030491865,-0.0133324458675828,3.18961190215782,3.70263044954464,5.90941196479729,-0.142236113483426,0.0169735914178015,0.0312981367634127
0.52,-0.728793104045906,-4.88732303581759,3.64823756814951,0.064118106983202,0.0121228774281762,0.0745101961116986,4.95318084090331,6.50720319115525,2.72130547029293,0.074561820029581,0.00990004144785575,0.00268478389527972,-1.46071656650702,5.81872921389197,4.58203745515599,0.0689890673093459,0.0163761792395344,-0.0130579480664359,3.18581086540235,3.69922088887842,5.90404815045422,-0.135980178381662,0.0185491330239208,0.0281899361328783
0.525,-0.728532196701167,-4.88263167708715,3.64565770672084,0.05536871503089,0.00935738107712028,0.065309937980184,4.94777360496369,6.50132911636672,2.71886754519576,0.0640982372627636,0.0112688825349688,0.00261627228888163,-1.46026786913967,5.81322660805307,4.57785406960076,0.0585479985754968,0.014919395776326,-0.0134897989562041,3.18200982864687,3.69581132821219,5.89868433611115,-0.130115061662564,0.0185234904461604,0.0241128086506225
0.53,-0.728271289356485,-4.87794031835665,3.64307784529217,0.0471488582727062,0.00695058428634136,0.0564317043487937,4.94236636902406,6.4954550415782,2.7164296200986,0.0540755332722604,0.0127962497278096,0.0026969940710892,-1.45981917177255,5.80772400221414,4.57367068404554,0.048453339940136,0.0137321942212696,-0.0145545637819065,3.17820879189117,3.69240176754597,5.89332052176808,-0.124679582946751,0.0168248902964747,0.0191211505919907
0.535,-0.728010382011689,-4.87324895962621,3.64049798386338,0.0399757889397304,0.00510664347934179,0.0483381260879295,4.93695913308443,6.48958096678967,2.71399169500143,0.0451010296590273,0.0144241130143322,0.00294318166399645,-1.4593704744052,5.80222139637524,4.56948729849031,0.0393060132547626,0.0129126869231326,-0.0161991072028423,3.17440775513546,3.68899220687975,5.887956707425,-0.119672688867281,0.0134492820664842,0.013293167903521
0.54,-0.727749474667007,-4.86855760089577,3.63791812243471,0.0341793849981847,0.00396429187464546,0.0413425549348309,4.9315518971448,6.48370689200116,2.71155376990427,0.0375621649963995,0.0160933147637947,0.00336330661502184,-1.45892177703809,5.79671879053635,4.56530391293509,0.0314951545692634,0.012517343035891,-0.0183782725536445,3.17060671837976,3.68558264621352,5.88259289308193,-0.115028298249007,0.00845490430275707,0.00672204917541581
0.545,-0.727488567322212,-4.86386624216533,3.63533826100604,0.02993284972758,0.00359284511456455,0.0356199317573444,4.92614466120517,6.47783281721263,2.7091158448071,0.0316709794998405,0.0177442685995852,0.00395584862846552,-1.45847307967097,5.79121618469742,4.56112052737986,0.0252416386962193,0.0125654870179279,-0.0210443931091182,3.16680568162428,3.68217308554729,5.87722907873885,-0.11063512047952,0.001967708106648,-0.000472437814638346
0.55,-0.727227659977473,-4.85917488343489,3.63275839957726,0.0272882592921016,0.00399246378304079,0.0312176373916906,4.92073742526532,6.47195874242411,2.70667791970994,0.0275132030273107,0.0193210799659537,0.00470806081876101,-1.45802438230362,5.78571357885849,4.55693714182464,0.0206453263897982,0.0130458025471914,-0.0241328359694491,3.16300464486858,3.67876352488107,5.87186526439578,-0.106360879947657,-0.00581083961152506,-0.00813504424748383
0.555,-0.726966752632734,-4.85448352470445,3.6301785381487,0.0261984886896904,0.00512296251673729,0.0280940800261612,4.91533018932569,6.46608466763558,2.70423999461278,0.0250668080981577,0.0207788861189755,0.0055957753652205,-1.4575756849365,5.78021097301959,4.55275375626942,0.0177017763224505,0.0139197631952514,-0.0275513596879099,3.15920360811288,3.67535396421485,5.86650145005271,-0.102048749076707,-0.0146111531007997,-0.0160822069258013
0.56,-0.726705845287995,-4.84979216597395,3.62759867671991,0.0265302797470164,0.00691786767464014,0.0261565468509563,4.90992295338606,6.46021059284706,2.70180206951561,0.0242108527858865,0.0220840372690305,0.00658485107359904,-1.45712698756915,5.77470836718066,4.54857037071419,0.0163104550964537,0.0151246050334276,-0.0311834008052907,3.15540257135717,3.67194440354862,5.86113763570963,-0.0975136293017544,-0.024108895066632,-0.0241106985711346
0.565,-0.726444937943313,-4.84510080724357,3.62501881529124,0.0280793166038332,0.00927524388221295,0.0252776922418604,4.90451571744643,6.45433651805854,2.69936414441845,0.0247444494508854,0.0232096209262458,0.00763393642455975,-1.45667829020203,5.76920576134174,4.54438698515897,0.0162933792113193,0.0165786882477016,-0.0348982162026975,3.15160153460192,3.6685348428824,5.85577382136656,-0.0925547247314198,-0.033936662951336,-0.0320033121722582
0.57,-0.726184030598517,-4.84040944851307,3.62243895386246,0.0305867807331337,0.0120523463057,0.0253015808622707,4.8991084815068,6.44846244327002,2.69692621932128,0.0264074226567749,0.0241341917674227,0.00869767341276999,-1.45622959283469,5.76370315550284,4.54020359960374,0.0174146813661586,0.0181879648225354,-0.0385592342629303,3.14780049784622,3.66512528221617,5.85041000702349,-0.0869719726778379,-0.0437011658111508,-0.0395387978762004
0.575,-0.725923123253779,-4.83571808978263,3.61985909243379,0.0337661047273077,0.01507229712877,0.0260521782848011,4.89370124556717,6.44258836848149,2.69448829422411,0.0289096864304448,0.0248411192209608,0.00973211214263381,-1.45578089546757,5.75820054966394,4.53602021404852,0.0194080646667875,0.0198562009459458,-0.0420359387360128,3.14399946109052,3.66171572154995,5.84504619268041,-0.080583257544295,-0.0530217153394768,-0.0465108271234757
0.58,-0.725662215909097,-4.83102673105213,3.617279231005,0.0373471129562567,0.0181438215149235,0.0273538002924457,4.88829400962754,6.43671429369297,2.69205036912695,0.0319786819570882,0.025313852114653,0.0107020228448502,-1.45533219810034,5.75269794382501,4.5318368284933,0.022022116178203,0.021499547235543,-0.0452234743147138,3.14019842433504,3.65830616088373,5.83968237833734,-0.0732422512191884,-0.0615898408820552,-0.0527505521700788
0.585,-0.725401308564301,-4.82633537232175,3.61469936957633,0.0411016181438994,0.0210937535581912,0.0290571580950436,4.88288677368791,6.43084021890444,2.68961244402978,0.0353831300605765,0.0255336884729545,0.0115820248630007,-1.4548835007331,5.74719533798611,4.52765344293807,0.0250432627872988,0.0230513789312686,-0.0480523964418364,3.13639738757934,3.6548966002175,5.83431856399427,-0.0648438657788251,-0.0691943639973778,-0.0581291966217298
0.59,-0.725140401219619,-4.82164401359125,3.61211950814766,0.0448314655525259,0.0237889311906014,0.0310423853308175,4.87747953774829,6.42496614411593,2.68717451893261,0.0389144129985669,0.0254865507119938,0.0123522725000062,-1.45443480336598,5.74169273214719,4.52347005738285,0.0282770426491012,0.0244559143346867,-0.0504808053681657,3.13259635082363,3.65148703955128,5.82895474965119,-0.0553208075944522,-0.0756996766753484,-0.06255064684081
0.595,-0.72487949387488,-4.81695265486081,3.60953964671899,0.0483706872188008,0.0261314368989349,0.0332006827896438,4.87207230180888,6.41909206932741,2.68473659383545,0.042389760322952,0.0251669784511196,0.0130012779205914,-1.45398610599875,5.73619012630826,4.51928667182762,0.0315498751096225,0.0256721601232333,-0.0524958205317097,3.12879531406793,3.64807747888506,5.82359093530812,-0.044653329118316,-0.0810558706682126,-0.0659711411939066
0.6,-0.724618586530141,-4.81226129613037,3.60695978529031,0.0516161655300337,0.0280562746550992,0.0354338284115506,4.86666506586926,6.41321799453888,2.68229866873829,0.0456897350826181,0.0245723978954103,0.0135322711559411,-1.45353740863152,5.73068752046936,4.5151032862724,0.034745266398634,0.0266856905921937,-0.0541282207806209,3.12499427731245,3.64466791821883,5.81822712096505,-0.0328839581574364,-0.0853390615822711,-0.0684216292582452
0.605,-0.724357679185403,-4.80756993739993,3.60437992386164,0.0545391888195087,0.029547087355572,0.0376736096091068,4.8612578299294,6.40734391975036,2.67986074364113,0.0487708647800403,0.0237003778224907,0.0139607561603087,-1.45308871126429,5.72518491463043,4.51091990071717,0.0378169790925118,0.0275077634953191,-0.0554510782331897,3.12119324055675,3.6412583575526,5.81286330662197,-0.0201162150500455,-0.0887452050608745,-0.0699958688857363
0.61,-0.724096771840664,-4.80287857866949,3.60180006243286,0.0571682625420395,0.0306394914101265,0.0398869370117127,4.85585059398977,6.40146984496184,2.67742281854396,0.0516474519534942,0.0225509846197613,0.0143071163308758,-1.45264001389705,5.71968230879153,4.50673651516195,0.0407724836166329,0.0281649010633063,-0.0565620294903923,3.11739220380105,3.63784879688638,5.8074994922789,-0.00650375784895705,-0.0915374202321373,-0.070824200920512
0.615,-0.723835864495925,-4.79818721993905,3.59922020100419,0.0595624080017911,0.0313944953056997,0.04205516702329,4.85044335805003,6.39559577017331,2.6749848934468,0.0543681642535472,0.0211248655274582,0.0145918880671858,-1.45219131652982,5.71417970295261,4.50255312960672,0.0436519451681932,0.0286896606010518,-0.0575676913744927,3.11359116704557,3.63443923622016,5.80213567793583,0.00776151521334465,-0.0939813790892212,-0.0710519392516299
0.62,-0.723574957151186,-4.79349586120856,3.59664033957552,0.0617775699765917,0.0318666127455348,0.0441403629535285,4.8450361221104,6.38972169538479,2.67254696834963,0.0569846183983819,0.0194248724205456,0.0148319712976188,-1.4517426191627,5.70867709711371,4.4983697440515,0.0464986119287731,0.0291115578870632,-0.0585666283547856,3.10979013029009,3.63102967555393,5.79677186359275,0.022460220943864,-0.0962828132751012,-0.0708211586042998
0.625,-0.723314049806447,-4.78880450247811,3.59406047814673,0.0638314758028726,0.0320978695569722,0.0460620063691194,4.83962888617077,6.38384762059626,2.67010904325246,0.0595116736491454,0.0174685614485121,0.0150344638877568,-1.45129392179547,5.70317449127481,4.49418635849628,0.0493190832174291,0.0294459839465272,-0.0596299520415226,3.10598909353439,3.6276201148877,5.79140804924968,0.0373463567647988,-0.098555040484022,-0.0702525730671495
0.63,-0.723053142461708,-4.78411314374767,3.59148061671817,0.0656918068084615,0.0321317107072724,0.0477129549747087,4.83422165023114,6.37797354580774,2.6676711181553,0.0619093544118548,0.0152922933315994,0.0151925633275559,-1.45084522442824,5.69767188543588,4.49000297294105,0.0520652785685855,0.0296881268292519,-0.0608042039950184,3.10218805677869,3.62421055422148,5.78604423490661,0.0521460725345008,-0.100849487623931,-0.0694272185585219
0.635,-0.72279223511697,-4.77942178501723,3.58890075528939,0.0673020325178164,0.0320203584420719,0.049006094832734,4.82881441429163,6.37209947101922,2.66523319305813,0.0641085149628652,0.0129393588827637,0.0152897156670363,-1.450396527061,5.69216927959695,4.48581958738583,0.0546606141980695,0.0298200595886627,-0.0621331268128881,3.09838702002298,3.62080099355526,5.78068042056353,0.0665773072229291,-0.103223486126649,-0.0683866587080399
0.64,-0.722531327772231,-4.77473042628674,3.58632089386072,0.0686133234438981,0.0318192281553776,0.0498986543305691,4.823407178352,6.3662253962307,2.66279526796097,0.0660481047688061,0.0104544704602202,0.0153060682493169,-1.44994782969377,5.68666667375805,4.4816362018306,0.0570366598533406,0.0298218336861029,-0.063654620805471,3.09458598326751,3.61739143288904,5.77531660622046,0.0803840723040379,-0.105755697431594,-0.0671516170402902
0.645,-0.722270420427492,-4.77003906755635,3.58374103243204,0.0695895365217107,0.0315768651526462,0.0503791515945197,4.81799994241226,6.36035132144217,2.6603573428638,0.0676850763300231,0.00788909124564842,0.0152192639980376,-1.44949913232665,5.68116406791913,4.47745281627538,0.0591425099679129,0.0296734409939382,-0.0653736728022884,3.0907849465118,3.61398187222282,5.76995279187739,0.0933569392399646,-0.108494800549981,-0.0657276619221812
0.65,-0.722009513082753,-4.76534770882586,3.58116117100326,0.070198887722235,0.031328535418056,0.0504525755472097,4.81259270647263,6.35447724665365,2.65791941776664,0.0689872484136993,0.00530251910659686,0.0150032348676556,-1.4490504349593,5.6756614620802,4.47326943072015,0.0609382358253162,0.0293521834677298,-0.067251463739337,3.08698390975621,3.61057231155659,5.76458897753431,0.105334825650009,-0.111424403260249,-0.0640956465681917
0.655,-0.721748605738014,-4.76065635009547,3.57858130957459,0.0704130045051329,0.0310963053777244,0.0501408402120738,4.807185470533,6.34860317186512,2.65548149266947,0.0699308549302582,0.00275667843332096,0.0146296773940551,-1.44860173759218,5.6701588562413,4.46908604516493,0.0623930293233052,0.0288334403303556,-0.0692181103094096,3.08318287300062,3.60716275089037,5.75922516319124,0.116200204716917,-0.114478487882403,-0.0622074067904807
0.66,-0.721487698393332,-4.75596499136498,3.5760014481458,0.0702133679300654,0.0308919837515951,0.0494922119691001,4.80177823459337,6.34272909707661,2.65304356757231,0.0705050349072621,0.000308477782151061,0.0140713523405416,-1.44815304022495,5.6646562504024,4.4649026596097,0.0634899792482309,0.0280943812629302,-0.0711955095492308,3.07938183624503,3.60375319022414,5.75386134884817,0.125870991942813,-0.117581410415356,-0.0599883966147027
0.665,-0.721226791048537,-4.75127363263454,3.57342158671713,0.0696006767710774,0.0307243412200903,0.0485837118364091,4.79637099865374,6.33685502228808,2.65060564247514,0.0707192410371466,-0.00199282750023576,0.0133058325916502,-1.44770434285772,5.65915364456347,4.46071927405448,0.0642329187314801,0.0271188937703429,-0.0731087463698299,3.07558079948933,3.60034362955791,5.74849753450509,0.134296650028109,-0.120675234771019,-0.0573495757844469
0.67,-0.720965883703855,-4.7465822739041,3.57084172528846,0.0686007355946109,0.0306116134389977,0.0475059394926534,4.79096376271411,6.33098094749955,2.64816771737798,0.0706059553465331,-0.00409806942648362,0.0123188421541066,-1.44725564549049,5.65365103872458,4.45653588849926,0.0646473202804798,0.0259020415548471,-0.0748756525391352,3.07177976273374,3.59693406889169,5.74313372016202,0.141468120381435,-0.123717327157076,-0.054213343897465
0.675,-0.720704976359059,-4.74189091517366,3.56826186385979,0.0672608924504,0.0305827586045916,0.0463536463864503,4.78555652677449,6.32510687271103,2.6457297922808,0.0702136376604771,-0.00595820960295602,0.0111069461744875,-1.44680694812325,5.64814843288565,4.45235250294403,0.0647728572807792,0.0244519035039283,-0.0764138283618022,3.06797872597815,3.59352450822546,5.73776990581895,0.147422995179898,-0.126693005802443,-0.0505305455662469
0.68,-0.720444069014377,-4.73719955644316,3.565682002431,0.0656421707469693,0.030662708686883,0.045234194120854,4.78014929083474,6.31923279792251,2.64329186718365,0.0695979081685515,-0.00754002467460336,0.00967936999889256,-1.44635825075613,5.64264582704672,4.44816911738881,0.0646566247953384,0.0227892466302801,-0.0776801760569283,3.06417768922256,3.59011494755924,5.73240609147587,0.152229086249776,-0.129663636392385,-0.0462723499228178
0.685,-0.720183161669638,-4.73250819771272,3.56310214100233,0.0638177258567409,0.0308651916086338,0.0442587880024342,4.77474205489511,6.31335872313399,2.64085394208648,0.0688231352518341,-0.00883149679480788,0.00805747095302144,-1.44590955338879,5.63714322120782,4.44398573183358,0.0643553422547418,0.0209471180786433,-0.0786855562434555,3.06037665246686,3.58670538689302,5.7270422771328,0.155967105096611,-0.132783118543636,-0.041420742140244
0.69,-0.719922254324899,-4.72781683898228,3.56052227957366,0.061874535124321,0.0311982132138028,0.0435069910727604,4.76933481895549,6.30748464834546,2.63841601698932,0.0679683975293227,-0.00982684430010065,0.0062724584963056,-1.44546085602167,5.63164061536889,4.43980234627836,0.0639394057623589,0.0189703830743698,-0.0794582141091364,3.05657561571127,3.5832958262268,5.72167846278973,0.158729147600471,-0.136232638954984,-0.03598035100761
0.695,-0.71966134698016,-4.72312548025184,3.55794241814499,0.0599047467816994,0.0316699662823627,0.0430151124442893,4.76392758301586,6.30161057355694,2.63597809189216,0.0671157846041462,-0.0105124565620725,0.00436365123265817,-1.44501215865455,5.62613800953,4.43561896072313,0.0634802056320222,0.016912588971492,-0.0800027249041865,3.05277457895568,3.57988626556057,5.71631464844665,0.160628036577265,-0.140127773017174,-0.0300038064850795
0.7,-0.719400439635422,-4.7184341215214,3.5553625567162,0.0579883330902588,0.0322892835918373,0.0428007124428222,4.75852034707611,6.29573649876842,2.63354016679499,0.0663258972883433,-0.0108672244830556,0.00237601107714313,-1.4445634612872,5.6206354036911,4.43143557516791,0.0630270171681391,0.0148293420191112,-0.0802949913562512,3.04897354220009,3.57647670489435,5.71095083410358,0.161801055237656,-0.144489177219487,-0.0235988523742015
0.705,-0.719139532290683,-4.71374276279096,3.55278269528753,0.0561815543915616,0.0330435135424773,0.0428637024426981,4.75311311113649,6.28986242397989,2.63110224169782,0.0656329998550789,-0.0108730547665153,0.000355449512270532,-1.44411476392008,5.61513279785217,4.42725218961269,0.0626044743647464,0.0127721461793695,-0.0803027194707493,3.04517250544438,3.57306714422813,5.7055870197605,0.162380203361765,-0.149267990334053,-0.0168987284469032
0.71,-0.718878624945944,-4.70905140406052,3.55020283385886,0.0545154478242287,0.033870858481492,0.0431635522081301,4.74770587519686,6.28398834919138,2.62866431660066,0.0650576389568981,-0.01052498760845,-0.00165529255625676,-1.44366606655274,5.60963019201327,4.42306880405746,0.0622267500851517,0.0107857108468778,-0.0800064320200861,3.04137146868879,3.56965758356189,5.70022320541743,0.162450591752558,-0.15437656861681,-0.0100271770715812
0.715,-0.718617717601205,-4.70436004533008,3.54762297243008,0.052998552101948,0.034681062479131,0.0436380161105762,4.74229863925723,6.27811427440285,2.62622639150349,0.0646042968356698,-0.0098318870989668,-0.003617834283328,-1.44321736918562,5.60412758617434,4.41888541850224,0.0618951925003554,0.00890675430166216,-0.0794097398205532,3.03757043193309,3.56624802289567,5.69485939107436,0.162060530877518,-0.159727781874159,-0.00309588813640316
0.72,-0.718356810256466,-4.69966868659964,3.54504311100152,0.0516188554774292,0.0354073325990801,0.0442456119845858,4.7368914033176,6.27224019961432,2.62378846640633,0.064245872424803,-0.00880805091254009,-0.00549879724149246,-1.44276867181838,5.59862498033542,4.41470203294701,0.0615819685695508,0.00716167580295743,-0.0785279141484041,3.03376939517761,3.56283846222945,5.68949557673128,0.161270065570514,-0.165247304563797,0.00377884400914496
0.725,-0.718095902911728,-4.69497732786914,3.54246324957273,0.0503435682191456,0.0360227831541813,0.0449692071432032,4.73148416737797,6.2663661248258,2.62135054130916,0.0639202543735115,-0.00746610567636905,-0.00727198016679086,-1.44231997445115,5.59312237449652,4.41051864739179,0.061226328274064,0.00556395713632211,-0.0773654789268996,3.02996835842191,3.55942890156322,5.68413176238821,0.160168269117733,-0.170837191161132,0.0104739105749051
0.73,-0.717834995566989,-4.6902859691387,3.53988338814406,0.0491172620516647,0.0365103233037981,0.0457974814463557,4.72607693143834,6.26049205003728,2.61891261621199,0.0635381291664544,-0.00582314961510176,-0.00891835465481835,-1.44187127708392,5.58761976865759,4.40633526183657,0.0607435023135663,0.00411450011312156,-0.0759183849062708,3.02616732166632,3.556019340897,5.67876794804514,0.158846289074878,-0.176352079900832,0.016869925623827
0.735,-0.71757408822225,-4.68559461040826,3.53730352671528,0.0478626800933499,0.0368309077106395,0.0467187660634837,4.72066969549871,6.25461797524876,2.61647469111483,0.0629907370168365,-0.00391302813982262,-0.010422669229452,-1.44142257971669,5.58211716281866,4.40215187628134,0.0600337265644866,0.00280521359812163,-0.0741960114455189,3.02236628491073,3.55260978023077,5.67340413370207,0.157365980220441,-0.181612835148275,0.0228561758826149
0.74,-0.717313180877511,-4.68090325167782,3.53472366528672,0.0464908867203964,0.0369340562362578,0.0477064757939885,4.71526245955909,6.24874390046023,2.61403676601767,0.0621621813127312,-0.00178043290268643,-0.0117733264617986,-1.44097388234957,5.57661455697979,4.39796849072612,0.0589930133344592,0.0016218290365935,-0.0722152853864286,3.01856524815503,3.54920021956455,5.66804031935899,0.155756687643531,-0.186418808513988,0.0283328052829548
0.745,-0.717052273532772,-4.67621189294738,3.53214380385793,0.0449114101510016,0.0367909604444786,0.0486970759414624,4.70985522361946,6.2428698256717,2.6115988409205,0.0609396800039534,0.000536471173569274,-0.0129664233101715,-1.44052518498233,5.57111195114086,4.39378510517089,0.0575208272062393,0.000543026204402948,-0.0699697364041828,3.01476421139955,3.54579065889833,5.66267650501592,0.154035668986087,-0.190534787765477,0.0332165575225284
0.75,-0.71679136618809,-4.67152053421694,3.52956394242926,0.0430413936442975,0.036395895256621,0.0495918633679161,4.70444798767983,6.23699575088319,2.60916091582334,0.0592247989155822,0.0030025749226318,-0.0140047170381411,-1.4400764876151,5.56560934530194,4.38960171961567,0.0555315183509481,-0.000457157070663065,-0.0674317427162547,3.01096317464385,3.54238109823211,5.65731269067285,0.152222274106867,-0.193698148867766,0.037444428108618
0.755,-0.716530458843295,-4.6668291754865,3.52698408100048,0.0408409664293174,0.0357485140956181,0.0502592380513744,4.69904075174009,6.23112167609466,2.60672299072617,0.0569798029230831,0.00556821901298906,-0.014889058857379,-1.43962779024787,5.56010673946304,4.38541833406044,0.0530007096841915,-0.00139464202412963,-0.0645856209436603,3.00716213788826,3.53897153756588,5.65194887632977,0.1503297695583,-0.195679398298079,0.0409703105800535
0.76,-0.716269551498556,-4.662137816756,3.52440421957181,0.0383450047043505,0.0348607037221292,0.0505427252719999,4.69363351580046,6.22524760130614,2.60428506562901,0.0542640398313628,0.00816644245833324,-0.0156131147080294,-1.43917909288064,5.55460413362411,4.38123494850522,0.0499999627376525,-0.00226407120696976,-0.0614378664872184,3.00336110113255,3.53556197689966,5.6465850619867,0.148351668035883,-0.196315821354573,0.0437578195074898
0.765,-0.716008644153817,-4.65744645802556,3.52182435814314,0.0356302730193986,0.0337715154273836,0.0503193637548966,4.68822627986083,6.21937352651761,2.60184714053185,0.0511821839005734,0.01072327332573,-0.0161681540936528,-1.4387303955134,5.54910152778518,4.37705156295,0.0466454831303458,-0.00305076719805829,-0.0580057783020769,2.99956006437708,3.53215241623343,5.64122124764362,0.146267596804106,-0.195473737111479,0.0457797031021476
0.77,-0.715747736809078,-4.65275509929512,3.51924449671435,0.0327630779877954,0.032538098347445,0.0495405563866404,4.6828190439212,6.21349945172909,2.59940921543468,0.0478161592199356,0.0131662810708792,-0.0165501106655606,-1.43828169814628,5.54359892194628,4.37286817739477,0.0430314952165035,-0.00374764271832241,-0.0543130179994401,2.99575902762138,3.52874285556721,5.63585743330055,0.144062126767525,-0.193020762781109,0.0470287739136404
0.775,-0.715486829464396,-4.64806374056462,3.51666463528568,0.0297930961229179,0.0312155525899702,0.0481984205026231,4.67741180798157,6.20762537694058,2.59697129033751,0.0442270588327158,0.0154287285992197,-0.0167613396099405,-1.43783300077905,5.53809631610736,4.36868479183955,0.0392312707647328,-0.00435587460252249,-0.0503920916764056,2.99195799086579,3.52533329490098,5.63049361895748,0.141732660245936,-0.188848068600421,0.0475296703624943
0.78,-0.7152259221196,-4.64337238183424,3.51408477385701,0.0267654796216065,0.0298473837675858,0.0462941408484737,4.67200457204183,6.20175130215205,2.59453336524034,0.0404761458409881,0.0174508446547137,-0.0168089009058868,-1.43738430341182,5.53259371026849,4.36450140628432,0.0353166340211738,-0.00487931898200822,-0.04629088556921,2.98815695411008,3.52192373423476,5.6251298046144,0.139283385886591,-0.182902780208713,0.0473391509935784
0.785,-0.714965014774918,-4.6386810231038,3.51150491242834,0.0237215693221384,0.0284641826780147,0.0438455369485424,4.6665973361022,6.19587722736352,2.59209544014318,0.036623154676443,0.0191792393951879,-0.0167021175388704,-1.43693560604459,5.52709110442956,4.3603180207291,0.0313557703087086,-0.00532211680177114,-0.0420819204999479,2.98435591735449,3.51851417356853,5.61976599027133,0.136715620154414,-0.175207588538957,0.046536834643311
0.79,-0.71470410743018,-4.63398966437336,3.50892505099955,0.020697974626281,0.0270827373267112,0.0408955436619221,4.66119010016257,6.190003152575,2.58965751504602,0.0327225106702318,0.0205661574094287,-0.0164505258397367,-1.43648690867735,5.52158849859063,4.35613463517387,0.0274093822886267,-0.00568734923377716,-0.0378649179812358,2.9805548805989,3.51510461290231,5.61440217592826,0.134021188859408,-0.165863974286508,0.045215902083381
0.795,-0.714443200085384,-4.62929830564286,3.50634518957099,0.0177264350261788,0.0257055095374891,0.0375114537997865,4.65578286422294,6.18412907778648,2.58721958994885,0.0288230666893408,0.021569720032337,-0.0160634976829795,-1.43603821131023,5.51608589275173,4.35195124961865,0.0235305586236816,-0.00597695378496065,-0.0337611768352303,2.97675384384331,3.51169505223609,5.60903836158518,0.131180561708178,-0.155041822220917,0.043477653557126
0.8,-0.714182292740702,-4.62460694691242,3.50376532814221,0.0148326937602007,0.0243251650103079,0.0337784464362577,4.65037562828331,6.17825500299796,2.58478166485169,0.0249667644610045,0.0221567933735854,-0.0155512198776129,-1.43558951394289,5.51058328691281,4.34776786406342,0.0197633998816812,-0.00619297518834696,-0.0299023206548741,2.97295280708761,3.50828549156986,5.60367454724211,0.128159361927858,-0.142960126944004,0.0414261337892991
0.805,-0.713921385395906,-4.61991558818198,3.50118546671342,0.0120370672006137,0.0229361183900317,0.0297829487389377,4.64496839234369,6.17238092820943,2.58234373975452,0.0211885033721059,0.0223091419191793,-0.0149257742496313,-1.43514081657577,5.50508068107388,4.3435844785082,0.0161423446605252,-0.00633850139050657,-0.0264121350780632,2.96915177033202,3.50487593090364,5.59831073289904,0.124897370716313,-0.129854412515096,0.0391593366678631
0.81,-0.713660478051224,-4.61522422945148,3.49860560528475,0.00935565446923232,0.0215419344095215,0.0255995257294314,4.63956115640394,6.16650685342091,2.57990581465736,0.0175174612711631,0.0220268241581716,-0.0142018322545684,-1.43469211920842,5.49957807523498,4.33940109295298,0.0126933723384164,-0.00641829382199272,-0.0233911350710909,2.96535073357643,3.50146637023741,5.59294691855596,0.121302539005592,-0.115944780549505,0.0367637758718813
0.815,-0.713399570706429,-4.6105328707211,3.49602574385608,0.00679981756086859,0.0201511041904288,0.0212968308275886,4.63415392046443,6.16063277863238,2.5774678895602,0.0139775082439745,0.0213245740819654,-0.01339698297427,-1.4342434218413,5.49407546939605,4.33521770739775,0.00943531928487902,-0.00643967043989595,-0.0209154585926896,2.96154969682084,3.49805680957119,5.58758310421289,0.117261756700071,-0.1014298033354,0.0343187144997718
0.82,-0.713138663361747,-4.6058415119906,3.49344588242741,0.0043735545249773,0.0187711980419189,0.0169525293651049,4.6287466845248,6.15475870384386,2.57502996446303,0.0105841087513728,0.0202267871748704,-0.0125317948347501,-1.43379472447418,5.48857286355712,4.33103432184253,0.00637774077203078,-0.00641353089778816,-0.0190444426348234,2.95774866006525,3.49464724890496,5.58221928986982,0.112658814007744,-0.0865029097793234,0.0319037770315349
0.825,-0.712877756017008,-4.60115015326016,3.49086602099862,0.0020716793737004,0.0174024958604114,0.0126583409047013,4.62333944858517,6.14888462905534,2.57259203936587,0.00734250135474582,0.0187626540147512,-0.0116289377835432,-1.43334602710684,5.48307025771825,4.3268509362873,0.00351981971276954,-0.00635418817507353,-0.0178290325218209,2.95394762330955,3.49123768823874,5.57685547552674,0.107387919767284,-0.0713684227369783,0.0296024083904775
0.83,-0.712616848672269,-4.59645879452972,3.48828615957007,-0.000112636510211622,0.0160281151133324,0.00850303607743502,4.61793221264554,6.14301055426682,2.5701541142687,0.00426022757482799,0.0169596086613007,-0.010710377654293,-1.43289732973972,5.47756765187933,4.32266755073208,0.000863488290428621,-0.00627545716131029,-0.0173149140073131,2.95014658655396,3.48782812757252,5.57149166118367,0.101351963805093,-0.0562347143176637,0.0274961205435668
0.835,-0.71235594132753,-4.59176743579923,3.48570629814128,-0.00217821290976465,0.0146183813337751,0.00455206271635231,4.6125249767058,6.13713647947829,2.56771618917153,0.00136006323882741,0.0148435288698372,-0.00979616088786221,-1.43244863237237,5.4720650460404,4.31848416517686,-0.00157391703064239,-0.00618770561727764,-0.0175333987013758,2.94634554979837,3.48441856690629,5.5661278468406,0.0944513380767713,-0.0412898798893379,0.025655416232115
0.84,-0.712095033982791,-4.58707607706884,3.48312643671261,-0.00412363620216475,0.0131520117885452,0.000856480172193456,4.60711774076617,6.13126240468977,2.56527826407437,-0.00133477358599726,0.0124492358668493,-0.00890803513347443,-1.43199993500525,5.4665624402015,4.31430077962163,-0.00377541948362992,-0.00610266833222148,-0.0184896967670987,2.94254451304278,3.48100900624007,5.56076403249752,0.086587889203112,-0.026695823889549,0.0241414475092867
0.845,-0.711834126638053,-4.5823847183384,3.48054657528382,-0.00595584549289398,0.0116267447443579,-0.00253332202837935,4.60171050482654,6.12538832990125,2.5628403389772,-0.0038153196444197,0.00982853099498117,-0.00807163567829768,-1.43155123763802,5.46105983436257,4.31011739406641,-0.00574006426924853,-0.00603682032062639,-0.0201604413589796,2.93874347628707,3.47759944557384,5.55540021815445,0.0776717290405075,-0.0125994889886577,0.0230088677721265
0.85,-0.711573219293314,-4.57769335960791,3.47796671385527,-0.00767796505069936,0.0100583755460595,-0.00557590976360578,4.59630326888691,6.11951425511273,2.56040241388003,-0.00607124737390488,0.00704942761034553,-0.0073140432536846,-1.43110254027079,5.45555722852365,4.30593400851118,-0.00746798829719519,-0.00600650771876473,-0.022494149793429,2.93494243953148,3.47418988490762,5.55003640381138,0.0676126041601016,0.000867955651859864,0.0222982005955309
0.855,-0.711312311948632,-4.57300200087747,3.47538685242648,-0.00927747681493579,0.00848202204641817,-0.00823949120305578,4.59089603294728,6.1136401803242,2.55796448878287,-0.00807589657280012,0.00419108846655343,-0.00666219293155101,-1.43065384290367,5.45005462268475,4.30175062295596,-0.00894502236986188,-0.00602468942119406,-0.0254117629061187,2.93114140277578,3.4707803242414,5.5446725894683,0.0563200251705866,0.0135998855969992,0.0220310565454074
0.86,-0.711051404603836,-4.56831064214703,3.47280699099781,-0.0107249147409518,0.00694158498867896,-0.0104895250209925,4.58548879700766,6.10776610553568,2.55552656368571,-0.00978362126469779,0.00133457740046587,-0.00614130407070748,-1.43020514553632,5.44455201684582,4.29756723740073,-0.0101384896145176,-0.00610008471495114,-0.0288139020149996,2.9273403660203,3.46737076357517,5.53930877512523,0.0437179331493798,0.0255177015633078,0.0222116376907021
0.865,-0.710790497259097,-4.56361928341653,3.47022712956903,-0.0119701743797591,0.00547513573430295,-0.0122824627136397,4.58008156106791,6.10189203074715,2.55308863858854,-0.011123984575465,-0.00144500906497732,-0.00577151799859001,-1.4297564481692,5.43904941100695,4.29338385184551,-0.0109905515343487,-0.00623378312078482,-0.0325891150998826,2.9235393292646,3.46396120290895,5.53394496078216,0.0297537224379959,0.0365682135939583,0.0228262267827918
0.87,-0.710529589914415,-4.55892792468615,3.46764726814035,-0.0129421473820591,0.00412162298105391,-0.0135601146392122,4.57467432512829,6.09601795595863,2.55065071349138,-0.0120044519485863,-0.0040766164701554,-0.00556727255986448,-1.42930775080197,5.43354680516802,4.28920046629029,-0.0114213498166833,-0.00641872085903715,-0.0366141333148169,2.91973829250901,3.46055164224272,5.52858114643908,0.01440322018717,0.0467166548476283,0.0238432772363309
0.875,-0.71026868256962,-4.5542365659557,3.46506740671168,-0.0135600533398706,0.00293123943082079,-0.0142464344147036,4.56926708918866,6.09014388117011,2.54821278839421,-0.0123278799177946,-0.00648855254589772,-0.00553917773415186,-1.42885905343473,5.42804419932909,4.28501708073506,-0.0113466638838835,-0.00664370178167552,-0.0407519657236185,2.91593725575342,3.4571420815765,5.52321733209601,-0.00232381358682981,0.0559457620056174,0.0252153712924701
0.88,-0.710007775224938,-4.54954520722521,3.4624875452829,-0.0137489703945638,0.00195493258778763,-0.0142537088783979,4.56385985324903,6.08426980638158,2.54577486329704,-0.012010652961855,-0.00861055924723094,-0.00569388756105775,-1.4284103560675,5.42254159349019,4.28083369517984,-0.0106951503353851,-0.00689638119407803,-0.0448563505929185,2.91213621899772,3.45373252091028,5.51785351775294,-0.0203828390699708,0.0642643732901708,0.0268779758730245
0.885,-0.709746867880142,-4.54485384849477,3.45990768385434,-0.0134478622248364,0.00122285266354192,-0.013490865432521,4.5584526173094,6.07839573159306,2.54333693819988,-0.0109893434643238,-0.0103797704128174,-0.00603140211868566,-1.42796165870027,5.41703898765127,4.27665030962461,-0.00941413859365811,-0.00716226815953555,-0.0487812204203262,2.90833518224224,3.45032296024405,5.51248970340986,-0.0396964138076045,0.0717092135227209,0.0287440876985808
0.89,-0.70948596053546,-4.54016248976433,3.45732782242555,-0.0126101590340301,0.000734680070540855,-0.011871851664259,4.55304538136966,6.07252165680454,2.54089901310272,-0.00921983409653189,-0.0117430013196265,-0.00654306449616005,-1.42751296133304,5.41153638181234,4.27246692406939,-0.00746879032671065,-0.00742273091593702,-0.0523872432308063,2.90453414548654,3.44691339957782,5.50712588906679,-0.0601527771944621,0.0783339185237717,0.0307007789524041
0.895,-0.709225053190664,-4.53547113103389,3.45474796099677,-0.0112066384660804,0.000465676006717227,-0.00932303184549079,4.54763814543003,6.06664758201602,2.53846108800555,-0.006682283129078,-0.0126536068863105,-0.00721176699674213,-1.42706426396592,5.40603377597344,4.26828353851417,-0.00484764054775344,-0.00765553996554829,-0.0555427433399939,2.90073310873095,3.4435038389116,5.50176207472372,-0.0815969610714394,0.0841948542698728,0.032610621663145
0.9,-0.708964145845925,-4.53077977230339,3.4521680995681,-0.0092322127497806,0.000369134333431019,-0.00578807732158668,4.5422309094904,6.06077350722749,2.53602316290839,-0.00339071944094313,-0.0130709388763265,-0.00801201093883526,-1.42661556659868,5.40053117013451,4.26410015295894,-0.00157214382288732,-0.00783634608908718,-0.0581276098995381,2.89693207197524,3.44009427824538,5.49639826038064,-0.103822068890892,0.0893404501543568,0.0343170750144237
0.905,-0.708703238501244,-4.52608841357301,3.44958823813954,-0.00671595087989787,0.000371545191821427,-0.00124187795980197,4.53682367355088,6.05489943243897,2.53358523781122,0.000595903667752879,-0.0129660508721141,-0.00890965928793857,-1.42616686923145,5.39502856429561,4.25991676740371,0.00229355038135366,-0.00794086465017864,-0.0600429368959154,2.89313103521965,3.43668471757915,5.49103444603757,-0.126577180901754,0.0938136156225853,0.0356563786689345
0.91,-0.708442331156448,-4.52139705484251,3.44700837671076,-0.00373691027259291,0.000373994754783123,0.00428601620452681,4.53141643761126,6.04902535765045,2.53114731271406,0.00515536071213134,-0.0123233113322594,-0.00986359103824618,-1.42571817186422,5.38952595845672,4.25573338184849,0.00662525325046343,-0.00794968524588604,-0.0612168287968524,2.88932999846406,3.43327515691293,5.4856706316945,-0.149585238302809,0.0976625740463933,0.0364700404391183
0.915,-0.708181423811766,-4.51670569611207,3.44442851528197,-0.000442559056128194,0.000255605173014533,0.0106957725515614,4.52600920167151,6.04315128286192,2.52870938761689,0.010079865228095,-0.0111351657542965,-0.0108288285915481,-1.42526947449699,5.38402335261779,4.25154999629327,0.0112163795081869,-0.00785430642679852,-0.0616061174693518,2.88552896170847,3.42986559624671,5.48030681735142,-0.172548960871852,0.100937004990643,0.0366104083410282
0.92,-0.707920516467027,-4.51201433738163,3.44184865385341,0.0029345623032579,-0.000129926248169308,0.0178089832368865,4.52060196573188,6.03727720807341,2.52627146251972,0.015057448309007,-0.00939928426371283,-0.0117595423230349,-1.42482077712987,5.37852074677886,4.24736661073804,0.0157595060968527,-0.00766263397164125,-0.0612023435626723,2.88172792495277,3.42645603558049,5.47494300300835,-0.195147315335,0.103668801908885,0.0359470179216921
0.925,-0.707659609122288,-4.50732297865113,3.43926879242463,0.00606671189602765,-0.000958183987964318,0.0253497269669389,4.51519472979226,6.03140313328488,2.52383353742256,0.0196628476351311,-0.0071184890442734,-0.0126112536990093,-1.42437207976252,5.37301814093996,4.24318322518282,0.0198376190905852,-0.00740247418367143,-0.0600386009915992,2.87792688819718,3.42304647491426,5.46957918866527,-0.217039177144118,0.105861049505367,0.0343771456518228
0.93,-0.707398701777549,-4.50263161992075,3.43668893099596,0.00853376273448949,-0.002431192691106,0.0329117921432374,4.50978749385263,6.02552905849635,2.52139561232539,0.023365139905462,-0.00429834024024106,-0.0133426201168049,-1.4239233823954,5.36751553510103,4.2389998396276,0.0229312470022943,-0.0071217247652854,-0.0581882321104407,2.87412585144159,3.41963691424803,5.4642153743222,-0.23787624722867,0.107498008924127,0.0318323277113442
0.935,-0.707137794432811,-4.49794026119031,3.43410906956717,0.00982272887124747,-0.0047730215048711,0.0399390598723765,4.504380257913,6.01965498370784,2.51895768722823,0.0255302577692168,-0.000943933361493233,-0.013918702873572,-1.42347468502817,5.36201292926214,4.23481645407237,0.0244206604362703,-0.00689065711402997,-0.0557634909881261,2.870324814686,3.41622735358181,5.45885155997913,-0.257319252178726,0.108555976940509,0.0282825828910689
0.94,-0.706876887088072,-4.49324890245987,3.4315292081385,0.00930545511447478,-0.00823219849657734,0.045733805318574,4.49897302197337,6.01378090891931,2.51651976213107,0.0253939069059874,0.00294079628364801,-0.0143159941757832,-1.42302598766094,5.35651032342321,4.23063306851715,0.0235598523395415,-0.00681072746900112,-0.0529256908546133,2.8665237779303,3.41281779291558,5.45348774563606,-0.275056046392623,0.108994154063601,0.0237439472412897
0.945,-0.706615979743333,-4.48855754372937,3.42894934670983,0.00630930757977699,-0.0130526939927633,0.0495291289748722,4.49356578603363,6.00790683413079,2.5140818370339,0.0221453052160902,0.00734707323792625,-0.014523059756526,-1.42257729029382,5.35100771758431,4.22644968296192,0.0195593349629685,-0.00700239053448673,-0.0498719604807876,2.86272274117471,3.40940823224935,5.44812393129298,-0.290818609123814,0.108756682369573,0.0182779997951348
0.95,-0.706355072398594,-4.48386618499899,3.42636948528116,0.000455512312021292,-0.0193399894170842,0.0507621648201391,4.488158550094,6.00203275934226,2.51164391193673,0.0153278792975675,0.0122391023089654,-0.014531466889808,-1.42212859292647,5.34550511174541,4.2222662974067,0.0119797651683742,-0.0075350327317231,-0.0467563622172341,2.85892170441912,3.40599867158313,5.44276011694991,-0.304390299686704,0.107805566623508,0.0119795104265865
0.955,-0.706094165053855,-4.47917482626849,3.42378962385237,-0.00796194844658938,-0.0268970412882929,0.0494402645331358,4.48275131415437,5.99615868455373,2.50920598683957,0.00528048953735701,0.0175247876947705,-0.0143261957919315,-1.42167989555935,5.34000250590648,4.21808291185147,0.00116610211467032,-0.00835034579295297,-0.0436126803866846,2.85512066766353,3.40258911091691,5.43739630260684,-0.315604533362684,0.106129922651476,0.00497214928978069
0.96,-0.705833257709116,-4.47448346753805,3.4212097624237,-0.018051571507654,-0.0352366759715319,0.0461449830964846,4.47734407821474,5.99028460976522,2.50676806174241,-0.00695995374722382,0.0230543694259927,-0.0138885226722361,-1.421231198192,5.33449990006756,4.21389952629625,-0.0118469188287607,-0.00928017766384531,-0.0403838828976597,2.85131963090794,3.39917955025069,5.43203248826376,-0.324347924084583,0.103708356713369,-0.00258502652138342
0.965,-0.705572350364378,-4.46979210880761,3.41862990099503,-0.0287753532142181,-0.0437656477534079,0.0416388370671185,4.47193684227511,5.98441053497669,2.50433013664524,-0.0201893650420607,0.0286523521330134,-0.0132066500919057,-1.42078250082488,5.32899729422866,4.20971614074102,-0.0258566462874472,-0.0101378417607109,-0.0370156141067053,2.84751859415223,3.39576998958447,5.42666867392069,-0.33056978995799,0.100483936091345,-0.0105004743597307
0.97,-0.705311443019696,-4.46510075007711,3.41605003956624,-0.0392620199036548,-0.0519313130266705,0.036545710924067,4.46652960633537,5.97853646018817,2.50189221154807,-0.0333976085360199,0.0341479414853013,-0.012281646015137,-1.42033380345777,5.32349468838973,4.2055327551858,-0.0398488809164129,-0.0107787404656726,-0.0335013657626378,2.84371755739664,3.39236042891824,5.42130485957762,-0.33428785586282,0.0963851675106729,-0.0185651563931692
0.975,-0.7050505356749,-4.46040939134667,3.41347017813769,-0.0488567363589757,-0.0592567180301084,0.0312866879773859,4.46112237039574,5.97266238539964,2.49945428645091,-0.0458220569245266,0.0393871149502846,-0.0111275858271785,-1.41988510609042,5.3179920825508,4.20134936963057,-0.053051829257964,-0.0111085057526221,-0.0298720704429044,2.83991652064094,3.38895086825201,5.41594104523454,-0.335587389621869,0.091362883709518,-0.0265668059584136
0.98,-0.704789628330161,-4.45571803261623,3.4108903167089,-0.0570918999597481,-0.0653342011030765,0.0261134303235431,4.45571513445611,5.96678831061112,2.49701636135374,-0.0569127935962861,0.0442360540635647,-0.00977038401405811,-1.4194364087233,5.3124894767119,4.19716598407535,-0.0649027482540422,-0.0110764429998193,-0.0261788340688282,2.83611548388546,3.3855413075858,5.41057723089147,-0.334618237229046,0.0854152104811252,-0.0342991092826126
0.985,-0.704528720985479,-4.45102667388579,3.40831045528023,-0.0636599525200543,-0.0698210963992856,0.0211447515260035,4.45030789851648,5.96091423582261,2.49457843625657,-0.06630084760102,0.048582875046848,-0.00824626101092813,-1.41898771135595,5.30698687087298,4.19298259852013,-0.0750174918726656,-0.0106689946314643,-0.022483092330434,2.83231444712976,3.38213174691956,5.40521341654839,-0.331592018494517,0.0785998705121923,-0.0415683079273338
0.99,-0.704267813640683,-4.44633531515535,3.40573059385144,-0.0683866040092237,-0.0724416627311882,0.0163991879211885,4.44490066257686,5.95504016103408,2.49214051115941,-0.0737657399892773,0.0523385042434316,-0.00659953610917025,-1.41853901398883,5.30148426503408,4.1887992129649,-0.0831594362498658,-0.00990234532645362,-0.0188500470448641,2.82851341037417,3.37872218625334,5.39984960220532,-0.326778852483662,0.0710391846665929,-0.0481986359133919
0.995,-0.704006906296001,-4.44164395642491,3.40315073242289,-0.0712074020946009,-0.0729924308666952,0.0118267140139694,4.43949342663734,5.94916608624555,2.48970258606225,-0.0792069063542944,0.0554375712460768,-0.00488043250561048,-1.4180903166216,5.29598165919518,4.18461582740968,-0.0892122571653373,-0.0088155214182069,-0.0153444923073946,2.82471237361847,3.37531262558712,5.39448578786225,-0.320501092291615,0.0629168632485043,-0.0540364971412901
1,-0.703745998951263,-4.43695259769441,3.4005708709941,-0.0721504423737507,-0.07134811559836,0.00734166648872371,4.4340861906976,5.94329201145703,2.48726466096508,-0.0826234818776873,0.0578396972604313,-0.00314334424790394,-1.41764161925437,5.29047905335625,4.18043244185445,-0.0931609059880506,-0.00746513910754837,-0.0120289259561911,2.82091133686299,3.37190306492089,5.38912197351917,-0.313121944615059,0.0544648114615974,-0.0589531274545341
1.005,-0.703485091606524,-4.43226123896397,3.39799100956543,-0.0713224131562467,-0.0674678422999296,0.00285081262141273,4.42867895475797,5.9374179366685,2.48482673586792,-0.0840983273904696,0.0595307718548065,-0.00144518574014532,-1.41719292188725,5.28497644751732,4.17624905629923,-0.0950766901176149,-0.00592088259559292,-0.00896221098387411,2.81711030010729,3.36849350425467,5.3837581591761,-0.305030380781162,0.0459446953123771,-0.0628465080386413
1.01,-0.703224184261785,-4.42756988023359,3.39541114813676,-0.0688940920773379,-0.0614012901639555,-0.00172787629500264,4.42327171881834,5.93154386187999,2.48238881077076,-0.0837807768920332,0.0605235352481422,0.000156547561889629,-1.4167442245199,5.27947384167842,4.17206567074401,-0.095100966031548,-0.00426059197024107,-0.00619744034344742,2.8133092633517,3.36508394358845,5.37839434483303,-0.296624957119964,0.0376305492023498,-0.0656437712045854
1.015,-0.702963276916989,-4.42287852150309,3.39283128670797,-0.0650852034453186,-0.0532925125515621,-0.00645270703385236,4.41786448287871,5.92566978709146,2.47995088567359,-0.0818687847571513,0.0608564851532833,0.00160606997946098,-1.41629552715278,5.2739712358395,4.16788228518878,-0.0934279082804469,-0.00256514951706718,-0.00377980949460824,2.80950822659599,3.36167438292222,5.37303053048995,-0.288296844980239,0.0297935238123836,-0.0673039477358337
1.02,-0.702702369572307,-4.41818716277265,3.3902514252793,-0.0601498290809249,-0.0433794953890622,-0.0113480657299755,4.41245724693908,5.91979571230294,2.47751296057643,-0.0785928856831015,0.0605887551691596,0.00285202482262252,-1.41584682978555,5.26846863000057,4.16369889963356,-0.0902882358705838,-0.000913785915407955,-0.00174676631308757,2.8057071898404,3.358264822256,5.36766671614688,-0.280409930557055,0.0226895736687314,-0.0678190432213072
1.025,-0.702441462227569,-4.41349580404219,3.38767156385052,-0.054363063918286,-0.0319890466949069,-0.0163959428700398,4.40705001099934,5.91392163751442,2.47507503547926,-0.0742028163215711,0.0597896176636232,0.00385051826327717,-1.41539813241832,5.26296602416167,4.15951551407833,-0.0859344239905891,0.000619750170910847,-0.000131367058593672,2.80190615308493,3.35485526158978,5.36230290180381,-0.273276983414691,0.0165524368341926,-0.0672119872969921
1.03,-0.70218055488283,-4.40880444531174,3.38509170242185,-0.0480083391728755,-0.0195225212207181,-0.0215341571276414,4.40164277505971,5.90804756272589,2.4726371103821,-0.0689564430138253,0.0585302911056895,0.00456768890360891,-1.41494943505108,5.25746341832277,4.15533212852311,-0.0806284743677479,0.00197037263217778,0.00103752613960798,2.79810511632922,3.35144570092355,5.35693908746073,-0.267138456708357,0.0115862492886371,-0.0655338398506206
1.035,-0.701919647538091,-4.4041130865813,3.38251184099317,-0.0413631363323727,-0.00642904525903997,-0.0266660388864985,4.39623553912008,5.90217348793737,2.47019918528493,-0.0631083416621819,0.0568851704618025,0.00498145746740916,-1.41450073768385,5.25196081248387,4.15114874296788,-0.0746310709944693,0.00308518141953707,0.00174346770202728,2.79430407957364,3.34803614025732,5.35157527311766,-0.262152019089819,0.00795124761942475,-0.0628631305525592
1.04,-0.701658740193352,-4.39942172785086,3.3799319795645,-0.0346833503077566,0.00682598264096362,-0.0316749175405388,4.39082830318046,5.89629941314885,2.46776126018776,-0.0568968903275469,0.054934435476556,0.00508307301258667,-1.41405204031662,5.24645820664495,4.14696535741266,-0.0681895570450152,0.00392720664935477,0.00199128758297271,2.79050304281793,3.3446265795911,5.34621145877459,-0.258390000110891,0.00574969122810379,-0.0593051559501627
1.045,-0.701397832848613,-4.3947303691204,3.37735211813572,-0.0281906166507551,0.019789225859713,-0.036432717689489,4.38542106724083,5.89042533836032,2.4653233350906,-0.050534089285781,0.0527602976809398,0.00487826659010483,-1.4136033429495,5.24095560080602,4.14278197185744,-0.0615273001511619,0.00447759532357154,0.00180884238115462,2.78670200606234,3.34121701892488,5.34084764443151,-0.255838756095932,0.00502015957968535,-0.0549879371066106
1.05,-0.701136925503874,-4.39003901038996,3.37477225670716,-0.0220651350766031,0.0320420520963771,-0.0408026437853526,4.38001383130108,5.8845512635718,2.46288540999343,-0.0442005697849206,0.0504403177783784,0.00438728268418597,-1.41315464558227,5.23545299496712,4.13859858630221,-0.0548374363720867,0.00473555677959089,0.00124382008340568,2.78290096930675,3.33780745825865,5.33548383008844,-0.254401344968209,0.00573868061146034,-0.0500555991626867
1.055,-0.700876018159136,-4.38534765165952,3.37219239527838,-0.0164430745632959,0.0432147518386321,-0.0446435119302779,4.37460659536146,5.87867718878328,2.46044748489627,-0.0380430886936778,0.0480420323868422,0.00364349035177632,-1.41270594821503,5.22995038912819,4.13441520074699,-0.0482791837726082,0.00471674534601364,0.000359254810535769,2.77909993255116,3.33439789759243,5.33012001574537,-0.253906096596113,0.00782344323551797,-0.0446614676105222
1.06,-0.700615110814397,-4.38065629292907,3.3696125338497,-0.0114189091101939,0.0529922034693578,-0.0478174794985366,4.36919935942183,5.87280311399476,2.4580095597991,-0.032174867498022,0.0456199594379966,0.00269049067941978,-1.4122572508478,5.22444778328926,4.13023181519176,-0.041977294797155,0.00445009963097206,-0.000771825177948464,2.77529889579546,3.3309883369262,5.32475620140229,-0.254119465189494,0.0111424151563834,-0.0389610388271133
1.065,-0.700354203469658,-4.37596493419861,3.36703267242103,-0.00705407674792535,0.0611143057797717,-0.0501953909021558,4.3637921234822,5.86692903920623,2.45557163470193,-0.0266829727173924,0.0432141602123338,0.00157842164514553,-1.41180855348057,5.21894517745039,4.12604842963654,-0.0360286471810228,0.0039730488569509,-0.00207373319460521,2.77149785903987,3.32757877625998,5.31939238705922,-0.254761235731654,0.0155242404959641,-0.0331040006142571
1.07,-0.700093296124919,-4.37127357546817,3.36445281099236,-0.00338729103289638,0.0673809452632621,-0.0516604983126397,4.35838488754257,5.8610549644177,2.45313370960478,-0.0216395736737514,0.0408521221847103,0.000360071306598679,-1.41135985611345,5.21344257161147,4.12186504408131,-0.0305132803118045,0.00332636068822923,-0.0034742734929519,2.76769682228428,3.32416921559376,5.31402857271615,-0.255526689244897,0.0207683202768062,-0.0272279244216155
1.075,-0.699832388780237,-4.36658221673773,3.36187294956358,-0.000435609602060495,0.0716688589668887,-0.052117138221712,4.35297765160294,5.85518088962918,2.45069578450761,-0.0171035339474159,0.0385548474027349,-0.000912826227138489,-1.4109111587461,5.20793996577254,4.11768165852609,-0.0254969168989706,0.00255125446037468,-0.00490621119441,2.76389578552869,3.32075965492753,5.30866475837307,-0.256121364093047,0.0266512287367446,-0.0214584155692239
1.08,-0.699571481435441,-4.36189085800726,3.35929308813479,0.00181516039539845,0.0739452501777298,-0.0514992839124634,4.3475704156632,5.84930681484066,2.44825785941045,-0.0131069262897365,0.0363396333201974,-0.00219230836227244,-1.41046246137898,5.20243735993364,4.11349827297086,-0.0210183402761932,0.00168952429340561,-0.00630966277673825,2.76009474877299,3.31735009426131,5.30330094403,-0.256296860920821,0.0329377775912125,-0.0159126837239624
1.085,-0.699310574090703,-4.35719949927682,3.35671322670623,0.00341736820329633,0.0742625780576819,-0.0497705158543993,4.34216317972368,5.84343274005214,2.44581993431328,-0.00964132886067456,0.0342176078027392,-0.00343629789700515,-1.41001376401175,5.19693475409471,4.10931488741564,-0.0170755864471713,0.00078362862293245,-0.00763839292133884,2.7562937120174,3.31394053359509,5.29793712968693,-0.255867987451941,0.0393989722435867,-0.0106968681174974
1.09,-0.699049666746021,-4.35250814054635,3.35413336527745,0.00445827927835895,0.0727447186082152,-0.0469210487985269,4.33675594378406,5.83755866526361,2.44338200921611,-0.00665683710720449,0.0321933507720499,-0.00461049015397622,-1.40956506664452,5.19143214825579,4.10513150186041,-0.0136248133278692,-0.000124913064542662,-0.0088634875098855,2.75249267526169,3.31053097292886,5.29257331534385,-0.254712743857012,0.0458255472749714,-0.00589751084876905
1.095,-0.698788759401225,-4.34781678181591,3.35155350384878,0.00505304095537584,0.0695767619837139,-0.042968663459304,4.33134870784443,5.83168459047509,2.44094408411895,-0.00406863918019248,0.0302667206647199,-0.00568892629164545,-1.4091163692774,5.18592954241689,4.10094811630519,-0.0105869386946621,-0.000996981113690447,-0.00997181937921119,2.74869163850622,3.30712141226264,5.28720950100078,-0.252769323498894,0.052033317471683,-0.00157647211197126
1.1,-0.698527852056543,-4.34312542308547,3.34897364242011,0.00533885772559698,0.064996941072331,-0.0379602556366652,4.3259414719048,5.82581051568657,2.43850615902178,-0.0017636143330595,0.0284332418680702,-0.00665333484921734,-1.40866767191005,5.18042693657796,4.09676473074997,-0.00785403804021905,-0.00179643331126569,-0.0109623128106322,2.74489060175063,3.30371185159641,5.28184568665771,-0.250032510074396,0.0578657676943166,0.00222864782860416
1.105,-0.698266944711804,-4.33843406435503,3.34639378099143,0.00546939850611794,0.0592871924618733,-0.0319710782379465,4.32053423596506,5.81993644089805,2.43606823392462,0.000393604692659913,0.0266842650058478,-0.00749252064212423,-1.40821897454293,5.17492433073906,4.09258134519474,-0.00529515759314458,-0.00249067440683038,-0.0118420110511048,2.74108956499492,3.30030229093019,5.27648187231463,-0.246545838287838,0.0631964562360331,0.00550230970698657
1.11,-0.698006037367009,-4.33374270562456,3.34381391956265,0.00560838658017697,0.0527616015223623,-0.0251029607848025,4.31512700002543,5.81406236610952,2.43363030882745,0.00255396968680243,0.025008346858887,-0.0082019023811163,-1.40777027717559,5.16942172490016,4.08839795963952,-0.00276298399753194,-0.00305125319311198,-0.0126225474656292,2.73728852823933,3.29689273026396,5.27111805797156,-0.24239016600979,0.067930994885091,0.00824841217285307
1.115,-0.697745130022327,-4.32905134689412,3.34123405813398,0.00592230268991395,0.0457528715575877,-0.0174821553167193,4.3097197640858,5.808188291321,2.43119238373029,0.00487592043920953,0.0233934276224486,-0.0087824337890227,-1.40732157980847,5.16391911906123,4.08421457408429,-0.000102155545958793,-0.00345397416362681,-0.0133164655589929,2.73348749148363,3.29348316959774,5.26575424362849,-0.237670292271479,0.0720077783270147,0.0104870611461959
1.12,-0.697484222677531,-4.32435998816368,3.33865419670531,0.00657204784187105,0.0385968695735572,-0.00925656557215047,4.30431252814617,5.80231421653248,2.42875445863312,0.00751539670249383,0.021828774972457,-0.00923865086009835,-1.40687288244135,5.15841651322233,4.08003118852907,0.00284056161397752,-0.00367852751182678,-0.0139330745605219,2.72968645472815,3.29007360893151,5.26039042928541,-0.232499788650275,0.0753966974290389,0.0122502465415907
1.125,-0.697223315332849,-4.31966862943324,3.33607433527652,0.00770320386984356,0.0316158276534229,-0.000592486526414179,4.29890529220654,5.79644014174395,2.42631653353596,0.0106136686418168,0.0203060298773383,-0.00957616823420052,-1.406424185074,5.15291390738341,4.07584780297385,0.00620411544352163,-0.00370807141773937,-0.0144746397471746,2.72588541797245,3.28666404826529,5.25502661494234,-0.226984527834921,0.0780954191726389,0.0135759936498534
1.13,-0.696962407988053,-4.31497727070277,3.33349447384785,0.00943265273612631,0.0250996767692856,0.00832931459765679,4.29349805626691,5.79056606695543,2.42387860843879,0.0142802463861459,0.0188180993222737,-0.00979882706935903,-1.40597548770688,5.14741130154448,4.07166441741862,0.0100965699724806,-0.00352947633870924,-0.0149361118906347,2.72208438121686,3.28325448759907,5.24966280059927,-0.221204163009319,0.0801229030519157,0.014501714970634
1.135,-0.696701500643371,-4.31028591197233,3.33091461241906,0.011825389381941,0.0192817032988207,0.0173157900343789,4.28809082032717,5.78469199216691,2.42144068334162,0.0185641091207223,0.0173542675015765,-0.0099059920385056,-1.40552679033954,5.14190869570558,4.0674810318634,0.014567729667336,-0.00313581882767352,-0.0153146420712782,2.71828334446116,3.27984492693285,5.24429898625619,-0.215190458121829,0.0815092918262628,0.0150591611136887
1.14,-0.696440593298632,-4.30559455324189,3.32833475099051,0.0148614117060689,0.0143135290484244,0.0261502638764316,4.28268358438754,5.77881791737838,2.41900275824446,0.0234146442406266,0.0158982996548262,-0.00989215265533412,-1.40507809297242,5.13640608986665,4.06329764630818,0.0195712307448999,-0.00253212558414056,-0.0156242285527217,2.71448230770568,3.27643536626662,5.23893517191312,-0.208917799428404,0.0822830091970261,0.015274067332438
1.145,-0.696179685953894,-4.30090319451142,3.32575488956172,0.0184090786795304,0.0102561625461702,0.034560646303587,4.27727634844791,5.77294384258986,2.4165648331473,0.0286523028079585,0.014439422375285,-0.00975036871699149,-1.40462939560518,5.13090348402775,4.05911426075295,0.0249340784147615,-0.00174180174280482,-0.0158969172657286,2.71068127094998,3.2730258056004,5.23357135757005,-0.20232664688251,0.0824640633811288,0.0151691530894843
1.15,-0.695918778609155,-4.29621183578098,3.32317502813305,0.0222141324889752,0.00708522274204615,0.0421898471444383,4.27186911250828,5.76706976780134,2.41412690805014,0.0339578245377335,0.0129854343513968,-0.00947657825766434,-1.40418069823795,5.12540087818883,4.05493087519772,0.0303441409180913,-0.000810924192702944,-0.0161737397001396,2.70688023419439,3.26961624493417,5.22820754322697,-0.195358276461152,0.0820712218439397,0.0147650567055825
1.155,-0.695657871264416,-4.29152047705051,3.32059516670427,0.0258855205142739,0.00468601951246358,0.0485911224963263,4.26646187656866,5.76119569301282,2.41168898295297,0.0388555085250919,0.0115587843201567,-0.00907106552388012,-1.40373200087083,5.11989827234993,4.0507474896425,0.0353347300643318,0.000187358888016901,-0.0165136472466837,2.70307919743868,3.26620668426794,5.2228437288839,-0.187961393354742,0.0811314957831884,0.0140793381419907
1.16,-0.695396963919677,-4.28682911832007,3.31801530527571,0.0288677638753071,0.00283467300053809,0.0532254637788745,4.26105464062891,5.75532161822429,2.4092510578558,0.0426806840824231,0.0101853083284718,-0.00853884055389567,-1.40328330350349,5.114395666511,4.04656410408728,0.039254860023372,0.00114639819863043,-0.017017822713938,2.69927816068309,3.26279712360172,5.21747991454082,-0.180088206346175,0.0796792999759362,0.0131284666452385
1.165,-0.695136056574938,-4.28213775958963,3.31543544384692,0.0304975389682699,0.00122071875346535,0.0554963191255781,4.25564740468928,5.74944754343576,2.40681313275864,0.0446506814971668,0.0088936613225221,-0.00789072901479129,-1.40283460613637,5.1088930606721,4.04238071853205,0.0413384808863062,0.00193621513387903,-0.0178182238889513,2.6954771239275,3.25938756293549,5.21211610019775,-0.171717021497181,0.0777584528312033,0.0119324790705928
1.17,-0.694875149230199,-4.27744640085919,3.31285558241825,0.0303020883038855,-0.000418080497659895,0.0549748667351293,4.25024016874966,5.74357346864725,2.40437520766147,0.0442225254916128,0.00770760690066206,-0.00714001028581308,-1.40238590876913,5.10339045483317,4.03819733297683,0.041054245008982,0.00246149353435636,-0.018999706601582,2.69167608717191,3.25597800226927,5.20675228585468,-0.162875053935868,0.0754404162375374,0.0105187160208207
1.175,-0.694614241885461,-4.27275504212872,3.31027572098958,0.0283621167850466,-0.0021318473478534,0.0517230313595452,4.24483293281014,5.73769939385872,2.4019372825643,0.0415200196465379,0.00661664909233224,-0.00629328941678045,-1.4019372114019,5.09788784899425,4.03401394742161,0.0385263354818819,0.00273337298909559,-0.0205268191447518,2.68787505041632,3.25256844160305,5.2013884715116,-0.153623906030565,0.072836532014832,0.00892353972233876
1.18,-0.694353334540779,-4.26806368339828,3.30769585956079,0.0252836560571301,-0.00375536292997817,0.046313396706313,4.23942569687051,5.7318253190702,2.39949935746714,0.0372896515616517,0.00556284905760175,-0.00534659492826427,-1.40148851403467,5.09238524315535,4.02983056186638,0.0344933849548848,0.00286486599717068,-0.0222703000835864,2.68407401366062,3.24915888093683,5.19602465716853,-0.144029653603573,0.0700739583708418,0.00718966173640674
1.185,-0.694092427195983,-4.26337232466781,3.30511599813212,0.0218095840619223,-0.00504269610003448,0.0395145507425292,4.23401846093077,5.72595124428168,2.39706143236997,0.0324285003220622,0.00447141413075169,-0.00429277159582414,-1.40103981666743,5.08688263731642,4.02564717631115,0.0298432651408907,0.00299381982776315,-0.0240911704542137,2.68027297690503,3.2457493202706,5.19066084282546,-0.134147066875802,0.0672490223644131,0.00535753162431753
1.19,-0.693831519851301,-4.25868096593737,3.30253613670345,0.01853534351356,-0.00576644088258933,0.032024235082823,4.22861122499114,5.72007716949315,2.39462350727281,0.0276445541664422,0.00328959369468486,-0.00313064650284593,-1.4005911193002,5.08138003147752,4.02146379075593,0.0252757504555056,0.00322563647196863,-0.0258812471820516,2.67647194014944,3.24233975960438,5.18529702848238,-0.124020901321552,0.0644027956493586,0.00345702290932643
1.195,-0.693570612506562,-4.25398960720693,3.29995627527478,0.0158641995333287,-0.00575213223645511,0.0243946628587069,4.22320398905151,5.71420309470463,2.39218558217564,0.0234117040064428,0.00199753829628761,-0.00186723408690256,-1.40014242193308,5.07587742563862,4.0172804052007,0.0212569662290494,0.00362534281395935,-0.0275600183046573,2.67267090339385,3.23893019893816,5.17993321413931,-0.113700020258024,0.0615337317624082,0.00150557103372716
1.2,-0.693309705161766,-4.24929824847649,3.297376413846,0.0140394364362197,-0.00490014108054276,0.0170366939147511,4.21779675311188,5.70832901991611,2.38974765707848,0.0200179713234067,0.000597009108556835,-0.000514672413628279,-1.39969372456585,5.0703748197997,4.01309701964548,0.0180682726595713,0.00422673288062465,-0.0290715752240219,2.66886986663815,3.23552063827192,5.17456939979624,-0.103248654416645,0.0586251730675272,-0.000489375029741581
1.205,-0.693048797817085,-4.24460688974602,3.29479655241732,0.0131768881274379,-0.00320486572920862,0.0102371292127217,4.21238951717226,5.70245494512758,2.38730973198131,0.0176114289272857,-0.000906196463293956,0.000914080222282261,-1.39924502719862,5.0648722139608,4.00891363409026,0.0158539412239062,0.00504159989292767,-0.0303884335856521,2.66506882988256,3.2321110776057,5.16920558545316,-0.0927434686085163,0.0556705570544254,-0.00252683350547478
1.21,-0.692787890472289,-4.23991553101558,3.29221669098865,0.0132916114758131,-0.000754878687215336,0.00418677284870819,4.20698228123263,5.69658087033906,2.38487180688415,0.0162334823758147,-0.0025123786794978,0.00240716652334644,-1.39879632983138,5.05936960812187,4.00473024853503,0.0146553663302869,0.00606553041187119,-0.0315118859152215,2.66126779312685,3.22870151693948,5.16384177111009,-0.0822606417979463,0.0526846328302905,-0.00460768160374858
1.215,-0.692526983127607,-4.23522417228514,3.28963682955998,0.0143125134778201,0.00230251252978629,-0.000981036752064208,4.20157504529288,5.69070679555053,2.38243388178699,0.015828033144954,-0.00421890947094017,0.00395070898198674,-1.39834763246415,5.05386700228294,4.00054686297981,0.0144186893000693,0.00727726062940797,-0.0324610178776807,2.65746675637138,3.22529195627325,5.15847795676702,-0.0718642334409676,0.0496916199221625,-0.00672970396404464
1.22,-0.692266075782868,-4.23053281355467,3.2870569681312,0.0160980405063427,0.0058026180394518,-0.00516953015314776,4.19616780935326,5.68483272076202,2.37999595668983,0.016252558873149,-0.00600606778362971,0.00552506925380976,-1.39789893509703,5.04836439644404,3.99636347742459,0.01500333703971,0.0086383527030206,-0.033257599265359,2.65366571961567,3.22188239560703,5.15311414242394,-0.0616133658238678,0.0467118594819493,-0.00888364902522255
1.225,-0.692005168438129,-4.22584145482423,3.28447710670252,0.0184644822660072,0.00956591870791517,-0.00832930231648994,4.19076057341363,5.67895864597349,2.37755803159266,0.0173171306828513,-0.00784161043078781,0.00710629620610307,-1.39745023772969,5.04286179060512,3.99218009186936,0.0162207029709047,0.010100156810125,-0.0339226817123509,2.64986468286008,3.2184728349408,5.14775032808087,-0.0515810028124187,0.0437712347730237,-0.0110497839204377
1.23,-0.69174426109339,-4.22115009609377,3.28189724527385,0.0212116982073974,0.0133788618235377,-0.0104649029634851,4.185353337474,5.67308457118497,2.37512010649549,0.0188243274027609,-0.00969666879589733,0.00866962999888051,-1.39700154036257,5.03735918476619,3.98799670631414,0.017875622213958,0.0116116312346136,-0.034483397494513,2.64606364610438,3.21506327427458,5.1423865137378,-0.0418548380961768,0.0409168901837042,-0.0131944840274823
1.235,-0.691483353748652,-4.21645873736333,3.27931738384518,0.0241321024955343,0.0169967417811741,-0.0116173981064928,4.17994610153437,5.66721049639645,2.37268218139832,0.0205798196107487,-0.0115495884582293,0.010189464658318,-1.39655284299533,5.03185657892732,3.98381332075891,0.0197773886285081,0.0131205484608012,-0.0349753370444946,2.6422626093489,3.21165371360836,5.13702269939472,-0.0325250849740258,0.038216217959261,-0.0152680223902329
1.24,-0.691222446403913,-4.21176737863289,3.2767375224164,0.0270121176558218,0.0201752763697961,-0.0118450958940367,4.17453886559463,5.66133642160792,2.37024425630116,0.0223858510357642,-0.0133746259441398,0.0116365346298289,-1.3961041456281,5.02635397308839,3.97962993520369,0.0217315106211488,0.0145711099824369,-0.0354355161523566,2.6384615725932,3.20824415294214,5.13165888505165,-0.0236850857731813,0.0357436505001978,-0.0172053440346087
1.245,-0.690961539059174,-4.20707601990244,3.27415766098773,0.0296442683943568,0.0227099871249874,-0.0112215642504133,4.169131629655,5.65546234681941,2.36780633120399,0.0240469782264303,-0.0151331268985027,0.012977399991928,-1.39565544826098,5.02085136724946,3.97544654964846,0.0235436159271684,0.0159054112949843,-0.0358942421387834,2.63466053583761,3.20483459227591,5.12629507070858,-0.0154408787824475,0.0335692044828819,-0.0189321598597603
1.25,-0.690700631714435,-4.202384661172,3.27157779955905,0.0318525622050447,0.0244592690218499,-0.00984623656744153,4.16372439371537,5.64958827203088,2.36536840610683,0.0253967430156031,-0.0167801906925444,0.0141784608244313,-1.39520675089364,5.01534876141056,3.97126316409324,0.0250462480326548,0.0170707294820953,-0.0363741609802068,2.63085949908202,3.20142503160968,5.1209312563655,-0.00791206686839994,0.0317556809104654,-0.0203744051838848
1.255,-0.690439724369696,-4.19769330244154,3.26899793813027,0.033511520363455,0.0253455118035079,-0.00784577037781411,4.15831715777574,5.64371419724235,2.36293048100966,0.0263208418422065,-0.0182761283310577,0.0152101046247694,-1.39475805352652,5.00984615557164,3.96707977853801,0.0261231957289598,0.0180258208195852,-0.0368934243680668,2.62705846232632,3.19801547094346,5.11556744202243,-0.00122296289034165,0.030359835933148,-0.0214647215631081
1.26,-0.690178817024957,-4.1930019437111,3.26641807670171,0.0345504510670314,0.0253526437125613,-0.00535821448572666,4.15290992183611,5.63784012245383,2.3604925559125,0.0267611393083295,-0.0195892429465505,0.0160479699784633,-1.39430935615917,5.00434354973271,3.96289639298279,0.0267138214166659,0.0187424538233179,-0.0374659485745703,2.62325742557084,3.19460591027724,5.11020362767936,0.00450844784520074,0.029429187360428,-0.022145418112413
1.265,-0.689917909680219,-4.18831058498066,3.26383821527293,0.034955612682929,0.0245273573613392,-0.00251602715564493,4.1475026858966,5.63196604766531,2.35805463081534,0.0267153249637065,-0.0206945582670416,0.0166741008945941,-1.39386065879205,4.99884094389381,3.95871300742757,0.0268123788523261,0.0192066191165469,-0.0380987277839555,2.61945638881514,3.19119634961101,5.10483981333628,0.00918103305997856,0.0289956932495067,-0.0223711579763187
1.27,-0.68965700233548,-4.18361922625022,3.26125835384414,0.0347702582340863,0.0229704977126845,0.000563241750818181,4.14209544995686,5.62609197287679,2.35561670571818,0.0262371005668513,-0.0215739943198084,0.0170781933758017,-1.39341196142482,4.99333833805491,3.95452962187234,0.0264681488565412,0.0194197118562173,-0.0387894584341715,2.61565535205955,3.18778678894479,5.09947599899321,0.0127182255066403,0.0290728130382989,-0.0221097225774355
1.275,-0.689396094990741,-4.17892786751975,3.25867849241547,0.0340825940097729,0.0208115685172104,0.0037819942142173,4.13668821401723,5.62021789808826,2.35317878062101,0.0254269278538953,-0.0222162556210394,0.0172565414213331,-1.39296326405758,4.98783573221601,3.95034623631712,0.025776607315746,0.0193960310258253,-0.0395265313176532,2.61185431530384,3.18437722827856,5.09411218465014,0.0150696485025822,0.0296595958370344,-0.0213395234288934
1.28,-0.689135187646002,-4.17423650878931,3.2560986309868,0.0330117641038444,0.0181903957305105,0.00706835899087392,4.1312809780776,5.61434382329974,2.35074085552384,0.0244176930959429,-0.0226164295652607,0.0172112059983886,-1.39251456669047,4.98233312637709,3.94616285076189,0.0248655532338803,0.0191597157453866,-0.0402900503930713,2.60805327854825,3.18096766761234,5.08874837030706,0.0162136502049961,0.0307454817139564,-0.0200524286725705
1.285,-0.68887428030132,-4.16954515005887,3.25351876955813,0.0317083070910793,0.0152724416719568,0.0103856682341539,4.12587374213797,5.60846974851122,2.34830293042668,0.0233676715940428,-0.02277524668237,0.0169522637725291,-1.39206586932312,4.97683052053816,3.94197946520667,0.0238879222525134,0.0187458145920086,-0.0410496566879935,2.60425224179266,3.17755810694612,5.08338455596399,0.0161676213687899,0.0323045466905524,-0.0182668343896539
1.29,-0.688613372956524,-4.16485379132843,3.25093890812934,0.0303581737438602,0.0122649141190922,0.0137376053174883,4.12046650619834,5.60259567372269,2.34586500532951,0.0224591486979351,-0.0226971662285379,0.0164995675402666,-1.391617171956,4.97132791469926,3.93779607965145,0.0230199174813299,0.0182019371118327,-0.0417605827955941,2.60045120503707,3.17414854627989,5.07802074162092,0.0149948421573604,0.0342852977139809,-0.0160348778812785
1.295,-0.688352465611786,-4.16016243259796,3.24835904670067,0.0291705644445618,0.00938980312804459,0.0171616310936137,4.1150592702586,5.59672159893417,2.34342708023235,0.0218914876688834,-0.0223896264692409,0.0158808941680438,-1.39116847458877,4.96582530886033,3.93361269409622,0.0224543342475019,0.0175854698525151,-0.0423646271125891,2.59665016828137,3.17073898561367,5.07265692727784,0.0127971185446965,0.0366126453899152,-0.0134327201076165
1.3,-0.688091558267047,-4.15547107386752,3.245779185272,0.0283559886398726,0.00684245838544912,0.0207192679614362,4.10965203431897,5.59084752414564,2.34098915513518,0.0218659203625334,-0.0218642812953808,0.0151292410335308,-1.39071977722153,4.9603227030214,3.929429308541,0.0223862755745282,0.016958445202482,-0.0427962117299917,2.59284913152578,3.16732942494744,5.06729311293477,0.00970259570037217,0.0391994404476575,-0.0105492157314238
1.305,-0.687830650922308,-4.15077971513708,3.24319932384333,0.0281106012789065,0.00477984214741062,0.0244904498404359,4.10424479837934,5.58497344935712,2.33855123003801,0.0225688263734585,-0.0211369888247787,0.0142815362016074,-1.3902710798543,4.95482009718251,3.92524592298577,0.0229969640293759,0.0163836641461318,-0.0429878966614527,2.58904809477019,3.16391986428122,5.0619292985917,0.00585954119870692,0.0419530504739731,-0.00748463294226481
1.31,-0.687569743577626,-4.14608835640661,3.24061946241454,0.0286076920987063,0.00332632225533185,0.0285634053523624,4.09883756243971,5.5790993745686,2.33611330494085,0.0241603206691073,-0.0202256954770803,0.0133773840834399,-1.38982238248707,4.94931749134358,3.92106253743055,0.0244422811130733,0.0159219533390263,-0.042873660250861,2.5852470580146,3.16051030361499,5.05656548424862,0.00143449896085408,0.0447748241360667,-0.00435081401772725
1.315,-0.68730883623283,-4.14139699767617,3.23803960098587,0.0299901181883174,0.00256887558183357,0.0330123070141785,4.09343032650008,5.57322529978008,2.33367537984369,0.0267690913534591,-0.019148172434195,0.0124570539312344,-1.38937368511995,4.94381488550468,3.91687915187532,0.026847434207392,0.0156297237852808,-0.042391599294689,2.5814460212589,3.15710074294877,5.05120166990555,-0.00338810637296888,0.0475582224422147,-0.00126511158690236
1.32,-0.687047928888148,-4.1367056389457,3.2354597395572,0.0323582670972806,0.00254376367825059,0.0378723739546331,4.08802309056034,5.56735122499155,2.33123745474652,0.030483684231692,-0.0179205188954073,0.0115594341914588,-1.38892498775272,4.93831227966578,3.9126957663201,0.0302983310946813,0.0155558079471266,-0.0414880646068114,2.57764498450331,3.15369118228255,5.04583785556247,-0.00840814293265276,0.0501889723117788,0.00165809937930391
1.325,-0.68678702154341,-4.13201428021526,3.23287987812853,0.0357506974000876,0.00323043289683395,0.0431267540047971,4.08261585462071,5.56147715020303,2.32879952964936,0.0353300074539278,-0.0165571247823354,0.0107203610810137,-1.38847629038548,4.93280967382685,3.90851238076488,0.034819812166029,0.0157362052287491,-0.0401255941258105,2.57384394774772,3.15028162161632,5.0404740412194,-0.0134175164844123,0.0525486567141194,0.00431256249862622
1.33,-0.686526114198614,-4.12732292148482,3.23030001669974,0.0401218073208718,0.00455825668667817,0.0487037907465423,4.07720861868108,5.55560307541451,2.32636160455219,0.0412397628703953,-0.0150719299529722,0.00997125126625639,-1.38802759301825,4.92730706798793,3.90432899520965,0.0403452903841364,0.0161874529405244,-0.0382936593671368,2.57004291099213,3.14687206095009,5.03511022687633,-0.0182133092679663,0.0545210639117775,0.00660279066511976
1.335,-0.686265206853932,-4.12263156275438,3.22772015527107,0.0453225249872032,0.00642234287855637,0.054473750811874,4.07180138274146,5.54972900062599,2.32392367945502,0.0480206238010703,-0.0134785931611384,0.00933758502874773,-1.38757889565102,4.92180446214903,3.90014560965443,0.0466879243148501,0.0169002285159348,-0.0360175455694959,2.56624187423654,3.14346250028387,5.02974641253325,-0.0226166799671063,0.0559992492034115,0.00844821396559168
