Header,foot_Accel_X,foot_Accel_Y,foot_Accel_Z,foot_Gyro_X,foot_Gyro_Y,foot_Gyro_Z,shank_Accel_X,shank_Accel_Y,shank_Accel_Z,shank_Gyro_X,shank_Gyro_Y,shank_Gyro_Z,thigh_Accel_X,thigh_Accel_Y,thigh_Accel_Z,thigh_Gyro_X,thigh_Gyro_Y,thigh_Gyro_Z,trunk_Accel_X,trunk_Accel_Y,trunk_Accel_Z,trunk_Gyro_X,trunk_Gyro_Y,trunk_Gyro_Z
54.7,-0.497099577399709,0.177600772700141,0.911018374247601,-0.0559316165745258,1.00339678564241,-0.269226579898649,-1.11154976460058,-0.00336303638871842,-0.438693224085036,0.407470192267604,1.06762827845088,-0.562822847364643,-1.12374921204937,0.117263621939059,-0.0140022553522889,0.101475648735773,0.266594656069666,-0.174453864552957,-1.15377755624942,-0.0638956995748166,0.255912112646714,0.577736130806485,-0.370339237648812,-0.248465225900184
54.705,-0.507965223173849,0.186475909128048,0.899096651548969,-0.0627098050547577,1.07342019960108,-0.279235891085182,-1.09892351041293,0.00334523860703017,-0.453850357836512,0.447668440312689,1.05644198520163,-0.582140499303348,-1.10969895232491,0.106280377249027,-0.0190911029372126,-0.254800290840372,0.292746259356135,-0.122790821735226,-1.17405544907478,-0.0155884171676477,0.267657419380784,0.60637760994827,-0.341338227098107,-0.224420393232465
54.71,-0.533841527618755,0.167333232125231,0.886700509524659,-0.0816703293783684,1.15121581955474,-0.278656694612028,-1.0804428340181,-0.00081159974234115,-0.490072450009973,0.441678270712194,1.04731777313291,-0.609883570155435,-1.10839109433823,0.0978518708018773,-0.0276811439571748,-0.535883539738686,0.305571728526514,-0.0933580771693468,-1.18573536031731,0.0146747888695678,0.293367790776958,0.63653543356802,-0.295046167895521,-0.211756586376571
54.715,-0.555775296450392,0.147465537478823,0.879693887537585,-0.0910039434063598,1.21745792375059,-0.28358696045758,-1.05778132117714,0.000311542279822178,-0.500993202726991,0.446029114719192,1.04147000532276,-0.646994019494034,-1.09939871657522,0.0899007698823377,-0.0469674034893427,-0.846437121370375,0.298363139657404,-0.0937561248135846,-1.18946145177306,0.0597533897312286,0.301887053375591,0.626397970095207,-0.217892041486429,-0.224709414097755
54.72,-0.547629285460289,0.162756011153943,0.877874832119236,-0.120477401747167,1.30485139958469,-0.291858978643662,-1.0472207002358,-0.00595251239802021,-0.488486090269477,0.433100640001919,1.04503383156518,-0.679898741607024,-1.07976105460935,0.0889607247700309,-0.0638750194246148,-1.0373346643999,0.281667504378683,-0.119931126054841,-1.17995030194363,0.0930488081135684,0.305471041733548,0.653437254568304,-0.141154704997237,-0.218607891496588
54.725,-0.544851151055684,0.166597975796086,0.876150450571621,-0.144890713232812,1.36615644697209,-0.309577454433311,-1.04482821665267,0.000834756635250527,-0.472692572332924,0.406191518123824,1.05877297437894,-0.701763096383373,-1.06074775919685,0.0911516180653711,-0.0790002226003014,-1.13055733546686,0.275008753345587,-0.164372582911224,-1.17086469085802,0.117615501334036,0.301607409668708,0.665383914877181,-0.116372186459697,-0.190796867012978
54.73,-0.538998322986542,0.167200992247691,0.879192876576271,-0.174971799991457,1.42855277165118,-0.326786949988875,-1.05335939631483,0.00729874097752394,-0.456628603354769,0.370161885542484,1.05626795236712,-0.7090029675827,-1.03628360557608,0.0882777656783404,-0.09177300432357,-1.17412652651946,0.273566384133444,-0.215965957188425,-1.15462948616518,0.133968615372723,0.289150109476208,0.678194734241893,-0.102792888954553,-0.181574963257531
54.735,-0.545359464194731,0.164359712752418,0.88376429198129,-0.209138055753057,1.51329413378927,-0.352074490232244,-1.04777567032481,0.00695689125076436,-0.449548982899172,0.347678174718953,1.04563711934023,-0.71502217242889,-1.0175978080769,0.0751003161846101,-0.0964901718434735,-1.1823022195805,0.278392499883392,-0.276153731891994,-1.12663112280703,0.136848004145851,0.276048218103906,0.669783289350374,-0.0814379994018888,-0.152251775341808
54.74,-0.564573750997675,0.17314125779948,0.87682490057381,-0.239156764040236,1.57998765132088,-0.368755977387658,-1.04240926182179,-0.00208896920090256,-0.456695119763382,0.327628810269714,1.04116249084473,-0.729783725605647,-1.00674263543409,0.0413264415118573,-0.0869868335044728,-1.19786530201004,0.308814391837214,-0.37235333065724,-1.11298999320293,0.140204357654168,0.267976070832003,0.641181837914861,-0.0665048733831249,-0.144951952331246
54.745,-0.552909412117392,0.189072770893795,0.890749650757107,-0.283983962708731,1.66160550237329,-0.389838795547068,-1.05217890582768,-0.00713715886628618,-0.443764745342437,0.323552320467604,1.04472102947356,-0.754712701318702,-1.00749373428043,0.0110121084155445,-0.0657612976797613,-1.22919693341452,0.338620088758858,-0.428329195111404,-1.09369685651247,0.142526336884249,0.245007770835935,0.584734016407485,-0.0501358833472759,-0.134778152739026
54.75,-0.546391609290842,0.192466365751028,0.901551459760945,-0.330997778703009,1.75481252165684,-0.41389993128606,-1.07636556330232,-0.00859153097890517,-0.447754825072724,0.326836964081914,1.05294373175677,-0.778142045628133,-1.02147487079029,0.0104395544113289,-0.0263051087213052,-1.27975166861501,0.386868632619322,-0.47137725611862,-1.0919295509692,0.142733681387026,0.235513112976356,0.529890082999179,-0.0693141038395571,-0.138577604839585
54.755,-0.554551218227749,0.179258115125404,0.916601430310043,-0.373583196919389,1.85316156318556,-0.439740624610141,-1.10964111482881,-0.0110525067654964,-0.471832426496721,0.332301277060565,1.04230422756651,-0.800711541447797,-1.05350280482815,0.0258427492907395,0.0284196789005841,-1.35303145601846,0.433030705011003,-0.482759810747251,-1.12335296218717,0.137406016740707,0.242869794053553,0.435229165443062,-0.107307409125947,-0.138401850181094
54.76,-0.568380747395516,0.20064847165482,0.922885997235893,-0.470729382890265,2.01351295269258,-0.443107065313007,-1.16815604151292,0.00180444923114183,-0.489808932183174,0.377909643033008,1.01837568699556,-0.846059516602972,-1.11381619116357,0.0297033254219213,0.0955675908052574,-1.43883956991608,0.472590581093672,-0.470453795184854,-1.18186036016461,0.118080467179475,0.275058423160444,0.377791113860046,-0.155308205857517,-0.138828195527775
54.765,-0.592563264767664,0.210804617305906,0.928078516086949,-0.570158849645098,2.14394162123939,-0.452043989123543,-1.22440400615095,0.0294322656632533,-0.489786638095773,0.435567879493918,1.01680680191885,-0.910189997103324,-1.19015292280951,0.0181168381302225,0.177967279680348,-1.5475209029446,0.492905982002164,-0.473140896987805,-1.27594913580318,0.0928296364433922,0.306692126848842,0.368461827483044,-0.164612980022356,-0.111233402628633
54.77,-0.603212522069967,0.227773427334617,0.9131566234414,-0.670320341856179,2.29946033865969,-0.462816220141955,-1.27102506158289,0.0582564687085718,-0.494644098770379,0.418740288603964,1.02281232039153,-0.982242136942047,-1.2635531959651,-0.00175883818223751,0.242486459558076,-1.60845369463113,0.480256568222165,-0.504849258247354,-1.36860889707589,0.0624668205540976,0.29916886400071,0.406844931636721,-0.136107623222526,-0.0914399395350414
54.775,-0.608796771684736,0.240164580713038,0.897427916715916,-0.754694643805402,2.43567806511967,-0.491209219212909,-1.29573090943579,0.0544014110451135,-0.50431411745528,0.351285055324709,1.02070792380187,-1.02953819832382,-1.3416971410815,-0.0405319520315544,0.304684981633394,-1.64982604156715,0.448965284948688,-0.559988738779017,-1.40656587424345,0.037300502257699,0.240352716496762,0.457660094246912,-0.0751723737695927,-0.0707052147334842
54.78,-0.610152192532563,0.205503087611678,0.869371895968226,-0.824138767421545,2.55868005628017,-0.567354967666324,-1.30191007184786,0.0279627730059172,-0.491560264071797,0.277126509048611,1.01978390089597,-1.04823585936908,-1.36946966612046,-0.07128008238548,0.328224019414889,-1.65354970167881,0.415408754508477,-0.580932939657487,-1.3967418793278,0.0167132681309039,0.147036086430023,0.511050723301738,-0.0273148190291713,-0.0583593368407111
54.785,-0.618469102143661,0.193692485349558,0.8550511967029,-0.884026097267479,2.70285105409819,-0.630336316027299,-1.2873081042701,-0.00481246152754687,-0.475812353530018,0.206894911213762,1.03454051816251,-1.03297408608998,-1.3509232481445,-0.106726182250531,0.324977042580878,-1.54476409529821,0.383296036262588,-0.563054092826175,-1.37142060205941,0.000481690173999131,0.0443637266641031,0.534363167315031,-0.0587440000981994,-0.0464306691692263
54.79,-0.625737332016429,0.193047052240226,0.858435179352177,-0.945234397754668,2.80961135506896,-0.683670390886725,-1.26479971219879,-0.0106427527324458,-0.457506302038177,0.184755407289379,1.04641677016229,-1.00276949685087,-1.31295861551416,-0.119078040173593,0.304909479410457,-1.36864802007831,0.367738908704781,-0.511676609566974,-1.35592584006384,-0.00214960293390477,0.00107282438448473,0.479171720156942,-0.13990398047961,-0.0387893050236759
54.795,-0.635996627818177,0.191057470708202,0.872771623833402,-1.0471242886786,2.94801022406269,-0.748801524096054,-1.2281973181282,-0.0153830744755807,-0.443550871632084,0.195913656438851,1.0484926700592,-0.975247352621821,-1.26004136737732,-0.110869447497149,0.258376480037824,-1.06264824553168,0.364678525768967,-0.381225021308823,-1.32244471369014,0.00426193408344813,-0.0322628655700533,0.341212384448852,-0.23349181080582,-0.0442823093792184
54.8,-0.64208861806137,0.194819641612414,0.8583684683618,-1.14166991843712,3.05183400818934,-0.797722720284377,-1.18599990461965,-0.0101622361740049,-0.433464809298467,0.242448372324406,1.04728854321633,-0.985670600031546,-1.22534246369704,-0.0865886465496932,0.231261748739963,-0.684076311285612,0.372276865200462,-0.228602792708953,-1.29545884157294,0.0199734300342472,-0.0622939984393983,0.136770649660048,-0.26031469594373,-0.064156136702424
54.805,-0.658215332257773,0.19007749394653,0.85499471516059,-1.25841602280076,3.17765304043229,-0.841872017314105,-1.14793109683562,-0.0080911052587191,-0.430158073424515,0.274920836451665,1.03817437526999,-1.02349642917848,-1.19771442715829,-0.0646827290294995,0.22144756632025,-0.421084764327541,0.380141595535379,-0.154362331224709,-1.27259396055449,0.0506165982981795,-0.07282010475493,0.0397152996832766,-0.217155419716359,-0.0941236761093967
54.81,-0.679436495415537,0.160357817499735,0.845826814685577,-1.39630082531328,3.30404018070129,-0.88065346741066,-1.13627557557538,0.000202621110143047,-0.414639991595219,0.283268249351199,1.04352653114237,-1.08904926397305,-1.17885603793716,-0.0310016913797647,0.227233358612434,-0.134072487816716,0.395459025107175,-0.0907245417867454,-1.23969822568181,0.0881869295489038,-0.0671410298179731,0.0199922599574269,-0.157028960147999,-0.126045759530025
54.815,-0.693990131736847,0.184101618016323,0.833987551198352,-1.5208868806018,3.42867935579172,-0.933867257683287,-1.14367122354822,0.0268452805417652,-0.403019168312059,0.270423372557364,1.05520639220802,-1.1380065024476,-1.16922919252869,0.00487993064590986,0.246150352412336,0.0550272130114947,0.414083034020823,-0.0613624704828604,-1.21791203569005,0.129468883531555,-0.0550367924384004,-0.00414680693490713,-0.0973845031378313,-0.153973600319839
54.82,-0.693660103255835,0.232430294901664,0.836497220421269,-1.69665807749324,3.57265924117372,-0.968352299951664,-1.16751783809426,0.0542163133616633,-0.390509680599145,0.253500033145411,1.05216242415828,-1.16491658976353,-1.18179869774421,0.0448656654480503,0.280373617580536,0.236532653289881,0.437448785650979,-0.0697209120632985,-1.20336024886242,0.144282073208952,-0.0122362377700474,-0.0683110567590978,-0.0371974346705835,-0.163682042016625
54.825,-0.696481806976307,0.202733088272312,0.825996696772712,-1.8510999854179,3.70239694487866,-1.0243767330344,-1.1864385734707,0.0914674303204955,-0.37464858194435,0.221983388207711,0.93180209409421,-1.17610692977905,-1.19598982052489,0.0702107971683754,0.302073906366695,0.358713173273278,0.450416120085857,-0.0671570100781944,-1.1620609475518,0.154227832463363,0.0122604824995058,-0.157832983449035,0.0179671711492375,-0.177591865899348
54.83,-0.720836898494727,0.17183171108115,0.809586041457601,-1.95182540212385,3.84557251078329,-1.08353017950735,-1.21592929318182,0.123282530524669,-0.379200769879551,0.159944972156171,0.965825371176203,-1.17530177948007,-1.21766198871724,0.0884772562907516,0.314560753515111,0.479701780140338,0.446477448216121,-0.0399147789020182,-1.09648025192803,0.167707467121534,0.0493466261467676,-0.297023674051239,0.0946228034383957,-0.150211098159191
54.835,-0.753059244453877,0.173167934383877,0.77622667554475,-2.05614641341462,3.97671648445045,-1.1564032611373,-1.24109065861917,0.144251442444005,-0.392376190904671,0.11962473605094,1.07871274476152,-1.17822806363206,-1.24477619066277,0.098704537353842,0.319000362409682,0.589894929125582,0.435130578271549,0.0392361220381935,-1.06254214449402,0.178653512583036,0.0762143872238685,-0.434649900681026,0.129384519628593,-0.142831257977475
54.84,-0.817713028061557,0.177721320217221,0.79486074793467,-2.19824181176827,4.15876743612878,-1.23411156407647,-1.26479037523186,0.145561777674841,-0.393909290429013,0.138480908672199,1.08128064994715,-1.19321477735934,-1.26114760865459,0.105501028468601,0.309527864860982,0.714284163423052,0.415281186626734,0.140424519043269,-1.03836344272688,0.192116095507574,0.0893392908172956,-0.602834950141335,0.167581049864924,-0.159624478157205
54.845,-0.854361863002196,0.179602021163597,0.813326850430631,-2.2557754843901,4.28243608007182,-1.30973907726665,-1.28340191904881,0.151668238431358,-0.371608406798408,0.194914758945553,1.1016296408623,-1.21101473239288,-1.27878532336736,0.120299631647776,0.296451234426582,0.87746289278208,0.382131817517211,0.272943170999745,-0.998900330193233,0.179808545301287,0.0873284924637625,-0.717704714056982,0.155063024600938,-0.146153736413059
54.85,-0.843008361096266,0.192831825589165,0.807334301481004,-2.23221641196611,4.39411333418829,-1.41170018822454,-1.30554640891001,0.155405502100947,-0.337915353682414,0.292417142539544,1.12284623705262,-1.22612369299837,-1.28296162867368,0.13465328311435,0.277757290360072,1.0267329789177,0.347751569630723,0.376760639309781,-0.973936292844871,0.18472948667,0.0838434170412458,-0.82585576622251,0.0942085842814685,-0.147774498833065
54.855,-0.83205945275805,0.229667866503945,0.803339039804091,-2.15753797991209,4.47645708946723,-1.49235754690652,-1.31919806193513,0.165236541347958,-0.292743352388604,0.449512295471659,1.14722334354206,-1.24551700561329,-1.27532872166131,0.155232422716271,0.251558269869422,1.19706239829152,0.303585553224752,0.508538337549529,-0.938299855936307,0.189446820889335,0.115461107170599,-0.855792981415033,0.0156130024005919,-0.155887429910517
54.86,-0.826259407764637,0.216499050519798,0.754183796333055,-2.30977205655673,4.59576045993285,-1.5846475419553,-1.3401343225758,0.177806675878329,-0.2148439503164,0.591407997497649,1.17263759822306,-1.24550962288057,-1.25513321589335,0.176019204032635,0.205382265282691,1.30940329397807,0.265260527072482,0.614364313474433,-0.87581459343913,0.152310509236646,0.134878705383662,-0.975458062456676,-0.0452487065338518,-0.151304613807751
54.865,-0.844431279931086,0.204361495272104,0.790320815162914,-2.41868106228707,4.75448141276721,-1.68042849717229,-1.34327826804276,0.203113401750459,-0.141375541992717,0.74798332259549,1.20638264317058,-1.25968312779753,-1.24078220004732,0.184354886003677,0.165700886668163,1.38830252680684,0.243528498694326,0.722318755169846,-0.856656641203905,0.140398661811352,0.134416929635535,-1.05667803402082,-0.00247308363982342,-0.146102778732211
54.87,-0.83851141051917,0.237803594651363,0.801233089738542,-2.58041613073183,4.88465506548349,-1.78459197275471,-1.33719318375671,0.208657492581738,-0.0866865651097669,0.859357676884559,1.2382661145486,-1.27834692452474,-1.21542089823483,0.176420136426895,0.117545169824143,1.41433333345917,0.216597820057467,0.813171482956438,-0.847387399732922,0.0997080880157685,0.146533870608163,-1.07273605612263,0.0986666662165272,-0.114690441503067
54.875,-0.830388892431232,0.252384748684531,0.825941969286489,-2.78485622644066,5.06782659060256,-1.87091316381612,-1.32627167396967,0.198258463893012,-0.0575207159825382,0.918771462010257,1.26205814250663,-1.29835660493273,-1.19124180980986,0.158191360079171,0.0671404162530039,1.43958860615615,0.193696388703677,0.896606320240632,-0.851097351419775,0.0472530172642206,0.127870693349355,-1.03968620838457,0.203474064508904,-0.0739888196905334
54.88,-0.824049113683939,0.211509988405974,0.844990615835145,-2.96399687998536,5.18018069203202,-1.88552888590723,-1.31177932855203,0.179481540977119,-0.0554090964684608,0.932996944937175,1.28325820250429,-1.31513854873682,-1.16456332645448,0.132056802218496,0.0120984408599416,1.44684533563055,0.170308696513636,0.962675506116071,-0.871180666698146,-0.00488570240933753,0.0909068530732641,-0.970087628075726,0.317743637613683,0.00555267815625176
54.885,-0.900861463254619,0.105375700089669,0.895344429367038,-3.11003009862257,5.1995283420821,-1.86605547615172,-1.29471443424415,0.139465968022776,-0.0944639319004226,0.9183479457402,1.2847818645006,-1.3313971653272,-1.13584480588178,0.100277986665709,-0.0551372489482484,1.46142418890456,0.138402484118985,1.03512201142979,-0.869237590268432,-0.079951004398022,0.0353372257557446,-0.888288702080672,0.441409709654319,0.0458648441806184
54.89,-1.06322500306377,0.019013909113134,0.955517758174626,-3.213257033717,5.45401695894133,-1.80500891629023,-1.27483724437123,0.101987867344287,-0.158481360898653,0.879660134269433,1.29276435654066,-1.35553932118708,-1.11817522185217,0.075963067405246,-0.109273759166365,1.4789124176708,0.106439131253296,1.1031884752709,-0.870326704751403,-0.162322488094213,-0.0215289556056229,-0.811030191544329,0.552528931629538,0.0952849666165547
54.895,-1.19734612907014,-0.0473712349838972,0.995487846702536,-3.24993213852259,5.45008978904696,-1.76609880941205,-1.26213059602231,0.0775488420043171,-0.240339420532776,0.802033744371878,1.31213103112497,-1.38323254062911,-1.09318413908682,0.0499323542523177,-0.168422250425216,1.49968667467604,0.0620549040440728,1.19024261943596,-0.888327989749565,-0.250042977683178,-0.0626473124344299,-0.798978589343776,0.603273007412556,0.122281192109231
54.9,-1.46307724497731,-0.191670515686164,0.972599031832396,-3.06883326413378,5.34643744576957,-1.70162675197232,-1.2443777104335,0.0458125978959064,-0.34172142476726,0.690201644487276,1.34287019417572,-1.40554591655702,-1.07862725375115,0.0325858983707594,-0.215982326403682,1.52996058154835,0.0298084778747034,1.26616062761872,-0.899730457747375,-0.305706654546318,-0.0588506364385457,-0.849606373298397,0.582607086968148,0.117101522872084
54.905,-1.60915893555685,-0.204219768006502,0.833311899450886,-2.98822854515198,5.26193295116744,-1.6869222349239,-1.2242828562998,0.0072661154902674,-0.436334313281575,0.594421527612336,1.38259865248307,-1.43610052745108,-1.0686807911126,0.0175258551245476,-0.254602648980384,1.57814418160144,-0.00703516687256269,1.33880826124081,-0.932432287051652,-0.374386285463237,-0.125788882459151,-0.897259326197669,0.590105065174626,0.126877243739605
54.91,-1.7616101865901,-0.21861201685579,1.04594801616882,-2.82422364889933,5.08899075079619,-1.68433365372173,-1.19983660091065,-0.054975472426556,-0.535256605852624,0.49530199009222,1.45709369757919,-1.49084967437193,-1.06403242494907,0.0084677201699969,-0.282934149298893,1.63510084759262,-0.0485643050576927,1.44472252609092,-0.963230973515293,-0.421155427961088,-0.146514449125472,-0.889568820522126,0.602252937887626,0.120122212936275
54.915,-1.76126323313082,-0.205578305129265,1.06240807583248,-2.26268041672775,4.71253741786688,-1.51143221265613,-1.17563099157279,-0.0971573345434273,-0.588098944724104,0.422488387333624,1.57742810880316,-1.56217365025725,-1.06157391403999,-0.00208394228853235,-0.294082854598284,1.68908478188479,-0.0900056441064799,1.53730921292315,-0.985080003750087,-0.462866081122082,-0.172541134602662,-0.863347455654928,0.648647435746781,0.111119405460072
54.92,-1.57542623688074,-0.025254076638554,0.918160317974482,-1.87730785517319,4.56470611696541,-1.40089610372942,-1.16847442246165,-0.0785876618475022,-0.508388033103969,0.413513348986836,1.67618565490652,-1.66692762471468,-1.05507106506664,-0.0210225953131482,-0.287905021467848,1.73536488629392,-0.155241249899691,1.64125460297988,-0.998656886138085,-0.48294746336067,-0.195498087122885,-0.877389981489757,0.721790101143062,0.0911849741321706
54.925,-1.36085005944153,0.139993989967048,0.900787841351013,-1.61360512360081,4.52195328501311,-1.33629237526119,-1.17580135026788,-0.00666838022306289,-0.413422257909419,0.460778076746127,1.69306535521337,-1.7229606566462,-1.07135561201437,-0.0337996431334735,-0.277442007296057,1.73143203019815,-0.215510777249573,1.72050649088287,-0.988993809808215,-0.490326429955761,-0.208188268903924,-0.955332077305873,0.755710334913731,0.101279708459969
54.93,-1.21799908597337,0.106327444671421,0.882954953315823,-1.29035593164441,4.51085195296894,-1.31712583278412,-1.1726792936269,0.0979546167468415,-0.299982671939551,0.540905483848036,1.65644364940108,-1.74297320842743,-1.01838330108707,-0.0402593422932457,-0.324837497085054,1.80176710415596,-0.186759408702874,1.85225157036002,-0.988489100881742,-0.49638167700387,-0.234747646575002,-1.04680521276023,0.743531078842439,0.111109117311258
54.935,-1.10889245662182,-0.00416069050853053,0.929741993069736,-1.07368594884548,4.40728151397194,-1.45790939153276,-1.13139748238797,0.178450528944002,-0.242563647363364,0.456509457480892,1.61880746263789,-1.69500015761765,-0.992055728639088,-0.147308061461862,-0.275026710624058,1.45544149441052,-0.22205818224417,1.84853074328879,-0.97463448886089,-0.483697322808827,-0.25185471329006,-1.11798571300827,0.724204430306169,0.115554734117827
54.94,-1.03964866845997,0.157449261559081,1.08699222576682,-1.17401169040664,4.02271883584007,-1.68808862938154,-1.0715684354329,0.170376178895987,-0.201906299924152,0.408680687311521,1.60212614854933,-1.55316217973773,-1.04626542421426,-0.160987098480393,-0.241078530022576,1.68250165029461,-0.394147460488151,1.70017178953444,-0.936065530666953,-0.449538602693387,-0.244678240891128,-1.19576749442292,0.70808302435297,0.127726961592039
54.945,-0.980327795471639,0.194711688900624,1.12498554694712,-1.3023015337956,3.66512920388627,-1.68031509669141,-0.993878225464464,0.117535830170175,-0.187261701105766,0.388401892629195,1.61331602488353,-1.38223349466604,-1.10939445494324,-0.104465375360096,-0.294691081309647,1.46756981135722,-0.43088037344759,1.88653076087146,-0.901653719629781,-0.41456924450377,-0.233264951573958,-1.23001762706922,0.725478325794436,0.125622019171715
54.95,-0.897052139195613,0.131700344986406,1.11041597815977,-1.35342543091835,3.32729032576516,-1.72123564486589,-0.904255030526766,0.0799193744663502,-0.219361847816299,0.052659039844668,1.61419702814078,-1.35009323485691,-1.08369305022622,-0.158008888839716,-0.246496503944715,1.35885193636707,-0.549095204932521,2.05988127077003,-0.895363446692015,-0.363390906115317,-0.227515513978763,-1.23984987200477,0.772408822288162,0.129409217548581
54.955,-0.882676090439602,0.233149300987427,1.10524536047128,-1.38769895937931,3.02820180541654,-1.65161258372908,-0.774948199609733,0.0410273358114251,-0.271748859711441,-0.618590882852917,1.62065150853802,-1.53210301436328,-1.06115493998429,-0.186679049379114,-0.311694989088963,1.40863179987904,-0.595712513194042,2.06202345994004,-0.863416872346349,-0.290689688227744,-0.209138193310122,-1.18147062462097,0.813895146635609,0.119807179575621
54.96,-0.984843700340703,0.292817413762551,1.40811753311057,-1.43321155420314,2.61078692470503,-1.46203049450913,-0.721214335423485,-0.0023800555186552,-0.357367162973624,-0.959967233619387,1.65251799781611,-1.5662903865938,-1.02920660518734,-0.243885264214472,-0.358952052438687,1.19812978282965,-0.555460194964448,2.04284509284394,-0.831417046188452,-0.250681358886756,-0.200980667089093,-1.08069176606426,0.810737127027392,0.0688152426017203
54.965,-1.06069196862911,0.233780314444614,1.56961665098193,-1.45032944534715,2.09833464322665,-1.37861042038037,-0.666197865182278,-0.0579573046035853,-0.495579113547299,-1.26646568637865,1.58430323063136,-1.51086684294989,-1.01442885942624,-0.278557886735643,-0.382348261120338,1.04298870113958,-0.502967931516199,1.96977891711724,-0.811004471437385,-0.206282160142238,-0.176823776236017,-0.954678090818385,0.817963023186723,0.0265540744372251
54.97,-1.13095316613713,0.181946436758827,2.00102141310954,-1.06771411281039,1.20462505853717,-0.893213065191702,-0.631269394883973,-0.0996293416292346,-0.606161341013517,-1.31712002883293,1.46187847505745,-1.40315634895604,-1.0198431121193,-0.300389913962642,-0.408574018834359,0.868530670842809,-0.442652569170357,1.85100123739889,-0.82225405706322,-0.174508209141828,-0.177934801904767,-0.872387705635523,0.843869385726718,-0.00466449803180729
54.975,-1.25836121388928,0.230227901369514,2.27821811969618,-0.472390567430092,0.333451936405734,-0.33141582296437,-0.591076518135799,-0.167563586925795,-0.5354332674453,-1.41625911888236,1.28774775417841,-1.33689030258806,-1.04858818252667,-0.295935311076138,-0.432343795631893,0.708896903128281,-0.381917539373995,1.77911519968967,-0.837989546674673,-0.152958514317758,-0.172360433860104,-0.722195099628073,0.872772874247834,-0.0366456643078076
54.98,-0.953799823362149,0.612373467760325,1.74732373580026,-0.427801992461542,-0.212630447583405,0.080034714366613,-0.587278498545414,-0.22209999412122,-0.266638082607593,-1.46366990213521,1.00444003789366,-1.32454583613604,-1.08472211200406,-0.298142968028144,-0.435858397738755,0.551353592792506,-0.337082635878402,1.7778609458331,-0.857631916092815,-0.130483246488433,-0.18884623264909,-0.631365343127532,0.875060651751046,-0.0561654333837386
54.985,-0.603640796771539,0.687011166940006,1.57750740998299,-0.734354106253992,-0.770532825771482,0.281197109902884,-0.640143536782357,-0.141629957840383,-0.347253150417889,-1.27277693934762,0.776306901014827,-1.29028753892029,-1.13927492976525,-0.288941134237708,-0.424723413974838,0.436279207865408,-0.304227292935056,1.80892604086133,-0.872782603474353,-0.117718426869673,-0.195225007091613,-0.541111964149063,0.847138343392368,-0.0703157790990571
54.99,-0.510012655569398,0.462016939941442,1.45774758103553,-0.739524697753273,-1.19792518034446,0.425827074098168,-0.648027172682418,-0.101605645508209,-0.175946982424864,-0.860989407714579,0.557407555908175,-1.21363089412079,-1.17778752338168,-0.292867748762795,-0.422377079456679,0.339918046901994,-0.285864683812621,1.85436543055374,-0.892184551374116,-0.112283459816403,-0.199875825246319,-0.472807937067968,0.808483070356127,-0.0665048656002604
54.995,-0.38484317046367,0.415146605864627,1.26387073204969,-0.648473469910887,-1.60069136337364,0.571052078486518,-0.640982232299475,-0.0945436646904325,0.0420422324408477,-0.366576653983722,0.393625487880724,-1.15885245875282,-1.20964893328479,-0.3022620528361,-0.429311292816706,0.211183023062411,-0.247820096189014,1.88123531421077,-0.921507777506315,-0.10921140694051,-0.204636977829974,-0.38051112688765,0.769211386135322,-0.0552009384476126
55,-0.292460890216526,0.378515799026806,1.16379691518755,-0.423028654043393,-1.82500164352801,0.630978701346125,-0.649177652652834,-0.0608344916300898,0.104420379583361,-0.0585011369321762,0.209126156761562,-1.01789197700766,-1.23112461466341,-0.304420596573552,-0.434248390983461,0.102628648290421,-0.200279400541094,1.8769104525921,-0.945828221315781,-0.10751451545127,-0.20753408027,-0.306083003635537,0.733467463357084,-0.0400327638105176
55.005,-0.211857820353382,0.269914044393672,1.0853392266357,-0.191254977172482,-2.04258470066983,0.697311628913715,-0.624555967588303,-0.0446279614242862,0.0582589613597527,-0.0283342247719003,0.0726575596820771,-0.782762104091341,-1.25605124466159,-0.306040105484239,-0.435963362744604,-0.00230402154674037,-0.143157844318935,1.85007649255453,-0.975302480495216,-0.110423502971223,-0.215365806705692,-0.243636419917384,0.699145957798292,-0.0414796673717504
55.01,-0.173954552814014,0.14737711366391,1.02070814204049,0.0720707724279317,-2.26386388550708,0.775514414794986,-0.595754631945654,-0.0764242504079818,-0.00401729884770735,-0.101493936443904,-0.0204322491238811,-0.555758215924339,-1.28073499799369,-0.297987239201041,-0.426488001044646,-0.0811262967372111,-0.100134960115876,1.83603749953904,-1.00698399236563,-0.121048856184006,-0.225871957670832,-0.206764435553944,0.653504780384226,-0.0475992351527056
55.015,-0.150439683548365,0.0713375954838628,0.979561516659618,0.340885445815289,-2.4610734260594,0.841382403147572,-0.586138759054852,-0.136147727088049,-0.0299473678412332,-0.115174396610216,-0.15187881124856,-0.392546263946812,-1.2481813484588,-0.285434041395275,-0.468121514473337,-0.2679874158458,0.00868162313044947,1.87297736160336,-1.0208868363513,-0.130824995464369,-0.231477662749168,-0.168459268285088,0.611939224960683,-0.0455567928933707
55.02,-0.0933443060006193,0.0746210948402852,0.932109901942114,0.489724623291601,-2.59661480674385,0.849788725376129,-0.574148446515552,-0.161740083477873,-0.0580178667960198,0.140036550406586,-0.269401269580311,-0.330758451090944,-1.27286094901052,-0.284523556085671,-0.406179169880563,-0.382261520174477,0.0449441277951525,1.86497199731985,-1.04173849132191,-0.152748275795193,-0.247968712737495,-0.145120534734697,0.576844517646779,-0.0586526855853271
55.025,-0.050583146764896,0.119472407095485,0.884137485291704,0.568592824870805,-2.73660727089714,0.845636911413914,-0.577815317704837,-0.156549871176218,-0.0555745728933071,0.428830505921389,-0.397984487988086,-0.247457769559581,-1.30922490118934,-0.277724390594151,-0.311947902922727,-0.126346146668119,-0.0597857037078142,1.89442797932908,-1.05002407666854,-0.16489870952587,-0.253136740345712,-0.134456471094729,0.537275180681432,-0.0663778224868494
55.03,-0.00934854532745936,0.139200650421229,0.828504372695205,0.609175787838266,-2.86378341246196,0.833472344658078,-0.568969865774667,-0.135067246795565,-0.0171518625664228,0.641553406293935,-0.571970793008992,-0.136890609058014,-1.29837521508233,-0.270136802082178,-0.310239441266433,0.0709437022534157,-0.140482208446289,1.96792277481048,-1.05583075770273,-0.170859622165375,-0.252628485825597,-0.118434429817975,0.511446022022605,-0.0693969118994543
55.035,0.0256440655053736,0.107273633065859,0.789356442069838,0.625411547346525,-2.97680362601729,0.800833242706564,-0.560675100824919,-0.106751415538073,0.0150071797571482,0.708659764481241,-0.768710626212209,-0.0655613231311998,-1.26074912761634,-0.26953610229704,-0.290609878859646,0.0312087633031496,-0.17089386053023,2.03407703173713,-1.04578482134881,-0.177037374366106,-0.246751333194055,-0.131608956529355,0.494006087341302,-0.0644309741155199
55.04,0.061692467345624,0.0792279939628888,0.727373450728435,0.636428668543637,-3.08894010438086,0.734779732116847,-0.53148521870421,-0.0850150517282187,0.0544705094684863,0.686184394234645,-0.95975051893643,-0.0131317133643205,-1.21177628536397,-0.286842735367286,-0.247536814723962,0.0538374678459031,-0.190914430074942,2.0645325079851,-1.03572192240989,-0.182401151837418,-0.227748841648626,-0.139353683539629,0.476980778056447,-0.0587171654896084
55.045,0.0659530327706243,0.0288895363779911,0.709984305422325,0.687833920276246,-3.15293939430951,0.695181876382111,-0.501226082938522,-0.0739826536525919,0.0863601087855651,0.67470105015398,-1.15864735114327,0.0850707989811529,-1.14996617644277,-0.309232024528861,-0.216688932864314,0.119842812377417,-0.210527383712804,2.0039272062474,-1.02854204742015,-0.187050164618524,-0.224091377190292,-0.129860913820907,0.449716910446292,-0.0423057744352929
55.05,0.0419418692500529,-0.0184820065684938,0.736004280045004,0.798912931658639,-3.22017515649077,0.670535357013099,-0.469455358324519,-0.0789040099278551,0.0800113255608507,0.618294033917883,-1.34522966162144,0.252767424804058,-1.10040786361984,-0.308760050399671,-0.202879409735116,0.175313516073867,-0.19072428364708,1.90965048574411,-1.02242331260493,-0.187853659130332,-0.218645936551174,-0.127732694931673,0.42677877869611,-0.0357115092878166
55.055,0.00821871359966233,-0.0290426416877477,0.7713686379832,0.935214938802445,-3.32852246958158,0.668704596779732,-0.434438521985372,-0.0890002819710014,0.0619434181444135,0.520221141923508,-1.50581638943881,0.456050392595031,-1.07655963324376,-0.289544264641873,-0.162481994260608,0.198986282565748,-0.188498712453099,1.84257759036599,-1.00704680049635,-0.174820745621205,-0.200782237162947,-0.155350652038134,0.408488205056651,-0.0371396519418921
55.06,-0.0416490354859301,-0.0162966893075039,0.8226878175153,1.06424418251568,-3.44915383388006,0.685270012901529,-0.404320749044418,-0.0961824383711234,0.0223800879996978,0.390141423344206,-1.65142041856774,0.55454937704916,-1.05628835603514,-0.26321336742861,-0.128538068459964,0.237044243331354,-0.187449586289075,1.82633812394822,-0.994115834261641,-0.18184680429446,-0.206797134884967,-0.151755018859651,0.40607917634443,-0.0400288565032238
55.065,-0.0997271364861781,0.0312442683997829,0.859396559425153,1.15106224362681,-3.62497685722461,0.729321262179869,-0.402176978631836,-0.101921233373037,-0.0101701669282708,0.254293996404125,-1.78177404594005,0.59022776741861,-1.03123530375768,-0.238361473108785,-0.0812722937823235,0.28117052450814,-0.1931599555551,1.82602202397411,-0.968060943319344,-0.188626393748082,-0.202804457971289,-0.116777770259544,0.393978689527527,-0.0326204801993642
55.07,-0.131912048876421,0.0722308653852908,0.862116550958179,1.13873573253579,-3.776733849237,0.763616616279893,-0.404100596945091,-0.120689575269036,-0.0216402435027797,0.0732990375106081,-1.91177101289347,0.604266992618357,-1.00399510894681,-0.223525765906298,-0.0566610137521842,0.335289357158882,-0.195462936030104,1.80903729162813,-0.943665684228457,-0.183692817518864,-0.187432596899632,-0.117897140262665,0.38030022848402,0.00423899082001716
55.075,-0.174012639485056,0.0917493483963293,0.873928648265288,1.11658714230306,-3.96730925477639,0.799002090971283,-0.415939288633397,-0.156091318877321,-0.0340454136148971,-0.0889779371513448,-2.1045940350584,0.638737262530101,-0.986096560884089,-0.21297340694762,-0.0283173339599343,0.397839743697386,-0.202889141386465,1.75900573312054,-0.929223805157773,-0.190903706264986,-0.197180657645199,-0.127675678637457,0.390569164798772,0.0292446629187051
55.08,-0.186375839034824,0.0735687744673241,0.892967759473597,1.11575138929693,-4.12793134043823,0.849486330407447,-0.428175759394218,-0.182597224180299,-0.0647577099683556,-0.17846222791253,-2.24952869859326,0.706222487891772,-0.969810120452991,-0.196853919809146,0.000644117488233446,0.509120905412786,-0.20664192770432,1.71584688933738,-0.908491191643586,-0.195152311596683,-0.18145201376536,-0.130031929930529,0.394630716761431,0.0248809712950425
55.085,-0.172531559572827,0.0209937587287474,0.85057159642507,1.08759951966684,-4.28863071748874,0.897884922564548,-0.442789968589289,-0.217068308880696,-0.0581257117990711,-0.27536692188182,-2.40773688813589,0.805153834376401,-0.955760394562491,-0.185404569617486,0.00854519185877453,0.605889717219258,-0.207868668266622,1.67066191855782,-0.896824041237694,-0.212937102593053,-0.186161515298086,-0.135784417753836,0.396166523383704,0.0305137112413917
55.09,-0.13436029918938,-0.0438218357834952,0.769833933458567,1.07010380265194,-4.42526773813713,0.9505418024685,-0.470170582178176,-0.244028727174722,-0.0330024394258666,-0.346983194383552,-2.59174044719309,0.88950130946757,-0.934250957494882,-0.176410774103256,0.00343818247315285,0.679809668908979,-0.198630476617877,1.61316197026281,-0.886050555594629,-0.219434133033364,-0.191883973363941,-0.138855371493471,0.397094463647448,0.0389539819641658
55.095,-0.0741558852552399,-0.0939522549923176,0.697616598883256,1.08422535129787,-4.46234680578172,0.965577987348623,-0.505632608291936,-0.240330935916484,-0.00851441942013583,-0.349407733946013,-2.75792593327559,0.935723806025092,-0.914205784470235,-0.169165912925565,-0.00990790581918999,0.699294073144707,-0.179836537943157,1.55455936346434,-0.884476038744036,-0.226454769634394,-0.186603953671735,-0.1585976918886,0.389233714336247,0.0555314998412542
55.1,-0.0226758978948836,-0.106500106249588,0.607205367546608,1.12265651534922,-4.4318757247709,0.964758960227677,-0.543970276293264,-0.241366908812243,0.0313747452246211,-0.323135841244713,-2.9325505896122,0.97182178147513,-0.904881375235949,-0.167855008406371,-0.0221261502776485,0.71208990231446,-0.152435752333017,1.49579297286518,-0.87901809953481,-0.242688914298036,-0.178434661134823,-0.193200862774908,0.361198650010618,0.0404408042867303
55.105,-0.0184731629195208,-0.0898796128891752,0.564931362741727,1.17503017917546,-4.37353067000567,0.937948841076528,-0.582340295692009,-0.243726451604625,0.0387675112172021,-0.291097986816901,-3.07651429761707,1.01911002485729,-0.893966316042713,-0.16968263833379,-0.0409276055183032,0.726465914075659,-0.113658434127822,1.42923384304982,-0.879740773373289,-0.241150461457734,-0.175048536291123,-0.217873594592379,0.359233655079143,0.0401896558164786
55.11,-0.0591825700222151,-0.054364529215696,0.568190529571765,1.2589300662079,-4.30971190681301,0.90702110349442,-0.612548503838834,-0.255377168007276,0.0176229939022107,-0.238700529215544,-3.21301425114961,1.08939597237637,-0.88565344423385,-0.17631787594985,-0.0583923062793408,0.732686505019931,-0.0848539707906769,1.36070282795359,-0.879324504845789,-0.242611472575357,-0.169659269919736,-0.242697303250629,0.36525743625706,0.0387539887287964
55.115,-0.13811964755798,-0.0228399663188034,0.607277232764481,1.34468178597971,-4.25355709959941,0.893865493814174,-0.632576024191687,-0.272600215121145,-0.00181826047355025,-0.161620770083378,-3.35060720048596,1.17201402246952,-0.876832315233288,-0.191815933688463,-0.0780862811187886,0.747904398804261,-0.0549699291476897,1.27236598143567,-0.895663627029704,-0.243225771870807,-0.166598432955053,-0.236491838465399,0.367865770381009,0.0260729172850385
55.12,-0.25318474705975,-0.00631294003293372,0.705321448371062,1.52497179630093,-4.24188544325786,0.914349330946967,-0.647186836224543,-0.283164419534058,-0.0683806382959995,-0.100065961176382,-3.52711887646944,1.27895253797859,-0.860443565282851,-0.213894284103568,-0.0969780868531015,0.77819032605906,-0.0303778538303873,1.199301222208,-0.92094325799963,-0.239427692147449,-0.156031854445063,-0.244625484886501,0.379221822756163,0.0151784742437561
55.125,-0.339735314520471,-0.00122265696820662,0.762227396766238,1.68300996627503,-4.25992488100596,0.989000516969571,-0.661767233514344,-0.287722345917705,-0.142355502857357,-0.038540866824511,-3.65282157409463,1.34767288687056,-0.840890485857391,-0.242063061967183,-0.119250881487297,0.84893925246856,-0.00713293317365325,1.1045351465708,-0.924380580339299,-0.235731082757467,-0.152213925515834,-0.259093635656216,0.375589026459941,0.00823111097349061
55.13,-0.424193480369946,0.0172032079732646,0.781382704559774,1.82053589598339,-4.280718936983,1.07250912784951,-0.688374418386474,-0.275687277343735,-0.183779526716336,0.0353160789339694,-3.766347277627,1.41277469016347,-0.81699067219975,-0.274373408364186,-0.144702582150792,0.933881425692133,0.0200302195024812,1.00730483864458,-0.932309406360912,-0.232115000139054,-0.152688233163776,-0.255211244618607,0.380065168708512,-0.00462760004263154
55.135,-0.50099289235485,0.0757656597703885,0.796624257523323,1.93451867566056,-4.26766983378997,1.14579943461889,-0.73648388626975,-0.259889036625005,-0.227511040723244,0.107892453205069,-3.86454249466025,1.46332095854028,-0.795051573706712,-0.301332460302936,-0.16881146478913,1.02818361435062,0.0403085254293652,0.927418882253059,-0.937643177443325,-0.225314456486602,-0.143099324243084,-0.230708415368431,0.382386998262133,-0.0228092680883615
55.14,-0.612051133952142,0.121116744420804,0.818694480243072,2.03791190605205,-4.24841459466549,1.26960555088986,-0.781452242991167,-0.244191094692681,-0.28571713338494,0.15699690966215,-3.94702330487932,1.51529331268253,-0.766732189831297,-0.324991884985794,-0.184108008473945,1.16161281150181,0.0737686077845144,0.825465072231288,-0.937585562306973,-0.20825124228933,-0.142416249368927,-0.242283348776925,0.397439626589629,-0.0185379348695278
55.145,-0.697144611781407,0.249634992658158,0.791368954626881,2.01687660359774,-4.20354342532047,1.40373777846924,-0.820556176086243,-0.240133000361063,-0.3202511378195,0.0772301623502029,-4.01516546151932,1.59511517925592,-0.731519941183014,-0.344514322367685,-0.194552918616849,1.29277749911664,0.105313596776672,0.742138614704609,-0.948967168475879,-0.207175575609744,-0.138588617326449,-0.237495235026413,0.402434390461957,-0.0289530481570314
55.15,-0.789039544580367,0.339165449632874,0.737878333396111,1.89240411480026,-4.11900074258992,1.57924764528243,-0.860280617079076,-0.247241924013178,-0.359381546845409,-0.10924811228982,-4.08153502687553,1.68032589664386,-0.70802595076295,-0.354973442118248,-0.193988059244904,1.42821992447705,0.134938082369659,0.654653004710115,-0.95693000493518,-0.19313267154263,-0.138753817789639,-0.224050354135265,0.404872573727743,-0.0392356330510213
55.155,-0.844254895537125,0.415309640453123,0.683942565122944,1.76161461466176,-3.98867752016521,1.77809815890309,-0.897519818700199,-0.253173292245179,-0.410998837403018,-0.310333047058197,-4.15537432982646,1.73976866281343,-0.681915338539205,-0.365748779829003,-0.18682215232366,1.6140210385066,0.170613132738611,0.550028044376013,-0.961822070206482,-0.177859049351971,-0.141241629334327,-0.2060803653559,0.414967437870504,-0.0280572717998141
55.16,-0.894864669549178,0.488620163517953,0.651199946453271,1.63808819553822,-3.82994875075922,2.01122746994324,-0.935172304737744,-0.266310764787429,-0.434469653744898,-0.47198773986948,-4.19815798338843,1.77331455270233,-0.652477552148943,-0.371075188651147,-0.175115817861867,1.77765867052309,0.20075019849239,0.463078563726385,-0.967986023107255,-0.172397160182327,-0.129483797569633,-0.185948502945515,0.409688234329224,-0.022629661731224
55.165,-0.954566530017197,0.570073231189144,0.626331059252954,1.46841441855763,-3.60915043207835,2.3278975189303,-0.986584261745535,-0.295711410853249,-0.45993561498169,-0.67158720251719,-4.23605360019333,1.79627468102496,-0.625308381900458,-0.386852892989525,-0.171785742091097,1.98542701898981,0.237804020477131,0.3716409734619,-0.971571340445655,-0.168504320542862,-0.134392499291056,-0.1356343818186,0.410156808241994,-0.013099048454735
55.17,-1.02491087923292,0.618915445579327,0.602690627593191,1.31406823436987,-3.37289622782149,2.67985316496465,-1.04635943690646,-0.31735541423956,-0.504595748792137,-0.911835653514105,-4.26198882904732,1.81410667619239,-0.594187063454374,-0.405874023039742,-0.174167411026644,2.18540751562708,0.280303568416554,0.283159656449366,-0.970381366231026,-0.167416517573404,-0.135226400214207,-0.10076016650582,0.407080224980766,-0.00172534754099699
55.175,-1.08083121363754,0.646447620305375,0.588554182866242,1.13490165105882,-3.13282730088696,3.00917703947903,-1.12845920127841,-0.308238628728932,-0.574954359380553,-1.1014274060991,-4.28964516574789,1.81592777999194,-0.559814431592762,-0.422674485509377,-0.184718248778696,2.35395483978408,0.321822247180899,0.207609951109915,-0.974102992222892,-0.168346098950221,-0.138666992611473,-0.0773920107277019,0.385304138227777,0.0172569395897929
55.18,-1.18106869006426,0.686183810490136,0.624938589963807,0.989010061613174,-2.94631952113881,3.26926116490298,-1.17869549670728,-0.275334012653077,-0.615600794883253,-1.25730073732399,-4.31070211415403,1.814624858514,-0.532827524543434,-0.438648405184011,-0.19960767600671,2.51988399400976,0.381468107004655,0.121589468796567,-0.967287969993735,-0.165241635162069,-0.149477772981712,-0.0789351770825402,0.364238652500873,0.0413892063412626
55.185,-1.35162062814645,0.678682722799337,0.705234140800328,0.743015886765726,-2.71182857191585,3.6600113110569,-1.24038574485439,-0.195034423519632,-0.707913801599971,-1.49842692289368,-4.32286576830939,1.82717537505514,-0.515397656556918,-0.448187431946649,-0.215044488138288,2.66237088266849,0.452834072462505,0.0429656266216764,-0.968293788503249,-0.174442287105663,-0.152587256548242,-0.0940275494512705,0.360174507784376,0.0519236534305644
55.19,-1.51634601155101,0.594075806756414,0.826276302572724,0.611122827582288,-2.60710268839131,3.91775932141551,-1.25969334232552,-0.15736353688569,-0.781940723796594,-1.76330853468606,-4.30964626170444,1.84419324574436,-0.514859117052336,-0.455272606969436,-0.222840765812857,2.80535661049951,0.526756432683082,-0.0165048162148561,-0.963576477545403,-0.164367276731723,-0.157633621935517,-0.126927412636006,0.354849385285419,0.0695057593408269
55.195,-1.74094093018186,0.38184556469406,0.96558068398107,0.543827046998604,-2.57129898702363,4.23580719055929,-1.26724748912132,-0.152455483945215,-0.884756912617682,-2.10655737472468,-4.26554507261878,1.86455876610956,-0.535423537217134,-0.448727452049285,-0.21755729420147,2.95886946932241,0.587105292713071,-0.0586754136687033,-0.970485242250204,-0.155849575330835,-0.152159534589821,-0.174949121432756,0.359978963414166,0.086487227978322
55.2,-1.85575973109259,0.148640418644095,1.00791427040833,0.601153007002429,-2.58786058425903,4.45362232496807,-1.26235798893993,-0.182573345596446,-1.0244424945319,-2.56211802903853,-4.22904254355808,1.87509573918049,-0.575017883463041,-0.429846441497502,-0.200649761203576,3.08033629444209,0.637633221856444,-0.0807609176306758,-0.973243244487145,-0.164075377391782,-0.160268004220415,-0.228090989811073,0.370308211044822,0.0976290924669596
55.205,-1.92150182107395,-0.0135547774878419,1.00113622390653,0.710200371447382,-2.5889022295065,4.62072977806367,-1.2499908539916,-0.203233838316072,-1.10321891983168,-2.79618041645194,-4.1985329778462,1.82988021271527,-0.645387503126199,-0.391770451386948,-0.163230223679109,3.21069999784023,0.673464631679317,-0.0957008416935388,-0.984398978705707,-0.157285758294095,-0.167717080385434,-0.269059638138454,0.395796965961151,0.110780626033779
55.21,-1.98337721426225,-0.0896238167054361,0.938822255955396,0.7539609670639,-2.5894833990585,4.6867297700394,-1.22704838257026,-0.222404202248653,-1.15189046173953,-2.94469035599267,-4.15293510226676,1.73896144627253,-0.704676687540287,-0.356848581945419,-0.125649857903841,3.26054382553357,0.674820989320548,-0.109574958090573,-0.992123802976847,-0.15264206971594,-0.160734894166586,-0.271694630957979,0.415346655287085,0.0982289596180948
55.215,-2.0365086868177,-0.165657668040914,0.800858051123541,0.663087487918918,-2.61284183278341,4.60001220424797,-1.20217272227479,-0.214979153777179,-1.18377534295373,-3.00816976692641,-4.09062508958931,1.63571686632799,-0.782198766609729,-0.28840029082867,-0.0848815315353244,3.21812460621064,0.658183474142185,-0.137171311347637,-0.999461481095859,-0.14358012767194,-0.148543222322516,-0.340552763040304,0.409293140732052,0.116877799420021
55.22,-2.08140094013024,-0.226529914014717,0.744324769137607,0.542209055623103,-2.63245775201099,4.43533841090277,-1.18173840291993,-0.203714690072098,-1.21184418420326,-3.0354954388068,-4.01315980186374,1.53845530150455,-0.833244943582605,-0.231130920433113,-0.0666435706731659,3.08164053917955,0.609586034133759,-0.155238134200543,-1.01149969771394,-0.137489577866543,-0.17707218010574,-0.353890473556314,0.39194337492433,0.129831397873744
55.225,-2.14863018530968,-0.264941177565666,0.7193523368805,0.370918349004179,-2.69617250285776,4.17817628992605,-1.16265370719348,-0.190127846159283,-1.25318517710227,-3.03999597833169,-3.92602354165274,1.4193148105374,-0.909292216705634,-0.131325061528888,-0.043013368617001,2.72746822983169,0.530995898142293,-0.213190466179193,-1.00918917370912,-0.135648139729776,-0.187426466370079,-0.392734307880915,0.381962300665861,0.131203551736375
55.23,-2.18725281027773,-0.303022019204612,0.688005126709132,0.187585897357055,-2.77280427848802,3.90515239897759,-1.14734558155082,-0.192557471254007,-1.28091990577478,-3.02574619965925,-3.81958576548397,1.26831107546476,-0.955756476587479,-0.0187321434112623,-0.0352355795479417,2.3310323847305,0.405386560233934,-0.288216178341069,-1.02040838419536,-0.14467197237964,-0.199373311844292,-0.43595498973807,0.384842255237112,0.143549937024677
55.235,-2.1707330478792,-0.396784601414544,0.569019077697845,-0.00087560331316704,-2.83004151533182,3.59425231976614,-1.13990713775278,-0.21099981689533,-1.28699029694533,-2.97973859537944,-3.70431507281255,1.09265569409547,-0.996050388939808,0.141380811236623,-0.0434927802611962,1.77452247129343,0.277308662311266,-0.347590917999409,-1.02561828411168,-0.163018488324609,-0.201447173912466,-0.470204858019578,0.373355073698715,0.150097246928721
55.24,-2.09306049627422,-0.439358790570398,0.418140181130422,-0.119410084887137,-2.80050630706943,3.18651704737342,-1.14970427233281,-0.239868491459715,-1.29304306904552,-2.85738421733883,-3.60294915454724,0.925606163537868,-1.02536522273974,0.300365567546026,-0.0596513788857027,1.16577065568439,0.119294085447157,-0.420656448545476,-1.04092358233443,-0.169329440333959,-0.206741172550962,-0.518747067657533,0.327995823777881,0.146688193549302
55.245,-2.07337827390944,-0.36271310244862,0.353418695602547,-0.178363038563404,-2.70966644112388,2.88374004593807,-1.18809896560562,-0.249724230864275,-1.31159849023165,-2.66534869760609,-3.49486899710887,0.783926372378303,-1.05580518402056,0.471276539672693,-0.0973054379859722,0.64878608014026,0.00506295626019608,-0.48978653206435,-1.04870411414257,-0.189427299403296,-0.219891505123273,-0.540872820910411,0.265746353056718,0.14459125192092
55.25,-2.07760892170644,-0.269503709334744,0.256317516160641,-0.234445165208096,-2.59609915979891,2.54420951071847,-1.23121727658923,-0.241077607422287,-1.33912909971431,-2.36952373835024,-3.37443820314706,0.670107546410832,-1.07937123106301,0.629525141647599,-0.14287812418233,0.196380845826099,-0.124326094736641,-0.533426928817367,-1.04680618364862,-0.19445966856668,-0.212653261603843,-0.568775590164059,0.187762804325451,0.132419910788725
55.255,-2.05484549655288,-0.18689322232517,0.125930448172942,-0.268283832337116,-2.47310527027727,2.25596455406481,-1.23645715954312,-0.231481842623476,-1.3410846242149,-2.05133405706321,-3.26425716934386,0.600661817652654,-1.09464253654862,0.741766810970242,-0.203789944009377,-0.0614624043484614,-0.209871785054607,-0.524159792203541,-1.03759851636599,-0.20128011201951,-0.199902313912828,-0.614487639532579,0.100225090476881,0.132514106235282
55.26,-2.01088864758744,-0.144083389076488,-0.0611276374571462,-0.269708275104226,-2.30673425996223,1.99068619471505,-1.21626192248958,-0.225515214587041,-1.33853267333642,-1.70064646321093,-3.1467499707022,0.560279064208084,-1.10716096282467,0.852042508456318,-0.278659473877593,-0.217728633918257,-0.285253527443644,-0.397914239342698,-1.04743469441886,-0.198679938039407,-0.190908272717968,-0.629680086643622,0.0483734730634879,0.113769540032571
55.265,-1.94896898769517,-0.12004017473485,-0.273386841486198,-0.186774933915356,-2.00334033267376,1.71444270471344,-1.18336965095633,-0.214458646577978,-1.34874294520122,-1.33127023194097,-3.00221143568929,0.537793510318541,-1.10083930324021,0.901312250175218,-0.32626596428696,-0.218457662914951,-0.315351151263471,-0.272362042596645,-1.04023078831707,-0.200795425711967,-0.181547906796111,-0.639179914274942,0.0158316248219076,0.0990351161464401
55.27,-1.92669697321596,-0.0711126027327834,-0.411821768825164,-0.0645798041640508,-1.67731278822678,1.53070096786498,-1.15254562086461,-0.15396880903665,-1.35901933545901,-0.916709868601626,-2.81181435042581,0.541801807415414,-1.06575885816355,0.899170616167587,-0.362384530936587,-0.080718829453708,-0.352001457158904,-0.194852852156844,-1.02818805032439,-0.200472031364183,-0.164387769576326,-0.641391426339261,-0.00309752672189879,0.0891029164769546
55.275,-1.95092820453873,0.0573107048936936,-0.512840355236341,0.107927621617147,-1.22612568011963,1.31650089695073,-1.12147402044721,-0.0901798932637258,-1.36365564579177,-0.59980092363971,-2.59753773182573,0.586824147334062,-1.02659452768442,0.853440753360281,-0.396071733995723,0.163699137637931,-0.394495091131274,-0.230774628821035,-1.05913911062528,-0.202857142377216,-0.153887372963792,-0.628905305420124,-0.00121663068889347,0.0775852545128689
55.28,-2.00221068982962,0.167773552006082,-0.516765670858008,0.252600678171453,-0.877618339658494,1.19740360531397,-1.06818898587841,-0.0241062248765327,-1.37132690793709,-0.374240894302591,-2.33194079903543,0.669672379588737,-0.985466518973842,0.768602946557665,-0.425210387487345,0.437069460300124,-0.438630587759862,-0.356615855653988,-1.00890476368808,-0.188123707544074,-0.123362979675288,-0.62351277774671,-0.045215596598844,0.0764625539991289
55.285,-2.03623715251143,0.25337421525786,-0.474260931214802,0.390952244420754,-0.539965055158442,1.11876434899096,-1.00688224068826,0.00552468235596677,-1.3604496539031,-0.228843714160681,-2.10140958363596,0.736519912378147,-0.947331321446739,0.653801104388999,-0.486156633455474,0.706305703967856,-0.484119771283778,-0.512779502284979,-1.02659655951594,-0.186230018850741,-0.129335319656763,-0.65847377467558,-0.0548282728170134,0.086871007284693
55.29,-2.06335523973305,0.303168281314502,-0.388742694007477,0.530516083047448,-0.245033829823158,1.08224533028808,-0.949175961238403,0.0209263500304395,-1.34669813789005,-0.116240695508901,-1.85555451271004,0.787957278275097,-0.924631693839806,0.55554218379467,-0.530713615011678,0.880076975136168,-0.493658941759219,-0.608549549555158,-1.01805227815936,-0.186684866286756,-0.136598332604706,-0.703886684492348,-0.0348786938404098,0.109323958354215
55.295,-2.08805966507472,0.305986058767024,-0.295581493425794,0.651577749814273,-0.0445703071678067,1.08607019310223,-0.888483456818983,0.0183178737850675,-1.33605683315793,-0.0886694073971406,-1.5933174029391,0.847442871510233,-0.904883304048296,0.475846829862908,-0.567264787058316,1.01316001485975,-0.461698331364139,-0.69727058237018,-1.00019729955139,-0.17708953717124,-0.13713689234495,-0.727193196118842,-0.0121617499696184,0.114847866306429
55.3,-2.03617268648084,0.226299087485689,-0.199332342904809,0.784358632746202,0.115258126802083,1.12273912094098,-0.838110821552796,-0.00825277242852805,-1.30747537597478,-0.170283160340582,-1.33369661624264,0.916178647270094,-0.894846127058393,0.400895884492457,-0.596644447142119,1.03070362574152,-0.40656388271804,-0.774559846541764,-0.985736634919589,-0.174409533523695,-0.14779503181865,-0.829792020292218,0.00391863869377299,0.166711180085771
55.305,-1.91236179618614,0.0860342547391083,-0.249876724970903,0.86561806839287,0.266954043435636,1.12347430539689,-0.83331504543513,-0.0298665225602295,-1.23230615242402,-0.199447026580239,-1.21512847007362,0.928009473648256,-0.89939884341362,0.350884602666296,-0.604553006937198,0.958111165575338,-0.330551907174505,-0.845132221458825,-1.00290230391077,-0.17274147021739,-0.156119080774268,-0.853186017355532,-0.00556025468461568,0.170204734150163
55.31,-1.74309368198069,-0.063753817538617,-0.276933402904099,0.957006816812139,0.484290385498129,1.0834281366326,-0.850452480195107,-0.0657340910225339,-1.13858974391129,-0.194889261194271,-0.84472132757028,0.899923547246096,-0.923524305795165,0.307837896039965,-0.599693852939602,0.742249630875569,-0.233848278495449,-0.908737361243176,-0.985226409334312,-0.165392509199766,-0.158538863891281,-0.890003989714193,-0.0321303587950962,0.179811397512983
55.315,-1.60748655568858,-0.150154614351254,-0.28412570222647,1.02959959916873,0.70907792301245,1.03796347718357,-0.881316248769455,-0.103867059351772,-1.06732023439967,-0.184732551959828,-0.671643728668261,0.847423217514232,-0.953337559293648,0.273949063975376,-0.573046102595855,0.452891859145289,-0.140421245725332,-0.929613257149589,-1.00231710549973,-0.143368842704519,-0.160306864084804,-0.928417502532168,-0.0312991189579638,0.183866229888036
55.32,-1.51646371770133,-0.191244773306432,-0.249606962376758,1.09972104426354,0.995049314833147,0.912688015823654,-0.901059345116473,-0.145635755383759,-1.01381490888877,-0.143459601881889,-0.508300649037917,0.782788383138424,-0.973776504943932,0.256009160188566,-0.529306580595144,0.114617075616223,-0.0547912204091343,-0.883545918933543,-0.980596981400336,-0.132783709062569,-0.135726602624417,-0.976337544614115,-0.0795919370517276,0.171651012513741
55.325,-1.496465675865,-0.165635117494684,-0.193592567893782,1.05521183616859,1.19817212383368,0.77209276069231,-0.885507930133288,-0.174599236047879,-0.988053633398867,-0.0287918053787188,-0.348562276462908,0.69123758887358,-0.999210894392475,0.248120862439114,-0.464269525433191,-0.258978223402645,0.0296365623995035,-0.773513015091059,-0.991425807820616,-0.129525077537853,-0.137150396309215,-0.977182675911636,-0.147964493935958,0.18251120946403
55.33,-1.49797719504696,-0.10416027164056,-0.100741394174737,0.915170739416459,1.35178680338023,0.597986874732637,-0.846421528297296,-0.176273549413339,-0.927280802554492,0.146421190505721,-0.20966319508966,0.596029783298985,-1.01577533765142,0.244700357974114,-0.412084112810585,-0.516389487140278,0.079579667989355,-0.641661787742887,-1.00574773084906,-0.13250618187241,-0.136877501124687,-0.970344691820183,-0.187413009304177,0.205335068654153
55.335,-1.47664907635857,-0.0542263021655126,-0.0191852166452586,0.6974993577869,1.42300462473062,0.43815097399559,-0.781282738046518,-0.16714074155694,-0.87982638332979,0.317868755595303,-0.0850631250184974,0.50486633572636,-1.02090493099607,0.243477152313306,-0.336013370379187,-0.813829723567364,0.102668762785855,-0.432142031796692,-1.00976186826498,-0.152319244918399,-0.117059059001402,-0.919154671066172,-0.218507306161937,0.213584020733833
55.34,-1.38469450355378,-0.0699561832331999,0.0386215522352139,0.380210617972854,1.45271465903078,0.242029900425289,-0.744333085077388,-0.152506873433676,-0.828122192824512,0.457978319462515,0.0220823762869548,0.420531972196708,-1.00216739982841,0.23642066527545,-0.280374270477373,-1.02537386116486,0.0911289313456116,-0.262019455003915,-1.02370225426858,-0.171214970179932,-0.129194827030496,-0.862103174808256,-0.236562715337649,0.224579274654388
55.345,-1.27411132820502,-0.109485888208373,0.0443715727254599,0.158025935673203,1.48902395142717,0.0830310884044954,-0.724473527775274,-0.13182743414401,-0.753631030556594,0.545654914379105,0.118870643043623,0.345176760218602,-0.980727797259223,0.22298646328696,-0.21748800661507,-1.20828832874036,0.04822406346463,-0.107075546335149,-1.01866235856337,-0.191284822031551,-0.13339729791624,-0.778802738412376,-0.235286352708943,0.218948602513174
55.35,-1.16641533933465,-0.127588349171458,0.07187653274459,-0.0190748848509673,1.56874783848804,-0.108408373963218,-0.735408271351278,-0.0875414421624937,-0.66466034557725,0.593388623884012,0.20908866691838,0.271993642231972,-0.957654306302782,0.202914459798123,-0.1730020455437,-1.35190331394218,-0.0296996479522087,0.0130324795138785,-1.01819725748383,-0.202706934449999,-0.150022957483083,-0.731959864073726,-0.227120671449768,0.202282698795737
55.355,-1.12071330549558,-0.0955708568779421,0.17552329213059,-0.0912160943571162,1.6549868411666,-0.273328427181533,-0.760437072841207,-0.040409057691269,-0.610117431935097,0.59837040507063,0.284740696944808,0.226551212221095,-0.922782649096889,0.162210417582147,-0.115688625595235,-1.44963689106432,-0.109818060729826,0.066443108280549,-1.02444367893511,-0.216189769936852,-0.168752365253395,-0.703809351116039,-0.242418910344963,0.183769203883932
55.36,-1.13250038597903,-0.00912623304704004,0.287338868321863,-0.139318092863256,1.68420569596923,-0.386341291205189,-0.772714873647868,-0.0154303124421927,-0.579168430096444,0.545236960308968,0.361102306371838,0.188803530302611,-0.882332754660791,0.117180508996995,-0.0665215255845702,-1.49912814314779,-0.223723751842722,0.100242772275871,-1.00874269828623,-0.227903319748793,-0.17002214462749,-0.680579626281617,-0.295511655171729,0.134819502822499
55.365,-1.17654262929583,0.309261925047594,0.478478010522058,-0.435435560840209,1.60995701450844,-0.546359872713086,-0.784865031300593,-0.00917721250758964,-0.564900897794606,0.396407725744071,0.448243595917916,0.171426735547569,-0.857523007086584,0.0807978915961243,-0.0376815385890149,-1.51233618891362,-0.308685073595885,0.102041575742546,-0.991472970767496,-0.223737621516376,-0.171853598253825,-0.648658299776711,-0.430474751124879,0.0836984937943305
55.37,-1.31778157110967,0.38203082873596,0.784854533053784,-1.1754264986846,1.37416518930776,-0.756552559701964,-0.797366200437279,0.0197012117024158,-0.519812732339885,0.234916363946932,0.518775290535561,0.153187051245375,-0.82079503810262,0.0351553680527713,0.00107429327830092,-1.51291754498155,-0.42871425170502,0.095987217309589,-0.976112993040039,-0.212194651837587,-0.170860179571679,-0.63370089128264,-0.557785796303797,0.0343463966881287
55.375,-1.2337837543246,0.0362568077970278,1.18181731589141,-2.35116075739159,0.882243315050039,-1.07513413825309,-0.808791901601478,0.0169064489024399,-0.382698456659186,0.0693079353614687,0.557592637027879,0.112501914680576,-0.782246055547176,-0.0162320093029154,0.0356262113577587,-1.52808444173067,-0.506582382322617,0.0914410281961705,-0.974642004571294,-0.197768528914997,-0.147126219342245,-0.616704406567014,-0.717305327405346,-0.00878211000499723
55.38,-0.999777289760699,-0.278349103926174,1.50665312076814,-2.80942163233102,0.386617098548236,-1.2097438758977,-0.846401988143955,-0.0363150152854184,-0.276267357283174,-0.159834777531591,0.570738534024402,0.064725836636808,-0.750379297159654,-0.0838965061225076,0.0765994309644709,-1.48503603204818,-0.604921653153247,0.0790513724389819,-0.970624178140393,-0.190260585187776,-0.128319232746358,-0.605310217479416,-0.812226607008443,-0.0338838103398473
55.385,-0.862885268235663,-0.089158025520068,1.91783680567922,-2.91782771450472,-0.246734928608101,-1.15680566782249,-0.909722585045962,-0.0859532108770323,-0.179909166534743,-0.465934441469274,0.57439665374503,0.0160869697921671,-0.725779688760975,-0.146765107682459,0.107987959773743,-1.43428453986643,-0.688718856507854,0.058536413283366,-0.975779889730007,-0.179451666409584,-0.10008897081297,-0.55423359515053,-0.964315204423956,-0.0541689474800458
55.39,-0.827815806932129,-0.0628120563531858,2.01179808201864,-3.05656252288617,-0.952809133706486,-1.07225701066802,-0.981399369154306,-0.0683282904138774,-0.000840011611730355,-0.722901989672654,0.538684389336934,-0.0193431234700946,-0.71345043314439,-0.207250272297304,0.137578841554241,-1.37396056482717,-0.759059767261666,0.0293794760385975,-0.972389718275957,-0.18158674017026,-0.0777727346041156,-0.509463615100309,-1.10062853727471,-0.0677230621534228
55.395,-0.602175558024881,-0.310903176156735,1.53131673773379,-2.55975020879661,-1.39363861739792,-1.01360342636814,-1.06618647977031,-0.0703547073350306,0.19284798674078,-0.996930085387075,0.474212213379662,-0.036594157423316,-0.703787473209804,-0.250555120655287,0.157765279559258,-1.35658793994497,-0.810173416510712,-0.0320699815572909,-0.959770415969283,-0.175805791632136,-0.0600045714445794,-0.454055724775194,-1.21129231337166,-0.0750815769453607
55.4,-0.198723830179074,-0.249686493771984,1.01638253342378,-1.38186852229749,-1.4212222522909,-0.856733622056318,-1.1089114144029,-0.119822959889465,0.248779540657571,-1.30586581681342,0.427611095248982,-0.0605694931367553,-0.705293672640331,-0.289468142878136,0.170807424444202,-1.35573434674447,-0.866524275174207,-0.183150142875432,-0.966159353317073,-0.172814802283349,-0.0354453735815965,-0.419125630596413,-1.28771396843469,-0.0635015442258989
55.405,-0.233702392458184,0.198081408415667,0.942757130046852,-1.04372730905422,-1.28714866691891,-0.758567327345073,-1.13417277484942,-0.114821150242913,0.244547195101048,-1.59576977414772,0.379364523003645,-0.0311644380964816,-0.719189019874526,-0.318582283259581,0.175744346818852,-1.34990508604126,-0.898925835363052,-0.369682764604825,-0.952921528076302,-0.183171236117557,0.00101399905667972,-0.382098168134689,-1.37900584770558,-0.0689173747122003
55.41,-0.408751067665642,0.686755030087606,0.95687616528879,-1.13304013357483,-1.3391947398955,-0.573518914547126,-1.13276541405002,-0.129036519302474,0.224265447263638,-1.74090497358751,0.315670098976865,0.0254244237998125,-0.749542653357787,-0.338233410964067,0.169019301228586,-1.30295408091873,-0.907816590454877,-0.647459096630236,-0.964185537446415,-0.217245868404089,0.00563255214324841,-0.396638159663548,-1.46513153994509,-0.0490394093903269
55.415,-0.542707554551861,0.634285849740346,0.910958037076452,-1.32961249398496,-1.39929966205884,-0.164152736030105,-1.1124764636485,-0.169957245317022,0.174113905432795,-1.8730346387357,0.262779859375033,0.0798488024633112,-0.776062557366175,-0.334984469147788,0.151348143462184,-1.21603440540903,-0.896500340427231,-0.878691109181539,-0.938995405141053,-0.191466218436475,-0.00529440552883541,-0.329871103318308,-1.55294662483149,-0.110336761513095
55.42,-0.59335689903756,0.278225629627045,0.875997178121098,-1.3338388903643,-1.3767896127297,0.0199627916291004,-1.1180126676998,-0.206072491228978,0.0840252576479921,-1.98548609812552,0.257690308952483,0.106284140822922,-0.831310110120051,-0.281271899158852,0.104318909689799,-0.907466726402352,-0.848890217223792,-1.2086215268215,-0.979816897862089,-0.168397019202042,-0.0210633879553784,-0.404854331454416,-1.53242304167923,-0.0193022129704307
55.425,-0.809637707983124,-0.04822685684875,0.875958489474214,-1.19176132162163,-1.15635118165975,0.235851660989002,-1.16248732822698,-0.212151732906737,-0.0383259732138669,-2.00597005941153,0.293244912677106,0.0992053072332761,-0.909738339492928,-0.190218339020584,0.0531530359254179,-0.473650001786421,-0.771318310372525,-1.45386149068497,-1.02752406531529,-0.195485737790584,-0.0249275126053823,-0.494427222466195,-1.38421040747907,0.138927478176933
55.43,-1.02046810079688,-0.181054972885365,0.945699785654581,-0.94066853459864,-0.920079211546416,0.291034664302034,-1.26002429896639,-0.201678726785398,-0.162417232445927,-2.04625121362338,0.371090700804203,0.0864173485692172,-1.01270580867969,-0.08060346420014,-0.0156796197997721,0.014237998639596,-0.667355991231467,-1.64236245495058,-1.00205281251155,-0.137997049081886,0.01194786367417,-0.359914691945694,-1.3586733389064,0.00968035352103747
55.435,-1.20553818313476,-0.361757702766019,1.01023813358753,-0.799389887426255,-0.707054479532127,0.214932099361361,-1.36200162273881,-0.216839826338189,-0.24444761443488,-2.08193854364742,0.488603266404268,0.0645602486482791,-1.13229985851494,0.0123213627845089,-0.0851180586127663,0.449522177685756,-0.547190226492486,-1.72034484130872,-1.06206892336436,-0.187444208331659,-0.0236654935532626,-0.40306633344425,-1.44186605269168,0.0834055826414691
55.44,-0.950885865286143,-0.318768751169821,0.924049553156139,-0.391568194654996,-0.462846819297637,0.0624402983224554,-1.47510946939418,-0.269011315203943,-0.222369739813152,-2.03312888289224,0.623246380988448,0.0161525693005804,-1.33006496497169,0.123403014845008,-0.158450478259201,1.0405138101261,-0.347307376035102,-1.7069354950369,-1.05543275382088,-0.14013494109693,-0.0192288142124118,-0.143939147865774,-1.60922145717343,-0.158686265199925
55.445,-0.625659925945041,0.0936534018294024,0.919638947411284,-0.119301283142489,-0.262272965750053,0.120551309250262,-1.58294561106054,-0.343793734113486,-0.164198189814966,-1.86686738888606,0.751003574765307,-0.0697177188101071,-1.52400244938101,0.222636058860171,-0.231558630427717,1.59774836446693,-0.168057738711599,-1.60482298134232,-1.11505464253536,-0.187422150893636,-0.0704573810389956,-0.307802941846144,-1.75527548374604,-0.0929107657785426
55.45,-0.48368198983705,0.19944553459429,0.954541148980363,-0.152690874128742,-0.115078241183785,0.202905079713271,-1.6270846198843,-0.37492312972721,-0.0447387096429359,-1.57771392286835,0.823915650644295,-0.13946220516514,-1.7619702665169,0.345381053095689,-0.267971595202362,2.27254652701854,0.0493256444300058,-1.36163723378026,-1.18906948379866,-0.0626891410074168,-0.151767692095603,-0.305566393585259,-1.74987778419182,-0.077529687450507
55.455,-0.330403903259527,0.213624755315952,0.938490464096434,-0.178689400064873,-0.0276859006129547,0.283783066801175,-1.54294636474896,-0.326800614537734,0.0570953679720058,-1.24407273842056,0.799959651833469,-0.115363370522978,-1.96339093897281,0.456076736842384,-0.253429889813087,2.90676661053274,0.242343582496232,-1.07301855228124,-1.17905993823269,-0.142465121183976,-0.111687899817065,-0.174115370419809,-1.6779700246762,-0.276043134099722
55.46,-0.3562936081431,0.0639797551212244,0.920590726839389,-0.171180183331644,-0.00184843672094804,0.321646297531904,-1.30672953892419,-0.214234255511961,0.0591664938436052,-1.1434463735657,0.750588585441468,-0.00926703048852288,-1.99345656023632,0.536102939075117,-0.154880241524184,3.42602201228351,0.331417977867463,-0.754349750774651,-1.18877368767695,-0.0198196509741055,-0.136184207566816,-0.2541608046361,-1.75735182040901,-0.236626041298653
55.465,-0.438531520223564,-0.0655562534882352,0.914406835899876,-0.0711360870168771,0.00720000429601443,0.315279198303915,-1.09656326546646,-0.144556561261319,0.0069715617833674,-1.17472434431105,0.697197429049442,0.133550070522818,-1.99545610968508,0.611314740292866,-0.00370051001823325,3.77484468432574,0.312071790044575,-0.326803225693308,-1.09821162457819,0.198674657333099,-0.191852657725766,-0.330547733094425,-1.67000161674376,-0.0592697439544225
55.47,-0.500406973085182,-0.0556441570154103,0.879666567977001,0.0613375939764555,0.0107174029204905,0.294687191126436,-0.908896867026361,-0.117514186886386,-0.0886605861169266,-1.24010954212614,0.659792605419934,0.258128694157893,-1.94302426056208,0.611168404181477,0.107265812109539,3.67116867671663,0.194881211819023,-0.0203401296879099,-1.07386988702357,0.00543454943608392,-0.175020229614705,-0.297701956286908,-1.40196884135791,-0.0249139342888139
55.475,-0.579839619516326,0.053112070649354,0.823376446612229,0.174352734311624,0.0233153637627223,0.280153972768776,-0.779585011152501,-0.113985580088946,-0.19051624995204,-1.23870596927427,0.641477609760385,0.336701474659359,-1.69179950435089,0.487855271032909,0.159482266518378,3.063330637267,0.0170289537469874,0.27461296563681,-1.02704801044596,0.0131074668144378,-0.117330429153781,-0.314642240421285,-1.220025159491,-0.0493538963148065
55.48,-0.609147165349353,0.192918180513712,0.812000118810231,0.191060534850946,0.0351915527252274,0.27084747888434,-0.701030122942853,-0.0827683257597975,-0.295396425835308,-1.07268947908377,0.606379100047683,0.337967250496268,-1.4361276232019,0.307504864137852,0.107140516119934,2.35224850062154,-0.0845954256674656,0.464139754809723,-0.966892213990641,0.0154614903977095,-0.13204259439768,-0.173753484269396,-1.02556231151886,-0.0223520198570253
55.485,-0.611109333328421,0.29108817374727,0.789077175057254,0.153605071429228,0.0412260144948959,0.256439617837975,-0.711036979905144,-0.0237294366401587,-0.326470609240289,-0.71912989177212,0.560526482790648,0.275301969949752,-1.21972199430152,0.121460423412271,0.00621099812014445,1.77725814955799,-0.123451966376292,0.621341447388103,-0.965606465432056,0.0191895735621631,-0.131431542155016,-0.0755485290842482,-0.809680740995942,-0.0271988410327038
55.49,-0.575692400256517,0.306401208822764,0.794388662750188,0.0790584112280639,0.0338619636575296,0.23564596604191,-0.748621536685873,0.0353275164785804,-0.300039307992031,-0.371101396561771,0.509366906358522,0.211453436543877,-1.03223837830412,-0.0415241162191413,-0.103426676630822,1.44553771160731,-0.130040043232577,0.710220319252579,-0.944963569454013,0.0147638770700588,-0.0918106633587358,-0.0318974780729503,-0.553505970502041,-0.0285952305541072
55.495,-0.528257494944776,0.264918882076404,0.820944370657513,0.0157487865276739,0.0132659752514107,0.18863383462432,-0.798166314185907,0.088766973697099,-0.236686658521107,-0.117649009934853,0.452689928022255,0.181177762364668,-0.823890629295179,-0.231745533328294,-0.227568644428692,1.30361713752044,-0.142201362151474,0.702802512847245,-0.92418165011396,0.0179395547961299,-0.0709099465718066,-0.0482152468565999,-0.334780223083075,-0.01512680677585
55.5,-0.489339726381266,0.233918242983264,0.852620814808608,-0.244768664913436,0.00547657008909655,0.149242298600716,-0.87005629090842,0.118310953903754,-0.163852013269134,-0.0439965029869224,0.414817833511548,0.219384237777355,-0.661735740923014,-0.351816468830694,-0.328484331250772,1.18251457360141,-0.165262241527179,0.587157387514214,-0.947046191841022,0.0162219881048526,-0.0650213639650769,-0.177380299838845,-0.0230318104434669,-0.0406541272871149
55.505,-0.470408952088113,0.193429454788255,0.861879764426588,0.0228382613485248,-0.00690096794029453,0.113687423854389,-0.941813678374994,0.113987893713368,-0.116867095967984,-0.113970463722163,0.366438577538458,0.298819570297956,-0.510208835822011,-0.42221770873875,-0.417050295675141,0.99051934889683,-0.186517504864124,0.336879642482092,-0.941071037264261,0.0106853743380755,-0.0462847955030131,-0.230062999183915,0.0747544407850016,-0.0378119496643876
55.51,-0.469669200420189,0.170387220018863,0.870775877315645,0.066594257314596,-0.015044256551444,0.0925550834965137,-0.992436772906948,0.0960162237845901,-0.124458929712975,-0.192851146257794,0.339203723741732,0.344450686676343,-0.39774118161488,-0.445068126584154,-0.503883914751978,0.793253430801283,-0.187997274135478,0.117948117977226,-0.967375628204371,0.0218104609254927,-0.0409955213194153,-0.339553461187793,0.112747247685535,0.00532144813469613
55.515,-0.473373001857895,0.18433456458274,0.868292957288306,0.0893978813667045,-0.0137502383440733,0.0830545026377628,-1.04133261085658,0.0639775007767988,-0.138277340919339,-0.22276527744754,0.327172900643774,0.360083021188737,-0.341397274204976,-0.421494393888864,-0.554627857410804,0.71530525260235,-0.171448792104573,-0.0938669570341291,-0.970713020662147,0.0264459461643857,-0.0339318375330124,-0.463112275571104,0.128243655005278,0.0515886202255607
55.52,-0.468895675697778,0.187661919455537,0.869075924540889,0.108535499413028,-0.0221324974065234,0.0633566563297888,-1.0927308025145,0.000208736282342279,-0.146242541479837,-0.148128704604485,0.305604352381051,0.345000099610095,-0.340670906543544,-0.360466429400469,-0.568532341905976,0.811015295182466,-0.121036210004938,-0.296176622172759,-0.977552665522216,0.0173940950955366,-0.0104600094289585,-0.517836672006369,0.111207860510571,0.0581070984541842
55.525,-0.474352114166418,0.199607102112265,0.864851634547254,0.100967411949474,-0.0209233590650522,0.0532438904047012,-1.12406223467617,-0.0364486064964066,-0.154026589823346,-0.0285581170045806,0.288738000556539,0.324123151672842,-0.390955122663196,-0.27790414855736,-0.534420700356153,0.861609651797498,-0.0750337706861932,-0.410317981003192,-0.983540328824266,0.020940358912077,0.00367771779410721,-0.555929413850751,0.0733789649613482,0.0606786284099558
55.53,-0.48894734751333,0.197141322902559,0.860632820305826,0.0967519341520163,-0.0166244179061595,0.0442329739485949,-1.1243644395098,-0.0498601944201158,-0.153660856745535,0.106094989488477,0.274074286456222,0.317538899474535,-0.497502719004793,-0.159258669763808,-0.463406278113797,0.750775791788556,-0.011804619600035,-0.522450140472537,-0.995314251111676,0.0249910894710782,0.012686405863199,-0.610560162427592,-0.0056512924880238,0.0974396795016587
55.535,-0.493023250288549,0.189616796535128,0.853235578452743,0.0886903319380086,-0.00960265266941273,0.045451732183593,-1.10785497174129,-0.03437008031435,-0.150745593460024,0.209603686300251,0.259046256972987,0.328250744404703,-0.621301129872594,-0.0549788588630077,-0.374008936847599,0.526597750929537,0.0403087738654334,-0.631633490001513,-1.00886879665997,0.0313836377436172,0.0162615976859329,-0.655114877805495,-0.0900642990991306,0.159906735742873
55.54,-0.493996529595931,0.187387037735444,0.854420869753104,0.0949121319426535,-0.00627567239017651,0.0440456547512053,-1.07028408080654,-0.0120182042165352,-0.15770152706108,0.287421199587487,0.233524429307003,0.350746416583669,-0.752273872376822,0.0118245774669799,-0.279875427728734,0.277486896459643,0.0813310562406411,-0.701702647249808,-0.997457928508843,0.0328396318687594,0.00873497196365642,-0.70821412371329,-0.168674545955636,0.214248889678146
55.545,-0.485486396551845,0.207219005496418,0.847685637531297,0.0892912184796564,-0.00558199593439491,0.046231360723218,-1.02396201541997,0.0378752321570494,-0.165663903262887,0.356241597722296,0.209059033646712,0.362006425857544,-0.893190034769041,0.0470937831349271,-0.143717414270291,0.0218315854610712,0.0947439178253066,-0.767022907709165,-0.984663996716929,0.0389146540888557,0.00621960852480123,-0.717022232118964,-0.190523209508629,0.241359897501796
55.55,-0.495152197970806,0.239678751931037,0.848722798876957,0.0702491164355437,-0.00195658709765472,0.0532438904047012,-0.992686509290362,0.0874938730126428,-0.178944384145723,0.391680176105118,0.189860774879906,0.366005623192857,-0.999738380230665,0.0394555280090988,-0.0221700450442709,-0.155798602113574,0.0794602018562187,-0.786742717173425,-0.985645501947581,0.0383662572299121,-0.00127708023630731,-0.704754888036108,-0.196580127194556,0.265679691679228
55.555,-0.509086078665934,0.242199777256856,0.832177004261109,0.0410496687986737,0.00735125586277595,0.0464471296389433,-0.969870444339197,0.135929490059217,-0.186047705772766,0.403466220603117,0.182416639522723,0.361416944055302,-1.11616858675255,-0.0247282944524135,0.108542854305795,-0.352669016059278,0.0255875774772539,-0.806305618143771,-0.994059145045313,0.0435614324317106,-0.00555559390596198,-0.676591425712693,-0.181258729323421,0.282105842368221
55.56,-0.504741655534511,0.232834250717036,0.84013109967856,0.0370283765121572,0.000274045116144412,0.0385331567538822,-0.959225186775117,0.183038114673826,-0.191811534498122,0.348531475129524,0.160360336998923,0.353297086983085,-1.17653173845853,-0.0809855253136688,0.188443763568323,-0.508614181606857,-0.0391354681030486,-0.850965927110341,-0.990273366776727,0.050469340214911,-0.0200742884304162,-0.672107033922951,-0.151680196480078,0.289724398214723
55.565,-0.500162608937523,0.209025032024737,0.846355487870406,0.0264419347114772,-0.00483506222383601,0.0303950123698867,-0.957360282938356,0.212328300259114,-0.17584588974207,0.237538640870997,0.152706285082739,0.337590304624071,-1.2480644180587,-0.165293571613208,0.273942130061805,-0.555792110551445,-0.107207851420813,-0.917033508566813,-0.974287018330702,0.0547404251538462,-0.0300226345171312,-0.697729527851888,-0.0787213405890285,0.296585682367678
55.57,-0.4985470374105,0.192512438236711,0.856670839377244,0.0279632026552255,-0.0084613600968416,0.0275883097201586,-0.957153473198855,0.191722821853945,-0.160688818930444,0.0747740352824568,0.147340644452548,0.311727664664193,-1.29300748055358,-0.208384197374927,0.323104030246493,-0.560031637017299,-0.173680544729557,-0.984348662580523,-0.982790452014328,0.0529035856594106,-0.0428273986642298,-0.715197551975122,0.0307566535496057,0.284411300468789
55.575,-0.494547702520249,0.17867757285931,0.865308817838173,0.0374038076135945,-0.00321439759486667,0.0241988730630311,-0.976569752142464,0.156876893802247,-0.151553152090894,-0.0663466098568788,0.134554267148542,0.287927516810556,-1.31461125502042,-0.214090329264619,0.338714031503995,-0.529768132806046,-0.20611958362379,-0.995313178071986,-0.994719114948968,0.0502914138313426,-0.0529279415890503,-0.733282002710169,0.139953757524305,0.279700599145434
55.58,-0.492380269403735,0.186552877359349,0.865569401674179,0.0425953229412514,-0.00455290230290257,0.0242150345213019,-0.994605131738952,0.121520227966658,-0.145792350409447,-0.172415887537893,0.136543296397791,0.267966331869631,-1.31365378308423,-0.199960163161259,0.32506267226121,-0.468257783614484,-0.221998864157808,-0.950049946685348,-1.00952064534907,0.0540751440676063,-0.0730485441397171,-0.75495434549383,0.248731108506473,0.285826678548718
55.585,-0.49267076489209,0.18392862527547,0.861175241515851,0.0343287489953724,0.00211458215690608,0.0146707942362844,-1.01666375773286,0.0960574808419532,-0.132316864713961,-0.241242824109194,0.116712479951201,0.258286618874102,-1.28790512644101,-0.157430387183051,0.293098190167315,-0.349929799592965,-0.205059476631183,-0.82190346805338,-1.02272909771572,0.04752517525184,-0.0782050501765415,-0.791575227168857,0.372304132350997,0.28688570857048
55.59,-0.486102849568345,0.169547898664471,0.866896314029534,0.0177376363166771,0.00947385095294838,0.0211003615386182,-1.02626717080824,0.0631913652004407,-0.130813430071428,-0.294626558215091,0.095270498296343,0.250071136215722,-1.24800461521069,-0.119480910994202,0.258435559255314,-0.202262570390651,-0.173923745386718,-0.671235854795366,-1.03869839839478,0.0368492063875165,-0.0790957788968585,-0.817356766362193,0.445236892369307,0.287652250473943
55.595,-0.483934788056138,0.168065101365628,0.874072643537819,-0.00212310715357031,0.0174671131323191,0.0239232275635004,-1.0278404021658,0.0487158325318763,-0.134300600670181,-0.354002955748768,0.0952458165380033,0.248388826847076,-1.20361198016297,-0.077549244295288,0.218095454554254,0.046522945483607,-0.124304913316225,-0.481872929671068,-1.05388330240724,0.0362103980970047,-0.0702344971386777,-0.842397559455687,0.507656612185083,0.276245152247057
55.6,-0.489391820282106,0.181804453351645,0.868408197821751,0.00730181752340115,0.0230567091533831,0.0326136533087831,-1.03090470835835,0.0506640434744886,-0.13928803871467,-0.371794016750143,0.0842236468132956,0.244747375096557,-1.1565256575883,-0.0517128451711189,0.185742223358719,0.245714165347491,-0.0821724126246147,-0.329689968873107,-1.06235971168648,0.0289812842137174,-0.0567558161057944,-0.856349390578683,0.520671243845741,0.276028574938755
55.605,-0.484939153378858,0.187306237719414,0.86266483235752,0.000788225880431098,0.0372051189026705,0.0301977799279058,-1.03847809699669,0.0715624823904438,-0.133865941517864,-0.363207801634826,0.064872573916691,0.237606714507016,-1.10418731400854,-0.0388182344286986,0.148209160808809,0.445603363471424,-0.0417038519264841,-0.224525653785273,-1.06874983582506,0.0223711055833498,-0.0496794377195173,-0.846249474009089,0.48966711529449,0.254654021902015
55.61,-0.483520172674572,0.195032726379265,0.8626880711935,-0.00179181992182674,0.0408242816102707,0.0312368958659744,-1.0310562216591,0.0891589482646783,-0.135887543474208,-0.331522350557726,0.0279216363441868,0.227319324466155,-1.05238392615213,-0.0325545781535811,0.11297333015397,0.614831994781569,0.00232136193858826,-0.158957992493191,-1.06114073884701,0.0202904023468086,-0.0372673693110818,-0.831870551350182,0.428333368165581,0.23576324725396
55.615,-0.487425645282259,0.196270784264269,0.862555415015197,0.00113662530682796,0.0412260144948959,0.0300316978245974,-1.02440394332292,0.0952493658845046,-0.14297154592903,-0.297126914431733,-0.0088164809761021,0.221611542664834,-1.01874172955702,-0.0289154312687064,0.0893387869805727,0.708327088193679,0.0302634164228411,-0.139361828403869,-1.0633382699506,0.0193601144525387,-0.0228461670238169,-0.811778432198209,0.355461200117187,0.219961597264829
55.62,-0.487713787262736,0.189083565652552,0.854117596653053,-0.00266741648929825,0.0507825666976694,0.0291636847103268,-1.01659406502661,0.0949930375446606,-0.153139316131084,-0.258106753625841,-0.0291859531225473,0.210535099270654,-0.984558965336492,-0.0127590368084856,0.0618647757951708,0.721116592111883,0.0506203760483662,-0.139563325393585,-1.06300254261585,0.025566999295232,-0.0112049362087743,-0.776456275006567,0.293356350319983,0.210415968024053
55.625,-0.48957635568816,0.188999972065309,0.862515357017687,0.0100286147293958,0.0539536580238467,0.0235790017815286,-1.01080313035584,0.0959102154523974,-0.136319248492813,-0.162910609862946,-0.0648355501816653,0.205930937296993,-0.957059830830047,0.00793886468027646,0.0436073819699501,0.666196916697218,0.062376207097893,-0.180318700687488,-1.04544792280041,0.0225125602047264,0.00150729617523377,-0.734247601021654,0.203076475809209,0.214531241097119
55.63,-0.490074262518611,0.185903402663823,0.853361839818585,0.0239428342392819,0.0636496898435594,0.0182012300419377,-1.00643354541829,0.10076945722188,-0.118600551160012,-0.0318495137825725,-0.127128960703714,0.207267890979097,-0.938412038145753,0.0288970323966276,0.02593551281122,0.562437153448303,0.0628537974387189,-0.239492224281367,-1.05145722309221,0.0217581241215563,0.0185992523297256,-0.678398978024735,0.147671862399912,0.212170149944544
55.635,-0.483580262396368,0.18416150661468,0.847197918357366,0.0419677847956429,0.0667934425663093,0.0075247394568516,-0.997758101525462,0.0917656120540921,-0.128400167657881,0.0666935887385841,-0.18679999993515,0.200122003048216,-0.924259370799924,0.0496464685532394,0.0150405655004117,0.460215912771296,0.0514271510687524,-0.293118256765717,-1.04276460131442,0.0316369473621435,0.0405173405730476,-0.658888525466308,0.0833987181378021,0.264324338710721
55.64,-0.484861425231397,0.180545985086367,0.847471408635378,0.0564044381379994,0.0761619442076179,0.00920305175569778,-0.977517586425162,0.0691306570410927,-0.147834455812296,0.118967241531779,-0.195992002616423,0.190751822333191,-0.916865206855526,0.0633193010560479,-0.0147914478071986,0.363739607818554,0.0454549982816031,-0.343259892058199,-1.03989176784192,0.0272576060241256,0.0454641588410732,-0.639351430899768,0.07589418866078,0.281675983793359
55.645,-0.489126066813412,0.169233705765739,0.849574494349029,0.0752217376574174,0.0841720548262053,0.0171532587543589,-0.969119637523269,0.0648951116954924,-0.144271861502776,0.185387122660802,-0.18024010078472,0.170467116651659,-0.913458129950458,0.0742270031075678,-0.0393220568996567,0.2353911715368,0.0284841802214968,-0.387544711425991,-1.05783101002394,0.0249827118039692,0.0572321423495834,-0.599462054868831,0.111411590886294,0.321863087960778
55.65,-0.486524746144354,0.172446045437865,0.856693824293834,0.0963943040824722,0.0852119386507007,0.0145601837842659,-0.97517404299936,0.0660896220647199,-0.133618283263653,0.257458326598219,-0.18772256051018,0.147581542017701,-0.913615514127216,0.0782621097577618,-0.0605877636175006,0.14405429897812,0.0177623854664927,-0.403709332582462,-1.06421374643111,0.0153437736216797,0.0649460874267325,-0.584224986322198,0.120462667417565,0.360409053642027
55.655,-0.480698178322828,0.176392704453424,0.859275004714808,0.11184838875099,0.0898225101148994,0.0108462943074889,-0.970538483736247,0.0785138241561391,-0.124462099965633,0.320342692087299,-0.194985695794477,0.130814332174354,-0.922761692087695,0.0793649057197919,-0.0776198341655641,0.0418745966910074,-0.00589522570443046,-0.422067703466141,-1.06912602920201,0.0192873124134467,0.0644657295721273,-0.575541117145605,0.111618630601109,0.386878541730496
55.66,-0.482558938228308,0.190757338406003,0.857985739887993,0.12408049829097,0.0862172001238097,0.0116589184167558,-0.98050368876712,0.090569517212963,-0.114065028229797,0.372506458026496,-0.193377325461181,0.121134824917578,-0.934013584952114,0.0805186478229023,-0.0781480215338739,-0.0316630126687466,-0.0191437816257679,-0.445062786506536,-1.07267382141838,0.0188367936664449,0.0519100205803548,-0.549418817164922,0.0766212697932243,0.390569254224074
55.665,-0.483189835686044,0.202258907338751,0.856579714757721,0.124540273816266,0.0836464211055422,0.0076786015568463,-0.989848080031399,0.106585887784201,-0.109329681342048,0.40262809462876,-0.189291517909601,0.117068789009521,-0.947250483757139,0.0896544956577184,-0.0694698457943086,-0.137841813948182,-0.0377317824557703,-0.48408154758133,-1.08101095468655,0.00883457407820538,0.0375083234057795,-0.4878049962504,0.0520789380715462,0.388086086511613
55.67,-0.481721661322955,0.211768947182018,0.853961941984299,0.12079554183702,0.0831821771122978,0.00474372906222017,-0.994345764434083,0.12439584330882,-0.101133973432622,0.420421636789793,-0.189474754784462,0.11116814776832,-0.95546761468975,0.0908637846388457,-0.0525730545540365,-0.224210239631288,-0.0530214887809742,-0.512241109611151,-1.08543058755059,0.00881272167049051,0.0367741961668216,-0.415062167018202,0.0298419922856473,0.368067120257696
55.675,-0.481310068051384,0.217092769421473,0.849591863370108,0.104164957447452,0.0918990379154925,0.0177601637258104,-1.00112166332543,0.136863179234009,-0.0972966654454574,0.424446619017844,-0.189188384548898,0.10698579751751,-0.981103058311181,0.0778684487347024,-0.0283363779652426,-0.307876865932244,-0.0779849380995876,-0.549662429315416,-1.09562295788523,0.00389983438140636,0.0303017892927705,-0.326077944381517,-0.0060161587916832,0.352330661141114
55.68,-0.48319654986489,0.217928871153765,0.850242175633237,0.0990770825868504,0.077518455439966,0.00473451014197209,-1.00664446631987,0.146256963469268,-0.101076388537778,0.40301572983328,-0.176399140057111,0.106711333357162,-0.995330169839338,0.0611956591493681,-0.00635300295823191,-0.364287697932833,-0.0911184038248025,-0.599346245786239,-1.08342547880439,0.00734903834995624,0.0260138260176071,-0.226736547364047,-0.0344850995212651,0.322642687623248
55.685,-0.483227380103443,0.21797299039384,0.850234854051594,0.0802593310091697,0.0784277889322227,0.000711029395461082,-1.00850916596967,0.159545906808891,-0.0977799919017274,0.372958196246029,-0.162855059987305,0.099342092871666,-1.0091491418696,0.0476284150443099,0.0144848439049875,-0.422390643273523,-0.113166244354683,-0.632764983801986,-1.07425807129106,0.00715247260993912,0.0449124479980539,-0.146897722736443,-0.0821080042349344,0.287005443802865
55.69,-0.485604731962717,0.215315363925302,0.848219130576165,0.0653997764542283,0.072576095448708,-0.00174247315902553,-1.00570908167361,0.162900629878839,-0.0961619798330959,0.338472854928982,-0.154520152277998,0.0977335515935503,-1.02363390075238,0.0316801867263439,0.0332346947733228,-0.462353403017337,-0.127630697690198,-0.662208220056456,-1.0567990230011,0.0107460974777423,0.0501727510171901,-0.0966153904513053,-0.141088397686577,0.230569034290203
55.695,-0.471056862605566,0.217173950666189,0.846872728529113,0.0478663685518809,0.0683745941696405,0.00383350885097495,-0.995564302334367,0.159248574765229,-0.0840578666709033,0.307891896955561,-0.144598717009798,0.0913027662510583,-1.03057827685008,0.0175375943127698,0.0466260993494635,-0.477721251285303,-0.128307631176719,-0.667492210865021,-1.04336481606244,0.0199960057583411,0.0504711915512873,-0.0579602906267845,-0.180785968744566,0.202868683797068
55.7,-0.464688135741607,0.216895420799767,0.848763503029908,0.0379955639565592,0.0499217842051434,-0.00273849560609644,-0.987361537564153,0.138346874689448,-0.0732789925757949,0.237261029552681,-0.127799274222097,0.0828540360925733,-1.03136795197045,0.00420609445732009,0.0604879988070102,-0.462768408437973,-0.12544445721609,-0.67065704264342,-1.02571338277544,0.0433977811004754,0.0599354033650234,-0.0320183595721088,-0.196609852599822,0.156284659486034
55.705,-0.473948009598316,0.209677622832075,0.848084950340697,0.0228007300750194,0.04385070167559,-0.00433334773511714,-0.973913961601265,0.134187200605868,-0.0773335846389303,0.123057622711513,-0.114609953493099,0.0736865103244781,-1.02860236334621,-0.00471958653171,0.0740639935175238,-0.434717488792379,-0.112381287953593,-0.670492058381461,-1.01384045459415,0.0632745638088919,0.0632403872320399,-0.0375549702114418,-0.197787234419373,0.127675090274097
55.71,-0.484362734107405,0.200861736189259,0.857329185311533,0.0136754646129938,0.0440864694432084,-0.0102989740395045,-0.965868847267888,0.129000371267372,-0.0874325933914421,0.0150203071691006,-0.101986432999124,0.0760998279641774,-1.02708069678142,-0.0104382021273503,0.0895292765497663,-0.367929597505665,-0.0855420320879727,-0.660704934764385,-0.997714099880878,0.0922461096538998,0.0687148819859225,-0.0603437013312584,-0.193978472162269,0.104836675142327
55.715,-0.486045679002121,0.20174804891083,0.85211595501865,0.00786780055060555,0.0448910966515541,-0.0058496129619216,-0.971204208815974,0.126390288009303,-0.0922976912229741,-0.0437300339167317,-0.0954249934608799,0.0762328017814721,-1.0233865267117,-0.016329051386898,0.097516597761024,-0.289294105835419,-0.0534757160145263,-0.654556343050956,-0.982086630575989,0.11713722893097,0.0644666514437731,-0.0785172442473891,-0.21099281464711,0.0715668138796076
55.72,-0.483635037964576,0.198777109438887,0.852614659777063,0.00366143034198318,0.0480306642956611,-0.00417574867606163,-0.968296204257222,0.094570088008939,-0.0921863653602817,-0.0798432833307998,-0.105583019029267,0.0641671140375295,-1.02584727443267,-0.0169894579716759,0.0996919802722516,-0.224527717657737,-0.02500076532643,-0.636277893351121,-0.964121304399327,0.134971109978095,0.0571950066276829,-0.0869302095010352,-0.232150545393032,0.0429011191759408
55.725,-0.485389542851262,0.189988041928739,0.851424312665501,-0.000278436192025739,0.0571080446243286,-0.00469580110811972,-0.967376723652353,0.056596830394203,-0.091860271935114,-0.120715715662266,-0.108659672718104,0.0508896168131413,-1.02639281939018,-0.011369635055607,0.104696369941655,-0.147848719732532,0.0175685963312868,-0.609190412210095,-0.964289227618285,0.155490955794736,0.0508823216271096,-0.0989186347072139,-0.25773671033185,0.0212296115402403
55.73,-0.486287896685833,0.188946157240434,0.85730313557422,-0.00179909020861049,0.0546521122796435,-0.00294151163173318,-0.973322959149271,0.0421060124228277,-0.0900859967528638,-0.124823498809475,-0.106425530197939,0.044006951362237,-1.02368019357502,-0.00815653395650073,0.10365622450738,-0.10169370807302,0.047832101863837,-0.570864187116448,-0.947229386859143,0.164186195446509,0.041343387688555,-0.119493658689005,-0.265268082247504,0.00756831103552663
55.735,-0.484261732628489,0.187629686061372,0.85524757100407,-0.0057503156934466,0.0489234832627432,0.00843645681359709,-0.984220408186297,0.0373293550709348,-0.0865553181867166,-0.115056866080232,-0.112708260364333,0.0408058531173402,-1.02054755533818,-0.00702153463132253,0.095390205251397,-0.047611249383631,0.0815544018525539,-0.52353199700099,-0.940901293406037,0.162537880486008,0.0146934431516001,-0.126343372860063,-0.265628388641172,-0.0036970613076222
55.74,-0.490633077365455,0.194621222620497,0.850376653048391,-0.00893491925648812,0.0587626646865091,0.00711305036449267,-0.997114097564356,0.0419097519955246,-0.0752320503403006,-0.0957203324477553,-0.118197099946564,0.0433430206484839,-1.01345865086291,-0.00245086711627507,0.0809913322718712,-0.0089182200478793,0.111866390479142,-0.480757924769826,-0.939680435379363,0.161436769231658,0.00631594550459904,-0.131813970525507,-0.244161111192887,-0.00534596332915488
55.745,-0.493834588935682,0.197719963280209,0.852345848275305,-0.0140348037950199,0.0670256971679925,0.0157128110863263,-0.999395185515532,0.052591131895094,-0.0749268867463439,-0.0900678534419425,-0.126846211451067,0.04185367913379,-1.009553460747,-0.00130849534728518,0.0670685266225002,0.0514860670128797,0.134825917456246,-0.443414373081699,-0.942508937898429,0.158946978055571,0.000414721863878679,-0.137996758949313,-0.242468269286895,-0.0102144415698869
55.75,-0.492491585851919,0.192835431247677,0.848073846619833,-0.0102888152628456,0.068884883622645,0.0227261867557512,-0.997052052179747,0.0651227305665836,-0.0742292326902672,-0.0994517993769128,-0.137668678488336,0.0374544656933397,-1.00573326212459,0.00812315661289205,0.0423749166998301,0.136578882750157,0.153081880858559,-0.41133722932396,-0.931412848277305,0.15771641031059,-0.00735440490003181,-0.134015970126388,-0.24541610958267,-0.0011190073807535
55.755,-0.487869371038231,0.205522603674574,0.846900885119792,-0.0115940529229875,0.0724552329022433,0.0285425831184327,-0.992757749315975,0.082795735124619,-0.0734885070597197,-0.105461741005306,-0.132474384645921,0.0303131393643483,-1.00349869033424,0.0154046463554751,0.0166911867397498,0.210353926788901,0.170022373509336,-0.37920922637287,-0.933443792507184,0.139389602529586,-0.002424400687313,-0.118062071094664,-0.255749582581042,-0.0197919328273963
55.76,-0.48729951400054,0.210965778160347,0.845921097010067,-0.00883492600511822,0.0742726961338771,0.0343380888086683,-0.98822297147862,0.0967506471391114,-0.0711301869493128,-0.11337338516256,-0.13088512260292,0.0211748761572121,-0.996183845074293,0.0250708936608311,0.00244058092392303,0.262031133421741,0.17731825027753,-0.355221712791382,-0.910546829924036,0.135751103350431,0.0038045249125673,-0.12798573076725,-0.280130721695619,-0.0150920689154242
55.765,-0.484824563408802,0.215102594667424,0.838081430995448,-0.0250259972184162,0.0803202390670776,0.0363217941255355,-0.982291345989808,0.117582555030751,-0.0650846129630754,-0.132583736889941,-0.119163863256955,0.0155468774428126,-0.981795907036492,0.0320483432847451,-0.0130722353495447,0.30624647705216,0.174843591552073,-0.334506730274081,-0.918683780774885,0.128183233684167,0.0160205690648486,-0.123323978743962,-0.295583166896381,-0.00783202832182481
55.77,-0.485007569709253,0.214657261181482,0.841274853593841,-0.0302901349370021,0.0786819122393893,0.0373759674080836,-0.974574768674506,0.134349952319996,-0.052326502861313,-0.162929008571001,-0.112168750773638,0.0138493020703287,-0.976157720883733,0.0388255563995959,-0.0283817011724929,0.342795327687396,0.167913767500332,-0.328396610288892,-0.944212179838621,0.116700055646435,0.0226849642454947,-0.111137077376791,-0.318643141084825,-0.00863684705617614
55.775,-0.482010419806054,0.211110625660263,0.847300504987222,-0.0383002513239972,0.074475589340419,0.0385835617780685,-0.969504682541989,0.141552202013927,-0.0471884336134572,-0.208543758438653,-0.0984591056047076,0.0137232485852492,-0.971327353905556,0.0462404889199259,-0.046977703384041,0.393768872874467,0.146601065471618,-0.337625924774754,-0.925623589558637,0.116299865898241,0.0189033281869433,-0.0627197356280516,-0.340322389099207,-0.00889752832468437
55.78,-0.48079938863083,0.210053398188811,0.851800557917666,-0.0431458847662303,0.0741276485481197,0.0391523480116156,-0.968887214882429,0.150039327948592,-0.0364815272945309,-0.253418007582048,-0.0950419071838031,0.0195294765718243,-0.963905252176147,0.0519837457499452,-0.0586168566745889,0.421203495517081,0.130508051816884,-0.361820907520837,-0.92437566509502,0.110185780975979,0.0143696881833089,-0.00466959776335421,-0.328591105950056,-0.0167712257979022
55.785,-0.476646063458281,0.209424716624464,0.848906141210029,-0.0503396088968605,0.0681032910943031,0.0392763295643839,-0.966306597968851,0.147732755304939,-0.0376565639750781,-0.294190425655574,-0.0838123131773204,0.0205361877913431,-0.959237541967008,0.0526092645390404,-0.0663902627309632,0.447249659640352,0.110385600586861,-0.410263396122058,-0.932056479690693,0.108026192229949,0.0130296358333177,0.032367679440677,-0.333767669362014,-0.0238283799635325
55.79,-0.476195220908262,0.211847359143125,0.84699099811757,-0.0624497046038396,0.0672885304011933,0.0353227260869772,-0.967732226331794,0.140755310800743,-0.0321598528661858,-0.32446949638172,-0.0748372707421536,0.0288197173171433,-0.957073284536249,0.0553263952626896,-0.0790780425631279,0.4497658857756,0.0878761611008283,-0.462890288449892,-0.939222668413411,0.107045836077375,0.012475202073339,0.0789748919587361,-0.354035576333265,-0.0252476246815594
55.795,-0.48079250787388,0.205978819697794,0.844639912520729,-0.0770301395623113,0.0600866169352397,0.0312533900141716,-0.969624029340702,0.134521999061503,-0.035357101335198,-0.354165701091723,-0.0648806937119036,0.0365235870603883,-0.957836372217739,0.0554573219171215,-0.0898586473700546,0.451445221029038,0.0845205605989218,-0.515017348287425,-0.944058008985419,0.112750534306543,0.0160940904981688,0.0782162424585869,-0.355229281378608,-0.0299343416255795
55.8,-0.477635764667257,0.18042181390129,0.85585244444759,-0.0817198223457644,0.0462454176531146,0.0140644842850458,-0.974505592087002,0.113230678453761,-0.0331782260589393,-0.380520759536708,-0.0494323713175029,0.0516836226055448,-0.9626515709794,0.0611524890382153,-0.110530694736324,0.406039996831383,0.0790689738589953,-0.561594546900023,-0.940778539195182,0.115488647589108,0.0106108670345684,0.0700299494138422,-0.313204766825527,-0.0416995454696278
55.805,-0.476884119538046,0.162240512281194,0.86142125318778,-0.0761784503490422,0.0443578275259174,0.0106510416265856,-0.973285326273871,0.0764846521676258,-0.0401644796823255,-0.396814121027444,-0.0285664529783047,0.0588173905469856,-0.966461051121383,0.0615374215907155,-0.121641802308171,0.356620169428127,0.0836493547443196,-0.585541074814223,-0.952197705744763,0.116435349183313,0.0126545122179118,0.0356799774687186,-0.267378069615361,-0.0556097926241531
55.81,-0.482458215583014,0.147817166803301,0.864438123790338,-0.0672417232858679,0.0460850797603906,0.0125022683299502,-0.977375505206291,0.0373777269461776,-0.0506535737978649,-0.390363366515569,-0.0135877339296556,0.0626824130836535,-0.975248756510741,0.0618452109184999,-0.137236712283611,0.29193412440765,0.0913835054283214,-0.602937481022434,-0.952404236221922,0.120142593114913,0.020783857774405,-0.0136031116194728,-0.205895456236748,-0.0684745086664184
55.815,-0.48160576233362,0.149062560367111,0.869289080944281,-0.0507829505938978,0.0471599742094912,0.0117062795907259,-0.988849708345365,0.00998405563106024,-0.0617609777850253,-0.334832074177396,0.000505942092072224,0.063912957906723,-0.981187464524722,0.0624227678380098,-0.146825861923972,0.253565133200405,0.103208342607618,-0.598717513995023,-0.952431509076721,0.123879289329051,0.0181010428258336,-0.047770328597848,-0.176053736759094,-0.0698491036891937
55.82,-0.485845945099791,0.172663866719859,0.861174430009403,-0.0329294270633876,0.050236219541827,0.0147796831303613,-0.989531812104532,0.0186239813859427,-0.0716527869104275,-0.259598914278628,0.00512181772568188,0.064349356497851,-0.99559908397531,0.057696023302822,-0.155369784262674,0.19865240419369,0.125636633488288,-0.608504469121441,-0.959261723964658,0.125272325040055,0.0175691515793009,-0.0785647365718444,-0.157731232721138,-0.0839428763255753
55.825,-0.487350246470697,0.187450376925821,0.85447917585118,-0.0334182448246238,0.0578068673171756,0.0209519833277302,-0.995219789451541,0.0325330819864262,-0.0782924901775275,-0.17136234747297,0.00824297806993206,0.0597426950788748,-1.0115353780492,0.0517210481227509,-0.160641407425209,0.157884918589407,0.146914635422377,-0.606888583806353,-0.960967664446095,0.124802581603675,0.0202084343677058,-0.109005609702902,-0.130110513525374,-0.0933447951760518
55.83,-0.47972377104251,0.190970242977478,0.85489655347807,-0.0278198746021412,0.0538416787745662,0.0202453740860842,-0.991107675395303,0.0550064655881997,-0.0790781092864741,-0.0876411505905402,0.0063446926779566,0.056625360726613,-1.03024539091164,0.0493786359045255,-0.166327513700084,0.128958013891291,0.156815164721572,-0.601431748830712,-0.9663591424943,0.128933695871506,0.0160988605058885,-0.146176253846793,-0.114262698933972,-0.113076450010554
55.835,-0.481539962239845,0.194488801767316,0.85384208841771,-0.0242592173238689,0.0635216358289751,0.0245949776387223,-0.993620537223068,0.079571985709281,-0.0791169865563138,-0.00207607848137898,0.00538502817977371,0.055361095815897,-1.04295338695608,0.0490384930063957,-0.164907108635249,0.10998441995097,0.163650878607364,-0.593509539421053,-0.973072957142427,0.131294310875064,0.0129632852627961,-0.175750791501638,-0.105516811365135,-0.127473515118022
55.84,-0.479434143882135,0.202355596855382,0.851349540706876,-0.0225093000857595,0.0679730084741076,0.0205644224360796,-0.988348675397699,0.0973262641084661,-0.0794125237147577,0.0356595671596927,0.0035250308422539,0.051277169694786,-1.05242627838961,0.0480906307768087,-0.159431418073113,0.0981862757847534,0.165056452909913,-0.589525385936293,-0.973610843736113,0.124167464610679,0.0134548997006276,-0.21134341594825,-0.100581076950391,-0.140848624845717
55.845,-0.487186056796978,0.205475627535827,0.854602485864527,-0.0158044111514151,0.0714240506100848,0.0249782731947735,-0.995026548327745,0.108105248038025,-0.0878697617955619,0.0473462728064655,-0.00410117655381934,0.0456782068111433,-1.04985788590277,0.0457691986573116,-0.151112655449605,0.0658940932128401,0.154311964269481,-0.593027145235609,-0.969712336253046,0.113042814695501,0.020988183485673,-0.227692773623501,-0.115556580320539,-0.150203076838839
55.85,-0.487458586040836,0.209249416007437,0.849718019002743,-0.00868786862842491,0.0734217683535334,0.023118549516265,-0.998146111238787,0.119707018870644,-0.0942969225153013,0.0470721933334257,-0.010642481196398,0.0452214078751314,-1.04248024969379,0.0431621725413872,-0.134871564778078,0.00270852156135042,0.143569251077409,-0.587205020750978,-0.975215501262027,0.114995251125467,0.0290015364866905,-0.218439466995998,-0.120851594165012,-0.153248737707779
55.855,-0.494179782283244,0.211772278492739,0.849833780696635,-0.0071542587002668,0.0810898189144566,0.0250544987747517,-1.00185311035428,0.136341591162105,-0.103054514380187,0.0346867682916131,-0.028862337155854,0.0320050808173623,-1.03397025057625,0.0316495885919552,-0.11094685711174,-0.0941266105929996,0.126553012731754,-0.577190860413581,-0.993172402946192,0.102293196273651,0.0305503424947021,-0.195178748788852,-0.114203043584716,-0.14875614051138
55.86,-0.492962113478021,0.216274231007666,0.848521803480615,-0.0148288157523922,0.0905805262440808,0.0380660074179425,-0.999542154985997,0.156709439188716,-0.115848678473058,0.0028096228710301,-0.0406543688420263,0.0182859736279236,-1.0251166916481,0.0111832037707405,-0.0863417559942592,-0.186424119892517,0.108361381238321,-0.572257513686916,-1.0033496641208,0.0975861069736624,0.0292578623762715,-0.130457245560132,-0.120042510734659,-0.136189118229678
55.865,-0.491769890153212,0.224635885756028,0.848344534455112,-0.0220471331351989,0.0820629070737228,0.0289897499157458,-1.00196052537655,0.169079491778343,-0.129383415194361,-0.0342635320703717,-0.0482704908842441,0.00762046806342255,-1.01552372934632,-0.00566614353381459,-0.0576109772917895,-0.279814072874817,0.0908080685287052,-0.565121362602116,-1.02875851237151,0.0761794207881832,0.0254761777341773,-0.0843482233937256,-0.117543140551826,-0.133989557600804
55.87,-0.48326703748901,0.223768333060739,0.844381025475063,-0.0356193989401939,0.0827636271715164,0.0226645120767993,-1.00362721636435,0.18012952751306,-0.122523142826728,-0.0789366504967589,-0.0595400875040753,-0.00240690154012803,-1.00418382363109,-0.0233602750652796,-0.0279230275312401,-0.361595896482442,0.0664674201607835,-0.564430084228515,-1.04587898913117,0.0555041010910187,0.0333760188264946,-0.0510270666821757,-0.0908939573132559,-0.113387676673774
55.875,-0.480571152468714,0.227241042181149,0.849608383259696,-0.0603765811814902,0.0816294860203594,0.0213922828327089,-1.00682500817919,0.181153160757378,-0.123294736020307,-0.151759367548541,-0.0676345505201506,-0.00572363054379821,-0.994725001207437,-0.0437524364144241,0.000612145639123296,-0.412310291995239,0.0469237625037195,-0.570354873272687,-1.06142464125133,0.02955832007466,0.0361718233246476,-0.0360253082558328,-0.0535184626668572,-0.094541897493502
55.88,-0.479572386150193,0.221265638282242,0.850994881422926,-0.0723649742191196,0.0857869840338127,0.00947679991774109,-1.01871313678483,0.174241060378569,-0.129583197034381,-0.260170546227239,-0.0821337892179714,-0.00816701911389828,-0.982131570145115,-0.0636496417478331,0.02925177743129,-0.439107554742322,0.0216020346286935,-0.597533036912974,-1.06217194811246,0.00683526546527259,0.0427743391321972,-0.0280753355725788,-0.0374365515169268,-0.0819493857993152
55.885,-0.486977427607746,0.211449175315008,0.851240393554898,-0.0916203597884045,0.0827636271715164,0.0094553093920019,-1.01850887695435,0.153237607683709,-0.143219948150117,-0.352633936976813,-0.0999515528928749,-0.0046743236000011,-0.969254735252314,-0.0799666796706414,0.0472644469028531,-0.432172428581746,-0.00338267836968767,-0.620523257101511,-1.05776732548375,-0.0127230501633891,0.0458888058990494,-0.0143681429326534,-0.00820022949535505,-0.0674746556714753
55.89,-0.490173721853845,0.201918887552199,0.851862728141884,-0.104360398903078,0.085193401908212,0.00156179566652305,-1.01808539029232,0.11763124161773,-0.151718321500063,-0.405299797455475,-0.114720670001377,-0.00359923952103989,-0.955720642794435,-0.0993274684492066,0.062269558978204,-0.403003461928807,-0.0262335273373535,-0.649320903213888,-1.05236888956563,-0.0299777650915653,0.0436507986153007,-0.00216365148105298,0.00545616655067156,-0.0576321594417095
55.895,-0.492678584202968,0.193955507774992,0.849941111830138,-0.115141832042563,0.0909424502701012,0.00616669138031175,-1.02042033186233,0.0894327838235465,-0.153366335176836,-0.417196393013,-0.138429732414073,-0.0123839171093532,-0.943424858225642,-0.130997594768302,0.0720082766697608,-0.365662086824389,-0.0414582809239841,-0.66518288231239,-1.04759745393295,-0.0415799174267823,0.0416704170064191,0.00410275481772507,0.0163604542542325,-0.0457937929855094
55.9,-0.495547476410157,0.194619936955896,0.84930433025391,-0.112210309886968,0.0921030321438988,0.00546148389084136,-1.0196750774924,0.0692361926914217,-0.163574933080445,-0.389483593047259,-0.150203373505217,-0.0181470246599374,-0.933146283007267,-0.161509852519519,0.0756047061193472,-0.327377142040219,-0.0563916525730693,-0.679618843982978,-1.02930335180697,-0.0393998377957321,0.0401089243013993,0.0426873443192018,0.00860827415201309,-0.0619961929578813
55.905,-0.495663600322298,0.19498478353721,0.846646909496019,-0.119281257676158,0.0890505656728407,0.00683329360598913,-1.0208162036959,0.0530340484030543,-0.157318487674492,-0.314832084810733,-0.178677661334268,-0.028808584155202,-0.927859046458623,-0.199081541660533,0.0729866491122076,-0.268968729549828,-0.0566258375982958,-0.70566198017484,-1.02616711082852,-0.0334532403299074,0.0308235151233888,0.0424331024353031,0.00127890750117079,-0.0526603702941606
55.91,-0.500863043824441,0.190039095637741,0.847366925676714,-0.118217741081791,0.0909353085628128,0.00850253631666919,-1.01709743135851,0.0421938427763467,-0.147095397470562,0.0930582508002059,-0.191055809646259,-0.0354386871592693,-0.918726676902558,-0.240584393127527,0.0669250864014382,-0.205324823223083,-0.0459188794647216,-0.738224305238425,-1.02173911302813,-0.0333073274464095,0.0237831242733506,0.0465636939616702,0.0227644513226992,-0.0540911220158139
55.915,-0.497315307590992,0.175166493050719,0.849941294264633,-0.117016337811947,0.0936698960755167,0.00264454424679239,-1.00600375603197,0.0286668746358879,-0.135582048210555,-0.135361659411805,-0.204119879506473,-0.0351500488193775,-0.908525168420346,-0.27461821216311,0.0617839597249268,-0.143491322095717,-0.0271334777497994,-0.765321907028046,-1.01822653363137,-0.0378412053285187,0.0289476372328948,0.0134444195088022,0.0429937906297394,-0.0505835511475098
55.92,-0.503201857970078,0.165674794713009,0.845490340266584,-0.103355517273559,0.0989356776046104,0.022769369168009,-0.997681340353171,0.0125924671844061,-0.124644986592145,-0.0988221992498086,-0.224282548738537,-0.0409545231103761,-0.892005884402451,-0.313017430578743,0.0452922772232441,-0.0630893182901899,0.00660100227803142,-0.803782782087286,-1.01597993981627,-0.0281662426390402,0.0484327457492437,0.0380157013488942,0.0835439188280472,-0.0663811603934907
55.925,-0.509740583348375,0.149638023093796,0.854251293005651,-0.0753496474232488,0.104933439662626,0.015875808986542,-0.993864348173084,0.0085266709483059,-0.111828759363785,-0.00464661595462931,-0.235971020236935,-0.0394255974723838,-0.900062598997883,-0.341980435327962,0.0314903601171035,0.0222184288595703,0.0402340917897217,-0.823000260105581,-1.02839386037196,-0.0347608365702197,0.0528685410040903,0.0142016660179043,0.0501284155848447,-0.100436624412274
55.93,-0.512071764536271,0.148047129197415,0.85503896655541,-0.0407741464020452,0.110893717992992,0.0182081537412535,-0.991119262437004,0.0101247639914634,-0.098494035531507,0.100944460902225,-0.247692154726615,-0.0395128282238608,-0.908297826106581,-0.364232148974993,0.0180354499303934,0.116787598628782,0.0775378319862177,-0.841861245775481,-1.01173913755184,-0.0137035059055573,0.0498584485453322,0.0156889547399961,-0.0347713400973423,-0.135569447876556
55.935,-0.503679626639591,0.141256362942972,0.850510139168814,-0.0302760303020477,0.124693806117373,0.0369252928559908,-0.986012544524254,0.0118724333852557,-0.0822619972087426,0.19201351618362,-0.251169122755332,-0.0410421930959409,-0.915957021104569,-0.380204385324471,0.00323638637221698,0.212194735664222,0.115591933556859,-0.864318008873491,-1.00633822970214,0.000591979778889342,0.0583064697626464,0.00497562267852091,-0.0714263262705393,-0.158072334418341
55.94,-0.499409107080754,0.146660373323989,0.850960858840082,-0.00832352503785045,0.12264594035194,0.0492243250837785,-0.985029358132584,0.0297680936267273,-0.0571227396017012,0.280587462167877,-0.25037295056112,-0.0492967997113711,-0.926882144431925,-0.381210825421164,-0.00854765658461859,0.269564229972489,0.146921104655043,-0.867744455594704,-0.992778943833178,0.00064155113342853,0.0770672237633907,0.0204535799852066,-0.101966691369511,-0.182212404190437
55.945,-0.495488061787631,0.147079671711234,0.849923947543766,0.0302237114822623,0.120636157691479,0.0516823508283292,-0.973775716378532,0.0629897919238211,-0.0380970427420931,0.350055613988726,-0.240262592494242,-0.0548754808836093,-0.949839532087037,-0.362354834181146,-0.0255295099773185,0.339782015414628,0.185016346881185,-0.88840643450444,-1.00366275922499,0.00585216812006698,0.0847020465043608,0.04958924888062,-0.119350526371482,-0.196067881007515
55.95,-0.496061920538956,0.159439985546573,0.849304192817982,0.0597972441370456,0.12227298965884,0.0512156402154045,-0.963384175580255,0.110690775315928,-0.0130338206423868,0.401419727385987,-0.221819967160704,-0.0578380063548251,-0.970224508747831,-0.329585339685533,-0.036321790232058,0.388506358203524,0.210840580483718,-0.908968070010817,-1.00759362210339,0.00772965088744726,0.0853955806914688,0.086246178979113,-0.143859338250095,-0.215901579764287
55.955,-0.490635030508073,0.170016079991111,0.847006612272068,0.0776457335637034,0.116288741871602,0.0520221963524818,-0.956552413991788,0.140224461081465,0.010331847756216,0.438064965675395,-0.195908273344269,-0.067168885237573,-1.00581959029565,-0.27580229687204,-0.0460850822679433,0.419402504036454,0.241638141282337,-0.922987171954709,-1.00758138161197,0.000602219078478274,0.0944442939692151,0.108802770120879,-0.170897176791502,-0.23319175353853
55.96,-0.480333873016535,0.184789610405688,0.849412461942041,0.0832809305704999,0.113799846317059,0.0417374231415003,-0.945535396238729,0.180750047607119,0.0354224788676884,0.448985040187836,-0.172502638349833,-0.0785656804453368,-1.02586037396135,-0.236988811498413,-0.0507217514045905,0.43334592576129,0.26351879685592,-0.898950720206676,-1.02228515930156,-0.0123806529740961,0.102010015244202,0.144314667963494,-0.198875972391922,-0.250560620633016
55.965,-0.477558293920703,0.196098160415453,0.850739209113178,0.0948567408169689,0.0990349423669251,0.0274576696630151,-0.941208402862806,0.20278933093426,0.0520999153736309,0.447467539371878,-0.137849646733731,-0.0928455219264776,-1.061524242143,-0.171562493981893,-0.0570220590936771,0.430320853674813,0.164406348697626,-0.849526999336869,-1.03485713448928,-0.0305728028896562,0.10052883466104,0.179041152942485,-0.196296734454722,-0.25981035190697
55.97,-0.468799878126515,0.208014658876994,0.851766662729609,0.0906326268703936,0.0913154855370522,0.0173944885115249,-0.941003366269565,0.224473331970791,0.0647845896489143,0.434049835068082,-0.093298696094284,-0.11145254379591,-1.09309954725456,-0.119940610567918,-0.0581405859677602,0.424676758019783,0.185046672785301,-0.786848063652241,-1.05126905513768,-0.0532946096908761,0.102080996477717,0.22651493041913,-0.182512903523754,-0.265937185319841
55.975,-0.459539958141393,0.216996412375217,0.852662554919054,0.0882283374667168,0.0833950289396329,-0.00829981441772809,-0.940777454898594,0.235754357126703,0.067376857158566,0.423741739608987,-0.0601148059068975,-0.13154297521988,-1.13683890964187,-0.0570797902473312,-0.0605728598926728,0.419006201771996,0.297347864984234,-0.680920759339523,-1.06930787512763,-0.088161971542819,0.0906619180935778,0.272696780368653,-0.180116255889127,-0.267763614654541
55.98,-0.4543189094423,0.220824194771582,0.853130700901925,0.08190432276631,0.0718407786590606,-0.0283932673578411,-0.946148196389147,0.240548709916777,0.0812229293928857,0.411968574302183,-0.0244783366622453,-0.145529637621437,-1.16933680231931,-0.0153631082586264,-0.060239751139186,0.399225953704578,0.292709615858747,-0.56943877081619,-1.07288516401998,-0.101022935342138,0.0827209912410029,0.292720602140364,-0.170616656541824,-0.263468057285628
55.985,-0.44514106749145,0.229579479887894,0.853166863824204,0.076734805299108,0.0540076508439404,-0.0554205126787121,-0.920257957299635,0.235257564150222,0.0883753013806181,0.393637611518977,0.0137669376330183,-0.16645843290827,-1.19378267377748,0.0225384435848367,-0.0647539699386843,0.349679790536019,0.275765546922368,-0.440336752778448,-1.07777278891094,-0.123980362074563,0.0683770380788651,0.298741089758658,-0.177147212721391,-0.262632464996187
55.99,-0.442837402389445,0.242076201882855,0.858057943899681,0.0775971227284396,0.0351823411953017,-0.0855194507399491,-0.924975058448975,0.231897040466049,0.0896416481393848,0.368228573217642,0.0456061025595353,-0.185437342661118,-1.21089012521452,0.0481555550018343,-0.0670095607894058,0.301866364380411,0.250675458059311,-0.334649682991977,-1.07607805637234,-0.138767683071094,0.0507358325537111,0.30176627393828,-0.178683351332433,-0.25809041842513
55.995,-0.441699913790077,0.237504477031409,0.854049518014332,0.0651129792785908,0.0189556255720452,-0.109144641890499,-0.946023446915099,0.228124386662063,0.0777207157577137,0.342186024091668,0.0816780032771968,-0.202564924758786,-1.21698507133826,0.0752504762978513,-0.0694219758745353,0.233301223069374,0.209261211328957,-0.200506467031453,-1.06669464105717,-0.14315732624216,0.0422452933504889,0.282463345483159,-0.173060059547424,-0.259353109357447
56,-0.45160243073355,0.24755239198732,0.852745944811168,0.0517185070796081,0.0139823358065996,-0.133111339681297,-0.952721648137892,0.210873189599989,0.0669225703354952,0.326007992713386,0.100246553602907,-0.211167105543357,-1.2102638852037,0.0951853753575833,-0.0654137547329065,0.197822899031873,0.1738435880554,-0.100292331261053,-1.05541211143546,-0.133412785319248,0.0316122366966534,0.221548351231,-0.183173418834509,-0.26440598179173
56.005,-0.460769047049884,0.239873923556615,0.851043233841916,0.0414702100755837,-0.00274426416217016,-0.156876831237502,-0.957310424937825,0.203556211847641,0.0516464786910056,0.307722130626088,0.121069600079248,-0.22234757659913,-1.19474867680277,0.111050348567876,-0.0616459627804028,0.180759135901152,0.128383400850596,-0.0130720490668837,-1.04256070263431,-0.119943476844744,0.0238605054032999,0.179390089800812,-0.194690427547508,-0.273401427111248
56.01,-0.47238514760187,0.235807104985261,0.847968329109025,0.0238159760042162,-0.00764176808297634,-0.173251974897888,-0.960280740080922,0.189567520949499,0.0334937746284581,0.28739862498718,0.149994001924326,-0.236139834715221,-1.17680088940201,0.119506348088699,-0.0596961406215467,0.173047875261934,0.0758599951467892,0.0760360523746057,-1.03074554367719,-0.102646573287681,0.0289675939135082,0.127101493075049,-0.229066357619222,-0.27562815558405
56.015,-0.478418229946629,0.231306686902686,0.843532504359239,0.0163301889260892,-0.0155572267685341,-0.186793534505642,-0.969485652987695,0.171634065919501,0.0215020256516049,0.271648779048847,0.176893242703226,-0.243644719216139,-1.15947237129392,0.12037808838334,-0.0573781228453784,0.164514158462684,0.0274973194170313,0.142553457121688,-1.02245827966493,-0.0703637555214286,0.0441440972467198,0.0602310546894018,-0.26734390841739,-0.277537167072296
