Header,foot_Accel_X,foot_Accel_Y,foot_Accel_Z,foot_Gyro_X,foot_Gyro_Y,foot_Gyro_Z,shank_Accel_X,shank_Accel_Y,shank_Accel_Z,shank_Gyro_X,shank_Gyro_Y,shank_Gyro_Z,thigh_Accel_X,thigh_Accel_Y,thigh_Accel_Z,thigh_Gyro_X,thigh_Gyro_Y,thigh_Gyro_Z,trunk_Accel_X,trunk_Accel_Y,trunk_Accel_Z,trunk_Gyro_X,trunk_Gyro_Y,trunk_Gyro_Z
0,0.20297619717752,-2.59992538071572,3.6751264175241,0.0739985899380951,0.051150135380424,0.0994687780691273,-1.34008033053442,-1.0054281510687,-4.6002458639603,0.0832679586641055,-0.000968901231471924,-0.00490726388583389,-6.60208776721015,-2.5005685418862,7.38805709080082,0.0837501956823039,0.009986470504029,0.00983857860350718,-0.753024600099707,-6.00551769683987,-5.12319262411577,0.00153100623719956,0.0157288951175026,0.00408120760654684
0.005,0.202260235802044,-2.59680632120487,3.67199105004624,0.0740283808607609,0.0507129766714759,0.0987256338678591,-1.33970118717866,-1.00427598708657,-4.59519225788739,0.0835415212563719,-0.00121928750299099,-0.00491378111250123,-6.5957670464893,-2.49811186020452,7.37982808601479,0.0840211978448532,0.0100297229650184,0.00956927547739376,-0.753286285039167,-5.99884194489238,-5.11720261401769,0.00151982511678508,0.0157223854050225,0.00424918527277952
0.01,0.201544274426567,-2.59368726169404,3.66885568256839,0.0739220373109235,0.0495851694957619,0.096473473023151,-1.33932204382336,-1.00312382310443,-4.59013865181448,0.0840426152821452,-0.00174877793571988,-0.00487877878309967,-6.58944632576868,-2.49565517852284,7.37159908122876,0.0845023200661139,0.010166688618462,0.00893756488775636,-0.753547969978626,-5.9921661929449,-5.11121260391957,0.00144136813563707,0.0156294756592693,0.00456968632319539
0.015,0.200828313051147,-2.59056820218319,3.66572031509043,0.0732478459332191,0.0477778656346703,0.0925781296362264,-1.3389429004676,-1.0019716591223,-4.58508504574156,0.0841013557159027,-0.00235940507032301,-0.00475003957811695,-6.58312560504805,-2.49319849684122,7.36337007644272,0.0845196692603358,0.0103213883384763,0.00809221441047598,-0.753809654918086,-5.98549044099741,-5.10522259382151,0.00126072967922441,0.0153444056914455,0.00486022144838032
0.02,0.200112351675671,-2.58744914267237,3.66258494761257,0.0714051827143269,0.0450369505188025,0.0868003089657274,-1.33856375711207,-1.00081949514017,-4.58003143966866,0.0829294846245575,-0.00308348003959077,-0.00454835715690371,-6.5768048843272,-2.49074181515948,7.35514107165669,0.0832969100732614,0.0103360038068915,0.0069418959299688,-0.754071339857546,-5.97881468904991,-5.09923258372339,0.00100764997643831,0.0148044562851843,0.00512893597751946
0.025,0.199396390300137,-2.58433008316152,3.65944958013461,0.0678935448026054,0.0411939501461524,0.0790607312212934,-1.33818461375631,-0.999667331158037,-4.57497783359574,0.0798440185449363,-0.0039485189277853,-0.00430121524877601,-6.57048416360635,-2.4882851334778,7.34691206687064,0.0801638143152297,0.0100649311149853,0.00541634451216311,-0.754333024796779,-5.97213893710243,-5.09324257362528,0.00071433434053616,0.0139801108239266,0.00539363779892203
0.03,0.198680428924717,-2.58121102365067,3.65631421265664,0.0626879054762372,0.0363537984753462,0.0696545033416183,-1.33780547040078,-0.998515167175903,-4.56992422752282,0.0747418283473026,-0.00495704952693144,-0.00403230631454798,-6.56416344288573,-2.48582845179612,7.33868306208461,0.0750243212420268,0.00946765679515582,0.00352476743130994,-0.754594709736011,-5.96546318515494,-5.08725256352719,0.000392338799908103,0.0129124593278513,0.00566498772690038
0.035,0.197964467549241,-2.57809196413984,3.65317884517879,0.0562571048423435,0.0308890267627403,0.0592057217106565,-1.33742632704525,-0.997363003193765,-4.56487062144991,0.0681330712922157,-0.00607812077238831,-0.00375371202626716,-6.55784272216511,-2.48337177011439,7.33045405729857,0.068387893975051,0.00862145909531853,0.0013631382113103,-0.754856394675471,-5.95878743320745,-5.0812625534291,2.43690763666552e-05,0.0116964271541506,0.0059288876283122
0.04,0.197248506173764,-2.57497290462899,3.65004347770082,0.0492282569990991,0.0252459239804809,0.0483941249080214,-1.33704718368972,-0.996210839211631,-4.55981701537701,0.0607339420114186,-0.00725847443384782,-0.00346704244127889,-6.55152200144425,-2.48091508843277,7.32222505251254,0.0609660180893254,0.00764870328577489,-0.000934601442429239,-0.755118079614931,-5.95211168125996,-5.07527254333098,-0.000421722112178081,0.010430421089392,0.00614754810532655
0.045,0.196532544798345,-2.57185384511817,3.64690811022297,0.0421267453246495,0.0197885479954962,0.0377693137638281,-1.33666804033396,-0.995058675229501,-4.55476340930409,0.0531475680571375,-0.00844454492656641,-0.0031693698231006,-6.54520128072363,-2.47845840675109,7.3139960477265,0.0533571215915337,0.00665584913790305,-0.00324652642937014,-0.755379764554391,-5.94543592931247,-5.06928253323292,-0.000972511903639421,0.00919129248902519,0.00627638250621942
0.05,0.195816583422868,-2.56873478560735,3.64377274274511,0.0353313435382699,0.0147589121512646,0.0277326013108143,-1.33628889697843,-0.993906511247367,-4.54970980323118,0.045808005782878,-0.00960010735899277,-0.00285821964195572,-6.53888056000301,-2.47600172506941,7.30576704294047,0.0459920943431004,0.00571971581538802,-0.00548479521614782,-0.755641449493851,-5.93876017736498,-5.06329252313481,-0.00163561271492327,0.00803937434393827,0.00628028679739329
0.055,0.195100622047335,-2.5656157260965,3.64063737526715,0.0290963692262671,0.0102935908427472,0.0185676321880849,-1.3359097536229,-0.992754347265233,-4.54465619715828,0.0390047273776969,-0.0107050393862113,-0.0025330218233399,-6.53255983928216,-2.47354504338773,7.29753803815444,0.0391588474119624,0.0048904962663018,-0.00759159795538432,-0.755903134433311,-5.93208442541749,-5.05730251303672,-0.00239833928953906,0.00702318002517914,0.00613658732650001
0.06,0.194384660671858,-2.56249666658567,3.63750200778929,0.0235711446311161,0.00645348992913484,0.0104636595660553,-1.33553061026737,-0.991602183283099,-4.53960259108536,0.0329035491723833,-0.011744363094142,-0.0021944737585713,-6.52623911856131,-2.47108836170599,7.28930903336839,0.0330228632867411,0.00419566015775151,-0.00952627083092045,-0.756164819372543,-5.92540867347,-5.0513125029386,-0.00323486375261233,0.00617819454815341,0.00583196996368168
0.065,0.193668699296438,-2.55937760707482,3.63436664031144,0.0188212332560103,0.00324653030851338,0.00353138976576623,-1.33515146691161,-0.990450019300969,-4.53454898501245,0.027573293957787,-0.0127071264611376,-0.00184523580415004,-6.51991839784068,-2.46863168002437,7.28108002858236,0.0276536064331508,0.00364394802630531,-0.0112632220737047,-0.756426504312003,-5.91873292152251,-5.04532249284051,-0.00411324497105623,0.00552825826483891,0.00536688645749622
0.07,0.192952737920962,-2.556258547564,3.63123127283347,0.0148494232265357,0.000646833945648043,-0.00218665271993688,-1.33477232355608,-0.989297855318835,-4.52949537893954,0.0230141824573152,-0.0135904239867698,-0.00149129764914289,-6.51359767712006,-2.46617499834264,7.27285102379632,0.023052693579451,0.00322920951279287,-0.0127960734907639,-0.756688189251463,-5.91205716957501,-5.03933248274242,-0.00500269428629138,0.00508543690426071,0.00476183151865312
0.075,0.192236776545485,-2.55313948805318,3.62809590535562,0.0116141169353807,-0.00138579483057334,-0.00670728982377534,-1.33439318020032,-0.988145691336701,-4.52444177286662,0.0191814320476277,-0.0143975612484642,-0.00114157773790485,-6.50727695639921,-2.46371831666102,7.26462201901029,0.019177109130414,0.0029348464890924,-0.0141347839749068,-0.756949874190923,-5.90538141762753,-5.03334247264431,-0.00587917953486022,0.00484560032553636,0.00405568130268832
0.08,0.191520815170009,-2.5500204285423,3.62496053787766,0.00904615828532335,-0.00290129538015529,-0.0100925636326103,-1.33401403684502,-0.986993527354567,-4.51938816679372,0.0160040285023766,-0.0151310905164264,-0.000805851681726539,-6.50095623567859,-2.46126163497928,7.25639301422425,0.0159577962118971,0.00273881965613659,-0.015292835534354,-0.757211559130383,-5.89870566568004,-5.02735246254625,-0.0067170373468082,0.00478764351479103,0.00329567554351948
0.085,0.190804853794532,-2.5469013690315,3.62182517039969,0.00706317302709033,-0.00396990283442922,-0.012431016504352,-1.33363489348926,-0.985841363372437,-4.51433456072081,0.0133989262104216,-0.0157857638332655,-0.000492659097475152,-6.49463551495796,-2.45880495329766,7.24816400943822,0.0133139243831547,0.00261787500155492,-0.0162724789572278,-0.757473244069843,-5.89202991373255,-5.02136245244813,-0.00747188207098603,0.00487971565356001,0.0025242574046085
0.09,0.190088892419112,-2.54378230952062,3.61868980292184,0.00557972063688893,-0.004686465518528,-0.0138254689132625,-1.33325575013373,-0.984689199390303,-4.50928095464791,0.0112813910264561,-0.01635039873634,-0.000208379509252735,-6.48831479423711,-2.45634827161592,7.23993500465218,0.0111630446252515,0.00255034135474187,-0.0170651119738868,-0.757734929009303,-5.88535416178505,-5.01537244235004,-0.0080821284301673,0.00508848044528389,0.00177122074999468
0.095,0.189372931043636,-2.54066325000983,3.61555443544398,0.00451296194136723,-0.0051519436123985,-0.0143927728051733,-1.33287660677797,-0.983537035408169,-4.50422734857499,0.00957177813335216,-0.0168191446774173,4.28456485876637e-05,-6.48199407351649,-2.45389158993424,7.23170599986614,0.00942726586658385,0.00251789071455609,-0.0176683073490282,-0.757996613948535,-5.87867840983757,-5.00938243225195,-0.0084974237039627,0.00538493116476559,0.00105410640955074
0.1,0.188656969668159,-2.53754419049898,3.61241906796602,0.00378349625059746,-0.00544251077789124,-0.014264807653066,-1.33249746342267,-0.982384871426035,-4.49917374250208,0.00819639628236744,-0.0171958687494428,0.000258645010294879,-6.47567335279564,-2.45143490825257,7.22347699508011,0.00803371934668442,0.00250540703507969,-0.0180954584172935,-0.758258298887995,-5.87200265789008,-5.00339242215384,-0.00870391898613681,0.00574185915944061,0.000382623085125163
0.105,0.187941008292682,-2.53442513098813,3.60928370048816,0.00331523052305633,-0.00560103466031809,-0.0135803898935483,-1.33211832006691,-0.981232707443905,-4.49412013642916,0.00708658805543425,-0.0174856705354132,0.000437396110344752,-6.46935263207502,-2.44897822657094,7.21524799029407,0.00691391385847595,0.00249942232069991,-0.0183659276733844,-0.758519983827227,-5.86532690594259,-4.99740241205575,-0.0087175259399068,0.00612987587059315,-0.000238167229174024
0.11,0.187225046917206,-2.5313060714773,3.60614833301031,0.0030390518232933,-0.00565754510557724,-0.0124738376254597,-1.33173917671138,-0.980080543461771,-4.48906653035624,0.0061824670645384,-0.0176877718085297,0.000577774757844984,-6.46303191135416,-2.44652154488921,7.20701898550803,0.00600794202356047,0.00248801894329763,-0.0184926737841385,-0.758781668766687,-5.8586511539951,-4.99141240195763,-0.00855932876413758,0.00652033442251458,-0.000807583155345394
0.115,0.186509085541729,-2.52818701196648,3.60301296553234,0.0028965382663371,-0.00564421630690475,-0.0110671755449734,-1.33136003335562,-0.978928379479637,-4.48401292428333,0.00543570335493768,-0.0177969610355788,0.000679372238313611,-6.45671119063354,-2.44406486320753,7.198789980722,0.0052673624569144,0.00246200790399865,-0.0184810649382666,-0.759043353706147,-5.85197540204761,-4.98542239185957,-0.00824448261092184,0.00688992819127557,-0.00132896548980407
0.12,0.185793124166253,-2.52506795245563,3.59987759805449,0.00283970501282388,-0.00559113053814156,-0.00946583961659746,-1.33098089000009,-0.977776215497503,-4.47895931821043,0.00480687983367674,-0.0178077610962429,0.000743178293073785,-6.45039046991292,-2.44160818152585,7.19056097593596,0.00465246692043189,0.00241512989233233,-0.018333807897682,-0.759305038645607,-5.84529965010012,-4.97943238176148,-0.00778698240520656,0.00722126065837686,-0.00180761617911911
0.125,0.185077162790833,-2.52194889294481,3.59674223057664,0.00282976254528399,-0.00551913685782436,-0.00775863358171884,-1.33060174664456,-0.976624051515373,-4.47390571213751,0.00426351086787421,-0.0177170913194064,0.0007713272502806,-6.44406974919207,-2.43915149984417,7.18233197114992,0.0041303390308482,0.00234358013712088,-0.0180541960090557,-0.75956672358484,-5.83862389815263,-4.97344237166337,-0.00720434926480136,0.00750139396805533,-0.00224859113924685
0.13,0.184361201415356,-2.51882983343395,3.59360686309867,0.00283701039675526,-0.00543800232229084,-0.00602086743074874,-1.33022260328903,-0.975471887533239,-4.4688521060646,0.00378100085488577,-0.0175250984512739,0.000766812765123357,-6.43774902847144,-2.43669481816244,7.17410296636389,0.00367589553251509,0.00224594420957017,-0.0176464712268869,-0.759828408524299,-5.83194814620514,-4.96745236156528,-0.00651726220777113,0.00772035499740174,-0.00265521440770144
0.135,0.183645240039823,-2.51571077392313,3.5904714956207,0.00284071331699984,-0.00534854267807282,-0.00431661773745141,-1.32984345993327,-0.974319723551101,-4.4637984999917,0.00334308863501459,-0.0172348277475165,0.000733592393243126,-6.43142830775059,-2.43423813648081,7.16587396157786,0.00327233021266391,0.00212337214778172,-0.0171151677182106,-0.760090093463759,-5.82527239425765,-4.96146235146716,-0.00574792092984057,0.00787004923417026,-0.00302832825358028
0.14,0.182929278664403,-2.51259171441228,3.58733612814274,0.00282815848465896,-0.00524694211642366,-0.00269918790546796,-1.32946431657774,-0.973167559568967,-4.45874489391878,0.00294071485292754,-0.0168516979502933,0.000676619224185067,-6.42510758702974,-2.43178145479914,7.15764495679182,0.00290996967528439,0.00197938876413232,-0.0164647967256857,-0.760351778403219,-5.81859664231016,-4.95547234136907,-0.00491904766383302,0.00794386622304393,-0.00336627051168108
0.145,0.182213317288927,-2.50947265490143,3.58420076066488,0.00279283700834048,-0.00512814103223568,-0.00121129299830737,-1.32908517322198,-0.972015395586837,-4.45369128784587,0.00257010514672891,-0.0163834588062329,0.000601290809116457,-6.41878686630912,-2.42932477311746,7.14941595200578,0.00258439934713924,0.00181900990031963,-0.0157007515939151,-0.760613463342679,-5.81192089036267,-4.94948233127099,-0.00405392087378115,0.00793679889549662,-0.00366552137344186
0.15,0.18149735591345,-2.50635359539061,3.58106539318703,0.00273201965464044,-0.00498696723567883,0.000114874114074753,-1.32870602986668,-0.970863231604707,-4.44863768177296,0.00223019149480522,-0.0158403439523632,0.000512593144963013,-6.4124661455885,-2.42686809143578,7.14118694721975,0.00229391593614689,0.00164744474874784,-0.0148312710883577,-0.760875148282139,-5.80524513841518,-4.94349232117287,-0.00317738376373835,0.00784584031656703,-0.0039218790520131
0.155,0.18078139453803,-2.50323453587978,3.57793002570907,0.00264472011760702,-0.00481847498426204,0.00125835604775102,-1.32832688651115,-0.969711067622573,-4.44358407570004,0.00191970580836244,-0.0152351910795339,0.000414829528525847,-6.40614542486787,-2.4244114097541,7.13295794243371,0.00203655134683003,0.00146931020150282,-0.0138693723622448,-0.761136833221599,-5.79856938646769,-4.93750231107481,-0.00231666097231162,0.00767056965821087,-0.00413168701936751
0.16,0.180065433162497,-2.50011547636893,3.57479465823121,0.00253150823764121,-0.0046197474077447,0.00220864761973145,-1.32794774315539,-0.968558903640439,-4.43853046962714,0.00163663359361197,-0.0145829950663246,0.000312147877566775,-6.39982470414702,-2.42195472807236,7.12472893764767,0.00180941422386362,0.00128902919387952,-0.012832642749617,-0.761398518161059,-5.7918936345202,-4.93151230097669,-0.0014996014682482,0.00741291170477102,-0.00429228865321624
0.165,0.17934947178702,-2.49699641685808,3.57165929075336,0.00239715460765999,-0.00439496081035483,0.00295856833505876,-1.32756859979986,-0.967406739658305,-4.43347686355423,0.00138400230773261,-0.01389762012762,0.000209087258378332,-6.3935039834264,-2.41949804639069,7.11649993286164,0.00161446002475052,0.00111225888638156,-0.0117377823860321,-0.761660203100291,-5.78521788257271,-4.9255222908786,-0.000747603903685295,0.00707416232263142,-0.00440095003829033
0.17,0.178633510411601,-2.49387735734726,3.56852392327539,0.00225356513701291,-0.0041615938709895,0.00349589233566451,-1.32718945644433,-0.966254575676171,-4.42842325748131,0.00117714953778752,-0.013187697329638,0.0001105952556022,-6.38718326270555,-2.41704136470906,7.1082709280756,0.0014658262578097,0.000947030775528372,-0.0105941189964405,-0.761921888039751,-5.77854213062522,-4.91953228078052,-6.77324131635841e-05,0.00665172835105343,-0.00445352731435724
0.175,0.177917549036124,-2.49075829783641,3.56538855579754,0.00211759760020702,-0.00395264748366803,0.00380866718508815,-1.3268103130888,-0.965102411694037,-4.42336965140841,0.00103943644382913,-0.0124591008131989,2.14590481304939e-05,-6.38086254198481,-2.41458468302733,7.10004192328957,0.00138561343404481,0.000802538803143406,-0.00940744371433937,-0.762183572978984,-5.77186637867774,-4.9135422706824,0.00054475035050819,0.00614220802565987,-0.00444590680668557
0.18,0.177201587660647,-2.48763923832558,3.56225318831969,0.00200441779239237,-0.0038134236990311,0.0039002533501198,-1.32643116973304,-0.963950247711903,-4.4183160453355,0.000988400614939206,-0.0117209351554873,-5.45273965284342e-05,-6.37454182126407,-2.41212800134571,7.09181291850353,0.00139006387865334,0.000686100796759072,-0.00819035301455912,-0.762445257918444,-5.76519062673025,-4.90755226058431,0.00109479069780257,0.00554795403811068,-0.0043766389584504
0.185,0.176485626285114,-2.48452017881473,3.55911782084172,0.00192225644197775,-0.00379243923402348,0.00379508246715299,-1.32605202637751,-0.962798083729769,-4.41326243926258,0.00102677904009841,-0.0109844070279134,-0.00011507761391418,-6.36822110054345,-2.40967131966397,7.0835839137175,0.00148064460624821,0.000600975008023398,-0.00696312066981368,-0.762706942858017,-5.75851487478275,-4.90156225048622,0.00158036592560082,0.00487724290011464,-0.00424660646977286
0.19,0.175769664909694,-2.48140111930391,3.55598245336375,0.0018690484735622,-0.00392460039544264,0.00354035677555023,-1.32567288302175,-0.961645919747639,-4.40820883318968,0.00113695693722116,-0.010261481868556,-0.000159620440867271,-6.36190037982283,-2.40721463798235,7.07535490893146,0.00163884189161117,0.000545095396798749,-0.00575008976366554,-0.762968627797363,-5.75183912283526,-4.89557224038813,0.00199238718638814,0.00414264176988061,-0.00405991448330712
0.195,0.175053703534218,-2.47828205979309,3.5528470858859,0.00182992325649688,-0.00421521768007006,0.0032138432280891,-1.32529373966645,-0.960493755765508,-4.40315522711677,0.0012738793603593,-0.00957168842009628,-0.000189204451545765,-6.35557965910198,-2.40475795630061,7.06712590414542,0.0018195315378036,0.000510213758117074,-0.00458326544028122,-0.763230312736709,-5.74516337088777,-4.88958223029005,0.00231531254586287,0.0033649826604639,-0.00382870271202961
0.2,0.174337742158741,-2.47516300028224,3.54971171840793,0.00177966023865668,-0.00464080443965907,0.00291957600973694,-1.32491459631069,-0.959341591783375,-4.39810162104385,0.00136897835586597,-0.00894318219264387,-0.000205707024367393,-6.34925893838124,-2.40230127461899,7.05889689935938,0.00195483287782696,0.000483432225984485,-0.00350195806391242,-0.763491997676169,-5.73848761894028,-4.88359222019193,0.00252915424634374,0.00257334593225724,-0.00357271569922324
0.205,0.173621780783321,-2.47204394077141,3.54657635093008,0.00169125223342192,-0.00516568557834794,0.00276384758036424,-1.32453545295516,-0.958189427801237,-4.39304801497094,0.00134992251463393,-0.00840356807615415,-0.000210832632537224,-6.3429382176605,-2.39984459293726,7.05066789457335,0.00197331663002163,0.00045131187697581,-0.00254303561957341,-0.763753682615516,-5.73181186699279,-4.87760221009384,0.0026165935566276,0.00179760122121807,-0.00331223523613184
0.21,0.172905819407845,-2.46892488126056,3.54344098345223,0.00154353603110365,-0.00575610289082107,0.0028347990628246,-1.3241563095994,-0.957037263819103,-4.38799440889804,0.0011582803156622,-0.00797425810086694,-0.000205747871534844,-6.33661749693988,-2.39738791125558,7.04243888978731,0.00181731578680773,0.000403153112812433,-0.00173457002014758,-0.764015367554975,-5.7251361150453,-4.87161219999572,0.00257032254151028,0.001063884012298,-0.00306368588989645
0.215,0.172189858032311,-2.46580582174974,3.54030561597426,0.00132145931829776,-0.00638154773919421,0.00320003767623578,-1.3237771662441,-0.955885099836973,-4.38294080282512,0.000751019580570153,-0.00766955461868459,-0.000191349329361624,-6.33029677621914,-2.3949312295739,7.03420988500128,0.00144439999890372,0.000330963605489671,-0.00109534941625073,-0.764277052494435,-5.71846036309781,-4.86562218989764,0.00239224259447883,0.000394169444197765,-0.00283844970663567
0.22,0.171473896656892,-2.46268676223889,3.53717024849641,0.00101179038249791,-0.00700950206645186,0.00391285027121697,-1.32339802288834,-0.954732935854839,-4.3778871967522,9.29037711363347e-05,-0.00749471502942242,-0.000168726406564592,-6.32397605549829,-2.39247454789222,7.02598088021524,0.00081983078072765,0.000227540203874699,-0.000634522578139817,-0.764538737433895,-5.71178461115032,-4.85963217979955,0.00208680576562668,-0.000194649988059566,-0.0026411089761044
0.225,0.170757935281415,-2.45956770272804,3.53403488101856,0.000602036150119018,-0.00760396514853652,0.00501401782984568,-1.32301887953281,-0.953580771872709,-4.37283359067929,-0.000845454930960734,-0.00744612098573515,-0.000139370071059304,-6.31765533477767,-2.39001786621048,7.0177518754292,-8.53452495805314e-05,8.59185393378077e-05,-0.000352131412574716,-0.764800422373241,-5.70510885920284,-4.85364216970146,0.00165876848416425,-0.000690851941921538,-0.00246935052537578
0.23,0.170041973905938,-2.45644864321721,3.53089951354059,8.55709101707136e-05,-0.0081319167796694,0.00652579753576327,-1.32263973617705,-0.952428607890575,-4.36777998460639,-0.00207892291969126,-0.00751665030294206,-0.000104844504200911,-6.31133461405693,-2.38756118452886,7.00952287064316,-0.00128561444909194,-9.84849491152427e-05,-0.000242469825325311,-0.765062107312588,-5.69843310725534,-4.84765215960337,0.00111931633739659,-0.00108558405804155,-0.00231797430702786
0.235,0.169326012530519,-2.45332958370636,3.52776414606274,-0.000532309542081507,-0.00857063214465557,0.00844406957506752,-1.32226059282152,-0.951276443908441,-4.36272637853347,-0.00359736002323208,-0.00770144739033808,-6.63873321445529e-05,-6.30501389333619,-2.38510450284713,7.00129386585713,-0.00277052752940819,-0.000325313217318504,-0.000297653915461732,-0.765323792252047,-5.69175735530785,-4.84166214950525,0.00049341152907058,-0.00137025272910437,-0.00218379042043619
0.24,0.168610051154985,-2.45021052419554,3.52462877858477,-0.00123465456161957,-0.00890470716541578,0.0107360817454532,-1.32188144946599,-0.950124279926307,-4.35767277246056,-0.00536491364273329,-0.00799696069845899,-2.52974257698215e-05,-6.29869317261546,-2.38264782116551,6.9930648610711,-0.00450398278963681,-0.000589568139100962,-0.000507100483869787,-0.765585477191394,-5.68508160336036,-4.83567213940717,-0.000180984692978925,-0.00153630002221418,-0.00206586046740578
0.245,0.167894089779509,-2.44709146468469,3.5214934111068,-0.00199787243311175,-0.00911527791259307,0.0133422069197845,-1.32150230611046,-0.948972115944173,-4.35261916638765,-0.00732655491890733,-0.00839470247150479,1.60580356458657e-05,-6.29237245189483,-2.38019113948377,6.98483585628506,-0.00643069113354726,-0.000884075572042841,-0.000853316421720235,-0.765847162130854,-5.67840585141287,-4.82968212930908,-0.000859852898584325,-0.00157711322204068,-0.00196159672702536
0.25,0.167178128404089,-2.44397240517387,3.51835804362895,-0.00279405273875958,-0.00917348824938908,0.0161745612642744,-1.3211231627547,-0.947819951962042,-4.34756556031473,-0.00941023068353587,-0.00887706430535799,5.3631199985464e-05,-6.2860517311741,-2.37773445780215,6.97660685149903,-0.00847825620974461,-0.00120066811077909,-0.00130827421183303,-0.766108847070313,-5.67173009946538,-4.82369211921096,-0.00149694069553888,-0.00148971479578745,-0.00186403686229799
0.255,0.166462167028612,-2.44085334566304,3.51522267615098,-0.00359050581708986,-0.00904419139200673,0.0191169275469836,-1.32074401939917,-0.946667787979909,-4.34251195424183,-0.0115265044792356,-0.00941848194553814,8.20061875963109e-05,-6.27973101045325,-2.37527777612041,6.96837784671299,-0.0105568573263346,-0.0015297482610381,-0.0018344076556637,-0.766370532009773,-5.66505434751789,-4.81770210911287,-0.0020447237955383,-0.00127557546549394,-0.00176339355355303
0.26,0.165746205653136,-2.43773428615219,3.51208730867313,-0.00435264237018275,-0.00870125749295573,0.0220402817027761,-1.32036487604341,-0.945515623997775,-4.33745834816892,-0.0135788775034504,-0.00999221278010729,9.56381669776759e-05,-6.27341028973262,-2.37282109443879,6.96014884192695,-0.0125697986661998,-0.00186061064581703,-0.00239376801156414,-0.76663221694912,-5.6583785955704,-4.81171209901478,-0.00246068607008833,-0.000941396646533931,-0.00165401559421477
0.265,0.165030244277602,-2.43461522664137,3.50895194119528,-0.00504863863357138,-0.00814473180728387,0.0248234533353209,-1.31998573268811,-0.944363460015641,-4.332404742096,-0.0154786308686964,-0.0105777101920047,9.04382797672388e-05,-6.26708956901189,-2.37036441275711,6.95191983714092,-0.0144286628446591,-0.00218221942301617,-0.00295887388798265,-0.766893901888466,-5.65170284362291,-4.8057220889167,-0.00271641572826928,-0.000500042947800204,-0.00154222968873561
0.27,0.164314282902183,-2.43149616713052,3.50581657371731,-0.0056467472059976,-0.00740021563570525,0.0273451839447275,-1.31960658933235,-0.943211296033507,-4.3273511360231,-0.0171394282224946,-0.0111587797184541,6.46908360848879e-05,-6.26076884829126,-2.36790773107538,6.94369083235488,-0.0160480992798339,-0.00248140932324686,-0.00350987088856587,-0.767155586827926,-5.64502709167542,-4.79973207881861,-0.00279659836141123,2.87110939079345e-05,-0.00144536112459487
0.275,0.163598321526706,-2.4283771076197,3.50268120623946,-0.00610831352158807,-0.00650381155387095,0.0294595013829978,-1.31922744597682,-0.942059132051376,-4.32229752995019,-0.0184594084794724,-0.0117160466405337,1.88769140479209e-05,-6.25444812757041,-2.36545104939376,6.93546182756884,-0.0173278229394044,-0.0027401514831767,-0.00402242206015849,-0.767417271767272,-5.63835133972793,-4.79374206872049,-0.00268964238557233,0.000618926088310023,-0.00138279145368456
0.28,0.162882360151286,-2.42525804810887,3.49954583876161,-0.00639182383703489,-0.0054963278379923,0.0310097885221466,-1.31884830262106,-0.940906968069243,-4.31724392387729,-0.0193302775988391,-0.0122291895606478,-4.55392764540017e-05,-6.24812740684979,-2.36299436771202,6.92723282278281,-0.0181612267539082,-0.00293826629579831,-0.00446909679683827,-0.767678956706732,-5.63167558778044,-4.7877520586224,-0.00238638447965715,0.00124323803695415,-0.00136966369232975
0.285,0.16216639877581,-2.42213898859799,3.49641047128375,-0.00646487428774012,-0.00442928535495051,0.0318708351751735,-1.31846915926576,-0.939754804087109,-4.31219031780437,-0.0196666437766403,-0.01268644243368,-0.000127241803981114,-6.24180668612905,-2.3605376860304,6.91900381799677,-0.0184642314105096,-0.00305940152516732,-0.00483216550633708,-0.767940641646192,-5.62499983583296,-4.78176204852429,-0.00188744733791168,0.0018786376449126,-0.00141589735601877
0.29,0.161450437400276,-2.4190199290872,3.49327510380579,-0.00630673699977058,-0.00336478714074347,0.031957108322661,-1.31809001591,-0.938602640104975,-4.30713671173146,-0.0194127793840524,-0.0130845232056635,-0.000224565494636273,-6.2354859654082,-2.35808100434866,6.91077481321074,-0.0181821537801931,-0.00309179017063457,-0.00510498244914322,-0.768202326585651,-5.61832408388547,-4.7757720384262,-0.00120584763711314,0.00250637794144318,-0.00152575704001983
0.295,0.160734476024857,-2.41590086957635,3.49013973632782,-0.0059080917721591,-0.00236343883257126,0.0312172218673991,-1.31771087255447,-0.937450476122844,-4.30208310565854,-0.0185410471918254,-0.0134221229475014,-0.000334909944447122,-6.22916524468758,-2.35562432266698,6.9025458084247,-0.0172883190488173,-0.00302771683361753,-0.00528558575693791,-0.768464011524998,-5.61164833193797,-4.76978202832814,-0.000366100499699007,0.00310949697482027,-0.00169642126441224
0.3,0.16001851464938,-2.41278181006552,3.48700436884985,-0.00527830227087002,-0.0014733567579058,0.0296526577996954,-1.31733172919871,-0.93629831214071,-4.29702949958563,-0.0170673595439792,-0.0136987499031108,-0.000455591144451672,-6.22284452396684,-2.3531676409853,6.89431680363866,-0.0157992315879865,-0.00286723964137133,-0.00537708354683412,-0.768725696464458,-5.60497257999048,-4.76379201823002,0.000593177167947975,0.00367351848281682,-0.00191697736267758
0.305,0.159302553273903,-2.40966275055467,3.483869001372,-0.004445289311055,-0.000730126200208847,0.0273180981580661,-1.31695258584318,-0.935146148158573,-4.29197589351273,-0.0150509675598965,-0.0139145151950484,-0.000583928128549108,-6.21652380324622,-2.35071095930363,6.88608779885263,-0.0137742892062612,-0.00261827803713354,-0.00538682600781016,-0.768987381403804,-5.59829682804299,-4.75780200813193,0.00162030006693404,0.00418568083511387,-0.00216904314054061
0.31,0.158586591898427,-2.40654369104382,3.48073363389415,-0.00344718646852252,-0.000158490453152956,0.024303624266787,-1.31657344248765,-0.933993984176439,-4.28692228743981,-0.0125777331584387,-0.0140707310743632,-0.00071653778281392,-6.21020308252537,-2.34825427762195,6.87785879406659,-0.0112991579172768,-0.00229287389644882,-0.00532359559991803,-0.76924906634315,-5.59162107609551,-4.75181199803382,0.00265891647012984,0.00463439390914605,-0.00243006433298269
0.315,0.157870630523007,-2.403424631533,3.47759826641618,-0.00233162032374095,0.000231483785533963,0.0207413297219713,-1.31619429913212,-0.932841820194309,-4.28186868136689,-0.00976075179052491,-0.0141744819506082,-0.000849992093704701,-6.20388236180474,-2.34579759594027,6.86962978928056,-0.0084861391345565,-0.0019077501538635,-0.00520122900596516,-0.76951075128261,-5.58494532414801,-4.74582198793573,0.00365414641955996,0.00501278697294849,-0.00267736604657579
0.32,0.157154669147474,-2.40030557202218,3.47446289893833,-0.00115589703362283,0.000445307007924104,0.0168032634749064,-1.31581515577636,-0.931689656212178,-4.27681507529398,-0.00673922578371321,-0.0142373123995955,-0.000981440752676153,-6.19756164108401,-2.34334091425859,6.86140078449452,-0.00547311442744315,-0.0014848000720405,-0.0050390125483869,-0.76977243622207,-5.57826957220052,-4.73983197783764,0.0045526454675687,0.0053187219074607,-0.00288962273503716
0.325,0.156438707771997,-2.39718651251133,3.47132753146047,1.99209657730627e-05,0.000504402544196087,0.0126748074848418,-1.31543601242083,-0.930537492230044,-4.27176146922108,-0.0036607134412306,-0.0142709787430419,-0.00110806438743667,-6.19124092036316,-2.34088423257691,6.85317177970848,-0.00240621413347978,-0.00104752939791638,-0.00485711461212013,-0.770034121161416,-5.57159382025304,-4.73384196773952,0.00530355584833406,0.00555339058055991,-0.00304880715236008
0.33,0.155722746396577,-2.3940674530005,3.46819216398251,0.00113845465471531,0.000450994068505961,0.00854250113070674,-1.31505686906553,-0.929385328247911,-4.26670786314816,-0.000670139414900837,-0.0142905944478049,-0.00122690323809877,-6.18492019964253,-2.33842755089523,6.84494277492245,0.000571190528815305,-0.00061872721888313,-0.00467728915855249,-0.770295806100876,-5.56491806830554,-4.72785195764146,0.00586313317171873,0.00572542038133026,-0.00314484825299483
0.335,0.155006785021101,-2.39094839348965,3.46505679650465,0.00214775474510163,0.000341036840542372,0.00458795754261707,-1.31467772570977,-0.928233164265777,-4.26165425707525,0.00209644318837619,-0.0143144329276723,-0.00133503341261525,-6.1785994789218,-2.33597086921355,6.83671377013641,0.0033246844879295,-0.000219499869142899,-0.00452222484811668,-0.770557491040336,-5.55824231635806,-4.72186194754335,0.00619824657494624,0.00584990457762974,-0.00317634800714792
0.34,0.154290823645624,-2.38782933397883,3.4619214290268,0.00300581711180223,0.000221388842763357,0.000967609465423542,-1.31429858235424,-0.927081000283643,-4.25660065100234,0.00452552274959925,-0.0143544728664667,-0.00142925428752181,-6.17227875820117,-2.33351418753182,6.82848476535037,0.0057419009070231,0.000133085649401866,-0.00440829232989395,-0.770819175979682,-5.55156656441056,-4.71587193744526,0.00628732221980634,0.00593832197101384,-0.00314560741212353
0.345,0.153574862270148,-2.38471027446798,3.45878606154884,0.00368487193852878,0.000112149524762516,-0.0022029441900712,-1.31391943899848,-0.925928836301509,-4.25154704492942,0.00653768464179371,-0.0144108053359774,-0.00150581447754443,-6.16595803748044,-2.3310575058502,6.82025576056434,0.00774361245768659,0.000428121468691134,-0.00434168391443631,-0.771080860919028,-5.54489081246307,-4.70988192734717,0.00612203948126942,0.00599265415554332,-0.00305518687512145
0.35,0.152858900894671,-2.38159121495715,3.45565069407087,0.00417293018340795,7.34964886188103e-06,-0.00485057595960883,-1.31354029564295,-0.924776672319378,-4.24649343885652,0.00809024437844637,-0.0144759316015751,-0.00156065460868513,-6.15963731675959,-2.32860082416846,6.8120267557783,0.00928646667914581,0.000661320834179358,-0.00432185563969528,-0.771342545858488,-5.53821506051558,-4.70389191724905,0.00570894705350896,0.00600969721636207,-0.002908805955355
0.355,0.152142939519194,-2.3784721554463,3.45251532659302,0.00447206394441589,-0.000103079219015113,-0.00694268938261333,-1.31316115228742,-0.923624508337245,-4.24143983278361,0.00917366703669799,-0.0145442518945486,-0.00159026104621851,-6.15331659603896,-2.32614414248684,6.80379775099227,0.0103599727411326,0.000833997843951893,-0.00434800299575072,-0.771604230797948,-5.53153930856809,-4.69790190715096,0.00506645229481018,0.00599218058209154,-0.00271395706941103
0.36,0.151426978143775,-2.37535309593548,3.44937995911505,0.00459493175737785,-0.000205880277899989,-0.00848503827657634,-1.31278200893189,-0.922472344355111,-4.23638622671071,0.00980544438950694,-0.0146195494621146,-0.00159260837670776,-6.14699587531823,-2.3236874608051,6.79556874620623,0.0109809727007581,0.000951398810882441,-0.00442379181225469,-0.771865915737294,-5.52486355662061,-4.69191189705285,0.00421982579635935,0.00595859647830268,-0.00248376614595361
0.365,0.150711016768298,-2.37223403642463,3.4462445916372,0.00456264034606202,-0.000265214954184264,-0.00951448486572597,-1.31240286557613,-0.921320180372977,-4.23133262063779,0.0100249119377553,-0.0147123418661957,-0.00156703468141442,-6.14067515459749,-2.32123077912348,6.78733974142019,0.0111885220670007,0.00102176328657916,-0.0045546076464286,-0.772127600676754,-5.51818780467311,-4.68592188695479,0.00320257147293683,0.00593949054220035,-0.00223606793032456
0.37,0.149995055392765,-2.36911497691378,3.44310922415923,0.00440280065841639,-0.000249721342298063,-0.0100851359227993,-1.3120237222206,-0.920168016390843,-4.22627901456488,0.00988718218126893,-0.0148281759896582,-0.00151345444983892,-6.13435443387675,-2.31877409744175,6.77911073663416,0.0110374890364373,0.00105543459983021,-0.00473821589241121,-0.772389285616214,-5.51151205272562,-4.6799318768567,0.00206195478062089,0.00596178677900948,-0.0019900253888476
0.375,0.149279094017345,-2.36599591740296,3.43997385668138,0.00414399567550265,-0.000150488660381842,-0.0102512258308995,-1.31164457886484,-0.919015852408712,-4.22122540849197,0.00945138409752263,-0.0149562420876791,-0.00143230069306047,-6.12803371315601,-2.31631741576007,6.77088173184812,0.0105866394670006,0.00106222250565725,-0.00495641820119519,-0.77265097055556,-5.50483630077813,-4.67394186675858,0.000858343656709307,0.00603573143572699,-0.00176285128550688
0.38,0.148563132641868,-2.3628768578921,3.43683848920352,0.00381032758058668,2.09485407127118e-05,-0.0100571839386989,-1.31126543550954,-0.917863688426579,-4.21617180241905,0.00877033227773385,-0.0150675924418578,-0.00132497725134496,-6.12171299243539,-2.31386073407845,6.76265272706209,0.00988838987865261,0.0010489777588424,-0.00517517397730873,-0.772912655494906,-5.49816054883065,-4.66795185666049,-0.000342654574890475,0.00615323889020821,-0.00156801769450166
0.385,0.147847171266392,-2.35975779838128,3.43370312172567,0.0034241770431685,0.000243703694846085,-0.00954969060842031,-1.31088629215378,-0.916711524444445,-4.21111819634615,0.00789670435666762,-0.0151310692967,-0.00119406093745735,-6.11539227171454,-2.31140405239671,6.75442372227605,0.00899506940884496,0.0010212732287701,-0.00535989625299845,-0.773174340434366,-5.49148479688316,-4.66196184656238,-0.00147998922884981,0.00630046860268456,-0.00141502344179347
0.39,0.147131209890915,-2.35663873887043,3.4305677542477,0.00301349777875087,0.000498840387587561,-0.00880004947154841,-1.31050714879825,-0.915559360462311,-4.20606459027323,0.00689823301979754,-0.0151348898263285,-0.00104333035869969,-6.10907155099392,-2.30894737071503,6.74619471749002,0.00797414746739796,0.0009871840431784,-0.00549518369270645,-0.773436025373826,-5.48480904493567,-4.65597183646429,-0.00250429742172554,0.00647421471956024,-0.00130988850996586
0.395,0.146415248515495,-2.35351967935961,3.42743238676985,0.00261198002405792,0.000770518651459732,-0.00790269826392528,-1.31012800544249,-0.91440719648018,-4.20101098420032,0.00585732982442526,-0.0150848667024416,-0.000877508144343677,-6.10275083027318,-2.30649068903335,6.73796571270398,0.00690784011148065,0.000957402052540831,-0.00558265464951377,-0.773697710313172,-5.47813329298817,-4.64998182636617,-0.00337543230430538,0.00668005427731489,-0.00125502209132634
0.4,0.145699287139962,-2.35040061984878,3.42429701929188,0.00225253913508878,0.00103608786659187,-0.00694986182287305,-1.30974886208719,-0.913255032498046,-4.19595737812742,0.0048554777831762,-0.0149807311323762,-0.000701494646034545,-6.09643010955244,-2.30403400735167,6.72973670791794,0.0058774189465518,0.000942018882645576,-0.00561810663057487,-0.773959395252632,-5.47145754104068,-4.64399181626808,-0.00405122416341763,0.00691325676675636,-0.00124841015361461
0.405,0.144983325764485,-2.34728156033793,3.42116165181392,0.00196225492553306,0.0012610003125831,-0.00601265391401525,-1.30936971873143,-0.912102868515912,-4.19090377205451,0.00396070282002416,-0.014803811111134,-0.00051971705033461,-6.09010938883171,-2.30157732567,6.72150770313191,0.00495066419398837,0.000948284748146613,-0.00557973538815173,-0.774221080192092,-5.4647817890932,-4.63800180617002,-0.00448352685513068,0.00714889502110653,-0.0012838020145806
0.41,0.144267364389066,-2.34416250082711,3.41802628433607,0.00175844573492059,0.00141167996429666,-0.00513715904257277,-1.3089905753759,-0.910950704533779,-4.18585016598159,0.00321921413171653,-0.0145337630160314,-0.000336395168558679,-6.08378866811097,-2.29912064398832,6.71327869834587,0.00417376028033924,0.000979596292535608,-0.00544544036532264,-0.774482765131438,-5.45810603714571,-4.63201179607191,-0.00463622669190006,0.00735636088285823,-0.00135365441468356
0.415,0.143551403013589,-2.34104344131626,3.4148909168581,0.00164462455264594,0.00147515039409794,-0.00434543114132673,-1.30861143202014,-0.909798540551645,-4.18079655990869,0.00264778772163597,-0.0141737707645294,-0.000156129815105572,-6.07746794739035,-2.29666396230664,6.70504969355983,0.00356400774501003,0.00103470008128698,-0.0052188804303599,-0.774744450070784,-5.45143028519822,-4.62602178597382,-0.00451080728321534,0.00752126761784827,-0.00145274498856701
0.42,0.142835441638113,-2.33792438180541,3.41175554938025,0.00161168013847605,0.0014597130136505,-0.00363799923574034,-1.30823228866461,-0.908646376569514,-4.17574295383578,0.0022357646422952,-0.0137497678671225,1.65777177231438e-05,-6.0711472266695,-2.29420728062496,6.6968206887738,0.003111672670826,0.0011084810014636,-0.00492889348362957,-0.775006135010244,-5.44475453325072,-4.6200317758757,-0.00414548999040876,0.00764461878191303,-0.00157739122189597
0.425,0.142119480262636,-2.33480532229461,3.40862018190239,0.00164433709537172,0.00137607468982859,-0.00299786735442721,-1.30785314530908,-0.90749421258738,-4.17068934776286,0.00195695389447488,-0.0132851293698338,0.00017857827413578,-6.06482650594887,-2.29175059894328,6.68859168398776,0.00279132459301656,0.00119416979632886,-0.00460369988132336,-0.775267819949704,-5.43807878130323,-4.61404176577761,-0.00358831600683459,0.0077203003807189,-0.0017205362708526
0.43,0.141403518887159,-2.33168626278373,3.40548481442443,0.00172592256785753,0.00122642659005657,-0.00239614432091886,-1.30747400195355,-0.906342048605246,-4.16563574168995,0.00177928764450288,-0.0127852463594474,0.000328596305002723,-6.05850578522814,-2.28929391726155,6.68036267920173,0.00257120818845584,0.00128489393329381,-0.00425454318131429,-0.77552950488905,-5.43140302935575,-4.60805175567953,-0.00287892412301468,0.00772350478772523,-0.00186961834987712
0.435,0.140687557511683,-2.32856720327294,3.40234944694657,0.0018386975535605,0.0010181987661851,-0.00180245768674167,-1.30709485859791,-0.905189884623113,-4.16058213561705,0.00166771412474149,-0.0122482617305601,0.000466663925111143,-6.0521850645074,-2.28683723557987,6.67213367441569,0.00241649745574804,0.00137416690159658,-0.00388386982239953,-0.77579118982851,-5.42472727740826,-4.60206174558144,-0.00205429485708019,0.0076291194079556,-0.00201229295987866
0.44,0.13997159613632,-2.32544814376212,3.39921407946861,0.00196239385333115,0.000786062816280416,-0.00119681358368433,-1.30671571524238,-0.904037720640979,-4.15552852954411,0.00158443930125344,-0.01168390978449,0.000593141842449645,-6.04586434378666,-2.28438055389819,6.66390466962966,0.00229015632994598,0.00145587442072836,-0.00350075830323316,-0.77605287476797,-5.41805152546077,-4.59607173548335,-0.00116251005051061,0.00743928050872193,-0.00214468564952727
0.445,0.139255634760787,-2.32232908425124,3.39607871199075,0.00207378759793291,0.000592195453529124,-0.00057197847830408,-1.30633657188673,-0.902885556658848,-4.15047492347121,0.00148971072750846,-0.0111142779022404,0.000708016657357762,-6.03954362306592,-2.28192387221657,6.65567566484362,0.00215384962698176,0.00152376613550509,-0.00312162877469102,-0.776314559707316,-5.41137577351327,-4.59008172538526,-0.000264429309635031,0.00718320153772265,-0.00227095720835334
0.45,0.138539673385253,-2.31921002474041,3.3929433445129,0.00214921706273044,0.000503627488462902,7.11882222670729e-05,-1.30595742853109,-0.901733392676714,-4.1454213173983,0.00134618051500985,-0.0105584167775559,0.000810783475551541,-6.0332229023453,-2.27946719053489,6.64744666005758,0.00197181532487605,0.00157140339247098,-0.00275840678293332,-0.776576244646662,-5.40470002156578,-4.58409171528714,0.000578431292596039,0.00689199592334932,-0.00239535171061492
0.455,0.137823712009833,-2.31609096522956,3.38980797703505,0.00217123982017222,0.000569938876303,0.000720499075955692,-1.30557828517556,-0.90058122869458,-4.1403677113254,0.00113050115457561,-0.0100252843750983,0.000900735983192324,-6.02690218162445,-2.27701050885321,6.63921765527155,0.00172201243448467,0.00159424082736063,-0.00241287946718342,-0.776837929586122,-5.3980242696183,-4.57810170518906,0.0013183757874624,0.00658431186095809,-0.00251895818593344
0.46,0.137107750634357,-2.31297190571874,3.38667260955697,0.00213533617791824,0.000813262829156036,0.00134290695373994,-1.30519914181991,-0.899429064712447,-4.13531410525249,0.000845442126733654,-0.00951865323214659,0.000977306000833062,-6.02058146090371,-2.27455382717147,6.63098865048551,0.00140811924689776,0.00159243257025921,-0.0020801048968918,-0.777099614525582,-5.39134851767081,-4.57211169509094,0.00192935694141091,0.00626972512539734,-0.00264235794336886
0.465,0.13639178925888,-2.30985284620789,3.38353724207911,0.00204867260117764,0.0012308712946503,0.00188483804578193,-1.30481999846438,-0.898276900730313,-4.13026049917957,0.000517752570389024,-0.009037232428066,0.00104018512710077,-6.01426074018309,-2.27209714548979,6.62275964569947,0.00105727547363376,0.00157056595836279,-0.00174997907730328,-0.777361299464928,-5.38467276572331,-4.56612168499285,0.00240273083212779,0.00594982386681321,-0.00276491564126612
0.47,0.13567582788346,-2.30673378669707,3.38040187460126,0.00192260486961201,0.00180454569967852,0.00228354138344492,-1.30444085510874,-0.897124736748182,-4.12520689310666,0.000184082406545308,-0.00856956240700383,0.00108924437278479,-6.00794001946235,-2.26964046380812,6.61453064091344,0.000705831848439849,0.001534737362203,-0.00140653213404366,-0.777622984404388,-5.37799701377583,-4.56013167489476,0.00273568943420619,0.00561520772825017,-0.00288128374466627
0.475,0.134959866507984,-2.30361472718624,3.3772665071233,0.00176862715129147,0.00250677336843826,0.00247781607677041,-1.30406171175321,-0.895972572766048,-4.12015328703374,-0.000118563177604892,-0.00809840243283372,0.00112446582142331,-6.00161929874162,-2.26718378212644,6.60630163612741,0.000389889335077215,0.00149093028720201,-0.00103372092697038,-0.777884669343848,-5.37132126182834,-4.55414166479667,0.00292538510538141,0.00525361322248959,-0.0029848444077648
0.48,0.13424390513245,-2.30049566767539,3.37413113964544,0.00159939875052828,0.00330142221466876,0.00241310490835336,-1.30368256839756,-0.894820408783914,-4.11509968096084,-0.000353893351751916,-0.00761241196757998,0.00114603448397251,-5.99529857802088,-2.26472710044476,6.59807263134137,0.000144493390933209,0.00144546772508894,-0.000625110636094963,-0.778146354283308,-5.36464550988084,-4.54815165469859,0.00297030297114931,0.00486516860785164,-0.00307593168708051
0.485,0.133527943757031,-2.29737660816457,3.37099577216759,0.00142959739071671,0.00414210385906672,0.00204125574880797,-1.30330342504203,-0.893668244801781,-4.11004607488792,-0.000485420089315392,-0.00710745140330965,0.00115465511038703,-5.98897785730026,-2.26227041876308,6.58984362655533,4.55822697395145e-06,0.00140555462919673,-0.000184313157676573,-0.778408039222541,-5.35796975793336,-4.54216164460047,0.00287037382328357,0.00446268714925742,-0.00316135311834088
0.49,0.132811982381554,-2.29425754865369,3.36786040468962,0.00127506828083552,0.0049695847528189,0.00131739912238558,-1.30292428168639,-0.892516080819647,-4.10499246881501,-0.000476293939380795,-0.00657635492676045,0.00115193302701115,-5.98265713657952,-2.2598137370814,6.58161462176929,4.77661772955925e-06,0.00137919177486589,0.000284009093408221,-0.778669724162,-5.35129400598586,-4.53617163450238,0.00262379473425323,0.0040562522113733,-0.00324446174719179
0.495,0.132096021006078,-2.2911384891429,3.36472503721177,0.00115048203762808,0.00571540106866554,0.000203815625004004,-1.30254513833074,-0.891363916837516,-4.09993886274209,-0.000293459315893618,-0.00600346904792216,0.00114031833493864,-5.97633641585867,-2.25735705539972,6.57338561698326,0.000175505487383783,0.00137409365491734,0.000779456024067693,-0.77893140910146,-5.34461825403838,-4.53018162440429,0.00222611733600252,0.00364408294913046,-0.00331944960222937
0.5,0.131380059630601,-2.28801942963204,3.3615896697338,0.00106300097609911,0.00632512533590096,-0.00130762828433359,-1.30216599497521,-0.890211752855382,-4.09488525666919,7.6222103600204e-05,-0.00537246953594813,0.00112217179165722,-5.97001569513804,-2.25490037371804,6.56515661219722,0.000527507297091149,0.00139417861225011,0.00130164492686281,-0.779193094040806,-5.33794250209088,-4.52419161430618,0.00167605631316577,0.00322062698747023,-0.00337779039804945
0.505,0.130664098255124,-2.28490037012119,3.35845430225595,0.0010046601285302,0.00678801097522181,-0.0031668642738492,-1.30178685161957,-0.889059588873248,-4.08983165059628,0.000606005972570177,-0.00467852165328937,0.00109848286738542,-5.96369497441731,-2.25244369203637,6.55692760741119,0.00103315395322523,0.001435218496788,0.00184310008384052,-0.779454778980266,-5.3312667501434,-4.51820160420809,0.000983964793551184,0.00279010773291812,-0.00341867699161685
0.51,0.129948136879648,-2.28178131061034,3.3553189347781,0.000952661766850117,0.0071341167578612,-0.00526278125758854,-1.30140770826404,-0.887907424891115,-4.08477804452336,0.00122920626930018,-0.00393002985063539,0.00106851498677187,-5.95737425369668,-2.24998701035469,6.54869860262515,0.00162651350580367,0.00148456157553356,0.00238820132927485,-0.779716463919726,-5.32459099819591,-4.51221159411,0.000173483155547095,0.00236748597771891,-0.00344887828226512
0.515,0.129232175504171,-2.27866225109952,3.35218356730002,0.000877391301536144,0.00739973011311977,-0.00744553579790711,-1.30102856490839,-0.886755260908981,-4.07972443845047,0.00185851112736623,-0.00313998075411811,0.00103040714388126,-5.95105353297583,-2.24753032867301,6.54046959783911,0.00222175468674816,0.00152486188852019,0.0029177960956072,-0.779978148859186,-5.31791524624842,-4.50622158401191,-0.000723895232710248,0.00196712632881711,-0.00347215613923547
0.52,0.128516214128751,-2.2755431915887,3.34904819982216,0.000748404832532256,0.00760051896205299,-0.00954234003830876,-1.30064942155286,-0.885603096926847,-4.07467083237755,0.00240041955952657,-0.00231926741015028,0.000981415556222063,-5.9447328122551,-2.24507364699133,6.53224059305308,0.00272686543147749,0.00153665435447562,0.00341206702070696,-0.780239833798419,-5.31123949430093,-4.50023157391379,-0.00167276002554068,0.00159430345447164,-0.00348107890127617
0.525,0.127800252753275,-2.27242413207784,3.34591283234431,0.000535324789353408,0.00772486304513773,-0.0113567861315674,-1.30027027819722,-0.884450932944716,-4.06961722630463,0.00275721345592942,-0.00147611140050274,0.000917339629566797,-5.93841209153447,-2.24261696530965,6.52401158826704,0.00304552236066866,0.00149812803432949,0.00384932148875105,-0.780501518737879,-5.30456374235343,-4.49424156381571,-0.00263329196314636,0.00124445917079272,-0.00345542188735784
0.53,0.127084291377798,-2.26930507256702,3.34277746486646,0.000209515751000651,0.00773928081577181,-0.0126761290190005,-1.29989113484157,-0.883298768962582,-4.06456362023172,0.00283089630379472,-0.000617855562784557,0.000832820704457972,-5.93209137081362,-2.24016028362797,6.51578258348101,0.00308107050012097,0.00138624359322436,0.00420590509337088,-0.780763203677338,-5.29788799040595,-4.48825155371762,-0.00356162671513233,0.00090529989250531,-0.00336585219369479
0.535,0.126368330002322,-2.2661860130562,3.33964209738849,-0.000247648793650831,0.0076111585451099,-0.0133185788337685,-1.29951199148604,-0.882146604980449,-4.0595100141588,0.00254464557705759,0.000247410574268699,0.000724707061472702,-5.925770650093,-2.23770360194629,6.50755357869497,0.00275768827248522,0.00118410219574708,0.00446240183703476,-0.781024888616685,-5.29121223845846,-4.4822615436195,-0.00441782354180545,0.000560374189923961,-0.00318725792242985
0.54,0.125652368626845,-2.26306695354535,3.33650672991064,-0.000834611885583295,0.00733828050892792,-0.0131948622126734,-1.2991328481304,-0.880994440998315,-4.0544564080859,0.00187023394076605,0.00111041704162286,0.000596255235234957,-5.91944992937226,-2.23524692026461,6.49932457390894,0.00204723481806062,0.000890172921677916,0.0046109072457278,-0.781286573556145,-5.28453648651097,-4.47627153352141,-0.00517676927845469,0.000193779253625481,-0.00291582671408321
0.545,0.124936407251369,-2.25994789403453,3.33337136243267,-0.00153017558715704,0.00695056432628015,-0.0123123044784962,-1.29875370477487,-0.879842277016184,-4.04940280201299,0.000828644513873798,0.00196085256490417,0.000456910844765875,-5.91312920865153,-2.23279023858294,6.4910955691229,0.000969780140047448,0.000518172387269222,0.00465393273691084,-0.781548258495604,-5.27786073456348,-4.47028152342332,-0.00582917413326716,-0.000206530023144811,-0.00257080280724647
0.55,0.124220445875949,-2.25682883452367,3.33023599495482,-0.00230531933905233,0.00648367016587856,-0.0107346484455156,-1.29837456141922,-0.87869011303405,-4.04434919594007,-0.000533945620384581,0.00278849973378495,0.00031849648527395,-5.90680848793079,-2.2303335569012,6.48286656433686,-0.000429798554661126,8.8811297835376e-05,0.00459970360740598,-0.781809943435064,-5.27118498261599,-4.46429151332524,-0.00637782749317013,-0.000645550756197386,-0.00218092450690322
0.555,0.123504484500415,-2.25370977501285,3.32710062747697,-0.0031329598789001,0.00595892630464644,-0.00856393415728999,-1.29799541806369,-0.877537949051916,-4.03929558986718,-0.0021622941833153,0.00358520307215108,0.000192737864156695,-5.90048776721005,-2.22787687521958,6.47463755955082,-0.00209742031769956,-0.00037571575858481,0.00446166072617656,-0.782071628374297,-5.2645092306685,-4.45830150322715,-0.00683928444975288,-0.00111668882937067,-0.00177431986812195
0.56,0.122788523124939,-2.25059071550203,3.323965259999,-0.00398871665124277,0.00538160339782603,-0.0059336303314236,-1.29761627470805,-0.876385785069782,-4.03424198379426,-0.00399412917747689,0.00434446259845615,9.02925015038763e-05,-5.89416704648943,-2.2254201935379,6.46640855476479,-0.00397166638214286,-0.000853046248438131,0.00425746760487698,-0.782333313313757,-5.257833478721,-4.45231149312903,-0.00724000395360966,-0.00160223541049101,-0.00137643953483303
0.565,0.122072561749519,-2.24747165599115,3.32082989252103,-0.00484797012310025,0.00474949863245517,-0.00298830778147689,-1.2972371313524,-0.875233621087649,-4.02918837772135,-0.00596068594379525,0.0050608674629363,1.94901624654383e-05,-5.88784632576858,-2.22296351185616,6.45817954997875,-0.00598419667919661,-0.00132196619410389,0.00400705751894535,-0.782594998253217,-5.25115772677352,-4.44632148303094,-0.00760221692441571,-0.00208312052572337,-0.00100851164240638
0.57,0.121356600374043,-2.24435259648033,3.31769452504318,-0.00568398638703008,0.00406395074597407,0.00012817438327445,-1.29685798799687,-0.874081457105518,-4.02413477164845,-0.0079866054250809,0.00573209020439092,-1.45338976866214e-05,-5.88152560504795,-2.22050683017449,6.44995054519272,-0.00805956120734979,-0.00176334055120891,0.00373396918517474,-0.782856683192563,-5.24448197482603,-4.44033147293283,-0.00793318975620299,-0.00254908878696135,-0.000685627489156686
0.575,0.120640638998566,-2.24123353696947,3.31455915756521,-0.00646707135726869,0.00333424198979441,0.0032722703612917,-1.29647884464123,-0.872929293123384,-4.01908116557553,-0.00998863559365013,0.00635842448017739,-9.931251334209e-06,-5.87520488432722,-2.21805014849281,6.44172154040668,-0.0101139284811138,-0.00215994369473188,0.00346464988046945,-0.783118368132023,-5.23780622287854,-4.43434146283474,-0.00822461889948726,-0.00299916085862951,-0.000417216309824979
0.58,0.119924677623146,-2.23811447745865,3.31142379008736,-0.00716731215262284,0.00257838451629313,0.00630525242734729,-1.2960997012857,-0.87177712914125,-4.01402755950261,-0.0118811801716956,0.00694113298533551,3.19133578204577e-05,-5.86888416360648,-2.21559346681113,6.43349253562065,-0.0120607768394441,-0.00249735850812332,0.00322421728305431,-0.783380053071483,-5.23113047093105,-4.42835145273665,-0.00846117591557153,-0.00343667502736708,-0.000208167654190562
0.585,0.119208716247613,-2.2349954179478,3.30828842260951,-0.00775924156122628,0.00182749227043845,0.00909872899643104,-1.29572055793005,-0.870624965159116,-4.0089739534297,-0.0135852072551141,0.00748380538922302,0.000106793305351982,-5.86256344288574,-2.21313678512945,6.42526353083461,-0.0138200416346721,-0.00276528669120899,0.00303446716693828,-0.783641738010829,-5.22445471898356,-4.42236144263856,-0.00863115086494558,-0.00386690018339667,-5.85417710757584e-05
0.59,0.118492754872136,-2.23187635843698,3.30515305513154,-0.00822076279915816,0.00112414716433841,0.0115329636515032,-1.29534141457464,-0.869472801176983,-4.00392034735678,-0.01502747417347,0.00799144734477325,0.000208824540903861,-5.85624272216501,-2.21068010344777,6.41703452604857,-0.015317548270568,-0.00295623601948154,0.00291314984190509,-0.783903422950175,-5.21777896703607,-4.41637143254047,-0.00872720783269687,-0.0042958022473596,3.60107534835728e-05
0.595,0.11777679349666,-2.22875729892613,3.30201768765369,-0.00853200118466933,0.000506881800871418,0.013502626394558,-1.29496227121899,-0.868320637194852,-3.99886674128388,-0.0161415876024187,0.0084682454958176,0.000331622445958336,-5.84992200144438,-2.20822342176609,6.40880552126254,-0.0164861459488434,-0.00306444847198669,0.00287295483016331,-0.784165107889635,-5.21110321508858,-4.41038142244236,-0.008742345567023,-0.0047305070592249,8.31395454484254e-05
0.6,0.11706083212124,-2.2256382394153,3.29888232017584,-0.00868201045372125,-4.66509490374886e-06,0.0149347483487603,-1.29458312786346,-0.867168473212718,-3.99381313521097,-0.0168828373780718,0.00892013741547324,0.000468631157330496,-5.84360128072365,-2.20576674008441,6.4005765164765,-0.0172805247932055,-0.00308843341376187,0.00292216874640008,-0.784426792829095,-5.20442746314109,-4.40439141234427,-0.00867363266802191,-0.00518278581819822,9.42874480065192e-05
0.605,0.116344870745763,-2.22251917990448,3.29574695269787,-0.00867317007271516,-0.000405687689030638,0.0157928055391108,-1.29420398450782,-0.866016309230584,-3.98875952913806,-0.0172354160111839,0.00935692360838053,0.000612791562319782,-5.83728056000291,-2.20331005840268,6.39234751169047,-0.0176844302071132,-0.00303272582630016,0.00306490434260137,-0.784688477768441,-5.1977517111936,-4.39840140224618,-0.0085284597477297,-0.00566775448507853,8.52340702079232e-05
0.61,0.11562890937023,-2.21940012039363,3.29261158522002,-0.00851477305173088,-0.000689315932649417,0.0160570005225693,-1.29382484115217,-0.86486414524845,-3.98370592306516,-0.0171980228947575,0.0097877426120024,0.000756479033430914,-5.83095983928217,-2.20085337672106,6.38411850690443,-0.0176962641165881,-0.0029050758682703,0.00329901737853425,-0.784950162707901,-5.19107595924611,-4.39241139214806,-0.00832327366095557,-0.00619538792991728,7.500969560544e-05
0.615,0.11491294799481,-2.21628106088281,3.28947621774205,-0.00821309806983167,-0.000841091571047873,0.0157051420757004,-1.29344569779664,-0.863711981266317,-3.97865231699224,-0.0167652403337749,0.0102142896810059,0.000892238927941432,-5.82463911856144,-2.19839669503938,6.37588950211839,-0.0173103665414797,-0.00271196428314485,0.00361499639717756,-0.785211847647361,-5.18440020729862,-4.38642138204997,-0.00807513333659343,-0.00676500878228469,8.38571776018756e-05
0.62,0.114196986619334,-2.21316200137196,3.2863408502642,-0.00777062776850707,-0.000855660588396109,0.0147216135063054,-1.293066554441,-0.862559817284186,-3.97359871091932,-0.01592985971885,0.0106319711870934,0.00101404876757077,-5.8183183978407,-2.19594001335764,6.36766049733236,-0.0165193191134213,-0.00245784238580471,0.00399948020364152,-0.785473532586707,-5.17772445535113,-4.38043137195189,-0.00779484188977937,-0.00737116293624329,0.000130191721897244
0.625,0.113481025243857,-2.21004294186113,3.28320548278623,-0.00719564637931382,-0.000756585733497471,0.0131266141131536,-1.29268741108547,-0.861407653302052,-3.96854510484641,-0.0147051693075734,0.0110398775570807,0.00111822942144589,-5.81199767711996,-2.19348333167602,6.35943149254632,-0.0153365164089179,-0.00214882412984674,0.00444032935291827,-0.785735217526167,-5.17104870340364,-4.3744413618538,-0.0074887632887567,-0.00801412957256798,0.000227773734973092
0.63,0.112765063868437,-2.20692388235031,3.28007011530826,-0.00650763688457148,-0.000592344762444317,0.0109835809707188,-1.29230826772982,-0.860255489319918,-3.96349149877351,-0.0131342400078426,0.0114450244262122,0.00120292381439034,-5.80567695639934,-2.19102664999434,6.35120248776028,-0.013805676967903,-0.00179511667878161,0.00492591735565387,-0.785996902465513,-5.16437295145615,-4.36845135175571,-0.00716445776838995,-0.00869924939678806,0.000386025170621971
0.635,0.112049102492961,-2.20380482283946,3.27693474783041,-0.00573138917563013,-0.000413955748858708,0.00837538386473421,-1.29192912437429,-0.859103325337784,-3.95843789270059,-0.0112739002216929,0.0118533930956484,0.00126649439881422,-5.7993562356786,-2.18856996831261,6.34297348297425,-0.0119844837344733,-0.00140920923285479,0.00543907913134809,-0.786258587404973,-5.15769719950866,-4.36246134165759,-0.00683185599526834,-0.0094243851207313,0.000612829785071147
0.64,0.111333141117427,-2.20068576332861,3.27379938035256,-0.0048892095433836,-0.000259676726330602,0.00538318715914297,-1.29154998101865,-0.857951161355651,-3.95338428662768,-0.00917761912628536,0.0122597064539005,0.00130683381616043,-5.79303551495775,-2.18611328663098,6.33474447818821,-0.0099269736120641,-0.00100289720992706,0.00595341955785673,-0.786520272344319,-5.15102144756117,-4.3564713315595,-0.00649985237499131,-0.0101710094017094,0.00091621191529358
0.645,0.110617179742007,-2.19756670381776,3.27066401287459,-0.00400112230119975,-0.000148904585192338,0.00208695747941389,-1.291170837663,-0.85679899737352,-3.94833068055476,-0.0068968612151833,0.0126496477161443,0.00132220091160374,-5.78671479423713,-2.18365660494931,6.32651547340218,-0.00768490025221277,-0.000586808135357976,0.00643699406748995,-0.786781957283779,-5.14434569561368,-4.35048132146139,-0.00617578067148427,-0.0109086818616138,0.0013041745558539
0.65,0.109901218366531,-2.19444764430693,3.26752864539674,-0.00309090337532382,-7.94746068257461e-05,-0.00142412886499382,-1.29079169430747,-0.855646833391386,-3.94327707448187,-0.00449310744629246,0.013010658466245,0.0013120660782108,-5.78039407351639,-2.18119992326763,6.31828646861614,-0.00531996535982275,-0.000172288456764792,0.00686093648491048,-0.787043642223239,-5.13766994366619,-4.3444913113633,-0.0058691792225324,-0.0116076901756473,0.00178386090233362
0.655,0.109185256991054,-2.19132858479611,3.26439327791888,-0.00218540376095493,-3.7322602012843e-05,-0.00505267768796985,-1.29041255095183,-0.854494669409252,-3.93822346840895,-0.00203619452275609,0.0133360005689676,0.00127731002497837,-5.77407335279577,-2.17874324158595,6.31005746383011,-0.00290205301094314,0.000228923481218634,0.00720562987969816,-0.787305327162585,-5.1309941917187,-4.33850130126524,-0.00558870795216089,-0.0122483984291524,0.00235966180755013
0.66,0.108469295615635,-2.18820952528526,3.26125791044092,-0.00130697047390074,-1.30932405995126e-05,-0.00870418284937214,-1.2900334075963,-0.853342505427118,-3.93316986233603,0.000410199818845715,0.0136198992996464,0.00122014532308567,-5.76775263207492,-2.17628655990427,6.30182845904407,-0.000494482734110876,0.000607536113893618,0.00746066640062305,-0.787567012102045,-5.12431843977121,-4.33251129116712,-0.00533304359569521,-0.0128222289759886,0.00303079810945925
0.665,0.107753334240101,-2.18509046577444,3.25812254296306,-0.000473978069616736,-3.03917250092309e-06,-0.0122847532410411,-1.28965426424065,-0.852190341444985,-3.92811625626312,0.00278772206281233,0.0138531006981829,0.00114325669018084,-5.76143191135418,-2.17382987822259,6.29359945425803,0.00184530977491772,0.000955918560472094,0.0076198683973771,-0.787828697041391,-5.11764268782372,-4.32652128106903,-0.00509301881491513,-0.0133247955242894,0.00379069516241584
0.67,0.107037372864625,-2.18197140626359,3.25498717548521,0.000290962774778272,4.2155761691468e-06,-0.0156884412186481,-1.28927512088512,-0.851038177462854,-3.92306265019022,0.00502862650575156,0.0140227022109239,0.00104852061395397,-5.75511119063356,-2.17137319654086,6.285370449472,0.00405110807753231,0.00126414414634988,0.00767625631505029,-0.788090381980851,-5.11096693587623,-4.32053127097092,-0.00486361717382342,-0.0137475196647827,0.00462822386140879
0.675,0.106321411489205,-2.17885234675276,3.25185180800725,0.000961394270205468,3.19536477581626e-05,-0.0188042571580014,-1.28889597752948,-0.84988601348072,-3.9180090441173,0.00705846130124859,0.0141165051766126,0.000937171380171131,-5.74879046991271,-2.16891651485918,6.27714144468596,0.00605029530505976,0.00152043983668807,0.0076243264255531,-0.788352066920197,-5.10429118392874,-4.31454126087283,-0.00464565036133222,-0.0140797838190677,0.00552870380187058
0.68,0.105605450113728,-2.17573328724194,3.24871644052928,0.00151597620871218,0.000107516289089548,-0.0215368068343144,-1.28851683417395,-0.848733849498586,-3.91295543804439,0.00881446690195931,0.0141271668572998,0.000811035160689569,-5.74246974919208,-2.1664598331775,6.26891243989993,0.00778181030613784,0.00171557420182943,0.00746582507331055,-0.788613751859657,-5.09761543198125,-4.30855125077474,-0.00443531344450577,-0.0143168573885568,0.00647293545905304
0.685,0.104889488738252,-2.17261422773109,3.24558107305143,0.00194211181412631,0.000255008707987372,-0.0238081575924434,-1.2881376908183,-0.847581685516452,-3.90790183197147,0.0102512745023143,0.0140483640909586,0.000672579990613884,-5.73614902847135,-2.16400315149582,6.26068343511389,0.00920194444617723,0.00184412779983262,0.00720787999296721,-0.788875436799117,-5.09093968003376,-4.30256124067662,-0.00421846094571005,-0.0144569840113057,0.00743479332378329
0.69,0.104173527362775,-2.16949516822027,3.24244570557346,0.00223507057947389,0.000488457577990238,-0.0255584836554516,-1.28775854746266,-0.846429521534318,-3.90284822589857,0.0113403556483187,0.0138722633101068,0.000524409197748162,-5.72982830775072,-2.16154646981414,6.25245443032785,0.0102838388201382,0.00190399942894426,0.00685966875539185,-0.789137121738463,-5.08426392808627,-4.29657123057856,-0.00397683565560551,-0.0144973089643764,0.00838255450041397
0.695,0.103457565987298,-2.16637610870941,3.23931033809561,0.00239934135056568,0.000804344893516918,-0.0267642042714091,-1.28737940410713,-0.845277357552188,-3.89779461982566,0.0120776203965485,0.0135971686264779,0.000369763884394793,-5.72350758702987,-2.15908978813246,6.24422542554182,0.011024388652582,0.00189789450722368,0.00643567666564053,-0.789398806677923,-5.07758817613879,-4.29058122048045,-0.00369758312246193,-0.0144402784578244,0.0092835949432893
0.7,0.102741604611822,-2.16325704919856,3.23617497061775,0.00244696217506472,0.0011834338829673,-0.0274357148069014,-1.28700026075148,-0.844125193570054,-3.89274101375275,0.0124805136640702,0.0132297594173578,0.000212459105892403,-5.71718686630913,-2.15663310645078,6.23599642075578,0.0114411425124055,0.00183259943410694,0.00595527383122811,-0.789660491617269,-5.07091242419129,-4.28459121038236,-0.00337531687233358,-0.0142925075705681,0.0101042960258006
0.705,0.102025643236345,-2.16013798968774,3.23303960313979,0.00239256158639605,0.00160113438798567,-0.0275985229261127,-1.28662111739595,-0.84297302958792,-3.88768740767985,0.0125760724675788,0.0127795661945103,5.54377767861868e-05,-5.71086614558851,-2.15417642476905,6.22776741596974,0.0115610562682493,0.00171563810911043,0.00543899683462692,-0.789922176556729,-5.0642366722438,-4.27860120028427,-0.00300818470194279,-0.0140562124023452,0.010809737034291
0.71,0.101309681860926,-2.15701893017689,3.22990423566193,0.00225194289909319,0.00203429942308841,-0.0272937264916135,-1.28624197404031,-0.841820865605786,-3.88263380160693,0.0123997281651463,0.0122593293503209,-0.000100027557061532,-5.70454542486777,-2.15171974308737,6.21953841118371,0.0114196424443655,0.0015542523520807,0.00491078471128605,-0.790183861496075,-5.05756092029631,-4.27261119018615,-0.00259578151900702,-0.0137297601809457,0.0113685597155392
0.715,0.100593720485449,-2.15389987066607,3.22676886818408,0.00204190281546799,0.00246055888889215,-0.0265767284077433,-1.28586283068478,-0.840668701623652,-3.87758019553401,0.0119943406206702,0.0116843404063089,-0.000254073740690333,-5.69822470414704,-2.14926306140569,6.21130940639767,0.0110599150239346,0.00135550529993124,0.00439666271927808,-0.790445546435535,-5.05088516834882,-4.26662118008807,-0.00213982533084162,-0.0133084203930323,0.0117540776162557
0.72,0.0998777591099156,-2.15078081115522,3.22363350070611,0.00177915851147366,0.00285138918016549,-0.025512982722852,-1.28548368732913,-0.839516537641522,-3.8725265894611,0.0114074747158283,0.0110672238844614,-0.000408555951446339,-5.6919039834263,-2.14680637972407,6.20308040161164,0.0105293769040716,0.0011257094746334,0.00391499965753477,-0.790707231374995,-5.04420941640133,-4.26063116998995,-0.00164756899781086,-0.0127863150770838,0.0119482940531294
0.725,0.0991617977344958,-2.14766175164439,3.22049813322815,0.00148135906004929,0.00316337629958065,-0.0241923707617328,-1.28510454397349,-0.838364373659388,-3.86747298338818,0.0106979784209981,0.0104175841204496,-0.000567642824602508,-5.68558326270556,-2.14434969804233,6.1948513968256,0.00988600940179814,0.000871032824226085,0.00347001712927064,-0.790968916314341,-5.03753366445384,-4.25464115989189,-0.0011369845517884,-0.0121680535970007,0.0119548136838969
0.73,0.0984458363590193,-2.14454269213354,3.21736276575029,0.0011671712046045,0.00334168255173005,-0.0227259156787457,-1.28472540061796,-0.837212209677254,-3.86241937731528,0.00993406447664614,0.00974310222440651,-0.000736848546502439,-5.67926254198483,-2.14189301636071,6.18662239203956,0.00919628799376177,0.000598051489219075,0.00305380646510826,-0.791230601253801,-5.03085791250636,-4.2486511497938,-0.000635430094817083,-0.0114697724352973,0.0117972345163808
0.735,0.0977298749835427,-2.14142363262272,3.21422739827233,0.000852304596853314,0.00334282297290397,-0.0212127224221226,-1.28434625726231,-0.83606004569512,-3.85736577124237,0.00917487817147126,0.0090508094469853,-0.000920892916897497,-5.67294182126409,-2.13943633467903,6.17839338725353,0.00851745817697262,0.000312475134209809,0.0026558452571314,-0.791492286193147,-5.02418216055886,-4.24266113969568,-0.000169813024024132,-0.0107066490839312,0.011500528814475
0.74,0.0970139136080661,-2.1383045731119,3.21109203079448,0.000545824521459132,0.00315796551336785,-0.0197188673207906,-1.28396711390678,-0.834907881712986,-3.85231216516947,0.00845701940773661,0.0083519624485105,-0.00112221927719582,-5.66662110054347,-2.1369796529973,6.17016438246749,0.0078845973350835,1.79566044329785e-05,0.00227423769040366,-0.791753971132607,-5.01750640861137,-4.2366711295976,0.000241664621435185,-0.00988765986466952,0.0110797290002153
0.745,0.0962979522325895,-2.13518551360104,3.20795666331651,0.000250810097205386,0.0028113090345457,-0.0182782516611951,-1.28358797055114,-0.833755717730856,-3.84725855909656,0.00779536514369355,0.00766212806633533,-0.00134059328224056,-5.66030037982273,-2.13452297131568,6.16193537768146,0.00731141670870653,-0.000283356272726202,0.00191654623038535,-0.792015656071953,-5.01083065666388,-4.23068111949948,0.000589897626271276,-0.00901646554145564,0.0105404669980639
0.75,0.0955819908571129,-2.13206645409022,3.20482129583866,-3.22150012954875e-05,0.00233750127252084,-0.0169085500556785,-1.28320882719561,-0.832603553748722,-3.84220495302364,0.00719385009653236,0.00699667348758264,-0.00157385276914761,-5.65397965910199,-2.132066289634,6.15370637289542,0.00680058807153044,-0.000589397423993626,0.00159078566260493,-0.792277341011413,-5.00415490471639,-4.22469110940139,0.000871814658438891,-0.00809723913605629,0.00989161305139094
0.755,0.0948660294816932,-2.12894739457937,3.2016859283608,-0.000302704678848207,0.00176375475144728,-0.0156350916321268,-1.28282968383996,-0.831451389766588,-3.83715134695073,0.00665833151919947,0.00637094419574006,-0.00181932321226131,-5.64765893838126,-2.12960960795232,6.14547736810939,0.00635600446626714,-0.000897268238151109,0.00129891662487464,-0.792539025950873,-4.9974791527689,-4.2187010993033,0.00108869458579429,-0.0071477612228777,0.00916522011029849
0.76,0.0941500681062166,-2.12582833506855,3.19855056088284,-0.000559684038770307,0.00110750335994443,-0.0144923391783204,-1.28245054048432,-0.830299225784454,-3.83209774087781,0.00619763539461813,0.00579981400549192,-0.00207381171310001,-5.64133821766052,-2.12715292627058,6.13724836332335,0.00598376205746554,-0.00120302272289016,0.00103589870560711,-0.792800710890219,-4.99080340082141,-4.21271108920521,0.00124440789188157,-0.00620012999631554,0.00841571475975417
0.765,0.09343410673074,-2.1227092755577,3.19541519340498,-0.000802396528730795,0.000381817962318035,-0.0134986529189218,-1.2820713971289,-0.82914706180232,-3.82704413480491,0.00581260464814792,0.00529171433455386,-0.00233186427768536,-5.63501749693989,-2.12469624458896,6.12901935853731,0.00568171534730524,-0.00150163798550598,0.00079000760355464,-0.793062395829679,-4.98412764887392,-4.20672107910713,0.00134218813256885,-0.00528367474341016,0.00769477531910697
0.77,0.0927181453552635,-2.11959021604684,3.19227982592713,-0.00103071261168682,-0.000399051648301458,-0.0126392682759583,-1.28169225377326,-0.82799489782019,-3.82199052873199,0.00548880490876481,0.00484548934340912,-0.0025846179623932,-5.62869677621904,-2.12223956290723,6.12079035375127,0.0054325587318512,-0.0017870425863449,0.000544309395538659,-0.793324080769139,-4.97745189692643,-4.20073106900901,0.00138325412242205,-0.00441327939958123,0.00703314284093378
0.775,0.0920021839797869,-2.11647115653602,3.18914445844916,-0.0012449261925591,-0.0012152888629752,-0.011872775274185,-1.28131311041773,-0.826842733838056,-3.81693692265908,0.00519969726056096,0.00445463841460175,-0.00282046259364394,-5.62237605549842,-2.11978288122555,6.11256134896524,0.00520716331010889,-0.00205238397017835,0.000282220830940356,-0.793585765708485,-4.97077614497895,-4.19474105891092,0.00137042251306525,-0.00359444227016163,0.00644256130732948
0.78,0.0912862226043103,-2.11335209702517,3.1860090909712,-0.00144593261089257,-0.00203791433546929,-0.0111449578768969,-1.28093396706208,-0.825690569855922,-3.81188331658616,0.00491277659969746,0.00411364047912621,-0.00302675064672794,-5.61605533477768,-2.11732619954387,6.10433234417921,0.00497094068397311,-0.00229089000526304,-5.55299762210648e-06,-0.793847450647831,-4.96410039303145,-4.18875104881283,0.00131293037642089,-0.00283384698176253,0.00592425745382206
0.785,0.0905702612288906,-2.11023303751435,3.18287372349334,-0.00163690400993566,-0.00282727665118704,-0.0103922674084476,-1.28055482370655,-0.824538405873788,-3.80682971051327,0.00458992480534235,0.00381954007637554,-0.00319132563971009,-5.60973461405683,-2.11486951786219,6.09610333939317,0.00468436612870322,-0.00249738517560265,-0.000320464334509718,-0.794109135587291,-4.95742464108396,-4.18276103871472,0.00122493454859022,-0.00214190993874029,0.00547023951046323
0.79,0.089854299853414,-2.1071139780035,3.17973835601538,-0.001825275989693,-0.00353388584375695,-0.00953544074682238,-1.28017568035091,-0.823386241891654,-3.80177610444035,0.00418305866202976,0.00356849974392216,-0.00330315696109672,-5.60341389333621,-2.11241283618051,6.08787433460713,0.00429864575886028,-0.00266954884417232,-0.000661670048081408,-0.794370820526751,-4.95074888913647,-4.17677102861663,0.00111877721519442,-0.00152733772731574,0.00505768069303572
0.795,0.0891383384779374,-2.10399491849267,3.17660298853752,-0.00202261998971808,-0.00410406679423329,-0.00848120321154243,-1.27979653699538,-0.822234077909524,-3.79672249836744,0.00363529424642836,0.00335354464634502,-0.00335280552272478,-5.59709317261547,-2.10995615449883,6.0796453298211,0.00375684756783702,-0.00280806041709347,-0.00102947848409998,-0.794632505466097,-4.94407313718898,-4.17078101851854,0.00100116085884623,-0.000993664574355731,0.00464970241315068
0.8,0.088422377102404,-2.10087585898182,3.17346762105967,-0.00224163813716794,-0.00449838804315513,-0.00714678345640658,-1.27941739363973,-0.82108191392739,-3.79166889229452,0.00289522435078762,0.00316755202032488,-0.00333415985812005,-5.59077245189485,-2.1074994728171,6.07141632503506,0.00300812927871943,-0.00291586373732878,-0.0014233674288326,-0.794894190405557,-4.93739738524149,-4.16479100842045,0.000874532408514541,-0.000542074181450149,0.00421470362608533
0.805,0.0877064157269842,-2.097756799471,3.17033225358171,-0.00249257934942417,-0.00471366828249131,-0.00549138363368238,-1.27903825028409,-0.819929749945256,-3.78661528622162,0.00193488313785533,0.00300821586148019,-0.00324665145120681,-5.584451731174,-2.10504279113547,6.06318732024902,0.00202562036395279,-0.00299733057774945,-0.00183848162604769,-0.795155875345017,-4.930721633294,-4.15880099832236,0.000739725326061497,-0.000176028340379289,0.00375135193413826
0.81,0.0869904543515077,-2.09463773996018,3.16719688610385,-0.00278247482744771,-0.00478097242074402,-0.00351938428497096,-1.27865910692856,-0.818777585963122,-3.7815616801487,0.000751719339335013,0.00287875252482165,-0.00309516329723894,-5.57813101045338,-2.10258610945374,6.05495831546299,0.000808305924366881,-0.00305785108373549,-0.00226526496311184,-0.795417560284363,-4.92404588134651,-4.15281098822425,0.000596686179090423,9.78025993054756e-05,0.00328883307353879
0.815,0.0862744929760879,-2.09151868044933,3.164061518626,-0.00311677959091885,-0.00474060789295602,-0.00125652339637816,-1.27827996357291,-0.817625421980988,-3.77650807407579,-0.000644395877383194,0.00278413444749053,-0.00288767578377932,-5.57181028973264,-2.10012942777206,6.04672931067695,-0.000632020356499806,-0.00310369443056284,-0.00269191321625926,-0.79567924522371,-4.91737012939902,-4.14682097812616,0.000443673480286913,0.000272236501310044,0.00286310451393414
0.82,0.0855585316006113,-2.0883996209385,3.16092615114803,-0.00350000276599558,-0.00462294903508273,0.00126664268250704,-1.27790082021738,-0.816473257998858,-3.77145446800289,-0.00223976428273906,0.0027280880855094,-0.00263341379967759,-5.5654895690119,-2.09767274609038,6.03850030589092,-0.00227939503812448,-0.00314159939104075,-0.00310603839137003,-0.795940930163169,-4.91069437745154,-4.14083096802804,0.000277000121735774,0.000341902865687306,0.00249882012004582
0.825,0.0848425702250779,-2.08528056142765,3.15779078367018,-0.00393430104813668,-0.00444406681855719,0.00401328876722672,-1.27752167686174,-0.815321094016724,-3.76640086192998,-0.00401514911041204,0.00271272325346797,-0.00234227351264979,-5.55916884829116,-2.09521606440876,6.03027130110488,-0.00411206253154226,-0.0031778809192234,-0.00349455538912745,-0.796202615102629,-4.90401862550404,-4.13484095792995,9.18260704350218e-05,0.000303921808002269,0.0022063693185625
0.83,0.0841266088496013,-2.08216150191683,3.15465541619233,-0.00441723032732382,-0.00420619845531765,0.00693288149895931,-1.27714253350621,-0.81416893003459,-3.76134725585707,-0.00594058443761008,0.00273902811771273,-0.00202450385548448,-5.55284812757043,-2.09275938272702,6.02204229631884,-0.00609743054651354,-0.00321719812986685,-0.00384308278031487,-0.796464300041976,-4.89734287355656,-4.12885094783186,-0.000116778029295432,0.000158285095644063,0.0019838453361461
0.835,0.0834106474741816,-2.07904244240601,3.15152004871436,-0.00493931822096986,-0.0038982170337622,0.00995377059184077,-1.27676339015056,-0.813016766052456,-3.75629364978415,-0.00797013678308456,0.00280729896091526,-0.00169020632550127,-5.5465274068498,-2.09030270104535,6.01381329153281,-0.00818701854312848,-0.00326113127316469,-0.00413547605807407,-0.796725984981435,-4.89066712160906,-4.12286093773378,-0.000352863928336316,-9.14177610929972e-05,0.00181890555412889
0.84,0.082694686098705,-2.07592338289516,3.14838468123639,-0.00548149450724992,-0.00349609823068575,0.0129760412581205,-1.27638424679492,-0.811864602070326,-3.75124004371125,-0.0100367676913525,0.0029173351301349,-0.00134864170575113,-5.54020668612907,-2.08784601936372,6.00558428674677,-0.0103115132451372,-0.00330657387864784,-0.00435331253595995,-0.796987669920895,-4.88399136966157,-4.11687092763569,-0.000618769290151587,-0.000437069708846242,0.00169050206004947
0.845,0.0819787247232284,-2.07280432338433,3.14524931375843,-0.0060150552880632,-0.0029685401381006,0.0158734449280962,-1.27600510343939,-0.810712438088192,-3.74618643763834,-0.0120531716426525,0.00306735238364499,-0.00100788656560899,-5.53388596540822,-2.08538933768199,5.99735528196074,-0.0123816396735953,-0.0033454901408946,-0.0044768796162513,-0.797249354860242,-4.87731561771409,-4.11088091753757,-0.000914740996359662,-0.000864864726531589,0.00157220590060999
0.85,0.0812627633477518,-2.06968526387348,3.14211394628057,-0.00650977852368489,-0.00229795399386559,0.0185215333277957,-1.27562596008374,-0.809560274106058,-3.74113283156541,-0.0139301568607663,0.00325059948744554,-0.000676227649783273,-5.52756524468759,-2.08293265600031,5.9891262771747,-0.0143062522119334,-0.00336946289114941,-0.00449196605168842,-0.797511039799588,-4.8706398657666,-4.10489090743948,-0.0012394875956753,-0.0013532327273118,0.00144050639471457
0.855,0.0805468019722753,-2.06656620436263,3.13897857880272,-0.00694506123811021,-0.00150591926095828,0.0208339862510867,-1.27524681672821,-0.808408110123924,-3.7360792254925,-0.0156007634720105,0.00345226543307939,-0.000364432471255595,-5.52124452396686,-2.08047597431869,5.98089727238866,-0.0160161817402131,-0.00337617117260785,-0.00439936711505723,-0.797772724739048,-4.8639641138191,-4.09890089734137,-0.00159088261773592,-0.00187023066731984,0.00128443968545678
0.86,0.0798308405967987,-2.06344714485181,3.13584321132487,-0.00730998342273392,-0.000651773368652483,0.0227625020988036,-1.27486767337257,-0.80725594614179,-3.7310256194196,-0.0170205883881847,0.00365165664455163,-8.5381804627077e-05,-5.51492380324612,-2.07801929263701,5.97266826760263,-0.0174648210969122,-0.00336920263401935,-0.00421466656881329,-0.798034409678507,-4.85728836187161,-4.09291088724328,-0.0019644658599054,-0.00237537205334373,0.00110633178467886
0.865,0.0791148792213789,-2.06032808534096,3.1327078438469,-0.00759665081975475,0.000194401715910244,0.024276288031018,-1.27448853001704,-0.806103782159656,-3.72597201334669,-0.0181553425007979,0.003829744935557,0.000148897291882277,-5.50860308252538,-2.07556261095527,5.96443926281659,-0.0186161833725186,-0.00335323270723919,-0.00395728125803814,-0.798296094617854,-4.85061260992412,-4.08692087714519,-0.00234858526360357,-0.00283158893319804,0.000914355251460397
0.87,0.0783989178459024,-2.05720902583013,3.12957247636905,-0.00780012066785929,0.000972861108045482,0.0253619170741969,-1.27410938666139,-0.804951618177522,-3.72091840727379,-0.0189829660088938,0.00397594903061627,0.000329283528712516,-5.50228236180476,-2.07310592927365,5.95621025803056,-0.0194472068811892,-0.0033327075215933,-0.00364160366456277,-0.798557779557314,-4.84393685797663,-4.0809308670471,-0.00272095167141856,-0.00321950777950595,0.000717335524638597
0.875,0.0776829564704258,-2.05408996631928,3.12643710889108,-0.00791976403787156,0.00164129336886555,0.0260216787804097,-1.27373024330575,-0.803799454195392,-3.71586480120087,-0.0194956796881321,0.00408933188116718,0.000449963303426923,-5.49596164108402,-2.07064924759192,5.94798125324452,-0.0199498404940732,-0.00331187935382434,-0.0032756841168799,-0.798819464496773,-4.83726110602914,-4.07494085694901,-0.00305434403901604,-0.00353715677958726,0.000524352908822177
0.88,0.0769669950949492,-2.05097090680846,3.12330174141323,-0.00795585529980325,0.00217648060899476,0.0262562804393725,-1.27335109995022,-0.802647290213258,-3.71081119512796,-0.0196902594599362,0.00417501826422488,0.00050845847713039,-5.48964092036317,-2.06819256591024,5.93975224845848,-0.0201213892304682,-0.0032928460091951,-0.00286388481408792,-0.79908114943612,-4.83058535408166,-4.0689508468509,-0.0033268875872405,-0.00378753523216404,0.000344708867658375
0.885,0.0762510337194726,-2.04785184729761,3.12016637393538,-0.00790797748362133,0.00256870964524699,0.0260689753341607,-1.27297195659457,-0.801495126231124,-3.70575758905505,-0.0195669836313273,0.00423841523193036,0.000505386495515424,-5.48332019964255,-2.06573588422856,5.93152324367245,-0.019963322486811,-0.00327532199649948,-0.0024118427631772,-0.799342834375466,-4.82390960213417,-4.06296083675281,-0.00352226254184331,-0.00397294922726677,0.000185825600153291
0.89,0.075535072343996,-2.04473278778678,3.1170310064573,-0.0077762480554794,0.00281105122340818,0.0254885760766119,-1.27259281323904,-0.80034296224899,-3.70070398298213,-0.0191377706176957,0.00427974932318218,0.000443903130500248,-5.47699947892181,-2.06327920254688,5.92329423888641,-0.019489080881251,-0.00325840528477887,-0.00193145273164976,-0.799604519314926,-4.81723385018667,-4.05697082665472,-0.00362032377126826,-0.00409834864547584,5.05403263719108e-05
0.895,0.0748191109685763,-2.04161372827596,3.11389563897944,-0.00755903757150834,0.00289578712629257,0.0245634219039466,-1.2722136698834,-0.79919079826686,-3.69565037690921,-0.018420567157002,0.00429278268638167,0.000329252253781241,-5.47067875820119,-2.0608225208652,5.91506523410038,-0.018718326532138,-0.00323993900248069,-0.00144059466206554,-0.799866204254386,-4.81055809823918,-4.0509808165566,-0.00359358969605867,-0.00417073564023975,-6.2603852285543e-05
0.9,0.0741031495930997,-2.03849466876511,3.11076027150159,-0.00724990587254234,0.00282224600509621,0.0233291136815461,-1.27183452652787,-0.798038634284726,-3.69059677083631,-0.0174247260623847,0.00426915946760897,0.000168349543739311,-5.46435803748034,-2.05836583918352,5.90683622931434,-0.0176624310389808,-0.00321447005756007,-0.000957686243324361,-0.800127889193732,-4.80388234629169,-4.04499080645851,-0.00341556818282382,-0.00419330950864133,-0.000155625005892817
0.905,0.0733871882175663,-2.03537560925426,3.10762490402374,-0.00683846335995287,0.00260530047978157,0.0217899903374675,-1.27145538317222,-0.796886470302592,-3.68554316476339,-0.0161460976586536,0.0042029615710581,-3.07232319215237e-05,-5.4580373167596,-2.05590915750184,5.8986072245283,-0.0163196045366154,-0.00317306915274859,-0.000497276912551388,-0.800389574133192,-4.7972065943442,-4.03900079636043,-0.0030705371284079,-0.00416196263238279,-0.000227782256070631
0.91,0.0726712268420897,-2.03225654974341,3.10448953654577,-0.00631152572633107,0.00227259274155946,0.019922546034698,-1.27107623981669,-0.795734306320458,-3.68048955869048,-0.0145693199997688,0.0040904951006221,-0.000259042166559897,-5.45171659603898,-2.05345247582017,5.89037821974227,-0.0146770246338735,-0.0031040504599526,-6.9648095353467e-05,-0.800651259072652,-4.79053084239672,-4.03301078626234,-0.00255364466401908,-0.00406603119901397,-0.000275064001980035
0.915,0.07195526546667,-2.02913749023259,3.10135416906792,-0.00565765045703938,0.00185261246314493,0.0177039676077142,-1.27069709646105,-0.794582142338324,-3.67543595261758,-0.012681870257739,0.00393019327340686,-0.000507481991747053,-5.44539587531813,-2.05099579413843,5.88214921495623,-0.0127246228691704,-0.00299614803697233,0.000317931992454777,-0.800912944011884,-4.78385509044923,-4.02702077616425,-0.00186519474546783,-0.00389440883245094,-0.000290656536504702
0.92,0.0712393040911934,-2.02601843072176,3.09821880158995,-0.00487715086839458,0.00136524766179941,0.0151541485029555,-1.2703179531054,-0.793429978356194,-3.67038234654467,-0.0104992507781454,0.00372593094910529,-0.000767950114555682,-5.4390751545975,-2.04853911245675,5.87392021017019,-0.0104800020809394,-0.00284446542924104,0.000660337235214974,-0.801174628951344,-4.77717933850174,-4.02103076606613,-0.00100861955639322,-0.00364434602227627,-0.000264763119775461
0.925,0.0705233427157168,-2.02289937121091,3.0950834341121,-0.00398378625192839,0.000820893723856086,0.012338625197735,-1.26993880974987,-0.79227781437406,-3.66532874047176,-0.0080675610601473,0.00348646989131866,-0.00103410550984688,-5.43275443387677,-2.04608243077507,5.86569120538416,-0.00799089518761006,-0.00265162257607047,0.000953284226449075,-0.801436313890804,-4.77050358655424,-4.01504075596804,8.74026921259943e-06,-0.00332165602083102,-0.000185396864071787
0.93,0.0698073813402402,-2.01978031170009,3.09194806663425,-0.00299647746992351,0.000226475237483475,0.00933063897054601,-1.26955966639423,-0.791125650391926,-3.66027513439884,-0.00544085611584442,0.00322055552427948,-0.0013012387747435,-5.42643371315603,-2.04362574909345,5.85746220059812,-0.00531261837099145,-0.00242328722656454,0.00119166986544558,-0.801697998830264,-4.76382783460675,-4.00905074586993,0.00117413832901594,-0.00293229174104285,-4.05006345644494e-05
0.935,0.0690914199647636,-2.01666125218924,3.08881269915628,-0.00193689887728962,-0.000406190477325668,0.00619289570080624,-1.2691805230387,-0.789973486409792,-3.65522152832594,-0.00267281854670395,0.00293704013882488,-0.00156593870944815,-5.42011299243529,-2.04116906741172,5.84923319581209,-0.0024999022281389,-0.00216633874839787,0.00137027400025023,-0.80195968376961,-4.75715208265927,-4.00306073577184,0.0024651332673084,-0.00247906510156302,0.00018112649394491
0.94,0.0683754585892871,-2.01354219267841,3.08567733167843,-0.000832825706196362,-0.0010578605884806,0.00299097147573106,-1.26880137968317,-0.788821322427658,-3.65016792225302,0.000174038945424397,0.00264901345207834,-0.0018255409836945,-5.41379227171456,-2.03871238573004,5.84100419102605,0.00038383334008378,-0.00189019099255422,0.00148672992449479,-0.80222136870907,-4.75047633071177,-3.99707072567378,0.00384834069463392,-0.00196663598410209,0.00048989415429277
0.945,0.0676594972138673,-2.01042313316759,3.08254196420046,0.000283690753415209,-0.00170872520722114,-0.000198477627059049,-1.26842223632764,-0.787669158445528,-3.64511431618011,0.00302798394625129,0.00237269693373758,-0.00207745947983916,-5.40747155099393,-2.03625570404836,5.83277518624002,0.00326615648521866,-0.00160614462346542,0.00154229758181088,-0.80248305364853,-4.74380057876429,-3.99108071557566,0.00528573682593849,-0.00140510960720162,0.000893904716429802
0.95,0.0669435358383907,-2.00730407365674,3.07940659672249,0.0013797929416488,-0.00234388398701423,-0.00329349566820013,-1.26804309297199,-0.786516994463394,-3.64006071010719,0.0058139443519148,0.00212184350260701,-0.00231864299523088,-5.40115083027308,-2.03379902236668,5.82454618145398,0.00607157058412984,-0.00132551307711581,0.00153879456722583,-0.802744738587876,-4.7371248268168,-3.98509070547757,0.00673733881365647,-0.000807695794151573,0.00139650504368178
0.955,0.0662275744629142,-2.00418501414592,3.07627122924464,0.00242086410499736,-0.00295052573255632,-0.00621180136355061,-1.26766394961635,-0.78536483048126,-3.63500710403429,0.00845274846404651,0.00190455500268553,-0.00254513396884063,-5.39483010955246,-2.031342340685,5.81631717666794,0.0087206971627089,-0.00105917590985014,0.00147532142987497,-0.803006423527222,-4.73044907486931,-3.97910069537946,0.00815573619124356,-0.000187084722246141,0.00199472124379029
0.96,0.0655116130874376,-2.00106595463507,3.07313586176679,0.00337083558733145,-0.00351572522132226,-0.00887428686813966,-1.26728480626082,-0.784212666499126,-3.62995349796137,0.0108625103756974,0.00172325550250368,-0.0027520344113872,-5.38850938883172,-2.02888565900338,5.80808817188191,0.0111315887458153,-0.000817292500035907,0.00134779939426203,-0.803268108466682,-4.72377332292182,-3.97311068528137,0.00948640923413349,0.00044505050780907,0.00267766541417936
0.965,0.064795651711961,-1.99794689512424,3.07000049428882,0.00419721736039524,-0.00402780756296212,-0.0112121737752772,-1.26690566290517,-0.783060502516996,-3.62489989188846,0.0129688147856634,0.00157662395921829,-0.00293394724145873,-5.38218866811098,-2.02642897732164,5.79985916709587,0.0132298946182398,-0.000607975669456742,0.00115190772104068,-0.803529793406142,-4.71709757097432,-3.96712067518328,0.0106784430905491,0.00107594260685377,0.00342585396571767
0.97,0.0640796903364844,-1.99482783561339,3.06686512681097,0.00487731155646134,-0.00447372020236549,-0.0131763189001644,-1.26652651954964,-0.781908338534862,-3.61984628581556,0.014717535510223,0.00146484346068128,-0.00308550411619819,-5.37586794739025,-2.02397229563996,5.79163016230984,0.0149616642416535,-0.000435729750747365,0.000889930201203967,-0.803791478345488,-4.71042181902684,-3.96113066508516,0.0116966890195184,0.00168919963092115,0.00421563766417971
0.975,0.0633637289610647,-1.99170877610254,3.06372975933311,0.00540270958479828,-0.00483444043886785,-0.0147435739172201,-1.266147376194,-0.780756174552728,-3.61479267974265,0.0160838738368691,0.00139472575142625,-0.00320159891271493,-5.36954722666951,-2.02151561395829,5.7834011575238,0.0163023469818529,-0.000300284462096459,0.000577073316735594,-0.804053163284948,-4.70374606707934,-3.95514065498708,0.0125289327860509,0.00226350980114738,0.00502551677824468
0.98,0.0626477675855881,-1.98858971659172,3.06059439185515,0.00577817468392585,-0.00508695135183845,-0.0159118379650034,-1.26576823283847,-0.779604010570594,-3.60973907366974,0.0170687140747076,0.00137772656123208,-0.00327699782000954,-5.36322650594889,-2.01905893227661,5.77517215273776,0.017253056671035,-0.000196790448643759,0.00023845096726979,-0.804314848224408,-4.69707031513186,-3.94915064488899,0.0131818652929774,0.00277378227486221,0.00583430911873964
0.985,0.0619318062100547,-1.98547065708087,3.05745902437729,0.00601593852765191,-0.00521210299266682,-0.0166880189108045,-1.26538908948282,-0.77845184658846,-3.60468546759682,0.0176855185392783,0.00142214711706128,-0.00330566789933477,-5.35690578522815,-2.01660225059493,5.76694314795173,0.0178273552651336,-0.000117182857738729,-0.000101597580852109,-0.804576533163754,-4.69039456318437,-3.9431606347909,0.0136690794159194,0.00319429334841284,0.00661214349457873
0.99,0.0612158448346349,-1.98235159757004,3.05432365689944,0.00613280977926442,-0.00520063633316129,-0.0170854922940639,-1.26500994612718,-0.777299682606326,-3.5996318615239,0.0179554827166339,0.00152813868896962,-0.0032811397121444,-5.3505850645073,-2.01414556891325,5.75871414316569,0.0180464405773209,-5.11875960326454e-05,-0.000426132291990993,-0.8048382181031,-4.68371881123688,-3.93717062469281,0.0140056092712773,0.00350229749810416,0.0073181743829402
0.995,0.0604998834591584,-1.97923253805919,3.05118828942148,0.0061504050486345,-0.00505194672204872,-0.0171335936461679,-1.26463080277165,-0.776147518624192,-3.594578255451,0.0179136424143785,0.00169009598796109,-0.00319903203151907,-5.34426434378668,-2.01168888723157,5.75048513837966,0.0179455958349335,1.21918226947942e-05,-0.000723236643393315,-0.80509990304256,-4.67704305928939,-3.93118061459469,0.0142115552494384,0.00368200755478966,0.00791461859935502
1,0.0597839220836818,-1.97611347854837,3.04805292194351,0.00609434381689502,-0.00476883916954248,-0.0168855366663801,-1.264251659416,-0.774995354642062,-3.58952464937808,0.0176134977737445,0.00190188610551487,-0.00305991345415664,-5.33794362306594,-2.00923220554989,5.74225613359362,0.0175792456054296,8.24541760692486e-05,-0.00098061295434171,-0.80536158798202,-4.67036730734189,-3.92519060449661,0.0143153471383025,0.00372777493247073,0.00838506813571141
1.005,0.0590679607082052,-1.97299441903755,3.04491755446554,0.00599210335669509,-0.00435626830617278,-0.0164117696083663,-1.26387251606047,-0.773843190659928,-3.58447104330517,0.0171212857685649,0.0021574199925904,-0.00286873348435539,-5.33162290234532,-2.00677552386816,5.73402712880758,0.0170152178717241,0.000167093802125673,-0.00118505560855696,-0.805623272921366,-4.66369155539441,-3.91920059439849,0.0143503393860813,0.00364257587898572,0.00873250775558194
1.01,0.0583519993327855,-1.9698753595267,3.04178218698769,0.00586931486000354,-0.00382271232979494,-0.0157810324485864,-1.26349337270483,-0.772691026677794,-3.57941743723227,0.0165007395737495,0.00244755308513571,-0.00263122526998974,-5.32530218162447,-2.00431884218648,5.72579812402155,0.0163190030763532,0.000272516658327837,-0.00132688422731109,-0.805884957860826,-4.65701580344692,-3.91321058430043,0.0143445802322055,0.00343226624401014,0.00895768753744627
1.015,0.057636037957252,-1.96675630001587,3.03864681950984,0.00574420356117562,-0.00317792471936672,-0.0150442641995919,-1.2631142293493,-0.771538862695664,-3.57436383115935,0.015797865785097,0.00276029922240277,-0.00235186017554783,-5.31898146090373,-2.0018621605048,5.71756911923551,0.0155381259403647,0.000403275935705908,-0.00140288179014835,-0.806146642800286,-4.65034005149943,-3.90722057420234,0.0143103000685309,0.00310176186187304,0.00904597841402142
1.02,0.0569200765818323,-1.96363724050502,3.03551145203187,0.00562404262680874,-0.00243301514624581,-0.0142317000786881,-1.26273508599365,-0.77038669871353,-3.56931022508645,0.0150375672676558,0.00308457706988048,-0.00203598029433497,-5.31266074018311,-1.99940547882312,5.70934011444947,0.0146989759073288,0.000559185171338091,-0.00141492922450371,-0.806408327739632,-4.64366429955194,-3.90123056410422,0.0142449573525217,0.0026568646406431,0.00898070888579618
1.025,0.0562041152063557,-1.9605181809942,3.03237608455402,0.00550727569295886,-0.00160830130733985,-0.0133599478358216,-1.26235594263812,-0.769234534731396,-3.56425661901353,0.0142331124964569,0.00341200172150636,-0.0016933104900329,-5.30634001946225,-1.99694879714144,5.70111110966344,0.0138168279286194,0.000733503034376367,-0.00136735080490914,-0.806670012678978,-4.63698854760445,-3.89524055400614,0.0141443033843048,0.00210840393239112,0.00876706360561933
1.03,0.0554881538308791,-1.95739912148335,3.02924071707616,0.00538842467643677,-0.000738500297697024,-0.0124370178065296,-1.26197679928248,-0.768082370749262,-3.55920301294061,0.0133943745530196,0.00373478970852218,-0.0013375826487326,-5.30001929874163,-1.99449211545982,5.6928821048774,0.0129041349940269,0.000914901894811157,-0.00126627174052312,-0.806931697618438,-4.63031279565696,-3.88925054390802,0.0140100935989464,0.00147226016344503,0.00843405222758082
1.035,0.0547721924554025,-1.95428006197253,3.0261053495982,0.00526046694661071,0.000131809830858023,-0.0114595835765386,-1.26159765592683,-0.766930206767128,-3.55414940686771,0.0125254212631624,0.00404286746336426,-0.000982280425418106,-5.29369857802089,-1.99203543377814,5.68465310009137,0.0119675220534506,0.00109135290266436,-0.00112110819836737,-0.807193382557898,-4.62363704370946,-3.88326053380993,0.01384332165893,0.000765598509992294,0.00801300032471017
1.04,0.054056231079926,-1.9511610024617,3.02296998212034,0.00511245298361084,0.000957117864791902,-0.0104069624307029,-1.2612185125713,-0.765778042784994,-3.5490958007948,0.0116151498615654,0.00432380063943605,-0.000637180007047565,-5.28737785730027,-1.98957875209641,5.67642409530533,0.0109977660857164,0.00125182771436782,-0.000946551562358728,-0.807455067497244,-4.61696129176198,-3.87727052371184,0.0136301427920408,5.82030296012934e-06,0.00751940203159269
1.045,0.0533402697044494,-1.94804194295085,3.01983461464249,0.00492625669264591,0.00169952404295228,-0.00923980974319318,-1.26083936921566,-0.764625878802864,-3.54404219472188,0.0106316037484282,0.00456585876786496,-0.000307855167638124,-5.28105713657942,-1.98712207041473,5.6681950905193,0.00996386217288066,0.00138560617261551,-0.000762054048750905,-0.807716752436704,-4.61028553981449,-3.87128051361373,0.0133348277325324,-0.000787834446953674,0.00695194173814948
1.05,0.0526243083289728,-1.94492288344003,3.01669924716452,0.00467958376254533,0.00233601603189116,-0.00791169431387068,-1.26046022586013,-0.76347371482073,-3.53898858864898,0.00953261000469284,0.00476278504129352,1.97579349302918e-06,-5.27473641585868,-1.98466538873305,5.65996608573326,0.00882412122942909,0.00148168164321347,-0.000584455449223102,-0.807978437376164,-4.603609787867,-3.86529050351567,0.012916849239331,-0.00159661516201634,0.00630916909742891
1.055,0.0519083469535531,-1.94180382392915,3.01356387968667,0.00435295878143898,0.00286268387400273,-0.00638641660848764,-1.26008108250448,-0.762321550838596,-3.53393498257606,0.00828504859829495,0.00491767797576685,0.000287123702908157,-5.26841569513806,-1.98220870705137,5.65173708094722,0.0075462409349248,0.00152881494173055,-0.000418232315370092,-0.80824012231551,-4.59693403591951,-3.85930049341755,0.0123594896396782,-0.00240700882317883,0.00561111539765412
1.06,0.0511923855780765,-1.93868476441833,3.0104285122087,0.00393211298634307,0.00329098733944774,-0.00464255240557155,-1.25970193914895,-0.761169386856462,-3.52888137650316,0.00687005380243261,0.00504129525002092,0.000540569817023484,-5.26209497441732,-1.97975202536969,5.64350807616119,0.00611257278603713,0.00151620155021781,-0.000256332012186755,-0.808501807254856,-4.59025828397202,-3.85331048331946,0.0116729101491403,-0.00320891453103805,0.00490050939972184
1.065,0.0504764242025431,-1.9355657049075,3.00729314473074,0.00340763128437816,0.00363566324840587,-0.00266793668845165,-1.25932279579331,-0.760017222874328,-3.52382777043024,0.00527745079508109,0.00514463945838791,0.000756279115951206,-5.25577425369659,-1.97729534368801,5.63527907137515,0.00451384912239604,0.00143556267152409,-9.11251892849336e-05,-0.808763492194316,-4.58358253202453,-3.84732047322137,0.0108751189606028,-0.0039881670826357,0.00422378869825806
1.07,0.0497604628271233,-1.93244664539665,3.00415777725289,0.00277680135190967,0.00390390810699628,-0.000459001777373543,-1.25894365243767,-0.758865058892194,-3.51877416435734,0.00350571983917393,0.0052325025554246,0.000931278882439202,-5.24945353297585,-1.97483866200633,5.62705006658911,0.00274865718342985,0.00128347712868678,7.75898627270025e-05,-0.809025177133776,-4.57690678007704,-3.84133046312326,0.00998115186974272,-0.00472153820332084,0.00361673499929135
1.075,0.0490445014516467,-1.92932758588583,3.00102240977503,0.00204394364100529,0.00409543186814136,0.00197656740245229,-1.25856450908213,-0.757712894910064,-3.51372055828442,0.00156330271750962,0.00530351070179472,0.00106562518951698,-5.24313281225523,-1.97238198032466,5.61882106180308,0.000824741599911419,0.00106158162905491,0.000242767309096041,-0.809286862073122,-4.57023102812955,-3.83534045302517,0.0090018699523547,-0.00537753097554295,0.00310283242504299
1.08,0.0483285400761702,-1.92620852637498,2.99788704229707,0.00121937800586267,0.00421231671627639,0.00461734476703031,-1.25818536572649,-0.75656073092793,-3.50866695221151,-0.000531307278503972,0.00535658715755946,0.00116185889607545,-5.23681209153438,-1.96992529864292,5.61059205701704,-0.00124081890046169,0.000775748232953618,0.000396867252784905,-0.809548547012582,-4.56355527618206,-3.82935044292705,0.00794824734364334,-0.0059267663005611,0.00269622185731007
1.085,0.0476125787007504,-1.92308946686416,2.99475167481921,0.000321248287903679,0.00426795363765445,0.00742266041905227,-1.25780622237096,-0.755408566945796,-3.50361334613859,-0.00274467923408196,0.00539731259754612,0.00122473503932722,-5.23049137081364,-1.9674686169613,5.60236305223101,-0.00341662535860434,0.000436406851034875,0.000540085241898505,-0.809810231952042,-4.55687952423457,-3.82336043282899,0.00684182115651133,-0.00635632666435637,0.00240446844629523
1.09,0.0468966173252738,-1.9199704073533,2.99161630734125,-0.000623658568728449,0.00428564981600846,0.0103274122861407,-1.25742707901532,-0.754256402963662,-3.49855974006569,-0.00502514230898007,0.00543610317927503,0.00126060621665294,-5.22417065009301,-1.96501193527962,5.59413404744497,-0.00565336267326492,5.86286629382547e-05,0.000680920209113028,-0.810071916891388,-4.55020377228708,-3.8173704227309,0.00571465700879049,-0.00666795726848112,0.00222963365482165
1.095,0.0461806559497404,-1.91685134784248,2.98848093986339,-0.00158260570105626,0.00429006289574963,0.0132393625250672,-1.25704793565978,-0.753104238981532,-3.49350613399278,-0.00730511977947579,0.0054800935418913,0.00127628379287542,-5.21784992937228,-1.96255525359794,5.58590504265894,-0.00788575206261194,-0.000339029871721998,0.000828869638163457,-0.810333601830848,-4.54352802033959,-3.81138041263279,0.00459473074473907,-0.0068593171007126,0.00216760648176409
1.1,0.0454646945743207,-1.91373228833166,2.98534557238554,-0.00251991065971007,0.00430293402391662,0.0160392202532333,-1.25666879230414,-0.751952074999398,-3.48845252791986,-0.00950484996260224,0.00552908511562583,0.00127819661136793,-5.21152920865154,-1.96009857191626,5.5776760378729,-0.0100361118747016,-0.000735837768595626,0.000989447562958488,-0.810595286770194,-4.5368522683921,-3.8053904025347,0.00349537703078724,-0.00691214032616431,0.00220721320506267
1.105,0.0447487331988441,-1.91061322882081,2.98221020490757,-0.00340199795017156,0.00434589099221465,0.0185982687497892,-1.25628964894861,-0.750799911017264,-3.48339892184696,-0.0115444842606314,0.00558092566735344,0.00127226302899213,-5.2052084879308,-1.95764189023458,5.56944703308686,-0.0120265512651352,-0.00111146211704672,0.00116637490401342,-0.810856971709654,-4.53017651644461,-3.79940039243658,0.00241679103227108,-0.0068025549115823,0.00232985758235483
1.11,0.0440327718233675,-1.90749416930996,2.97907483742961,-0.00420403543774767,0.00443693645568257,0.020818829475804,-1.25591050559296,-0.74964774703513,-3.47834531577405,-0.0133651753536704,0.00563960093688258,0.00126406640966775,-5.19888776721007,-1.9551852085529,5.56121802830083,-0.0138002834275654,-0.00144999867381025,0.00136419069903872,-0.811118656649001,-4.52350076449712,-3.79341038233849,0.00135586961478736,-0.00652453372397704,0.00250965971954296
1.115,0.0433168104478909,-1.90437510979913,2.97593946995175,-0.00490998340285915,0.00457594046440885,0.0226601937875372,-1.25553136223743,-0.748495583052996,-3.47329170970113,-0.0149363716925865,0.005715163390578,0.0012588383402033,-5.19256704648944,-1.95272852687123,5.55298902351479,-0.0153290670013025,-0.00174130826182128,0.00158521867469691,-0.81138034158846,-4.51682501254963,-3.7874203722404,0.000317138810359456,-0.00610164888482285,0.00271466917206397
1.12,0.0426008490724143,-1.90125605028828,2.97280410247379,-0.00550671876162314,0.00474196253684123,0.0241187038983107,-1.2551522188819,-0.747343419070862,-3.46823810362822,-0.01624142773847,0.0058177899586871,0.00126118098873823,-5.18624632576859,-1.95027184518955,5.54476001872876,-0.0165986623720529,-0.00197839984108997,0.00182704017378027,-0.81164202652792,-4.51014926060214,-3.78143036214232,-0.00068704093722331,-0.00557674984812273,0.00290987136337999
1.125,0.0418848876969378,-1.89813699077746,2.96966873499593,-0.00597957280917143,0.00491045077426366,0.0251864831749748,-1.25477307552626,-0.746191255088732,-3.4631844975553,-0.0172597916927703,0.00595510897901573,0.00127524917613074,-5.17992560504797,-1.94781516350781,5.53653101394272,-0.0175908280567056,-0.0021538931373264,0.00208539092618295,-0.811903711467266,-4.50347350865465,-3.77544035204423,-0.00164566576737999,-0.00499569575345816,0.00306035011221406
1.13,0.0411689263214612,-1.89501793126661,2.96653336751808,-0.00630996592717995,0.00506471237785978,0.0258294411781275,-1.25439393217073,-0.745039091106598,-3.4581308914824,-0.0179583424580408,0.00613121837832645,0.0013055503469088,-5.17360488432723,-1.94535848182613,5.52830200915668,-0.0182746832850324,-0.00225761570994732,0.00235604241152113,-0.812165396406726,-4.49679775670716,-3.76945034194611,-0.00255340572467405,-0.00439862911923312,0.00313278396822603
1.135,0.0404529649460414,-1.89189887175579,2.96339800004012,-0.00647867420705231,0.00519290734119211,0.0260040147762739,-1.25401478881508,-0.743886927124464,-3.45307728540949,-0.0183007848196334,0.00634542362242278,0.00135662636853565,-5.16728416360638,-1.94290180014448,5.52007300437065,-0.0186159098537636,-0.00227855537436663,0.00263308893516205,-0.812427081346073,-4.49012200475967,-3.76346033184802,-0.00340809321369833,-0.00381836257342951,0.0030986887042283
1.14,0.0397370035705649,-1.88877981224493,2.96026263256226,-0.00647560402815467,0.0052859098221165,0.0256935729505003,-1.25363564545955,-0.742734763142334,-3.44802367933657,-0.018270647329181,0.00659381072850674,0.00143135502118073,-5.16096344288576,-1.9404451184628,5.51184399958461,-0.0185992973790097,-0.00221076251046039,0.00290772776580797,-0.812688766285532,-4.48344625281218,-3.75747032174993,-0.00420995145902266,-0.003282543722966,0.0029403673881132
1.145,0.0390210421950314,-1.88566075273411,2.95712726508441,-0.00630345032569025,0.00534059761641284,0.0249150490969715,-1.25325650210391,-0.7415825991602,-3.44297007326367,-0.0178781514385626,0.00687122960989271,0.00153060011520577,-5.15464272216502,-1.9379884367811,5.50361499479857,-0.0182356833062041,-0.00205503546820981,0.00316764385634985,-0.812950451224879,-4.47677050086469,-3.75148031165182,-0.00496496597697621,-0.00281490232750761,0.00265225398028744
1.15,0.0383050808196117,-1.88254169322329,2.95399189760644,-0.00597191543802905,0.00536133200895877,0.0236952930897806,-1.25287735874826,-0.740430435178066,-3.43791646719075,-0.0171462363741623,0.00717112158664921,0.00165448667637879,-5.1483220014444,-1.93553175509945,5.49538599001254,-0.0175484983520983,-0.00181514127708099,0.0033964668212204,-0.813212136164339,-4.4700947489172,-3.74549030155373,-0.0056871098523095,-0.00243441015279472,0.00223681812467034
1.155,0.0375891194441351,-1.87942263371244,2.95085653012848,-0.00549411756611836,0.00535360288296964,0.0220693692086952,-1.25249821539273,-0.739278271195932,-3.43286286111785,-0.0161045297199745,0.00748620912222561,0.00180238667817109,-5.14200128072355,-1.93307507341777,5.4871569852265,-0.0165677277476884,-0.00149677010024931,0.00357571982716307,-0.813473821103798,-4.46341899696971,-3.73950029145561,-0.00639253825071636,-0.00215654602416255,0.0017037079659792
1.16,0.0368731580686585,-1.87630357420161,2.94772116265074,-0.00488810483255028,0.00531449565430827,0.0201033607716108,-1.25211907203709,-0.738126107213798,-3.42780925504493,-0.014796160365682,0.00781050909893028,0.00197140421523577,-5.13568056000292,-1.93061839173609,5.47892798044047,-0.0153362283887349,-0.00111033932763512,0.00368796319041746,-0.813735506043145,-4.45674324502222,-3.73351028135755,-0.00708926333771665,-0.00199646567797773,0.00107320315670998
1.165,0.0361571966932388,-1.87318451469076,2.94458579517266,-0.00417648619675398,0.00523246650757026,0.0178935322130784,-1.25173992868156,-0.736973943231664,-3.42275564897203,-0.0132765114329806,0.0081386336334931,0.00215591770895497,-5.12935983928219,-1.92816171005438,5.47069897565443,-0.0139084017125333,-0.000671180867401917,0.00371625030423172,-0.813997190982604,-4.45006749307473,-3.72752027125946,-0.00777463642808848,-0.001969323552998,0.000376684437305191
1.17,0.0354412353177622,-1.87006545517994,2.9414504276948,-0.00338299891570135,0.00509685742717941,0.0155370820143404,-1.25136078532591,-0.735821779249534,-3.41770204289912,-0.0116013290001489,0.00846234058724128,0.00234866041154114,-5.12303911856145,-1.9257050283727,5.46246997086839,-0.0123387105507782,-0.000196172285583258,0.00364050982699856,-0.814258875921951,-4.44339174112724,-3.72153026116135,-0.00844143662241538,-0.00208780015074903,-0.000347070645283467
1.175,0.0347252739422288,-1.86694639566909,2.93831506021695,-0.00253088512535335,0.00490651746277353,0.0131123190003374,-1.25098164197038,-0.7346696152674,-3.4126484368262,-0.00981992306645661,0.00876910533699449,0.00254166766552462,-5.11671839784071,-1.92324834669103,5.45424096608236,-0.0106751577179787,0.000298488005394336,0.00343623575068175,-0.814520560861411,-4.43671598917975,-3.71554025106326,-0.00908265883391542,-0.00236097250641446,-0.00105466913808746
1.18,0.0340093125668091,-1.86382733615827,2.93517969273898,-0.00164242081724269,0.00467113410404956,0.0106780065517186,-1.25060249861474,-0.733517451285266,-3.4075948307533,-0.0079747370434448,0.00904458712162832,0.00272683258508416,-5.11039767711998,-1.92079166500935,5.44601196129632,-0.00895889730276301,0.000797793468813385,0.0030778537097734,-0.814782245800757,-4.43004023723226,-3.70955024096514,-0.00969118712560389,-0.00279603078166357,-0.00170019494629737
1.185,0.0332933511913325,-1.86070827664742,2.93204432526113,-0.000733880503950763,0.00440367763487616,0.0082752922463871,-1.2502233552591,-0.732365287303132,-3.40254122468038,-0.00609548717752928,0.00927814453309937,0.00289738317239665,-5.10407695639935,-1.91833498332767,5.43778295651029,-0.00721856993353823,0.00129018665054396,0.0025465321633887,-0.815043930740217,-4.42336448528477,-3.70356023086705,-0.0102576567193706,-0.00340211317076331,-0.00224218550102727
1.19,0.0325773898158559,-1.85758921713656,2.92890895778328,0.000190635151310993,0.00411085669085795,0.00592927385310027,-1.24984421190356,-0.731213123320998,-3.39748761860746,-0.00419168661900814,0.0094680145805869,0.00304953476898977,-5.0977562356785,-1.91587830164596,5.42955395172425,-0.00546306596960194,0.00177029378422122,0.00183781109148572,-0.815305615679677,-4.41668873333728,-3.69757022076899,-0.0107702861966069,-0.00419286570151949,-0.0026522401507313
1.195,0.0318614284403793,-1.85447015762574,2.92577359030531,0.00113623990621184,0.00379400738550271,0.00365598150902563,-1.24946506854792,-0.730060959338864,-3.39243401253457,-0.00225830879550138,0.00961917770050272,0.00318164455007904,-5.09143551495788,-1.91342161996431,5.42132494693821,-0.0036868347975514,0.00223717645320833,0.000960329585622633,-0.815567300619023,-4.41001298138979,-3.69158021067088,-0.0112162169734278,-0.00518250305167447,-0.0029136077831966
1.2,0.0311454670649027,-1.85135109811492,2.92263822282746,0.00210614643932255,0.00346003821347613,0.0014719478759056,-1.24908592519239,-0.728908795356734,-3.38738040646165,-0.000292679537338255,0.00973563381334252,0.00329132195710165,-5.08511479423714,-1.9109649382826,5.41309594215218,-0.00188592499826234,0.00268881388910313,-7.22473641468509e-05,-0.815828985558483,-4.4033372294423,-3.68559020057279,-0.0115823898326227,-0.00637788807568852,-0.0030107574093829
1.205,0.0304295056894262,-1.84823203860407,2.91950285534961,0.00309291425792502,0.00313040255768463,-0.000599627885258872,-1.24870678183674,-0.7277566313746,-3.38232680038874,0.00169243027522138,0.00981590023041114,0.00337343472766932,-5.07879407351641,-1.90850825660092,5.40486693736614,-7.04428755985302e-05,0.00311800221888868,-0.00124568538948671,-0.816090670497829,-4.39666147749481,-3.67960019047467,-0.0118547286181893,-0.00777291748536468,-0.00292202600837139
1.21,0.0297135443140064,-1.84511297909324,2.91636748787164,0.00407874959290478,0.00283851143641148,-0.00253114115117747,-1.24832763848121,-0.726604467392466,-3.37727319431583,0.00366967497365946,0.00985265014527682,0.003420356028874,-5.07247335279567,-1.90605157491925,5.39663793258011,0.0017363631818292,0.00351277735689739,-0.00254443295393519,-0.816352355437289,-4.38998572554732,-3.67361018037658,-0.0120149456028617,-0.00934712923737305,-0.00262069331541046
1.215,0.0289975829385298,-1.84199391958239,2.91323212039379,0.00504451390531523,0.00261482646659604,-0.00430419977521693,-1.24794849512557,-0.725452303410332,-3.37221958824291,0.00561167544945889,0.00983692730490849,0.00342509032104683,-5.06615263207493,-1.90359489323757,5.38840892779407,0.00351176194725875,0.00386190199324496,-0.00394761183941112,-0.816614040376635,-4.38330997359983,-3.6676201702785,-0.0120444953010036,-0.0110732431802051,-0.00208580970327913
1.22,0.0282816215630532,-1.83887486007157,2.91009675291571,0.00597846573258244,0.00247228950497554,-0.00592337328201694,-1.24756935177004,-0.724300139428202,-3.36716598217001,0.00750450550748336,0.00976608596720727,0.00338530079547797,-5.05983191135431,-1.90113821155586,5.38017992300803,0.00524580109029221,0.00416086360468405,-0.00542311051789945,-0.816875725316095,-4.37663422165234,-3.66163016018038,-0.0119370315469297,-0.0129281482733205,-0.00131636828043829
1.225,0.0275656601875767,-1.83575580056072,2.90696138543785,0.00687540573848003,0.00240561434111691,-0.0074139912463092,-1.24719020841439,-0.723147975446068,-3.36211237609709,0.0093456378283435,0.00964532587181619,0.0033035777885225,-5.05351119063357,-1.89868152987418,5.371950918222,0.00693920674369944,0.00441169169108345,-0.00692632649468019,-0.817137410255555,-4.36995846970485,-3.65564015008229,-0.0116998644503867,-0.0148896153036825,-0.000333319647692286
1.23,0.0268496988121001,-1.8326367410499,2.90382601796,0.00773214023308156,0.00239707064120365,-0.00881135391552021,-1.24681106505875,-0.721995811463934,-3.35705877002417,0.0111361863773314,0.00948296866765653,0.00318506804595656,-5.04719046991272,-1.8962248481925,5.36372191343596,0.00859617989067393,0.00461945034329745,-0.00840545079956422,-0.817399095194901,-4.36328271775736,-3.6496501399842,-0.0113470648676122,-0.0169267432758392,0.000828736569892013
1.235,0.0261337374366235,-1.82951768153904,2.90069065048215,0.00854698013167783,0.00241727544483719,-0.0101560380764055,-1.24643192170322,-0.7208436474818,-3.35200516395128,0.0128795156393587,0.00928917687198366,0.00303670948688454,-5.0408697491921,-1.89376816651082,5.35549290864992,0.0102228963676607,0.00479128240528123,-0.00980574652055438,-0.817660780134361,-4.35660696580987,-3.64366012988611,-0.0109005519883782,-0.018998735033645,0.00212509530141881
1.24,0.0254177760612038,-1.82639862202819,2.89755528300418,0.00931549590083921,0.0024287179706662,-0.011488334928954,-1.24605277834758,-0.719691483499666,-3.34695155787836,0.014574230519918,0.00907577411008027,0.00286634985610668,-5.03454902847136,-1.89131148482915,5.34726390386389,0.0118209677323026,0.00493429712291888,-0.0110678018383242,-0.817922465073821,-4.34993121386238,-3.63767011978803,-0.0103858642571322,-0.0210439174180091,0.00350002991182137
1.245,0.0247018146857272,-1.8232795625174,2.89441991552633,0.0100188592814501,0.00239685013594144,-0.0128356345330778,-1.24567363499204,-0.718539319517536,-3.34189795180546,0.0161958711509367,0.00885290549234682,0.00267992445794599,-5.02822830775062,-1.88885480314747,5.33903489907786,0.0133708181176771,0.0050496954434345,-0.0121222628711186,-0.818184150013053,-4.34325546191489,-3.63168010968991,-0.0098144166523473,-0.022951517786928,0.00488735031796144
1.25,0.0239858533102506,-1.82016050300655,2.89128454804836,0.0106194669904999,0.00229824737990798,-0.0142047817656277,-1.2452944916364,-0.717387155535402,-3.33684434573254,0.0176897171861714,0.00862678369294224,0.00247974357458015,-5.02190758702989,-1.88639812146579,5.33080589429182,0.0148250934633121,0.00512990321878278,-0.0128905350750109,-0.818445834952513,-4.3365797099674,-3.62569009959182,-0.00917349496489251,-0.0245559115665838,0.00621486608377491
1.255,0.0232698919347172,-1.8170414434957,2.88814918057051,0.0110780675909507,0.00212074244074858,-0.0155886344520359,-1.24491534828087,-0.716234991553268,-3.33179073965962,0.0189965839648204,0.00840024975233722,0.00226572420953766,-5.01558686630915,-1.88394143978411,5.32257688950578,0.0161319560784671,0.00516431331964283,-0.0133033594196975,-0.818707519891973,-4.32990395801991,-3.6197000894937,-0.00843770356461991,-0.0256964054568331,0.00742140247172602
1.26,0.0225539305592974,-1.81392238398485,2.88501381309266,0.0113780936775058,0.00186093085571145,-0.0169766020065973,-1.24453620492523,-0.715082827571134,-3.32673713358672,0.0200895154644666,0.00817374377292561,0.00203750498110769,-5.00926614558853,-1.88148475810243,5.31434788471975,0.0172682685463616,0.00514781168517493,-0.0133258142811701,-0.818969204831433,-4.32322820607242,-3.61371007939562,-0.00758747583333181,-0.0262989515689488,0.00847822014678183
1.265,0.0218379691838209,-1.81080332447402,2.88187844561469,0.0115241757328464,0.00152438556547813,-0.0183505602286781,-1.24415706156958,-0.713930663589,-3.32168352751381,0.0209700121419021,0.00794585639370387,0.00179482633551324,-5.00294542486768,-1.87902807642075,5.30611887993371,0.0182358698217839,0.00508045528005166,-0.0129561643684385,-0.819230889770779,-4.31655245412493,-3.60772006929753,-0.00661087801202348,-0.0263722145422405,0.00938507064166967
1.27,0.0211220078083443,-1.8076842649632,2.87874307813672,0.011519793617798,0.00112683971371112,-0.0196716380724114,-1.24377791821405,-0.71277849960687,-3.31662992144089,0.0216322318865437,0.00771408101857487,0.00153668582959197,-4.99662470414705,-1.87657139473907,5.29788987514767,0.0190287166161285,0.0049602675562582,-0.0122023587202194,-0.819492574710239,-4.30987670217744,-3.60173005919944,-0.00549142756342438,-0.0259329585544957,0.0101452444355081
1.275,0.0204060464329245,-1.80456520545235,2.87560771065887,0.0113644861292186,0.000689891965647712,-0.020884152038883,-1.24339877485841,-0.711626335624736,-3.31157631536798,0.0220596565450827,0.00747625980806152,0.00126189796284688,-4.99030398342632,-1.87411471305739,5.28966087036164,0.0196299368097335,0.0047831431417581,-0.0110759291445612,-0.819754259649699,-4.30320095022995,-3.59574004910135,-0.00420699368132806,-0.0249922195969056,0.0107590026853665
1.28,0.0196900850573911,-1.80144614594153,2.8724723431809,0.0110715488876542,0.000233677147626226,-0.0219321536153972,-1.24301963150288,-0.710474171642602,-3.30652270929507,0.0222542055833917,0.00723182855704986,0.000970979176891758,-4.98398326270558,-1.87165803137569,5.2814318655756,0.0200385661594353,0.00454981646314929,-0.00960661122753482,-0.820015944588931,-4.29652519828246,-3.58975003900323,-0.00274165244734699,-0.0236085306033899,0.0112372615554847
