Header,foot_Accel_X,foot_Accel_Y,foot_Accel_Z,foot_Gyro_X,foot_Gyro_Y,foot_Gyro_Z,shank_Accel_X,shank_Accel_Y,shank_Accel_Z,shank_Gyro_X,shank_Gyro_Y,shank_Gyro_Z,thigh_Accel_X,thigh_Accel_Y,thigh_Accel_Z,thigh_Gyro_X,thigh_Gyro_Y,thigh_Gyro_Z,trunk_Accel_X,trunk_Accel_Y,trunk_Accel_Z,trunk_Gyro_X,trunk_Gyro_Y,trunk_Gyro_Z
50.75,-0.501850054657507,0.264590617272177,0.971209818232196,0.422889340841128,2.6122170587928,-0.632098991146345,-1.27659690116658,0.0940103854115016,-0.191093100135813,0.322725971498139,2.48858817520786,0.0888711743517263,-1.14661515492107,-0.00255542701355384,0.0472754290159859,-0.105379984501904,0.0660768277382877,0.117323335047361,-0.978814733670844,-0.00796585012977836,0.412974007822609,-0.186926499611377,0.105854594572424,-0.554469545987503
50.755,-0.502234244900593,0.284088836865752,0.97269303060061,0.47310237640411,2.79183478327247,-0.706920674664186,-1.3638253656419,0.0934975706444244,-0.171768967254558,0.463962092043079,2.56183688451583,0.127663836743388,-1.15876291817985,-0.0187731969139709,0.0357474698573432,-0.0537761028774509,0.0541427369318466,0.135645792787679,-0.999225109259309,-0.0415447831710324,0.481484325339139,-0.206306646127337,0.0608303303312618,-0.575630664825439
50.76,-0.449165388981922,0.218187476754237,1.00926620303548,0.588754679412187,2.96750739741721,-0.824861046382348,-1.44172494305475,0.102779225588368,-0.187401906267305,0.599537673983624,2.57782158032748,0.148666769266129,-1.1852813159224,0.0273399886423548,0.0101317781701214,-0.142538821852719,0.00555306745050769,0.20093143959025,-1.1000439184671,-0.100129039712227,0.53396654032763,-0.317931422322913,-0.0195039777236883,-0.572910786625563
50.765,-0.445108541385755,0.27764693781394,1.00543479969195,0.68940786059559,3.18298441542038,-0.910637290244053,-1.59278993745589,0.148907614899755,-0.171069979670673,0.806877130630456,2.60549580212045,0.142179269766867,-1.29019152042055,0.239354501342375,-0.0642652100696036,-0.280111592052743,-0.0126211916209748,0.383245079157839,-1.23631593550239,-0.198767789470843,0.468273084177024,-0.569133129641043,-0.05050996724392,-0.569835954717548
50.77,-0.47885808933639,0.328024300851447,0.978471975130115,0.703804424614766,3.49258367046977,-1.02067038902744,-1.71509562326633,0.151918620439965,-0.153465757122947,0.956339691903885,2.62212467001209,0.116428050337774,-1.40328326135417,0.657126815334609,-0.172488395789918,-0.0126151637846914,0.114132961529963,0.746416556158478,-1.31645720236966,-0.239268549969299,0.376925931590773,-0.743381508775659,0.098756093579631,-0.600766228243233
50.775,-0.54252097645061,0.313380524331404,0.926279670635485,0.715547911030982,3.7587909507865,-1.1500667097272,-1.70316628323878,0.105698412785589,-0.173108323207074,1.01440461792265,2.57135284283098,0.0755435468132959,-1.47997810265257,0.980264033716501,-0.265405270588612,0.269094729778276,0.317467570989657,1.26446068359947,-1.3678249717252,-0.207981839549972,0.336919775428457,-0.599478702626347,0.33215635203741,-0.672109153191362
50.78,-0.597887236692351,0.352988757070686,0.933135392131288,0.719250998378713,4.04978920937513,-1.28789209160664,-1.5784343229392,0.0539945667680091,-0.183009700104122,1.09891344870797,2.5627465590993,0.0543936670795801,-1.47192854326745,0.880962410412685,-0.332956231556985,-0.0217173723896103,0.602842428630246,1.5762058278194,-1.33038307543068,-0.155243946030951,0.283764318171327,-0.436938844522334,0.411586761198048,-0.689615102696598
50.785,-0.577997105870451,0.345774045099487,0.949722480190145,0.690606678782223,4.2917732105039,-1.35529593601008,-1.52340437956016,-0.000689356605601873,-0.162823978263287,1.17654659426384,2.60296446657428,0.0936166897836026,-1.46931091013382,0.741943609087016,-0.390132775326839,-0.407782756580736,0.821567353909218,1.66319323327941,-1.2471848208734,-0.145202660702783,0.220468127596634,-0.221503829780507,0.519316419773738,-0.706958593383536
50.79,-0.547511590557505,0.286953123277574,0.939184348663885,0.763363520225494,4.50931522322991,-1.44067762280843,-1.53352135907476,-0.0417247512846666,-0.146398647310697,1.33191625914398,2.64604477002224,0.149210143219622,-1.4778740823537,0.6457563258187,-0.338582458517491,-0.536658456622912,1.18875875743288,2.02478400041303,-1.2205024098973,-0.111883559378863,0.158915845484909,-0.0712451601261687,0.666048318434258,-0.714377402304794
50.795,-0.65293152475708,0.212397287748841,0.899870370585594,0.826440268461596,4.78479158367757,-1.61619859689938,-1.60744390916336,-0.106614247052997,-0.166627903383193,1.56131026237812,2.73748785178933,0.169384915051202,-1.46479326585081,0.492163154441269,-0.22124467889395,-0.671984045644222,1.53275415910883,2.42232770482189,-1.22312398730204,-0.0575460167388504,0.143892196754398,0.000512599175638233,0.751514582105283,-0.660197102605681
50.8,-0.742491374664694,0.305955477960942,0.902610276784623,1.02432769504911,5.17670043893657,-1.74362375052922,-1.69298578984839,-0.0877544180173724,-0.175197769361324,1.64642780839144,2.82282220344539,0.167517311875857,-1.45612254577492,0.179988891428989,-0.0741613535134192,-1.09575946493268,1.7945497109601,2.65886691617165,-1.220442090276,-0.0388615343137376,0.168423581729327,0.0302591588154193,0.834767032685084,-0.591263276884798
50.805,-0.670588445052051,0.42723578144285,0.98921123306267,1.05860635071572,5.56823920652522,-1.75352283941218,-1.80945262308031,-0.0471001045751069,-0.0655428285731311,1.78924270993518,2.86772619534641,0.147264646511447,-1.46780375163689,-0.168332421446442,0.0520431488949107,-1.56283386829286,2.00378919088442,2.71875676738695,-1.2700931528358,-0.0566906651895752,0.133464387873636,-0.0620108225155614,0.874748956249024,-0.526350984923973
50.81,-0.550454788567276,0.492325090171607,1.08010673813424,0.991245343354488,5.9564009179319,-1.83211388737153,-1.93962072624355,-0.0322305715768447,0.128544327478381,1.91346244164919,2.84458011263564,0.104763936487059,-1.49892892218921,-0.337001159842912,0.121833336891894,-1.82476561394813,2.07831943818264,2.69943523417348,-1.33258907340221,-0.0725084115949045,0.00872483054002507,-0.309707050748887,0.928798036782069,-0.433949988303551
50.815,-0.525077839725661,0.56909327717584,1.04086075974424,0.867054885473168,6.27542713592529,-1.95967085798251,-1.98982967865136,-0.0289457911047606,0.324018955241231,2.07051968679623,2.75336983590827,0.0570930929552216,-1.53074709698292,-0.343979737079459,0.204013336499511,-1.91987242804054,1.97259885855124,2.76869245370727,-1.3677373711185,-0.0682521466933531,-0.144011129758439,-0.520386155465692,1.03438927589275,-0.339370616238415
50.82,-0.511050082512265,0.541302042316239,1.07608605708235,0.645551437363456,6.67331196849713,-2.07674898527201,-1.9456714993952,0.00700485851235934,0.460832642716161,2.41748330835257,2.56409205085469,0.0606801085420375,-1.54912320785577,-0.263516364251837,0.244295678717805,-1.88230225196114,1.72485558605547,2.9067262240768,-1.30613732235514,-0.0217674975508155,-0.256039157303152,-0.505570171823734,1.05064921074285,-0.257215185531287
50.825,-0.551271894826441,0.449690808873773,0.874874776636919,0.346781227953584,7.21834594477143,-2.23095660883554,-1.79617329377514,0.037485785658935,0.434114853855222,2.75725590419312,2.36846421944022,0.0576534697634114,-1.53349348342994,-0.158293633118111,0.239120637184705,-1.66441459162698,1.40512779702853,2.94844975910704,-1.23607104333871,0.0140436055406736,-0.273136280943543,-0.303002009664027,0.932351620588668,-0.196466328663772
50.83,-0.609600711973403,0.347457605674423,0.878179705578215,0.224701052884936,7.7785062817242,-2.28551083595101,-1.66415708864573,0.0449493184916457,0.351337381574199,3.04851362838881,2.24324794601377,0.0239456918986586,-1.41479396100687,-0.0906885007714378,0.189318377529409,-1.40961529531482,1.15651758416946,2.89446042974576,-1.15580469654091,0.0332255283220059,-0.264432914964579,-0.139141866022545,0.668880698422635,-0.0973323957145564
50.835,-0.611656776006737,0.237529575611166,0.984292227546478,0.436076656669152,8.49275005475326,-2.49846771837903,-1.54437837119811,0.0497434567652237,0.381867377228224,3.41517641832479,2.06229721526385,-0.031363733126855,-1.28185895601708,-0.0731861350477323,0.134595224379209,-1.25260514333208,0.996820429063755,2.7905582085572,-1.02974321041554,0.0165987057199449,-0.230210238958753,-0.0334665230314934,0.435748991123114,-0.0291046906771865
50.84,-0.648071899992217,0.350790315572906,0.869794418602464,0.710091091897415,8.91772766948832,-2.67461729023444,-1.41384679750136,0.0500406979352319,0.246594848273883,3.64319364194266,1.85683224261266,-0.115853151347166,-1.15904190704656,-0.0834213975399254,0.0715741311119096,-1.03473147022014,0.863778995794851,2.70276858198814,-0.972900572361999,0.0119676575555286,-0.197583351418212,-0.0500377661677267,0.265517502405008,0.0211582688786629
50.845,-0.69035140702186,0.374729817822048,0.824961856427637,1.31223638193847,9.42735536216435,-2.84199918279128,-1.22503733503315,0.00610506404131081,-0.0143770812592606,3.39731673614048,1.86271568974116,-0.231918922966033,-1.08499885144592,-0.122103527740709,0.0475876891543148,-0.719847452483597,0.770471058630059,2.62304616730048,-0.927885181131123,-0.0128403432852822,-0.150973516433635,-0.201424923044592,0.123136446485015,0.0685452246626558
50.85,-0.714383394407122,0.373339272844347,1.13583456726409,2.72199334132077,9.81959176047557,-3.04502766448037,-1.08239436139929,0.0280895933724243,0.046177199940081,2.94993178057462,1.89414005899121,-0.377996974133619,-1.02261655521139,-0.211931822311917,0.0704945343889967,-0.52231041408297,0.756327119329095,2.58854089919138,-0.927659826296132,-0.0495298167225848,-0.113416144085641,-0.413655270424849,0.0481080482640727,0.0856167036625212
50.855,-0.973642588269658,0.361136461475411,1.6163021485658,3.62130101836002,9.44464583773864,-3.14829003169521,-0.988976464650667,0.118992670114194,0.0649354406363163,2.54302311093414,1.87980593981151,-0.487322979267153,-1.01997201414145,-0.311647179646925,0.134255294324218,-0.518890453872384,0.751478559881064,2.5699222248416,-0.933259753490593,-0.0679409911287028,-0.0991890907695877,-0.565937648877761,0.0301205503690786,0.084949444217101
50.86,-1.0101424579488,0.744480967958832,2.04440091033338,3.62209710317342,8.65284313105373,-3.20325631321407,-0.826369405897691,0.241495330452828,-0.157915548826186,1.73601801564094,1.90482758195043,-0.531555405563468,-0.95023163690624,-0.514058701344965,0.249134002457451,-0.711048085930758,0.739261951005701,2.55233550235294,-0.965509779459519,-0.120608378121333,-0.0845390539141619,-0.87548754529575,0.000351138376988363,0.0759607194927695
50.865,-1.6926891478985,1.52630913931668,3.10193214979746,2.93926617983557,6.99483655877796,-2.97159292311748,-0.638442361936061,0.264478434185678,-0.589504346077308,0.932384027757028,2.00847059934907,-0.480221517965667,-0.936840665695064,-0.690301922578903,0.344853355429009,-0.731313104697114,0.602890168322219,2.38491277873984,-0.955368286401239,-0.172569682531297,-0.0757280137862154,-1.05912657525661,-0.0162053667506921,0.0576859367670531
50.87,-2.37459558215874,2.55770161863341,4.14918383954374,2.40782906045502,4.94843556452601,-1.61900636281638,-0.539383153593536,0.211887285991327,-0.993081038659562,0.268405602038751,2.08999852409831,-0.44311223736213,-0.983109501658674,-0.783673844703736,0.321247289482431,-0.734923220794846,0.442760400942803,2.23875792986019,-1.0068228748713,-0.211940133151563,-0.0574072630110983,-1.11304605119671,-0.00405335068321701,0.0257454280173113
50.875,-2.42091529694289,3.17678342953972,3.92356344010918,0.855450881357633,2.07612807232116,0.42527945022505,-0.557370180612199,0.250095481056446,-0.863807420643533,-0.16032604152168,2.04497715967596,-0.527809395702182,-0.974328185767211,-0.85473946164006,0.3075420819194,-0.715846499740152,0.301480730818841,2.22208040610864,-1.06968386016334,-0.239073264025013,-0.0572422827712789,-1.04780147238548,-0.0845055848936743,-0.0210770516217154
50.88,-1.17966537623585,2.6491817415495,2.43951803639745,-0.852409484212935,0.631259366469536,0.879858808693091,-0.751679616467152,0.354997535769138,-0.369970712729413,-0.308320058355459,1.82111323693996,-0.633474162427139,-1.01355255326608,-0.889847414797768,0.282465180487608,-0.459918104072402,0.139198238677164,2.04848688510547,-1.07962029754936,-0.247587422386535,-0.0407778096495426,-0.86700305641418,-0.180705344032066,-0.0641809556023361
50.885,-0.110412798999427,1.30875257951408,1.47551261655809,-2.05596577241688,0.0161587895819415,0.89451688155227,-1.04769617156688,0.471064361960743,0.0693685472182928,-0.615567496263286,1.48553611814819,-0.696492498871101,-1.10605223323792,-0.849874224608065,0.262203017305209,-0.0368347636495596,0.056461738785204,1.7901663507541,-1.10977150081727,-0.251368868207804,-0.0118721184400828,-0.629524962313471,-0.295081350145891,-0.0996992877102532
50.89,0.439828778702335,0.264987276507542,0.91492238019249,-2.57890807866263,-0.0420458403002407,0.779860193531802,-1.26010992836047,0.390867965819305,0.268676350078477,-0.938652856858617,1.108588000088,-0.540248031512766,-1.18176159754474,-0.781495036698251,0.237700887018866,0.433633875334541,0.0310449088583021,1.4872294525913,-1.15609336229735,-0.254414572111245,0.00321945720461288,-0.447815992359849,-0.397013704135767,-0.121039281546507
50.895,0.471516970834255,-0.574173721850829,0.81841316507805,-1.79372597493126,0.184428901629784,0.724305705991105,-1.2690374084328,0.178707422615727,0.209898913747243,-1.27445056646078,0.893499194039419,-0.409233968367503,-1.32521072222565,-0.645069641093062,0.177262633351995,1.1166250458585,-0.057816571189784,1.15783641526525,-1.1829420183686,-0.235421254411891,0.0119619631000193,-0.264580730065635,-0.535729454316793,-0.141420410576775
50.9,0.171758487470663,-0.61140405685712,0.94978249206977,-0.546255770081398,0.166435937977947,0.811489895547289,-1.00581318073969,0.00382223792279821,0.0274474161544797,-1.78737377152885,0.677252912755156,-0.311285343621709,-1.34507381533359,-0.547863686592686,0.138728098764477,1.61413816866381,-0.0966833385173295,0.987450014475239,-1.21913377198066,-0.208900944715715,-0.00547038793089777,-0.183202337841434,-0.663256698849243,-0.141279529800016
50.905,-0.114556453517646,-0.134353219959129,1.04233693907208,0.469287640109094,-0.0798752864827658,0.883728898363483,-0.706067056624176,-0.0867795376981746,-0.18744819618408,-1.95780689332167,0.541546284411165,-0.368316836009243,-1.34289972220834,-0.478844008258741,0.0839053964719263,1.99342827793504,-0.0725787878235092,0.861800996568606,-1.21040609523084,-0.183723653052778,-0.0215522049814359,-0.0836484469495809,-0.824998996353007,-0.169209199193419
50.91,-0.288971801779837,0.314900960058023,1.05930320506329,0.728388045153234,-0.395515864606148,0.863259724454396,-0.488298270808767,-0.0961925514583366,-0.315025835046451,-1.82336596108282,0.378346214157313,-0.431802360920009,-1.29120398280564,-0.456288467824001,0.00278347811338556,2.01111011482888,-0.0968136758266051,0.750247587053538,-1.15517656900811,-0.173371349891644,-0.0275321682440266,0.000874956554370679,-0.963898754816114,-0.210397230467426
50.915,-0.358690709667614,0.487703793953106,1.03751833614652,0.440404838205768,-0.75245742976414,0.761018669278904,-0.369240692618734,-0.0144665472051518,-0.304740771266622,-1.44145619948238,0.144027715642381,-0.473274072268341,-1.23063176175811,-0.472991385568327,-0.0806396977348288,1.70133505676285,-0.110727259467714,0.690983128193893,-1.08394618047652,-0.163777516083553,-0.0234876701130664,0.0542383050346072,-1.06235789661362,-0.249611415616083
50.92,-0.309253895934545,0.360637977554068,0.956672395549714,-0.0291413709636543,-1.0997505730072,0.582697943491204,-0.358650471595994,0.0249139618742086,-0.263007331204275,-0.958439782501071,-0.055069251225791,-0.46178058132815,-1.1652126173912,-0.517728010459215,-0.214124468372833,1.19124678102603,-0.0851465391945969,0.724841449027747,-1.04128115336061,-0.164549594649721,-0.0169024454774398,0.00517549378539455,-1.07359499354473,-0.255009692338318
50.925,-0.224820461650141,0.0874302777857624,0.863504388367476,-0.317058997181022,-1.41902091088687,0.38225806735438,-0.402146364630573,-0.0635640164702199,-0.220258035787255,-0.546247542044799,-0.248586499055659,-0.386636055152191,-1.12222761482882,-0.529653609805402,-0.313910305422589,0.85708935022426,-0.0449462440029737,0.789354509960358,-0.999137722009139,-0.172757999410472,0.0103344647678223,-0.0647919624069007,-1.04670095025897,-0.270670586898484
50.93,-0.166450812139738,-0.170963024678578,0.796073085804714,-0.202467469966156,-1.6727178483952,0.233095558965109,-0.448834292644796,-0.160988658593002,-0.171752104680104,-0.218010301375749,-0.406207632082301,-0.311673364409725,-1.08394605612871,-0.528295979355707,-0.401658627737613,0.72364848126695,0.0275309821259884,0.865324021649677,-0.953357949041018,-0.16438108766198,0.0296228657267819,-0.125334235539726,-0.979066070184497,-0.284516729420944
50.935,-0.166954445267427,-0.275566067955362,0.765643203292764,0.146943718812919,-1.87436582398342,0.153416845071023,-0.451399310425403,-0.201358142023328,-0.192168430613628,0.0898901652805795,-0.564012930136126,-0.293213335878493,-1.04842456851292,-0.518160033260354,-0.446271405860437,0.707619147591121,0.122024472441367,0.916646938754927,-0.920228759350127,-0.142303166344868,0.043370273585615,-0.209823569776824,-0.845237016704637,-0.269904875409822
50.94,-0.211091388876634,-0.222637000890231,0.739805259411572,0.540640666085144,-2.06910013489482,0.122131510484533,-0.429373422763014,-0.268069373748071,-0.303172722337936,0.605332343370887,-0.758196229693684,-0.315096576108654,-1.01007914209094,-0.499289578171005,-0.448902132180977,0.684404096039204,0.208073442695023,0.955873159770973,-0.911210978485033,-0.121102753166473,0.0356444929585632,-0.295222219148665,-0.699828744800728,-0.217959373962301
50.945,-0.249324003717524,-0.0931480080613506,0.716000253092862,0.75407039705953,-2.26678967312278,0.0817365186059522,-0.425586846917055,-0.324675528805737,-0.302816848165444,1.00674998187715,-0.901487007688152,-0.330077914610467,-0.973465801057569,-0.468397401396478,-0.415664216818131,0.659362955580265,0.285222095048458,1.00292554890222,-0.916113685010853,-0.106630772221057,-0.000464485792017778,-0.365035477057547,-0.531524817243173,-0.17045276363197
50.95,-0.28390570055515,0.0393652782083862,0.674784368699437,0.780613837348684,-2.47152811238091,0.0292042818482098,-0.440307882553017,-0.306940649667645,-0.263945837865863,1.46197364843447,-1.08262924518428,-0.340148631143362,-0.947284091531333,-0.451036391934007,-0.36667679888678,0.6403653051547,0.33040354132914,1.0550217912017,-0.933946860926572,-0.103021044796636,-0.0470322036953347,-0.436263387962808,-0.342575492726216,-0.103122140051521
50.955,-0.332088173430067,0.0939903700519339,0.676349567789164,0.709347685599987,-2.65974318419623,-0.0140963397731675,-0.44777035982464,-0.257867147176664,-0.279157681045538,1.87705582092099,-1.26289635677809,-0.332598203171186,-0.938225431071286,-0.441679886669625,-0.326060668535425,0.604022279329688,0.324467856501554,1.10326242434483,-0.961365975977207,-0.107472606996026,-0.0731642277416376,-0.502466871729885,-0.19289628812125,-0.0408429887133427
50.96,-0.401454132724759,0.102006783355197,0.721385305547161,0.541438686116003,-2.80024000950566,0.00498635429263911,-0.454211064935754,-0.264093732384895,-0.341138905262833,2.15689730766686,-1.41806890199993,-0.308246970176697,-0.921977102493102,-0.442981484401005,-0.284545092559633,0.577941676840714,0.290842275455161,1.1618496610179,-0.997428753779801,-0.122950126534917,-0.0839640727974524,-0.557960217539211,-0.100720348650287,0.0184367562581145
50.965,-0.427825640463284,0.0821718242724764,0.742165119480412,0.453737264064073,-2.9288024810552,0.0760365811183502,-0.472736783210402,-0.275038177187487,-0.318584155049363,2.23379536869846,-1.52761487096447,-0.319932168582903,-0.915485624101956,-0.44447382795994,-0.249484660393883,0.529053710991388,0.279364493112407,1.19339950341568,-1.01717871625795,-0.135253086153689,-0.0689842686379119,-0.61424764891579,-0.0534746744354567,0.0617987887059178
50.97,-0.418966456028136,0.0578595313949987,0.737657709138615,0.440833005785377,-3.07191292944526,0.181965994021088,-0.510968507868227,-0.254011986143071,-0.350830959441167,2.21697375997646,-1.65179973749892,-0.346541366200529,-0.914120563037087,-0.44880663793238,-0.229186272941837,0.453147848078078,0.268859555843937,1.19853765332236,-1.0193042441737,-0.144017571516152,-0.0426222838439276,-0.658209069663499,-0.0350505944997093,0.0791556078284959
50.975,-0.374682006790554,0.0385476836559191,0.710381039367477,0.413011984849159,-3.20847852148441,0.294895834049458,-0.554593012665168,-0.253925336828264,-0.331992107222633,2.17409581701213,-1.79018788254151,-0.389132082314528,-0.914448953408863,-0.445836671665127,-0.19588051161127,0.370571043933923,0.313213467543616,1.20138000188468,-1.01126911950352,-0.14952858698555,-0.0130209247834247,-0.69410197664461,-0.0475986295684582,0.0913370787117461
50.98,-0.343173925342713,0.0405820623528173,0.655083048638885,0.292050040028843,-3.27763888227737,0.328447114790137,-0.615220984015247,-0.213467130756488,-0.268784750104037,2.12945120853497,-1.94285128208003,-0.4318574067976,-0.911365488355716,-0.442177922324856,-0.17762367994155,0.376672619839184,0.356380175624394,1.2223639634281,-1.01286132410375,-0.154119677624305,0.023534353681952,-0.761528415047782,-0.0909481334505762,0.107646410810718
50.985,-0.336771122540404,0.0365316720457287,0.6175542436759,0.136767133382252,-3.3406162747584,0.301076627217844,-0.668813969235587,-0.179141201277086,-0.245824528835548,2.1127457934885,-2.06962952104861,-0.472769492076522,-0.926327927875752,-0.43616869413023,-0.156266066036074,0.345514009028775,0.336820336465829,1.27196942413567,-0.990706565024748,-0.153574942544032,0.0445236628333033,-0.820032428152037,-0.117752997326532,0.114457607435607
50.99,-0.337998110924216,0.0509387335790753,0.613905566767027,-0.0169927305764931,-3.37125024733836,0.236508571789323,-0.696338741552587,-0.146895459450736,-0.231976860346424,2.07548711801163,-2.18133581213992,-0.490462726960584,-0.922085756746374,-0.40858983713672,-0.125611352779387,0.300851653376515,0.292682977150635,1.29821419715881,-0.954096829067723,-0.152283043904849,0.0594861996086773,-0.880381489273664,-0.14559968317484,0.124056898652153
50.995,-0.356607030991566,0.0594906037669515,0.62439491820425,-0.187847449758418,-3.39393915584171,0.168213706409315,-0.733523029604456,-0.109418803437075,-0.252086848113264,1.94369917533595,-2.27810961142551,-0.494183979567262,-0.919320492252652,-0.385625771889586,-0.0973633113055695,0.326823463078393,0.264442375568714,1.28370358808431,-0.92494145606304,-0.161225442764949,0.074332107154208,-0.922485031761787,-0.154030486766347,0.130720041916527
51,-0.417990121057223,0.0684741831966913,0.666396841716378,-0.288725818580881,-3.40669395309009,0.14038519672429,-0.754377717882639,-0.0630443806996944,-0.280888830048353,1.73025061063422,-2.38599379144911,-0.501144271154696,-0.91854286552247,-0.37120147856763,-0.0770115170848149,0.336034187475108,0.219540073070152,1.23765002227293,-0.906015902499128,-0.171637344745806,0.0794076016711343,-0.949064608815779,-0.142408450790333,0.134110164457395
51.005,-0.442867106393252,0.109551604121536,0.694691728846,-0.295195772513833,-3.42417267463454,0.170577820569947,-0.758948200919037,-0.0561694367599776,-0.306084564926473,1.40741100561002,-2.50878576458237,-0.51993285613507,-0.927395967593301,-0.360791073001172,-0.0597386425751908,0.309240497008055,0.19145966986684,1.21529390989391,-0.884667886839171,-0.176793906623126,0.0865397778585568,-0.966999334206528,-0.121619637527484,0.123652214203793
51.01,-0.478146265278041,0.225663466673536,0.707361982882018,-0.300126464484275,-3.45021194221974,0.250780699337673,-0.750647120231655,-0.0634619583284895,-0.309674679642451,1.11145476081132,-2.60276426159373,-0.555461022824304,-0.93202968494323,-0.360376754508191,-0.0304441671974008,0.288302513860683,0.1357253113191,1.16587067363639,-0.865155168179906,-0.192874521367797,0.0937759946746525,-1.00098482063453,-0.0822722186066869,0.114712185849464
51.015,-0.511437552171609,0.321938162429181,0.70022631971611,-0.358058783687186,-3.48562256422815,0.341077633256213,-0.74012774190884,-0.055150816745701,-0.314504333424497,0.692836577951569,-2.70835041615576,-0.598999756832329,-0.931889959896188,-0.361115976646138,-0.00783480255647276,0.290660644652431,0.0933510630856079,1.12605335566032,-0.854765782742294,-0.200090148058909,0.0850275805114549,-1.02418875910386,-0.056378191232173,0.115768358406279
51.02,-0.51871603458638,0.366003257620929,0.65872941503097,-0.457916050324025,-3.49206103951723,0.442946501908699,-0.735829293737332,-0.0462360896356799,-0.312825186693534,0.374311095431255,-2.78797801031423,-0.64252062953277,-0.934792045526063,-0.367092458909074,0.00783750458437438,0.333396669923685,0.0602372244635142,1.06936816616549,-0.843248572649707,-0.188890985830581,0.0773215388833622,-1.01964665531809,-0.0457968115183999,0.100173449363837
51.025,-0.518875844132308,0.38080487137792,0.625198750457264,-0.578650556655316,-3.46926432150373,0.569155448179075,-0.74539056235518,-0.0461490268993048,-0.31730073943163,0.0150712797313675,-2.8725576697011,-0.682859608209434,-0.930031484185807,-0.373026072412507,0.0106120316641424,0.382994457863842,0.0156099951500504,0.991052923055086,-0.838957331556315,-0.186755172214502,0.0642769778450703,-1.00272889912848,-0.0533339902758598,0.0898619320401435
51.03,-0.519571300129086,0.370502294752671,0.612148612466241,-0.698443990585338,-3.40046610652666,0.702819521050145,-0.771434012072549,-0.0592611769951338,-0.319631435512551,-0.37267085355241,-2.96936261531244,-0.726463495886527,-0.927688491968324,-0.374620321476694,0.0201356210317975,0.431080480533636,-0.0266594136164866,0.912504708608416,-0.833372711985835,-0.187988748647312,0.0506199669984875,-0.973249810804106,-0.0559473184255218,0.0891411227491951
51.035,-0.520782883127975,0.363192141802595,0.611193440655145,-0.80175487046068,-3.31290182120454,0.875899357240804,-0.793981242096684,-0.0792227587141023,-0.316391339218454,-0.687664784561238,-3.05261515968448,-0.765734478905138,-0.9170714447102,-0.375288916491835,0.0306453753942886,0.482236813949598,-0.0805538677583232,0.812213281661307,-0.82663618171493,-0.190361129022224,0.025605478956441,-0.959012690001038,-0.0463569624542481,0.0961051600774523
51.04,-0.539527762404683,0.375878445348032,0.624733769290746,-0.901671615887296,-3.19972543538579,1.02131725420358,-0.82297915969574,-0.118135515596535,-0.332640775513286,-1.10493789860691,-3.15931817248015,-0.828937998293111,-0.909434318859757,-0.372272458214024,0.0425096737774972,0.54868776775439,-0.12520962867613,0.7352436852424,-0.828764626300884,-0.196047702656872,0.0169456862776608,-0.950487679343816,-0.00486094466975251,0.106043838546286
51.045,-0.57323275180326,0.401725912317112,0.649581228152193,-1.00512305838304,-3.1290517048624,1.15024190640848,-0.842956189874274,-0.112500100334805,-0.347766506129116,-1.38331989830382,-3.23785326254004,-0.871388622601656,-0.896937878732085,-0.374149913603483,0.0593880079125911,0.624843585374994,-0.17306892249157,0.667583763844685,-0.844687472097838,-0.206864461964497,0.0134046859242745,-0.961788982249755,0.0347579128926329,0.113405078649521
51.05,-0.612434099852457,0.436586885531346,0.691464997944208,-1.15853123586837,-3.06612444501973,1.29468325048992,-0.870250631115439,-0.110838246062829,-0.354557079428033,-1.5960822985636,-3.33112192014844,-0.925758609728374,-0.879274179923798,-0.373401960978503,0.0896074575613444,0.724059217089326,-0.219764702742266,0.601380046641816,-0.870113075730518,-0.216865389063719,0.00900101383553881,-0.999481405166889,0.0898637104446438,0.114336610127729
51.055,-0.63572275867902,0.467179531800421,0.736130665430701,-1.35234588448281,-3.00680728960158,1.46034804220217,-0.878679709491578,-0.112827034005926,-0.350891926704099,-1.76551807358897,-3.39822718049628,-0.977031936469866,-0.863098546343798,-0.375657913115453,0.112349612163618,0.818160469141277,-0.244224038979766,0.551553275668272,-0.896176272935044,-0.227316194553587,0.00683915703286108,-1.01936571191724,0.115887435628218,0.0969868553256834
51.06,-0.659436230571224,0.50216733567874,0.772838419118362,-1.48546615018211,-2.99563101504732,1.57810130490623,-0.911040438136022,-0.112444024346472,-0.366978526405952,-1.97699233797553,-3.4885268520889,-1.02657702261639,-0.835631263324045,-0.376894400981765,0.141613099482029,0.950747974672083,-0.255291190807929,0.499801300145063,-0.913489027083312,-0.224470667873974,0.0172345634634354,-1.0302996636183,0.121565756210072,0.0768282489886989
51.065,-0.686690358741989,0.530825507541545,0.81152400274038,-1.56827052740297,-3.00609268769793,1.69183224426385,-0.950810227906197,-0.116936199358708,-0.378478201631667,-2.09987183538889,-3.56266226368471,-1.06061120444381,-0.816736000550034,-0.375187777629377,0.161740708585939,1.09191992562913,-0.253754429793436,0.449079846909931,-0.937754741360861,-0.22136421342057,0.0283017213060253,-1.04653226125205,0.10570618746832,0.052488107746264
51.07,-0.729027450797737,0.537200862196119,0.842420549650895,-1.58590712142996,-3.02098384756712,1.7957792736055,-1.00258496697095,-0.128690418476088,-0.425436696312311,-2.19860200869837,-3.65983838572175,-1.0904778100532,-0.796749805240367,-0.379018784264678,0.170255151016963,1.20782864259475,-0.247621938901674,0.409218652261735,-0.951117893614458,-0.229700169707711,0.0426208101775195,-1.07575069661697,0.085368167467132,0.0338720888492387
51.075,-0.783810892502611,0.572744915795371,0.821164332381398,-1.57815260135883,-3.04192262917817,1.94705770912885,-1.05027117392828,-0.1477487538015,-0.447072420557796,-2.24066453815737,-3.73991256350098,-1.11255768230282,-0.780914476528433,-0.379881889364978,0.170823782062577,1.3596359324436,-0.219166955778276,0.356442247011136,-0.961125325245061,-0.233950270937102,0.0473072202920157,-1.08938463280893,0.0519984086744321,0.0158081797594198
51.08,-0.82160124869425,0.617345244116574,0.795045652237829,-1.5823840191461,-3.04693624471651,2.08396545309201,-1.08346690008088,-0.152440662563921,-0.446192988605062,-2.21374840503818,-3.78225618983257,-1.13431325624002,-0.767744628275764,-0.384850676601839,0.161723830487036,1.46629566331136,-0.179380833997384,0.315351688172499,-0.959131820034019,-0.243300306546714,0.0645185989950283,-1.11685890507367,0.00321585675485118,-0.00352717696198887
51.085,-0.861646188377363,0.645081338997122,0.752569854552293,-1.61709056463502,-3.01103699358055,2.22344993173921,-1.11854827284913,-0.144231286281747,-0.454234632486621,-2.15772327430395,-3.85028844292581,-1.15789960777618,-0.765467488030101,-0.386867445067517,0.1424553616513,1.57172619436288,-0.119972880674135,0.274901519116294,-0.957337027602988,-0.24579276368968,0.0754025057423823,-1.13896976538761,-0.0313395793456638,-0.0174590502276615
51.09,-0.911137976628271,0.646798808101525,0.726929995273452,-1.65037709075269,-2.94619701211065,2.32750826526725,-1.13313830966625,-0.132708192295235,-0.452976091522103,-2.06640744130748,-3.88705921789389,-1.1730047908467,-0.764516407932147,-0.392700651302241,0.11686154274817,1.6689436193832,-0.0361240421570588,0.228161908742073,-0.954006176314383,-0.243753915509204,0.0806782416357106,-1.15230647468982,-0.0580268301501272,-0.020754321610844
51.095,-0.981420091451777,0.64991601420631,0.744970626736643,-1.65587545712732,-2.8734466934101,2.42641865261796,-1.13386701800503,-0.0977294272356797,-0.478516995875821,-1.90968883221211,-3.92471903170989,-1.19989556295394,-0.769962513114192,-0.398293165265716,0.0919986005943155,1.73349951650379,0.0512301170467097,0.198273738123401,-0.952361219362188,-0.239190083966462,0.0916931550958567,-1.14949287999974,-0.0828663771040043,-0.00874377897274087
51.1,-1.08826492939518,0.655364373442954,0.757740289960881,-1.65409185658702,-2.80080648333192,2.55415442724665,-1.13092374337227,-0.0770277905655727,-0.518658025102506,-1.80847724065047,-3.92490756913106,-1.19898458523238,-0.778003369082659,-0.398480289095902,0.066435800561034,1.77005696238795,0.141380226966427,0.138268728578853,-0.947216942240884,-0.234922298057351,0.0848509953604502,-1.13351121374594,-0.108943673955072,0.0102889208065877
51.105,-1.14875883891417,0.663680252027138,0.76175362472311,-1.66300143451345,-2.76799344783236,2.65889569004347,-1.13993532761986,-0.0553151188049873,-0.546704717192656,-1.74103244068574,-3.93279067348472,-1.20965019372569,-0.783812028695723,-0.390977722516026,0.045269552511144,1.79266703725348,0.242898596484261,0.0640778813643825,-0.944876260177352,-0.229140467231194,0.087378906414296,-1.10854131814892,-0.133479394097896,0.0347952033735367
51.11,-1.17638386564302,0.677711217027362,0.726365785577681,-1.68802885386657,-2.74300624446407,2.74108099984069,-1.15660725788059,-0.00575747673369906,-0.554397979790058,-1.69929166027823,-3.92837243660391,-1.21835392963934,-0.787012910830322,-0.380171842968083,0.032817485958543,1.80937361092564,0.329852330005999,0.00477159156764726,-0.940959686813538,-0.221107798756127,0.0862348187678296,-1.08456608822584,-0.154633523315796,0.0642146300774385
51.115,-1.18752697652167,0.694237088922928,0.655320752329412,-1.78536939176107,-2.7005987221559,2.80934162295586,-1.17244743355112,0.0577867877271284,-0.546835244411699,-1.70949885252246,-3.91755325054303,-1.22428055425946,-0.780585973426345,-0.358973982595824,0.0186989630432786,1.85699050450641,0.426722717241571,-0.0473238406653378,-0.943956006762132,-0.221816038030037,0.0847179248427598,-1.07760839408565,-0.173302460536572,0.09275503059812
51.12,-1.19437397559051,0.67360818148056,0.609983915008221,-1.88816078202954,-2.62380998698564,2.82044466007844,-1.20328394305107,0.111177275590829,-0.548644508985999,-1.78835628022793,-3.8879519823218,-1.21997714650123,-0.777431435522949,-0.339703156931426,0.00887700452426494,1.93251090819264,0.499833399221358,-0.0756379132599133,-0.936901992692846,-0.215724221914396,0.07826966139865,-1.08853220597752,-0.189502217983304,0.131180032727839
51.125,-1.19839528173809,0.64972536033553,0.572962801791664,-1.98406527474259,-2.5156690922092,2.82116344783557,-1.22318282021378,0.157361240350023,-0.55448793201746,-1.92808737533416,-3.86384749596629,-1.21756161628205,-0.76927639269513,-0.317604973439395,-0.00499629622526753,2.05603848102866,0.585947411914375,-0.0700025277188464,-0.941344632742327,-0.209993113368519,0.0730255100380993,-1.1087833638637,-0.189396747317616,0.153453268755616
51.13,-1.20304096661814,0.645300800729933,0.554090644247478,-2.05254091014306,-2.42072914996437,2.8068849004441,-1.237024402011,0.189849195115613,-0.562376279497285,-2.1005919886063,-3.83723897209158,-1.20651189061411,-0.760400427389448,-0.298876103105629,-0.0224592117730246,2.22461894625344,0.672795432841245,-0.0317807993918914,-0.945007297311654,-0.199183170650092,0.063652627285507,-1.13284813719462,-0.188228880376204,0.17505105788977
51.135,-1.20236572680466,0.658398800541651,0.520692184332721,-2.11816513003275,-2.31930535537085,2.79238101388262,-1.25573006878599,0.227338056463865,-0.563614699219181,-2.32073300480511,-3.7880993883597,-1.18592771470489,-0.761471828449701,-0.284047002346671,-0.0330616937594008,2.40792967335204,0.737781881552841,0.00416407834903499,-0.943436887259384,-0.19125117667592,0.0612730043355634,-1.17744756608091,-0.168166481763971,0.195264432415948
51.14,-1.18395822246337,0.696425750245792,0.477384785172155,-2.21937167609779,-2.19890665118461,2.75950919135994,-1.26692973933864,0.232957231819231,-0.534928951146917,-2.52004927488927,-3.75776660086007,-1.18037918038573,-0.757836499775901,-0.278302560376851,-0.0496260008235551,2.65532762951806,0.800340424685288,0.0455161548447066,-0.952514627291076,-0.182701862416555,0.0594448745641149,-1.21694143029908,-0.157610865062842,0.205353277977898
51.145,-1.16973220503783,0.72085667017896,0.450948313765126,-2.34264769065918,-2.0398244393762,2.72515750309134,-1.27323191517982,0.243192351217545,-0.514035476580057,-2.77153173836065,-3.71230888126501,-1.17143243552099,-0.761157293440895,-0.28238175468578,-0.0726838491716875,2.86505039505761,0.848006576112434,0.0918510282997441,-0.948001744447783,-0.164552502236103,0.0593850893007777,-1.25838605661903,-0.144442882807403,0.218429618309272
51.15,-1.16869112916468,0.732669698233906,0.44251586696213,-2.44350122772668,-1.86619388744444,2.7061774468552,-1.26821217414092,0.252249647654768,-0.502549979437184,-2.97277888822303,-3.66374108139758,-1.16902431454708,-0.767194556476722,-0.283946886701121,-0.0862195002302443,3.0271394441836,0.87719019260982,0.140924413877297,-0.949604823881873,-0.15686694881177,0.0568962402137268,-1.29344434826461,-0.134280745418014,0.228229155353226
51.155,-1.19585955127389,0.744341633116842,0.478200195810468,-2.49499996797013,-1.69949744317482,2.71986024932283,-1.26828144437022,0.244477639335565,-0.482301280911192,-3.09348287857372,-3.6227442577846,-1.16374674882381,-0.782837947091087,-0.283547014731941,-0.0919265756591011,3.1680223841869,0.887084561309739,0.214112445788984,-0.934754264609103,-0.152875890636859,0.066264018868048,-1.34940839720526,-0.10546306020319,0.246107473586607
51.16,-1.27326669371299,0.798409353507665,0.558788722498623,-2.48002083939392,-1.57023446526242,2.79172243203356,-1.24779908340536,0.244897243756562,-0.516416324092903,-3.27109844461056,-3.55350806195886,-1.17320668697357,-0.795855683886513,-0.273365463110515,-0.0826815208330028,3.27982033892868,0.906583678815356,0.255951041717893,-0.925901255795449,-0.165623468686268,0.0718517845992002,-1.38637589477896,-0.0971931731852084,0.260130227491042
51.165,-1.34641010478645,0.861347087864012,0.608850046980673,-2.49764158349132,-1.49529148840609,2.91614255719477,-1.23299600018413,0.222725323073011,-0.53787907315767,-3.43537497758246,-3.47573269320152,-1.17721082615749,-0.818600444888544,-0.262866755597873,-0.0824660845923608,3.38290442668055,0.93461549998056,0.278318178167238,-0.914597348135668,-0.176580537026964,0.0842601059966512,-1.41756900566417,-0.0887531723661926,0.270417721143159
51.17,-1.36108187533773,0.896914246489072,0.587689683027255,-2.57434733935678,-1.46493496002685,3.0349663769645,-1.23964920485485,0.243159258343394,-0.569541717836442,-3.58185423728883,-3.41834605933852,-1.15785526790132,-0.848130096714685,-0.259173584266928,-0.0921462639132878,3.42458200454712,0.953828048731535,0.317642888240538,-0.907543037470336,-0.183439243005374,0.0997434574058952,-1.43068206823346,-0.0856658795424764,0.27157149601058
51.175,-1.29978174021485,0.886016160663122,0.508191512348742,-2.71711408322578,-1.41682215612067,3.17078218288017,-1.21805002074435,0.24849645356627,-0.507202830089139,-3.76860901326346,-3.3481648443942,-1.22525075858036,-0.87405405436606,-0.249426259984189,-0.095721057779733,3.43476696178029,0.964857631698519,0.338283579818966,-0.905666158488303,-0.198655635582281,0.110921562607213,-1.43727573232148,-0.0828012577839053,0.274448859669686
51.18,-1.23708888635452,0.841560903401784,0.427134019934441,-2.84112344721383,-1.35533807578954,3.23928606377744,-1.26084255294015,0.212796499871051,-0.493986144671769,-3.83354694729143,-3.26684710184276,-1.21557300747177,-0.906348391659885,-0.222459838164917,-0.103493676817627,3.43643797378639,0.998424072021254,0.341810554944326,-0.910073112511269,-0.211174972506369,0.124998579188325,-1.43707830610779,-0.0826546624302864,0.273447066545486
51.185,-1.14627577837521,0.75365667375102,0.331359165396363,-3.0087546822651,-1.21454676506597,3.29778813913445,-1.25780822116815,0.195363279367642,-0.472390863150451,-3.95873868314885,-3.19530918094639,-1.19714216789228,-0.91941682506897,-0.204868879263955,-0.116574370996971,3.41752931425775,1.02883128245616,0.321066671155419,-0.913347496953778,-0.221222512290937,0.141218672419484,-1.44925241298469,-0.0838844348930423,0.277751273915056
51.19,-1.07439623044495,0.680194846376667,0.258298969430529,-3.10488554007781,-1.00456142916005,3.32665586274278,-1.24271001383482,0.181328979138365,-0.459559078089551,-4.03791517499652,-3.1268249830966,-1.18896627171407,-0.938297355948855,-0.183930257590564,-0.139695715679545,3.34333034949585,1.0451717084639,0.300746268848418,-0.919090835083809,-0.232291147041049,0.149090773457582,-1.43946463997885,-0.0907678158080459,0.282943887477584
51.195,-1.02227284344933,0.651171650614953,0.208118744991815,-3.17555992668342,-0.802361025600347,3.31643180538975,-1.25108243539546,0.172060168526607,-0.433152269905426,-4.11780621470942,-3.08072565551529,-1.20567678105892,-0.94859100928362,-0.167123367048276,-0.156526907389117,3.27028705179667,1.05539070906255,0.297646433115005,-0.931480011936089,-0.249853069987003,0.159546317540348,-1.43405756788499,-0.101880471066531,0.287946747072486
51.2,-1.01295624856283,0.632395663869991,0.204472610108176,-3.21608907495818,-0.576091948908133,3.28308747053499,-1.26578818093438,0.213337698309811,-0.406607264318642,-4.12671687850082,-3.04048098398556,-1.20518770848292,-0.948500745496268,-0.149873008090889,-0.171810123828695,3.21431848850332,1.07905694769857,0.298420714241454,-0.953461324863945,-0.260025404523317,0.155485247577389,-1.45497217239132,-0.110648002896655,0.293290790889037
51.205,-1.03009168728662,0.611706725845221,0.233930605033502,-3.22709612809159,-0.328805723300884,3.24624731487182,-1.25942586529683,0.226558668593303,-0.400756347806852,-4.10188551934436,-3.0058241918733,-1.20414662978838,-0.946274788188457,-0.134068929284031,-0.199677819568567,3.1522596052441,1.08835690468596,0.285048920847,-0.958788762438529,-0.27859062111266,0.153279389350393,-1.47137322880042,-0.129203095703699,0.294215857982635
51.21,-1.08859547019006,0.608912502825262,0.299578205719606,-3.18179592866871,-0.0933391599853922,3.21990951054544,-1.24890682608752,0.229025783900196,-0.406911605334903,-4.08643457650144,-2.96593378714223,-1.20463948184003,-0.937155883287082,-0.119516049777125,-0.222265880930199,3.09417596225097,1.08236302083683,0.274976889153874,-0.968419556590133,-0.286969169095939,0.155284721150479,-1.48692849092379,-0.147063532683939,0.28743584063196
51.215,-1.14607603819856,0.622150795147121,0.348214426102391,-3.07440886927855,0.0709110584268067,3.2229190965374,-1.21792091360365,0.222886705171532,-0.438058330892207,-4.08402929834245,-2.89988970318328,-1.19671613068848,-0.928287224819326,-0.102270605048505,-0.244025011828294,3.06108206215911,1.0779687075144,0.266080119588139,-0.96851325207776,-0.287657573160955,0.147999457052335,-1.48895347118378,-0.148642288832258,0.286869568438936
51.22,-1.1807156606241,0.651712146857179,0.356189479399757,-3.05889964921556,0.18068927907728,3.24662719615392,-1.20694918580261,0.222990143824119,-0.449388174615771,-4.11180923614581,-2.81837219082759,-1.17429480878156,-0.927311536347504,-0.0930848629155615,-0.255718664782943,3.0318493390937,1.06790759022802,0.267205473998348,-0.962361917889362,-0.288388216570341,0.133048482753626,-1.48098474381997,-0.141879144739789,0.278694801804689
51.225,-1.1744835816085,0.679154293639317,0.342245402065047,-3.07002060187859,0.26377802031519,3.24764895439148,-1.19522822788555,0.234069971655177,-0.438070204286512,-4.09649430961908,-2.73666721948453,-1.16223266233345,-0.933310212155817,-0.0776421857152535,-0.282384038906574,3.00892554884503,1.04755502681974,0.270088193727905,-0.953850643587734,-0.282062033643111,0.12076005726934,-1.46173741864531,-0.109567939608235,0.275890439748764
51.23,-1.14551692177872,0.696931482585922,0.293778478748779,-3.13344969420462,0.348528954788159,3.21840276129408,-1.20921866329688,0.24712333207967,-0.406082310460895,-4.06572174233588,-2.66681293133309,-1.15199752627809,-0.944407155808745,-0.059488014156724,-0.297117628634739,3.00690630375333,1.02834557932572,0.263295349488784,-0.946012441203713,-0.278485639095307,0.116899506889639,-1.45718944072723,-0.070985050886919,0.279377340492053
51.235,-1.11933510230113,0.701413239105477,0.227683940700876,-3.24632761093342,0.46404373292068,3.15695507879254,-1.22224054846231,0.268694015449702,-0.389394216655021,-4.01574497904722,-2.6043631642359,-1.13689763197375,-0.968806341149677,-0.0337968510109802,-0.317892484074837,3.04550545125294,1.01081948673736,0.221066061809842,-0.93759502131947,-0.278991914367362,0.119665206416549,-1.46693900908539,0.00777465918557371,0.285661599732697
51.24,-1.09561657778931,0.692632148940548,0.179283571214166,-3.3981322591984,0.579603531520197,3.08431656707769,-1.24820074895568,0.281162346039217,-0.380910457224318,-4.04205330380257,-2.51227858652043,-1.09214989459252,-0.984591348309403,-0.020885945802323,-0.334089218470965,3.08161208042731,0.982300709245624,0.184941960889343,-0.942215769003564,-0.264559203223874,0.127802608631694,-1.45230107409201,0.0297473620544716,0.285970378024072
51.245,-1.07263385910451,0.654806521260616,0.126118481032396,-3.60586880794899,0.752597945841684,3.00081885900252,-1.25352735702648,0.306264770934236,-0.387853141696407,-4.06021228711864,-2.44595103190638,-1.06165881611529,-0.99799731879339,-0.00671229350749185,-0.356816049223054,3.14283719213921,0.963361595805425,0.137294587470854,-0.944040159817069,-0.250493255372573,0.143857020828024,-1.43908315651626,0.066914299568698,0.294476970529879
51.25,-1.06892419644361,0.601074959115864,0.0838866312827279,-3.74644697966177,0.906172484466095,2.90501633619123,-1.24183455959381,0.319331762322301,-0.391358368338112,-4.07424506458625,-2.37268078928279,-1.0321757188204,-0.998199586474537,-0.00103563240508436,-0.372006093724841,3.21645109141293,0.934382601954505,0.0754056987368003,-0.954347636857453,-0.239939315163644,0.15019623328388,-1.41960428742801,0.0773154611096663,0.296982648618081
51.255,-1.09450546171128,0.574673412705995,0.0409798483513799,-3.84883332731499,1.05231203894807,2.79939006527188,-1.22464782499112,0.329025828953614,-0.388317192529491,-4.08642545681488,-2.29376793883859,-0.997763162012271,-0.992184606122471,0.00795716156520363,-0.376861492358951,3.29282026067342,0.909179255902814,0.0127835130629982,-0.969711684528523,-0.227830554808978,0.142259189404965,-1.40434999442066,0.0761010976503279,0.30517883036644
51.26,-1.12902866406976,0.537959854864171,0.0047538821836736,-3.9086067657951,1.21661138166444,2.70649686023331,-1.18126701836126,0.344275568836611,-0.383928576609968,-4.10501167035388,-2.1843018432064,-0.964708356385313,-0.97434138028703,-0.000656079499599831,-0.371425598680517,3.3627408474003,0.863629120573001,-0.0746581554876581,-0.976717677743897,-0.230516219468214,0.136426007679786,-1.37578965118141,0.0677783355045993,0.301421374891559
51.265,-1.20708529278472,0.452086890384242,0.0800119077800557,-3.86385483781895,1.44305846858236,2.61771788665458,-1.1281892889031,0.391300077102167,-0.33106433447404,-3.98602909386438,-2.15065232906017,-0.921876320796658,-0.953626884718825,-0.00767852777411004,-0.362379406144292,3.37937951087952,0.828403385135924,-0.156552390687195,-0.987259603817142,-0.230128714452921,0.131951502074599,-1.35333307155048,0.0566246469291718,0.295431427920949
51.27,-1.40609574491451,0.405486165739234,0.295393391180574,-3.54081167282708,1.64265823344361,2.59659784835664,-1.06268101499147,0.476392046227111,-0.266904557878667,-3.65268710282971,-2.22484013840711,-0.860833044688688,-0.944679688317544,-0.00696158980072285,-0.350054920805212,3.3863655546483,0.791293052054259,-0.23853591694465,-0.989600552644309,-0.233725955501954,0.120723650487518,-1.3481957204045,0.0551339740335875,0.294215857982635
51.275,-1.6516040095977,0.393458729379685,0.541226184928245,-2.96773063268819,1.69256945682412,2.68153741611788,-0.979762097104189,0.492754234759179,-0.368819352422443,-3.3119285180787,-2.28707099112512,-0.787128986781331,-0.950809168159684,0.00746792313328108,-0.333477753155364,3.40620496016438,0.762908172228662,-0.307022186127503,-0.986294260954577,-0.242217711201024,0.102176862145795,-1.35072806347045,0.0530113990796355,0.289560945110618
51.28,-1.78859155027007,0.411840499580684,0.657770891160624,-2.34462377885361,1.45947037452656,2.82952999110362,-0.85765060813122,0.395033859513471,-0.705031768500251,-3.34374546793381,-2.05588316092062,-0.680408395664519,-0.982862532636783,0.0487444486347951,-0.316314747579054,3.42357991098001,0.722619165541625,-0.342177800511561,-0.976571411732172,-0.243795632669587,0.0844470479833548,-1.36112235240511,0.0579060828853226,0.286044972096546
51.285,-1.83712621937284,0.503377606840471,0.637274347996154,-1.58183544468807,0.983741960434045,3.0294446019513,-0.809193006685826,0.318537490307071,-0.823449681670955,-3.44474972763012,-1.76569997884133,-0.602809310376187,-1.02272203122452,0.0883757334978146,-0.297313419696244,3.44306697577324,0.66842001554809,-0.355960130691528,-0.952820836610984,-0.245274832756588,0.0697364760307622,-1.37739906864848,0.081067617171488,0.288173295420047
51.29,-1.72836430463709,0.737620048883766,0.400277242298592,-1.18478304171802,0.505757407512331,3.17680288055729,-0.86857589051396,0.241325298065972,-0.743739930728981,-3.42609506751328,-1.64551241460147,-0.553045765160471,-1.05788787393418,0.105698658425081,-0.278375420515789,3.42611270942711,0.6009615488009,-0.352329373895246,-0.939347777246067,-0.241205173997993,0.0699204758016905,-1.39065863033658,0.101261968134454,0.293014804410383
51.295,-1.52833883236845,0.911800906723129,0.124439113391046,-1.13859542163889,0.222142610683618,3.30187951778655,-0.882676380443408,0.219257929146519,-0.674813922413726,-3.36640726712278,-1.50232712628886,-0.515918072972968,-1.08060947724028,0.108958528079751,-0.263424998473642,3.36298768363808,0.527909859694304,-0.356436321992825,-0.929673535261972,-0.246145180974351,0.0810795694289325,-1.39428266719338,0.128334299050204,0.29901688446023
51.3,-1.36551511097804,0.880612944623158,-0.0728168459230414,-1.37224182950576,0.21868479274545,3.42499583881202,-1.00388500030845,0.146987801084797,-0.596858191777901,-3.17136773855543,-1.3809432731469,-0.482756540972868,-1.08887939090429,0.101302145908574,-0.254390666019887,3.2752403219903,0.453924647966089,-0.339231419547198,-0.918025476076503,-0.246031268030349,0.100891025786955,-1.38421546045433,0.136671413507745,0.298485408607964
51.305,-1.27713270166294,0.774301241479906,-0.170435683160309,-1.54186706749461,0.324829607796711,3.52183310223388,-0.991158501173525,0.207501669409202,-0.50333056263422,-2.96805040606088,-1.29128927304999,-0.42899087373058,-1.07790521567666,0.0917419442852491,-0.266461789648135,3.14379156075756,0.375705936470595,-0.306545367317638,-0.913099799718184,-0.248899430489097,0.115786462619408,-1.37178627911299,0.114891548349042,0.302122216519997
51.31,-1.17184562498085,0.64745495423662,-0.263336555301028,-1.69922161169398,0.506329795782657,3.62935392021532,-0.974538713904746,0.203383397627081,-0.466855627378782,-2.71930068600743,-1.20516795836312,-0.361186439060104,-1.06051407415454,0.0857307517256232,-0.295264746440843,2.94103869020927,0.271555437833641,-0.245345471600179,-0.912580783939801,-0.248571236666083,0.121268099598163,-1.35764463035214,0.0657517999227323,0.300470444485755
51.315,-1.10626299361704,0.554075854027431,-0.324325240667042,-1.79561491395289,0.770458112177558,3.72208921478856,-0.947839194696679,0.206919647306058,-0.410330687366939,-2.53782461125213,-1.08236702340852,-0.285072408156374,-1.03805086514664,0.0855514601327797,-0.312579484101773,2.75859091389579,0.172683678469485,-0.188071753378172,-0.909855340159133,-0.251469587247656,0.121824867485586,-1.35092692610737,0.0165439226027204,0.30274275901798
51.32,-1.08146610788495,0.48263421040783,-0.379554724950523,-1.81751366886005,0.964916839109063,3.75035403333738,-0.9282768665534,0.228789060994759,-0.395203274628461,-2.49527715457917,-1.00040191542096,-0.258565935047733,-1.01516473695191,0.0778522697673144,-0.333226811053273,2.58723015999398,0.111993168207478,-0.138716709929579,-0.904451955345922,-0.256552720434899,0.119013854254003,-1.33340990658324,-0.0272050601373772,0.309829535473706
51.325,-1.1362721389518,0.462019067546066,-0.367968315207991,-1.86955637442376,1.18996211365421,3.72428967805514,-0.887442049282751,0.267992592028091,-0.388722289944502,-2.48595715658227,-0.832291733260385,-0.23747533001077,-0.993025627365999,0.0600811204944206,-0.350770283203369,2.32328660309276,0.068904551551804,-0.0856705786915587,-0.91328199009059,-0.253615225246271,0.0985125775913963,-1.33509592835163,-0.0188352808097874,0.313813617550705
51.33,-1.21207518171699,0.474735656612718,-0.287351146035218,-2.00016921884591,1.35962957076795,3.66549111541018,-0.847923799865435,0.303591019188789,-0.414170497788409,-2.58482121242662,-0.73295556189388,-0.233400244100833,-0.962219908536932,0.0528796590330565,-0.343701889581756,2.09171746273231,0.0604868117838986,-0.0385506741737959,-0.949765250104633,-0.273786315460406,0.104421054780347,-1.34523574660686,0.0108961752907691,0.319611628434476
51.335,-1.25258032973574,0.441278543554035,-0.257199313655485,-2.18393846453388,1.48568424723814,3.57677017190219,-0.813201671444671,0.397943071399742,-0.448870781700651,-2.71261348317862,-0.633138879464147,-0.227850982716183,-0.977326223118742,0.0488940311022421,-0.352587259413248,1.8268815573249,0.0685302221266309,0.0367752970368997,-0.958193046341034,-0.274207908143226,0.10576943930761,-1.35443670440105,-0.0174579441238013,0.311449936601902
51.34,-1.26341869775696,0.373366950880026,-0.176125951284676,-2.36093071465417,1.59768676175137,3.48342370056902,-0.820765742247003,0.451855197685361,-0.450830894177226,-2.72056225936231,-0.580782322819936,-0.205916121183471,-0.98263857251351,0.0479226031644625,-0.328966789729607,1.63353406481213,0.0902391006602183,0.0892632039476316,-0.96577786844219,-0.271917421928253,0.112155843259603,-1.37730642420694,-0.0533867158627489,0.302268498015944
51.345,-1.26856711405171,0.299937397332129,-0.0643501672891734,-2.54249058369177,1.62522589712603,3.33603560333459,-0.812145505311511,0.489170568755234,-0.479634032716345,-2.83000214275106,-0.490229527220331,-0.18122974879829,-0.996338049671767,0.0294117207985825,-0.296696542483477,1.4484623124077,0.079168649558165,0.115877110415075,-0.957205742858774,-0.265998880541657,0.112590546887679,-1.3808096508315,-0.0625205557274215,0.299150346860765
51.35,-1.27713608220056,0.227450275671608,0.00792260353537163,-2.57395615803205,1.54471063904536,3.1877861955825,-0.814630806061065,0.492128868377166,-0.515004646726008,-2.97555777324877,-0.369995622637531,-0.146285580214953,-1.03022797146338,-0.00107773233689869,-0.247352308813464,1.26050861093735,0.0211963693506873,0.151374725027901,-0.95004077917062,-0.26865233644821,0.110820713772415,-1.38778729507576,-0.0501060367493973,0.302411639685427
51.355,-1.27024112844845,0.187290946950065,0.0298012906699318,-2.49025486791537,1.42014854948377,3.03239509781285,-0.822680611010201,0.461162976311533,-0.514300735660826,-3.11201225434134,-0.254781345630781,-0.108903555023338,-1.0620558566849,-0.0324170936462533,-0.192816162130023,1.14827852191409,-0.0512626047358237,0.202463217570565,-0.947855850308851,-0.264606911083088,0.113201855988743,-1.39821931681862,-0.0354311751093501,0.305164141423837
51.36,-1.23079476495282,0.165235108905443,0.0138132664479667,-2.35552857130153,1.23672685501972,2.78354651066461,-0.829479993617839,0.420422475020298,-0.494790686979114,-3.2765817071027,-0.086577709887664,-0.0500828090728233,-1.08442977420109,-0.0519872992474706,-0.125220040066609,1.16830437567147,-0.153969488503402,0.278613308234455,-0.947500673047086,-0.257004774120406,0.110596842856385,-1.40298931336006,-0.0284017951333136,0.310874060149996
51.365,-1.1946029506949,0.142822153554243,-0.00330480244392707,-2.24909293851713,1.13127329241035,2.59439061416081,-0.854389151661932,0.382625525442881,-0.496168140376084,-3.40283249434885,0.0405780996575068,0.00497260244449984,-1.05357893269977,-0.0667837160638338,-0.0918741509318289,1.28586758555466,-0.237319420140193,0.338518939330481,-0.952368680270417,-0.259421712800734,0.115727608055771,-1.39036440538626,-0.0297871204989105,0.308692069414947
51.37,-1.1524345993299,0.117314097237862,-0.0317067472782063,-2.10367101253135,1.05640884445331,2.36631927256649,-0.855923146509827,0.329011286459004,-0.493419555464391,-3.44979659039679,0.179923634086881,0.0591311562758648,-1.04048573310359,-0.0669217580548205,-0.00508910449973109,1.45541028795112,-0.322002392924345,0.303228996594946,-0.966435815492082,-0.259264555460925,0.124391066333753,-1.37307875508031,-0.0211371436024765,0.312541276216507
51.375,-1.13220568528854,0.113470550689037,-0.0159255908888092,-1.99721724537261,1.04918331900375,2.18902079408842,-0.847722177394487,0.284879039668084,-0.468467336251008,-3.42040658045951,0.255865525912366,0.0999725958956112,-1.03441535676396,-0.0756825436468146,0.0591035351286627,1.6672681963536,-0.317183672516448,0.263554202834224,-0.972242845261582,-0.264722425367099,0.117289567265456,-1.37631315531722,-0.0109657734239806,0.314886906156595
51.38,-1.11629424592822,0.137096060093169,0.0407518636086054,-1.93693687766079,1.0570564452287,2.03807644544609,-0.836484067891896,0.217268661624302,-0.428824939016588,-3.28358104261828,0.344472849907398,0.175489351445202,-0.986015983654975,-0.112099486325906,0.160600256585186,1.83815509301696,-0.383753172365221,0.31155089964287,-0.972543361171976,-0.26538501219969,0.113322411285984,-1.38978927106617,-0.00735928544768277,0.325092505223169
51.385,-1.07598464276493,0.13599476878347,0.0993596444057311,-1.86635368446447,1.07526537964314,1.91436771460195,-0.833048154371741,0.163254764160831,-0.421984283096396,-3.11461068924046,0.408842522759966,0.227884766024329,-0.950991090296834,-0.139971246020473,0.259149109115632,1.86181035569411,-0.512004280653616,0.455678737878776,-0.955048196555629,-0.275160505727858,0.108034989364565,-1.41995055520481,-0.00862897703979639,0.329147314937624
51.39,-1.06076010670533,0.115571092954273,0.218113216904941,-1.69464241090631,1.09786357789001,1.82880138757634,-0.84259392807013,0.122249086972281,-0.376184092538106,-2.82401498770627,0.385227857042202,0.265603450573675,-0.901342698319257,-0.151576474870616,0.36960080921126,1.69375777237986,-0.656264924854255,0.532876093222739,-0.941883067235679,-0.28371335964313,0.1007836109238,-1.44661986023766,-0.00846952082804861,0.333015579894036
51.395,-1.10063210118609,0.121816663722458,0.388180175144548,-1.3064155796552,1.08474661409786,1.82864292212786,-0.836980895902804,0.0572983847876449,-0.438772923714191,-2.53082072096134,0.363562046429579,0.315973761924341,-0.832241165266767,-0.12586294398451,0.472006941816976,1.42709198788384,-0.799884128430207,0.540846309056424,-0.950260403547638,-0.299779497968639,0.096371380187855,-1.46952340764259,-0.0130327018429897,0.345527023077011
51.4,-1.11534189793395,0.150379534819435,0.56703940126877,-0.954200822631804,0.924332929865074,1.89395728187233,-0.798900903721487,-0.032594344094595,-0.545572468656919,-2.35285258343007,0.430929460859774,0.329335765103642,-0.769266959990188,-0.0771075048193575,0.544187318078605,1.10707048504598,-0.897467337750143,0.536626285770907,-0.962112837688947,-0.308616310561725,0.0854228880489103,-1.50077297547826,-0.0177061574691859,0.345527023077011
51.405,-1.02475852812878,0.190606049368187,0.569496119481407,-0.694769520865214,0.71623263769618,1.95638818410724,-0.795030395720776,-0.0864631576783924,-0.502661011965346,-2.19343942680807,0.507400274276733,0.346504095128248,-0.690835973214531,-0.0536379461954848,0.583556608408495,0.961059486252107,-0.921936656948419,0.51669966043134,-0.958521855996696,-0.311400715805955,0.0889580698762896,-1.50605714321136,-0.015101751358967,0.341446420384046
51.41,-0.928827212905031,0.219180156761416,0.512332330612341,-0.544046002806065,0.474535661171413,2.00978229157089,-0.815707685952031,-0.101713448667966,-0.395246326874223,-2.00209957659373,0.538819527253202,0.322356886310351,-0.597922090507572,-0.0691057444957164,0.526445908775503,0.88357061073907,-0.911331937788023,0.467983122260492,-0.938348996702587,-0.311768699803231,0.0987324808659509,-1.49824413183729,0.000196232511130208,0.330898377695583
51.415,-0.893396037336118,0.183623082681362,0.368335079987949,-0.471163890856489,0.34802223823594,2.01771888498734,-0.855302516996336,-0.0925925528808249,-0.314375280080914,-1.89610848117716,0.599274577431503,0.307666579141166,-0.529663351080592,-0.0874320315518946,0.405999182048026,0.9501662512593,-0.861857345000543,0.374195405795585,-0.910540280167413,-0.310423730001018,0.121175733836884,-1.48524076146032,0.0377381053631032,0.310890994628582
51.42,-0.938877759472249,0.126661887901813,0.454837469785949,-0.561198338490736,0.249578586408002,1.94805081406278,-0.87401218281664,0.0277365246802004,-0.369682718295369,-1.76204294877777,0.66844226423702,0.306162263758399,-0.490526316670403,-0.113390474986314,0.232881054214459,1.20057584600361,-0.75003060869544,0.230094643511979,-0.890693339949523,-0.312644108513552,0.139713637218875,-1.47510688059179,0.0596888626117954,0.293432155590987
51.425,-1.56082857242479,0.178203453702873,1.36576112682296,-1.50429585058427,-0.551044076256334,1.79601175691502,-0.847588556920431,0.182284408713628,-0.653838933890769,-1.61837041689679,0.760635988852496,0.330197799166791,-0.496135330763121,-0.150569555456715,0.0317465298564903,1.53659921649087,-0.568388702773291,0.042218572897421,-0.876977760676611,-0.312117505859386,0.168892380533733,-1.44325208911273,0.0773424538990832,0.265633180089936
51.43,-2.08177503082708,-0.0799673849967891,0.936816443473892,-2.32182592978772,-2.07188439493473,1.64435424371861,-0.758293033978953,0.265418017583448,-0.951649378694085,-1.85536305625699,1.01632010597901,0.410146941962812,-0.537672208043652,-0.178441998042236,-0.140273011652333,1.93142542313961,-0.3560171287002,-0.143345324864841,-0.873161957268995,-0.31625901714089,0.185681743404308,-1.42488100634533,0.0719562397987855,0.245115853165736
51.435,-1.69862475764263,-0.646595827731899,0.0884019107023419,-1.5073074809012,-2.12872409874591,1.55147554389177,-0.726850709313021,0.210874704890913,-0.952127563200627,-1.80286112833117,1.23774381358899,0.460388288850781,-0.603973099074429,-0.217802618531969,-0.29146137233116,2.36251256325555,-0.0994371632478829,-0.38821071200497,-0.8900470698213,-0.31194096556776,0.193655814654135,-1.41565189031992,0.0431772069427122,0.230687645391034
51.44,-1.08381807918587,-0.632052167166045,0.0902383561364133,-0.792041547843849,-2.06945906647463,1.38171363261477,-0.791468222775257,0.0882398880896485,-0.863401230223538,-1.9810897575108,1.26767615811048,0.428569540722884,-0.711425565677643,-0.258001206490304,-0.436054001992752,2.57584550271053,0.0662587892332994,-0.572417133107079,-0.891991434527026,-0.310582643835035,0.175918844434606,-1.41338209634898,-0.00843654245324904,0.227879061541999
51.445,-1.02638348879393,0.0335155447963294,0.257205650368832,-0.0615641498299688,-2.20625488401318,1.24974781061564,-0.911983976630473,0.0604738242556553,-0.770341191966683,-2.38007829803943,1.34892319125896,0.421128952712201,-0.802575982049773,-0.303506067228628,-0.515310314755918,2.65855946430864,0.193979371244124,-0.65061709166101,-0.918833081469894,-0.306999422398975,0.154506718059367,-1.39826473294338,-0.0712149964502569,0.223357573151588
51.45,-1.22165730908382,0.643290529054784,0.339074789283272,0.129619190985213,-2.28727138413064,1.13275961280648,-1.00139478895137,0.132658761926012,-0.748364931832754,-2.29261656420911,1.43004291945551,0.515360251476309,-0.896655228907947,-0.357493524486155,-0.567891066560654,2.62417800365345,0.272781197439737,-0.654396100635185,-0.937057616737295,-0.303979601388237,0.134872236940489,-1.38705028507017,-0.103458101670676,0.226052232519276
51.455,-0.977658775864597,1.01802022888885,0.46121551506349,0.043553988834272,-2.14937398782207,1.27081577174725,-1.06401981256412,0.0848373631453837,-0.590409874249547,-2.01028112352274,1.43370672971591,0.626340624262893,-1.00486318278813,-0.386483392603893,-0.566851420342718,2.37231661228483,0.312949841080972,-0.605467614788799,-0.957330602750716,-0.293582118029789,0.124402468430337,-1.37482797726334,-0.132300239973974,0.232734559362539
51.46,-0.595919695200601,0.719178702694377,0.760173368387612,-0.12235815314479,-2.03605887143487,1.51827913304784,-1.08607915108134,0.0366739496492575,-0.369457622786208,-1.88129308051754,1.36880936445669,0.65736092271603,-1.08216944259493,-0.383272969043727,-0.520961968902242,2.02077672861546,0.285084951519569,-0.559902948382555,-0.967115342053624,-0.287766357033583,0.119599431426365,-1.35854852202052,-0.127125634761653,0.231803971238363
51.465,-0.230305393638839,0.434309033494397,0.978525856831899,-0.18682699376407,-2.02406883239746,1.47758548399652,-1.10210953601071,0.17648627418534,-0.141077982244349,-1.72839985939875,1.26225667522855,0.673093997660536,-1.12221621034259,-0.395120763894422,-0.434499821778804,1.56448516256498,0.223124725780147,-0.500083493302967,-0.981599733622025,-0.277997274370961,0.130845557610352,-1.33786961983781,-0.105305394051299,0.236745427299826
51.47,-0.120232117918043,0.323391434285587,1.11073389403852,-0.00742384912611586,-2.03740710467079,1.31166395402019,-1.10746439686344,0.246076134104805,0.0165266558888147,-1.57961497979179,1.13194123218438,0.726213575454966,-1.11504410314982,-0.434508654920405,-0.375850586376563,1.17322014359316,0.133352198139377,-0.493487058813065,-0.986030784121034,-0.266456019308365,0.146424378300504,-1.30529133473116,-0.079803758936441,0.231746354802401
51.475,-0.19497360951399,0.35633603798083,0.993913469439653,0.130808142787597,-2.02603564851099,1.1624248251353,-1.07584776716638,0.147407259165678,0.0592004348987691,-1.67276917279262,0.999477406375575,0.779032505092173,-1.08205373108866,-0.498766051630156,-0.31529415682285,0.7901413958121,0.0015145163971524,-0.525452002761555,-0.986960278585105,-0.249179627613061,0.158525888421443,-1.29220446726091,-0.0373447087647711,0.231899224553371
51.48,-0.309848471287787,0.505698447516243,0.939944733478,0.140831348915313,-1.96952642552196,1.17288788624116,-1.00094726782569,0.119514133012083,-0.0178535337667882,-1.7548526186044,0.83312561544303,0.804694400969516,-1.04444067626391,-0.563217711660722,-0.297324392963786,0.602070755784913,-0.101586399613104,-0.58076147107101,-0.996618544462806,-0.227088279905,0.149776481504225,-1.27718727209588,-0.00770970150894702,0.231373167258215
51.485,-0.482413177489385,0.467483924955976,0.811631204951372,-0.00233519339882131,-1.88771604877681,1.13360243091034,-0.983941724937182,0.0710036082856058,-0.117814602105968,-1.63788279503281,0.72629183760041,0.821257067959771,-0.996098313908656,-0.618367670828484,-0.283591925875122,0.519300947487651,-0.157231449190166,-0.669353259160106,-1.0050938337181,-0.190919870624836,0.131066750231429,-1.26532603785536,0.0120782045916532,0.240484210935789
51.49,-0.61989561099278,0.278180564974887,0.804861599279326,0.00317958905835043,-1.83073157053664,0.994236726360132,-1.01546024384716,0.0589138295189569,-0.244888762408696,-1.42852537217618,0.657873708040285,0.819687152940482,-0.946335885878834,-0.653373592828968,-0.263232646225137,0.610631852157557,-0.177552697212918,-0.786714210352363,-1.00894811394249,-0.166479938022515,0.109292669941222,-1.25927484035492,0.0252020633096184,0.253461631876915
51.495,-0.754364135052501,0.188104698344099,0.785538958304835,0.125731066840137,-1.81015941373607,0.790066791361126,-1.0565003447955,0.11575931492308,-0.335189534405073,-1.261555937857,0.606423456420379,0.857968070807561,-0.908051875431281,-0.654650567781987,-0.226362272071032,0.842179873460143,-0.183014144096972,-0.874922426426443,-1.01651017884751,-0.138541394538685,0.0902887224469838,-1.24814353767483,0.0486788247555798,0.274399331761753
51.5,-0.813118858272948,0.306284757118011,0.76779049351875,0.272376201610314,-1.77912647114135,0.561580489767948,-1.12178723836887,0.119194495622185,-0.377151380246989,-1.0240154600162,0.544967039513427,0.891995803993234,-0.887227002236727,-0.639046893853057,-0.210409541021904,1.16670493354729,-0.191356213823367,-0.927612641194666,-1.01466332099822,-0.12126456978645,0.0779020005741998,-1.23879227704402,0.063288282449153,0.294424945836955
51.505,-0.786677953711372,0.452639384258505,0.765459712512402,0.310643011782201,-1.75655706964787,0.412167850018039,-1.2015859991992,0.0942044418078063,-0.37456470326616,-0.735115715360639,0.480435982879473,0.916466126045843,-0.894418134776708,-0.620624052520629,-0.20225420544635,1.46476217010753,-0.225488770657046,-0.938490501198665,-1.03313893963269,-0.104817829482073,0.0792303150491878,-1.21360058416126,0.0761227685342191,0.306990063271949
51.51,-0.637224731676173,0.411265889938126,0.833288226074475,0.216183409104837,-1.69793595114276,0.270848544239267,-1.29607729864731,0.0634820403149581,-0.279519949794262,-0.498397244662212,0.410437726310061,0.939343040066733,-0.942223204325265,-0.612303647839109,-0.191430070083471,1.59134511196534,-0.298572432463489,-0.903923264072722,-1.05479394693719,-0.0936220801486599,0.0803379720713085,-1.18206667231638,0.0876296391106407,0.311902008132022
51.515,-0.450219476573819,0.263811199113203,0.954039813359733,0.137279589780013,-1.60747313932632,0.180208035143698,-1.37777004590318,-0.0369885878262706,-0.15145848741016,-0.294117481654041,0.295566281936632,0.962965510394415,-1.03985252561407,-0.60568065631597,-0.163392825536841,1.57177437188712,-0.447457175883315,-0.792274866445458,-1.08941775619382,-0.0780954090977699,0.068885280587899,-1.14083806839869,0.1115522575717,0.302787727935906
51.52,-0.477286729158969,0.164468877609805,1.0190102871148,-0.0767246398666023,-1.39028704141571,0.176093503494477,-1.4706966526646,-0.291839936290422,-0.0705210036034772,-0.222806024704716,0.208852630291229,0.937178577567536,-1.12547788916207,-0.585375451979578,-0.135265383684643,1.39607201428707,-0.615604448358423,-0.671782167067869,-1.12368410057328,-0.0615684440573854,0.0646886703853779,-1.09268033499602,0.132849398312478,0.292147364349919
51.525,-0.663544574460268,-0.0472579644344504,1.07345365524451,-0.331012225411237,-1.03011768687955,0.275950170442153,-1.60846278574333,-0.692321818186434,-0.123651880629158,-0.13849288710573,0.152479045357319,0.849649166863738,-1.2492895134512,-0.557317017100074,-0.111984118305488,1.11042324281137,-0.829387034690393,-0.479184843066827,-1.14975818440237,-0.0473302682134628,0.0557179573345683,-1.04253342584792,0.152499667071812,0.273499536290017
51.53,-0.726444105427806,-0.0866029376843937,1.13085538986186,-0.383720830707521,-0.685495679056256,0.482660470538308,-1.78117916174588,-0.987915742634549,-0.255906463603161,0.00131029898437703,0.156732715659831,0.692902265854082,-1.38369714943207,-0.524332455949835,-0.0717621120598461,0.848362052948182,-1.02226408791608,-0.310964295190369,-1.19054655604879,-0.0183901709801396,0.0409313111791624,-0.96243221966492,0.164441615088185,0.242179092738695
51.535,-0.44366129506348,0.20002948327976,1.07658802243034,-0.224879955053925,-0.420436192537157,0.676625943831242,-2.02377106235262,-0.904112890404508,-0.203735737741112,0.0862990471591208,0.166494480190828,0.457380732241481,-1.62760721902776,-0.4844807675345,-0.0297016315555292,0.494373417156578,-1.29809122673295,-0.115733643311153,-1.23279458555148,0.0253747156981126,0.031250508748692,-0.850594073562076,0.165235327144799,0.201790716868785
51.54,-0.0782843734076029,0.453515809806827,1.0353018798721,-0.190043428763821,-0.252708319645906,0.593964374692718,-2.01164874626792,-0.356484894754281,0.146972910283042,-0.154972949154519,0.0751202251277114,0.505368981153997,-1.83813747968972,-0.445749532386907,-0.0626689403948746,0.351525947961106,-1.53278708147229,-0.0386475257892874,-1.30259509200309,0.0702965418046073,0.00378583642109211,-0.731308922811332,0.16198821840002,0.172981502437255
51.545,-0.0779932924770078,0.287520557942214,1.05383868369481,-0.218681148533936,-0.171845136342466,0.341217361560394,-1.68237983353161,0.151719168435096,0.246770578189438,-0.536944809725799,-0.0451604863107375,0.777347782602771,-1.98168049472252,-0.356454620188872,-0.20261784999463,0.517083289791273,-1.72114060599562,0.0299333936857756,-1.40006150977479,0.133239495492543,-0.0379036524630768,-0.6315963699267,0.159605003132698,0.156429852850069
51.55,-0.275473092332421,0.201446768550722,0.977835571039249,-0.16665028820144,-0.106856150232854,0.169473186715566,-1.22332081810193,0.173842819486711,0.0297565144736568,-0.980331374840015,-0.0476257847918588,0.994418295021971,-1.99381599220159,-0.203376279518887,-0.339432691560415,0.983401119161092,-1.67070111629894,0.0951498817917051,-1.47762590432768,0.190805721240157,-0.0826536643844418,-0.632077966381248,0.139359641539551,0.17284342698741
51.555,-0.439302107235673,0.20824884120028,0.893836076867729,-0.134677988609021,-0.0236309006077917,0.118345651085358,-0.752303298283932,-0.00281059756057091,-0.126834477656501,-1.34767647303646,0.036436449768652,1.03303689593836,-1.87122733862486,0.0255279958442417,-0.456310877342895,1.67608918693649,-1.30769497692995,0.236802772940734,-1.50236519779684,0.218714916264347,-0.107551259594762,-0.726478917305976,0.082356020983896,0.184253823092641
51.56,-0.47848314405022,0.167331332347727,0.873639068158782,-0.140609401587339,0.0120233703980046,0.101797139966027,-0.69233032210196,-0.00739364854348272,-0.213264608766147,-1.49907144690396,0.0759477968260568,0.933517224603828,-1.64621476341243,0.248510339813114,-0.406484222453679,1.86379523237089,-0.931043642755555,0.490095583480831,-1.44385000110432,0.200637959024063,-0.11376560169296,-1.002281707782,-0.0416153676995047,0.21858383109958
51.565,-0.484671941694429,0.150816443723487,0.867846558343365,-0.137569702252878,-0.00941886030917994,0.103920837752731,-0.779556039058972,0.0900197740764001,-0.319703529806942,-1.9358187570647,0.115485342395346,0.784769522184279,-1.40141032852031,0.366158208501699,-0.317640394860139,1.60328166430073,-0.60817765412599,0.680617620579218,-1.3487028926649,0.154837261426254,-0.115235154049594,-1.23839424851861,-0.130664211609643,0.266557972020814
51.57,-0.475020409504804,0.196570333235496,0.848107320667838,-0.131753266084792,-0.0393989812234944,0.127031565409334,-0.925975823357632,0.10241787203013,-0.325214775181385,-2.26720363644076,0.107924865053947,0.743799268840105,-1.15025728224499,0.354392967568482,-0.216382884972909,0.882333389211217,-0.439005268356607,0.738899028854608,-1.24162396378845,0.101945802502463,-0.130680264260746,-1.44496451729195,-0.163962840321466,0.324170129135976
51.575,-0.443650873115221,0.237228308651777,0.827343805715736,-0.140367729097104,-0.0583625435829163,0.128287415439939,-0.98186234207195,-0.0536676895905605,-0.26276633294479,-2.41922827437057,0.0521124496339244,0.734924413333828,-0.920531142433749,0.248522735137135,-0.0862694740320423,0.0693641298839728,-0.440839590066002,0.62921789399796,-1.0926955454497,0.0748760455544725,-0.147221569039287,-1.49306457941633,-0.0953221823324322,0.369624675888656
51.58,-0.423053028749309,0.255345981675222,0.842996639852732,-0.193898851381061,-0.0553291494741219,0.0867339515986047,-0.973369414259292,-0.176664753884868,-0.218631087485406,-2.16894553290775,0.0238044578035466,0.730193376541138,-0.733222446944739,0.0470478361323112,0.0671277378901862,-0.519304325146362,-0.527540902147224,0.333097488753871,-1.01020378666163,0.071031659463666,-0.165360182530247,-1.43530053779388,0.0444721635050551,0.440114213070509
51.585,-0.422039625638542,0.259969930531113,0.850992061334767,-0.243292183077278,-0.0460488143791219,0.0416868036146276,-0.972392393270177,-0.213272618953007,-0.228869987471641,-1.61677193959966,0.00741443345742274,0.725571532378653,-0.626664685477479,-0.149061977268989,0.197898789474027,-0.692026091242148,-0.589818125638348,0.0870866874962708,-0.955702322219212,0.0706975921193568,-0.167281087178073,-1.2715207322219,0.204192204550364,0.537979979578343
51.59,-0.422620512833816,0.264940994072548,0.857024488617479,-0.289363178803051,-0.0601056297913531,-0.0173731669201447,-0.999220025082167,-0.175958242331079,-0.23828036875816,-0.852441077825676,-0.00389526272889225,0.705715768031761,-0.531314730558652,-0.378325364236695,0.373315684886753,-0.633731064316217,-0.610218891288171,-0.192255456430189,-0.944095194223374,0.062578685680662,-0.157426678169758,-1.07430951658332,0.315112827552924,0.630103511504749
51.595,-0.416646425464194,0.261744586694424,0.857961022255093,-0.312572953261086,-0.0818971389418761,-0.0487453797185108,-1.03306363600757,-0.0913603273291307,-0.187695789500784,-0.0857929912812158,-0.0233467520457343,0.687940130619849,-0.477301474063301,-0.500787734503451,0.516549976246495,-0.598668856419241,-0.615291039652244,-0.380236759091311,-0.956333159447456,0.0237947383973794,-0.146172860047996,-0.93037479936571,0.356908304271462,0.702979070607475
51.6,-0.409433774151448,0.253468485961982,0.858341507030366,-0.307477698779903,-0.107091963131005,-0.0870666226523267,-1.03826610621728,0.0148714622244868,-0.161126489685519,0.404041736339298,-0.0791992298295905,0.673117163258885,-0.475534957647333,-0.621330386400242,0.69246138930324,-0.213242048712906,-0.530106287049198,-0.494868228176541,-0.999105808846442,-0.0258598882489663,-0.14587198875251,-0.861678870624872,0.315555870600407,0.787034853588068
51.605,-0.420624118183728,0.242511202849023,0.860381942021777,-0.301992066818215,-0.115585532053667,-0.112909485653735,-1.02591748025987,0.0644910103399,-0.193087738060085,0.613272288447144,-0.123606454094224,0.671126077882709,-0.521819591295113,-0.673686192573829,0.793607226930333,0.176531415781409,-0.437488210611407,-0.534972329552891,-1.04724524307209,-0.0798064498477687,-0.132182718919608,-0.879436695313653,0.247551602540403,0.815313086143187
51.61,-0.441359164725393,0.204956984121874,0.864069955802149,-0.306946249309059,-0.109145925867132,-0.124624270131636,-1.01050525293698,0.081014486702065,-0.234856560102423,0.6145669839028,-0.150062765894137,0.645035125570857,-0.602538931860038,-0.671794272616601,0.869886063541415,0.614968829205673,-0.351899898746044,-0.596038022907753,-1.07794051119942,-0.111515008608932,-0.104612575527921,-0.931658926454229,0.179259827506116,0.796345404744345
51.615,-0.458951071155075,0.195652165161299,0.861237009318693,-0.317652879253197,-0.0890511197286869,-0.12535198041043,-0.980071227025972,0.104192838929187,-0.21966029194211,0.45617554054089,-0.157992093606205,0.603108043793669,-0.687534537155786,-0.609210257125989,0.889765906906152,0.954167534253535,-0.299729446139239,-0.628627072750113,-1.10614393784605,-0.132855364042951,-0.0713799396139161,-1.02184061713292,0.157150557564713,0.715949379121439
51.62,-0.458794015504623,0.179624770016801,0.857097593830671,-0.319595986047541,-0.0824969775993502,-0.114859922220192,-0.962556313820534,0.10826416089333,-0.203041598099319,0.0572221469048976,-0.146286213241869,0.555959184846756,-0.770878389648707,-0.508039928064689,0.801029730092573,1.32940527847975,-0.251185530106978,-0.56532370638121,-1.11296761863759,-0.13019321111036,-0.0423048224763598,-1.10112195733584,0.179054462547429,0.62721021706935
51.625,-0.453368594342442,0.14055642172976,0.869700909851572,-0.306050773271432,-0.07025761006149,-0.0907973289806792,-0.964219292581572,0.113823821750815,-0.21725981159194,-0.267399216787466,-0.135830498369051,0.527082414611602,-0.822483538575498,-0.44282239936447,0.670754824882324,1.52293698108368,-0.218585372203463,-0.487803784022817,-1.10224892060958,-0.122576137443063,-0.0149326140173519,-1.15621030569434,0.211878349134053,0.533516984779438
51.63,-0.457333630352935,0.101603966570106,0.876145109311698,-0.266774886227141,-0.0571885114873677,-0.0588384616223655,-0.953968812756782,0.083240067526344,-0.23410586699431,-0.722273200282821,-0.119613747850245,0.488040658680067,-0.875405281644513,-0.379783477488296,0.485891443822518,1.695051459464,-0.192760477979438,-0.403229714369991,-1.07826930071037,-0.114405269701482,0.0156071049580967,-1.1737562417984,0.240617265561892,0.447641563551343
51.635,-0.466487587928173,0.0939581437172694,0.872027171711335,-0.214109323693549,-0.0400706104605586,-0.0125749189719858,-0.943490143748731,0.0129884805377849,-0.239853566951291,-1.08870756800545,-0.104076807213193,0.457730484714263,-0.930119969205708,-0.337337094861959,0.313204009020681,1.86588528239423,-0.154446110938461,-0.338815853340251,-1.03371370915298,-0.0804121343432974,0.0454099003457091,-1.15685934427255,0.282174134181714,0.349004301473668
51.64,-0.435602211627896,0.118081094105573,0.869305560037735,-0.191770338468998,-0.0281564421535206,0.0193998899309675,-0.94633149299418,-0.0472264284455683,-0.2342961344023,-1.43287242716777,-0.0942762052525095,0.445218826154272,-0.982731308527321,-0.31331792736548,0.159633921005633,2.0540748869897,-0.108080880310482,-0.31190612947981,-0.990513258877726,-0.0441773045048538,0.0660943706727135,-1.16344425971069,0.301623293929587,0.287018846402954
51.645,-0.416637491045269,0.126049990291757,0.88007017743094,-0.199545480526291,-0.00367021929750611,0.0416858533505375,-0.971740734653522,-0.0797884314077355,-0.234129099845183,-1.58957269192452,-0.132642376202408,0.4235981486205,-1.04040473487892,-0.291962196114853,0.00784674609736148,2.24296865173087,-0.0257877867983884,-0.276806168461888,-0.938095197176867,-0.00993396816389942,0.0756350307466274,-1.17819045898615,0.335608109100324,0.235393882149977
51.65,-0.425647318299424,0.130497624983975,0.887407479711968,-0.216060102008697,0.0057036536047494,0.0471510386909229,-1.00428217788275,-0.133370730957656,-0.242977697301379,-1.68863001817477,-0.162936365816286,0.427342487812965,-1.08800069536931,-0.27053277566504,-0.118080174015391,2.3505086168406,0.0448177368580822,-0.237530906561615,-0.907244045804663,0.0105199533073521,0.0723428364594857,-1.18757528701138,0.356694517831361,0.196812608466909
51.655,-0.436069414114506,0.145884966940545,0.875959995308143,-0.23555506261217,0.0126354355816405,0.0581397682873506,-1.02564602238307,-0.17555415954833,-0.249014318202844,-1.699450097014,-0.188156772187158,0.431583801858442,-1.11237283157584,-0.245116022345666,-0.24083283554404,2.3838697339259,0.123247791889109,-0.175095565074035,-0.897921323148656,0.0336486211376889,0.0722609999128312,-1.18335172633779,0.372324900965077,0.142789629405779
51.66,-0.452467336691372,0.148591115237749,0.895509803261209,-0.252827823468709,0.0138425195463272,0.0721847172837812,-1.04522838624297,-0.183326463113805,-0.262512780764217,-1.5994687534156,-0.21340279068635,0.418084616238887,-1.09898872901862,-0.236339228831316,-0.291891569702507,2.33935100928839,0.167955815159053,-0.148320384447866,-0.88751926291532,0.0550350694322775,0.0682046175035484,-1.17276031308061,0.358557782902734,0.115395226329592
51.665,-0.460507173946161,0.119373685381372,0.892305926811132,-0.250333420998161,-0.0059949890908983,0.0696015293025616,-1.06542229695177,-0.119647220850401,-0.150198775569496,-1.2223561578158,-0.341397236533359,0.409726723870473,-1.06009763965601,-0.223363632104515,-0.318300150332913,2.1919073349883,0.223259906500927,-0.126968513945865,-0.8852984655035,0.0752499799208486,0.0589497545993545,-1.13832601484947,0.33516395238856,0.0706446538616322
51.67,-0.452925501850739,0.119853633882293,0.890351781795324,-0.226226313007126,-0.0180382103312481,0.0700186224623208,-1.05427650856111,-0.0767165741058572,-0.121455132156802,-0.576415785902651,-0.61048963197331,0.418200675827767,-1.00029001180183,-0.211391319352196,-0.307848706863663,2.04987638049755,0.249341990528294,-0.131131136339953,-0.89505536893861,0.0906714602513048,0.0491018186226578,-1.10664734466606,0.308615781956735,0.0407575269297858
51.675,-0.436511801004419,0.130759163733657,0.881375738542258,-0.184616207165769,-0.0240132979634793,0.0712431222200394,-1.00669047050697,-0.098787533150237,-0.226063438150326,-0.229809770551902,-0.726723304096164,0.428300206676655,-0.936641325142216,-0.198584897594062,-0.258833010474615,1.80460575843916,0.267819581091876,-0.198004563195558,-0.915095136910888,0.10819976659307,0.0333293866252547,-1.06376380418392,0.270315099596161,0.0156295245163391
51.68,-0.427452562863924,0.136027758591117,0.887329493509348,-0.150979991920658,-0.0242960106402841,0.0778966339548548,-0.986581298165512,-0.137955871666943,-0.255222323573109,-0.0662121128063049,-0.708428898050809,0.425583168363764,-0.911342302822092,-0.188650882819247,-0.197004131410031,1.55829777860645,0.249224769292853,-0.262980182349203,-0.931276685195306,0.116975622955901,0.0321337514199319,-1.05970252508185,0.259664683228362,0.0138892501518003
51.685,-0.420816325017568,0.15648641211678,0.875661402822783,-0.117779553190305,-0.0268421204640054,0.0837545398342375,-0.983604170757232,-0.0869366531695623,-0.18579864739448,0.0443385489136012,-0.695335889111877,0.410653927520581,-0.911816100481883,-0.170959882961209,-0.129163097206461,1.30738595394679,0.228092683698534,-0.305816555283661,-0.944727059611238,0.127745691378451,0.0323614319076484,-1.05525183677673,0.239826723285985,0.0198844523906846
51.69,-0.414587126746475,0.174853607202743,0.870221681309454,-0.090237910561986,-0.0185850875367482,0.0903554023980077,-0.978292625473386,-0.047868854665527,-0.176625504953935,0.138081737155866,-0.678892552955646,0.397087134274779,-0.916516769970619,-0.158359737165734,-0.0650566685156454,1.0764412911132,0.197666468701711,-0.317579355814313,-0.956059583278201,0.138767285206728,0.0327871648377825,-1.05830972233756,0.229079842266654,0.0346167096931326
51.695,-0.413240894473203,0.164450745936268,0.873737482503409,-0.0763367330573045,-0.00936363746172167,0.0905348472077971,-0.974835033657951,-0.034305237375295,-0.196219791397998,0.172401320969375,-0.643065640531813,0.388457284928501,-0.923631111344716,-0.149306829674337,-0.0152816547737698,0.916987283549315,0.165704780489963,-0.305502615185613,-0.972499704490376,0.143903828827038,0.0314275353484724,-1.06549914488003,0.22692646526504,0.0594666577567227
51.7,-0.418698067585906,0.15153846052412,0.870427297623747,-0.0448957125604136,0.000810598562803425,0.0971646088681875,-0.983630588554573,-0.0105135042828423,-0.181725726198513,0.135958922926943,-0.569532992618671,0.3711101593302,-0.940535940220899,-0.137832442103884,0.0738304242720629,0.655144680568406,0.0836745685871308,-0.285101860761642,-0.996717921078269,0.149096668247628,0.0300835895858037,-1.07823715381801,0.226892795476827,0.102873456801975
51.705,-0.415038427078937,0.150271184989424,0.862997088940366,-0.0290840943038743,0.00855453039279611,0.100453338424647,-0.988052008733762,-0.0028441832405697,-0.182517209257223,0.0695325137448739,-0.554477553499175,0.361331724163723,-0.946111106690865,-0.136564894356348,0.106792211065153,0.597959611943665,0.0447300544723526,-0.294707101426146,-1.00761521695314,0.152448314284652,0.029748737840197,-1.08701088209892,0.220331714327615,0.123167401600915
51.71,-0.421844229382155,0.141635705754675,0.871709996517497,0.00529749516574286,0.0226477646109218,0.117470546747913,-0.985928715175761,-0.00378501146078892,-0.169468751326184,-0.0613936082498486,-0.496386056421893,0.356475488600119,-0.947906864758012,-0.14528219446484,0.13751333508084,0.584827614042078,-0.0163393010756106,-0.364922198583875,-1.02097536551258,0.148004445500997,0.0382055494704531,-1.09678947925568,0.195646282512502,0.159963568152107
51.715,-0.423783902620127,0.141847409431065,0.8790017400341,0.0247290552937667,0.0304931741666362,0.122524222296021,-0.981278237237626,-0.0127239229663979,-0.154680204981141,-0.183326980132175,-0.466660516513395,0.354030117355849,-0.949053999687883,-0.154068301750354,0.133821759129386,0.646247865751279,-0.0493841405321937,-0.411170658324385,-1.02160368566796,0.149815080418279,0.0485553831332225,-1.09105731781508,0.168986262480729,0.184833546112474
51.72,-0.416502236640938,0.15962406153079,0.877651692182747,0.0196471902546266,0.0316938942910774,0.127266474151509,-0.982069852722944,-0.0117182198604433,-0.122211855606394,-0.316913983150786,-0.415999457243349,0.36034953440666,-0.961728618807957,-0.163954528371816,0.106033268990814,0.755510082246946,-0.0839896141267397,-0.4528410517454,-1.01421156294911,0.156375011191402,0.0631548046897197,-1.0643923088373,0.136915776660101,0.219366454114431
51.725,-0.409597702130094,0.168505263601445,0.883378803529468,-0.00132592728059137,0.0255606395086224,0.125431710249629,-0.983437090269657,-0.00790085011986483,-0.104047001333353,-0.487938578821343,-0.363571276268812,0.364512065713508,-0.996377721091638,-0.155316309590897,0.0633235562352188,0.886016112172872,-0.100786125603031,-0.443283003143319,-1.01249470943568,0.15394086875252,0.0675386484418775,-1.03392034855561,0.1236585629356,0.252834892272021
51.73,-0.422173433141981,0.164713560620987,0.884919771441558,-0.0327865131621912,0.0234909877181053,0.121508207737401,-0.978092278903904,-0.00942361835041434,-0.0933668820099094,-0.654682734121562,-0.301940072693058,0.359175982004309,-1.03017851386875,-0.129532307587842,0.0319803803190716,0.981162115427588,-0.108138920024969,-0.410782027560675,-1.01551894221362,0.156092884699242,0.0591693487680407,-1.02357758501183,0.133315938509621,0.283903634145096
51.735,-0.437273302668817,0.154443250190096,0.883077210264588,-0.0532371002222351,0.0101580332006267,0.118994895363646,-0.983235659777073,-0.00730752755667699,-0.0818746203952144,-0.710993649186591,-0.281045413629358,0.35667107070514,-1.04125763037771,-0.103263617456509,0.00391211761250768,0.975675493758395,-0.104972104006391,-0.35512196328942,-1.03097617311824,0.151327539765533,0.0703849285291097,-1.03069123911932,0.131141871213913,0.328233153631122
51.74,-0.43963362321888,0.157717895020765,0.87790353311672,-0.0627756047177514,0.0114670488706445,0.12236127936618,-0.983435561692709,0.0105242146520279,-0.0685748973713625,-0.707686271963318,-0.290151168135301,0.356175239886807,-1.03323602465688,-0.0697332515765377,-0.013532233811126,0.909448838669523,-0.0755957964244619,-0.332847965886836,-1.04731818493747,0.141305725095123,0.0820883029507538,-1.04484042161387,0.124449634755732,0.363956799158847
51.745,-0.422043092105147,0.1632093627134,0.872361308010759,-0.0762347270797582,0.00655058924095459,0.126382702294138,-0.982586916704039,0.0117975476490959,-0.0868220559146544,-0.640857200855826,-0.297608491479573,0.354430019137489,-1.03043275491287,-0.0539731423659719,0.000680446101506085,0.864378248679248,-0.048500466067802,-0.330783078123998,-1.05319347318618,0.123158918393923,0.0891734382508792,-1.06590881120383,0.108073386744573,0.382228795386811
51.75,-0.41134065314537,0.15846005388578,0.879093875886882,-0.071823927098394,0.0121286413730378,0.130403528713319,-0.99920537095234,0.0160747378619284,-0.105159263867779,-0.611872091865804,-0.290165677643086,0.345990492308017,-1.01146302830855,-0.0307986364107153,0.054513670580933,0.72087582330105,0.0137874007203184,-0.346821487595417,-1.06928366331622,0.099316498897008,0.0995207628132262,-1.11519838140975,0.0671489199190114,0.393780977053738
51.755,-0.404706376243895,0.157926986738564,0.883720266899775,-0.0652010668343228,0.0157015969190123,0.128818723429458,-0.995337663850613,0.0322316872578089,-0.0727787729936234,-0.59109158343324,-0.26781962328401,0.338753607884069,-0.999526972629009,-0.0268389246540408,0.0997276224926293,0.619940121403413,0.0473456948484882,-0.37688399907531,-1.07459447018488,0.0773431181762071,0.108501598622387,-1.12674487222129,0.0413644165877937,0.381270131701619
51.76,-0.402242631415205,0.179586218640319,0.87820883028415,-0.0530486125486681,0.0112326393024001,0.122512892882445,-0.98745466163482,0.0675992537393734,-0.0522017609747914,-0.549862842334758,-0.227706305639509,0.321408012911268,-0.991535890786041,-0.0317810595912586,0.144214479203655,0.516734878640175,0.0577689558267593,-0.387724190950394,-1.07566947818818,0.0482059299316207,0.120542757685119,-1.11707283877297,-0.00103584143781234,0.35328594457255
51.765,-0.399630067609259,0.204413606497646,0.873986691295032,-0.0448558788178876,0.00806949836984528,0.104529488459271,-0.971793510979056,0.108565105249297,-0.0543672873590929,-0.51422047123037,-0.195674225292947,0.300661774209417,-0.988097033419955,-0.0334750949683212,0.189105252736762,0.402839332532287,0.0394960141511537,-0.365968562927412,-1.07118154099171,0.0191384158763255,0.121695051509143,-1.08190283595518,-0.0366556939925927,0.314120961119363
51.77,-0.399017262625893,0.190932369128373,0.873341848852094,-0.0410748723670022,0.0162780599071476,0.0896487421027652,-0.966638547554943,0.13067494342193,-0.0592411151638795,-0.477244649041471,-0.172881816067444,0.285420378511119,-0.989635279712537,-0.0300854494059974,0.216591227056538,0.347973081254943,0.0202589444424183,-0.33522927583433,-1.06638404783736,-0.000340538254441884,0.124325989493899,-1.01917865733242,-0.0783941154506214,0.260592537446108
51.775,-0.395778809213427,0.197740721093255,0.874292282443712,-0.0187912418571161,0.0162974236740024,0.0705678528342368,-0.973281536799823,0.116198968472057,-0.0543344738444064,-0.410620653899426,-0.168519317168164,0.261336492112879,-0.977923517005274,-0.0392198904398212,0.245081321386328,0.260468441135422,-0.0272181626323755,-0.296126039153089,-1.04650152532885,-0.0247880282064999,0.105007010795579,-0.939894919506616,-0.0992008730309642,0.203597119634375
51.78,-0.410187828168005,0.19803809230088,0.872844292690983,-0.0140371918678284,0.0173455182714425,0.0566197826352413,-1.0003002037433,0.0831576875362738,-0.0598210868035347,-0.337944275525649,-0.170389103407424,0.233264925397007,-0.957641378627337,-0.0527816157810074,0.256128103148277,0.150696029380583,-0.0713073828435543,-0.278918362261661,-1.03803379910045,-0.0421586464881353,0.100054484933617,-0.868722589611266,-0.112386018032696,0.161273977406645
51.785,-0.419535229473067,0.179143328221333,0.869566716299317,-0.00566745063176551,0.0234250298765326,0.0421705362125292,-0.997463135187687,0.0585699177308063,-0.0812353895709191,-0.230967628942941,-0.162756565298342,0.21270682967616,-0.953023068948259,-0.0652720727503763,0.250015821078643,0.0582485247326895,-0.100216537547702,-0.26873723651862,-1.02871560899557,-0.0436815481991446,0.075715127228333,-0.81512515111362,-0.130564757282449,0.125318854912809
51.79,-0.423522274887534,0.184334501498064,0.864701153589347,-0.000995408926363029,0.021322545565531,0.0301334920407739,-0.993910373786976,0.0384737318782312,-0.087288696273449,-0.151849275916106,-0.146994866259931,0.190380801701411,-0.959285077093542,-0.0765097576250583,0.246802031740895,0.0274952574617383,-0.107874395096112,-0.25867026898923,-1.02819352362053,-0.042070638291629,0.055531742412639,-0.778222078359769,-0.145827449284152,0.0954697458331097
51.795,-0.428217508520677,0.179967292336158,0.869473918252779,0.00235220919784584,0.0227165813231032,0.0268148337817628,-0.990793098197952,0.0419570090429978,-0.0731395031739756,-0.110604234785197,-0.150407116935841,0.179021080123451,-0.96493489449163,-0.0867457786689214,0.243533515507206,0.0419106625671585,-0.0901835237796593,-0.259683337699693,-1.0163305906459,-0.0311690056682782,0.0323778270983573,-0.749554503620998,-0.153727604435199,0.0823815181980421
51.8,-0.432122069209911,0.17738559877512,0.873289994458396,-0.000815111447106233,0.023429113000981,0.0246640464473938,-0.992779048888376,0.0556771096279968,-0.0511735946586464,-0.0123547354649807,-0.156240844273926,0.16555298627678,-0.975881779436819,-0.105767941872487,0.248997380854764,0.0910564433380135,-0.0404626623229689,-0.279611716254176,-1.00396589406196,-0.0212156905183102,0.000390658745871418,-0.707569243448611,-0.159214904173417,0.0679432956263605
51.805,-0.421289829208779,0.181229705523951,0.867520355595615,-0.0137387250934204,0.0235503144950838,0.0212129755014855,-0.984606359437429,0.0422227624085946,-0.0699213233436171,0.00804202811359547,-0.159859315206267,0.158799354148323,-0.988442914624259,-0.107539678670577,0.261512396379101,0.12006564749498,0.0270567988832001,-0.288287894960096,-0.998164963456747,0.00425802386429003,-0.0262999222304173,-0.682388409300301,-0.105859183009807,0.0686918221175399
51.81,-0.404143653449503,0.17756457438868,0.866133909093429,-0.0257000466401719,0.0295443861825519,0.0240960557750254,-0.983133600455646,0.0375694598538133,-0.0701593499650805,-0.0301349759604406,-0.14580041120279,0.157625796789336,-1.0010268520141,-0.108823029567979,0.27430638289215,0.139304383810232,0.0866495747749943,-0.283821915654838,-0.99445290359096,0.0206134731247065,-0.0452519172959153,-0.664234918884795,-0.0299117450814117,0.0747429885690872
51.815,-0.385863456134188,0.175924989256239,0.872743223684994,-0.0428864433811423,0.0341476126288506,0.016424008623522,-0.989546169477419,0.0448478118869552,-0.063470256462085,-0.105741644064321,-0.126997444981378,0.158440336585045,-0.983559484668056,-0.116354283878542,0.261908150807526,0.175013148637615,0.150654330442348,-0.262287877193361,-1.00701764987353,0.0371414050244914,-0.0578194236562635,-0.659999628533926,0.0890029341101883,0.0803511173488544
51.82,-0.394959077620553,0.158152381234221,0.87758136905882,-0.0543494962127766,0.0418103883543662,0.0150439727421191,-0.989469359580185,0.061384929578714,-0.0745279426739301,-0.221249839240727,-0.105178592047668,0.146822289134667,-1.0179168906618,-0.117489871652836,0.273894662975253,0.236131364178253,0.255690303836608,-0.272336814521838,-1.02982029883703,0.0473083976427441,-0.0600509582313127,-0.664268191864074,0.190332417341867,0.0862749584480443
51.825,-0.419631490133347,0.180221648285496,0.870847004753416,-0.0620979757992616,0.053019000977131,0.0152525248548695,-0.969840514957057,0.067347226033124,-0.0841389290219403,-0.304737997866163,-0.0936746204272666,0.139427443148255,-1.00489467585511,-0.132620997243595,0.268118933591082,0.401796893402847,0.367242129460652,-0.281925960171252,-1.02549496794637,0.0515792173640852,-0.0616572954856182,-0.687191245289866,0.243503605022127,0.0840844064950943
51.83,-0.402403489683447,0.185871349652331,0.875722845865796,-0.0720568655105721,0.0591985075522189,0.0196319379820282,-0.979381550150449,0.079263360859688,-0.0867531958490611,-0.382664960116215,-0.0515045093869206,0.145822119903161,-1.01906882833022,-0.180470922339457,0.239020722457177,0.466516589770161,0.380245855095207,-0.293407557471236,-1.03388606548311,0.0515210077625139,-0.0340189174818362,-0.705748425318718,0.300925834671279,0.0807158329659966
51.835,-0.401141455733755,0.182420827763705,0.879231741187648,-0.0796039545783083,0.0621772701051445,0.0154509862522776,-0.992071276162433,0.0856079186070955,-0.0962072936244601,-0.467617247188901,-0.0328933406101519,0.133775646310025,-1.03536663883103,-0.234754360828594,0.231482693532278,0.461381513505306,0.319470910120907,-0.211423519125224,-0.988946221477357,0.0438644536529972,0.00625170509732147,-0.699309262670841,0.306599395273474,0.0835439472945667
51.84,-0.413840909126351,0.172358791892611,0.870109534483896,-0.0835548161302273,0.0672935499003924,0.0100989186557265,-0.984653394059706,0.0785823352571783,-0.122958364531047,-0.554045191525221,-0.0224752090727278,0.121177648685537,-1.03723528520623,-0.253255591196681,0.210880454668303,0.482935815739646,0.236599362970675,-0.116102176188917,-0.960822721616863,0.0354587369274956,0.0500958580585005,-0.66211575766016,0.265106965562524,0.069424070417881
51.845,-0.434544317573057,0.164796310294753,0.866411569116715,-0.079912928711278,0.0640703983399628,0.00840971973978775,-0.986994361044868,0.0638697755879841,-0.151151998011386,-0.581070046051043,-0.0164316352280388,0.108594080477522,-0.993532904501437,-0.233198700676489,0.154952769713514,0.64455465426253,0.159222486740485,-0.0435613485585848,-0.964444865609496,0.0353236881513842,0.0835595044308612,-0.606763799433798,0.164786337268189,0.0707003619359726
51.85,-0.434776694033725,0.161557004895969,0.865586105816499,-0.0713191031704457,0.0644853407093586,0.00649331416934729,-0.988641462365743,0.0290789232871613,-0.152128321011365,-0.545784538449218,-0.018814238280291,0.0949170248231426,-0.936844793420041,-0.213222417135766,0.102029413449965,0.820049322372331,0.139884272179884,-0.0274552076865644,-0.978687146054491,0.0402867492241602,0.102451375766848,-0.530106748969524,0.053899922590439,0.0778745226720351
51.855,-0.427282575750723,0.157339862183346,0.864310883566741,-0.0595307585001697,0.0670558117323921,0.00920073697872377,-0.991515914473421,0.00752311568899064,-0.155280980063035,-0.499788208030582,-0.0244900474672976,0.0870237535991449,-0.906643194089198,-0.215472901408353,0.07457434216469,0.964408870547635,0.140481208400332,-0.0294773272763916,-0.991568423479776,0.0440513326570949,0.104393574568961,-0.47401204623254,-0.00843541013334809,0.0863682159569797
51.86,-0.417901978641917,0.152813913303751,0.868490661235012,-0.0456920649245788,0.074705617641065,0.0154566228059248,-0.998255923372446,-0.0254686017889723,-0.154224755340028,-0.422628418100321,-0.0264802128076553,0.0900656033682318,-0.876610318268869,-0.219952441744336,0.0353725443754967,1.12635347657129,0.170764279349115,-0.104553134138499,-0.989185085371513,0.0493529800528575,0.0927551322398717,-0.378958776556482,-0.0541188381704116,0.0945892133196094
51.865,-0.424524212421473,0.134721358947168,0.87182881463944,-0.0332066966772283,0.0870796784341345,0.0168403576192133,-1.00269872517039,-0.0519251823275568,-0.165121084815074,-0.336574426835365,-0.0397894044884372,0.0945238741505385,-0.865612575945839,-0.223037033050888,-0.00729475999286149,1.17461315977887,0.191919409068488,-0.227607386111791,-0.965313996015201,0.0586159813325024,0.077336862831712,-0.282220391958542,-0.0459239422033565,0.0870685840592009
51.87,-0.434871422667864,0.121975075267581,0.873358466783952,-0.00743606477962066,0.107058867135786,0.0318049066962724,-1.00633967274882,-0.0760015306819293,-0.194187717514224,-0.236687907195139,-0.0507405049708862,0.109160461081119,-0.890579778403134,-0.23574862962,-0.0429740971822902,1.12438363149328,0.201629369766238,-0.299435742374825,-0.938310896755321,0.0627270522176832,0.0750142224231806,-0.225322100010711,-0.0259454853534,0.0825634860142488
51.875,-0.439248480148513,0.118190183465217,0.874408125238021,0.015353139211221,0.127261618580854,0.0463762871436736,-1.01410201211798,-0.0951604919588782,-0.216121350380782,-0.131310647885239,-0.0525824208888113,0.128000497454748,-0.920690765333165,-0.256413717897755,-0.0706884939867212,1.05989555876756,0.218256621005527,-0.321790095239211,-0.91529758758571,0.0692309844001693,0.0720438810412085,-0.155538512706539,0.00680213954374466,0.0794690542711611
51.88,-0.428761905290456,0.124903934808989,0.872109553441108,0.0385547225473146,0.150091115702938,0.0688587835043983,-1.03670335131897,-0.0901647703166504,-0.213097952146464,-0.0132453558655438,-0.0888192963618699,0.130308207712136,-0.938289573187234,-0.266107792014058,-0.105780365113342,0.962661370480745,0.231952889581996,-0.331326171525006,-0.908316140631252,0.0799967300980353,0.0733892440784191,-0.0779215982118998,0.0251912731146465,0.10027306293085
51.885,-0.431560362419216,0.126079424643534,0.880934977323884,0.0552837087494304,0.166597898587607,0.0823226997181886,-1.04402784044219,-0.0588114748248623,-0.201332036542379,0.0802037578736148,-0.117965829127897,0.144860219710935,-0.940515013576867,-0.269993968710343,-0.133653164928746,0.863117873497884,0.236822837470737,-0.340229396636427,-0.902992368096961,0.0920101459213951,0.0647311719608994,-0.00748745093608784,0.0274649655775655,0.118312598475901
51.89,-0.443365076287188,0.131407381879868,0.877937930362973,0.0658521577030767,0.168872624635696,0.0966354102737375,-1.03799730585522,-0.0193849888035519,-0.192930161550147,0.107651211399779,-0.139160691009868,0.152741406866943,-0.928970679984033,-0.265535919236798,-0.164281476039423,0.737541759206736,0.227606109966054,-0.370555585032504,-0.893492425795239,0.10300305579414,0.0636880812488588,0.082903286656335,0.0159533652756932,0.143424200325793
51.895,-0.450012586192267,0.145322366012168,0.873008128995481,0.0789431929471692,0.17336461669795,0.112260905610208,-1.01534720980691,0.0226365769549553,-0.179778192095522,0.120153897141322,-0.171641081680405,0.151268210495451,-0.920977222797415,-0.25993926599456,-0.189586152414646,0.622153028010417,0.204267264283181,-0.408703055418619,-0.888238867260649,0.117815369916353,0.0615250891121861,0.162662166007576,-0.00190876648750849,0.170199443243503
51.9,-0.455474874095525,0.154360282291769,0.883268557461374,0.0820251719891331,0.160205640953456,0.131407155478047,-1.00760343622959,0.0333887282633548,-0.177924488820298,0.0908019453939562,-0.19700349091446,0.153672351952806,-0.910464054080398,-0.256530518086135,-0.194445262180547,0.508206074793663,0.178319456281297,-0.456723691782094,-0.88406408180029,0.118394717228848,0.0550019787134746,0.235085084770184,-0.0164922972509961,0.181972016911306
51.905,-0.444282163280198,0.174777523796083,0.872880414187039,0.0784652467051723,0.14199535548687,0.133895888587619,-0.998062155611034,0.0421461986602532,-0.165583458232686,0.00860858630642534,-0.221198798787104,0.144767106413562,-0.911232133976077,-0.256801318389346,-0.191905812084852,0.36849959480793,0.142636949378406,-0.50059086887372,-0.874668918133362,0.121946827899566,0.0515617623398033,0.287225426313043,-0.01417369911845,0.206452051343451
51.91,-0.432635139318467,0.176879567658191,0.877029329399713,0.0659285330749793,0.136234121356504,0.137790750741719,-0.994185599697299,0.0662964002843068,-0.146884035301896,-0.0628820438881853,-0.244573952942503,0.134553492735479,-0.917508619166268,-0.268661056342673,-0.16349156022099,0.218384007098616,0.103148149706617,-0.544469271844173,-0.871687749943122,0.118112881685519,0.0354883834338037,0.314363283843387,-3.49483534095446e-05,0.242017567704591
51.915,-0.429874943852203,0.172385644372585,0.873902700697654,0.0555993989109993,0.123712510306843,0.138436317443848,-0.994317220620136,0.0770799645302108,-0.146379584487479,-0.172100155614451,-0.249301063896549,0.131983826280866,-0.930264021782612,-0.286950825601454,-0.124072140693099,0.0976803554759045,0.0790133945751175,-0.587184892967205,-0.878047940879207,0.114650254854523,0.026110168132958,0.335589102845094,0.0348195224765103,0.281988545917295
51.92,-0.434085359000187,0.176605723327437,0.870727813328369,0.0457974247048038,0.113896377384663,0.138436317443848,-0.995520778160522,0.0723224588410858,-0.168307545257478,-0.257416305476459,-0.273207220494908,0.126504922403091,-0.931011904430402,-0.308305067150129,-0.0750800269902582,-0.029627071683525,0.0316006460998359,-0.618140470277218,-0.868372837891409,0.116603414817098,0.0280222592283172,0.339902731050225,0.0615463940404577,0.309434729122276
51.925,-0.437522926816023,0.162134270780944,0.868864337877989,0.0368659650030506,0.10574783703558,0.132460717874893,-1.00075409047784,0.0495487682761172,-0.171379929427305,-0.313100852164521,-0.301960145487973,0.118209512511657,-0.912982164763251,-0.328466119683636,-0.0349784056712374,-0.0976221760950313,-0.0106667719036044,-0.653119184995936,-0.862140646911154,0.110465111328236,0.0402903293087033,0.32943917972272,0.0725226983151468,0.334064918442643
51.93,-0.438580808111364,0.136532264419106,0.88076730555283,0.0365336150469887,0.0862043315913773,0.123294651815764,-1.00509250778533,-0.000101470661007507,-0.172508145336326,-0.346304461989494,-0.326075989396476,0.117763957682061,-0.878734925764673,-0.342976693580049,0.0044524071337896,-0.124740048171805,-0.0540916984339397,-0.675333911811557,-0.890271704130747,0.100680922532474,0.0620641132691079,0.30239237387645,0.073722243309021,0.346372131950532
51.935,-0.44854483233385,0.106414865008859,0.892679054088373,0.0409322627716745,0.0674991887614342,0.121334867386323,-1.01344089234394,-0.0550654558461771,-0.194992057686271,-0.33263217563365,-0.344491515492641,0.125410976179778,-0.85041928803138,-0.357497257182162,0.0216982826574906,-0.112490064493271,-0.0850331145983008,-0.68481304376924,-0.896657644327199,0.0817093288509728,0.0786034190190681,0.275345789246371,0.0612314076453502,0.34747189804668
51.94,-0.447728256687186,0.121612369333194,0.891899455533302,0.0647015968631326,0.0599203201498532,0.128877425353594,-1.02448546316152,-0.0800017555868253,-0.198920092669143,-0.262713412996222,-0.37081055170435,0.122517786801208,-0.837163473616978,-0.381056903518673,-0.000283853468994301,-0.0812985114962299,-0.116154029816811,-0.69264581386105,-0.904538048957487,0.0611240753877517,0.107029811788316,0.21702091460982,0.0189345985209609,0.330971472319209
51.945,-0.453649133992604,0.144235888870989,0.886225342968192,0.0742402646645965,0.059432511699208,0.142929231810603,-1.05091847668154,-0.0672283589300704,-0.145776033533169,-0.0638010847323815,-0.44069502587494,0.121102116764543,-0.840782923478771,-0.402597627090634,-0.0249338665263893,-0.0655755804038611,-0.121820136904716,-0.704250715006289,-0.91585229624299,0.0454681834396723,0.118605007741457,0.158868765024869,-0.0424935470732289,0.296648528683307
51.95,-0.445367882886514,0.146325207940742,0.887097230671647,0.0872860152518702,0.0601418241858482,0.14660631859673,-1.07518916368516,0.00371366245727597,-0.0770733698468422,0.301964811609769,-0.617044190194024,0.114983871177395,-0.854086153611307,-0.408899940501641,-0.0379795546679549,-0.08928913776676,-0.118312383976426,-0.704989912839233,-0.930923920798408,0.0340885955838421,0.11964606903246,0.105699070059286,-0.0918669279939235,0.257857457964274
51.955,-0.436399700506646,0.159441690126686,0.884419097626491,0.111137982563778,0.0534755534595417,0.142544007292942,-1.0616734812489,0.0499639248061762,-0.128135492550471,0.631717374371547,-0.837666539572697,0.108597223705654,-0.868056417305892,-0.41444094244301,-0.0348725187494793,-0.179057501396938,-0.108783934461697,-0.686622538065163,-0.957531873997812,0.024468725841948,0.116152290751963,0.0697229830555827,-0.133862443377431,0.231394454431724
51.96,-0.447114795510058,0.178758078925974,0.863096283537831,0.129138266281507,0.0534616492870334,0.138298719638169,-1.02694607844176,0.053781597331743,-0.200023149307295,0.726040346221843,-0.911928703604205,0.105067215273631,-0.868321389869346,-0.416784172538467,-0.0165788021434759,-0.296098951260042,-0.109297034196155,-0.676959052624989,-1.00091411767542,0.0266498455699266,0.109786117988441,0.0590245906650989,-0.18790249259595,0.197610934390497
51.965,-0.472592105491477,0.22048276208205,0.845638157095988,0.146806364027775,0.0554595415903016,0.153555450328868,-0.999819891605979,0.0738066120588124,-0.198291818853419,0.731556871898412,-0.90151674449627,0.0905437483422079,-0.848592314229742,-0.422587731808365,0.0165245295942931,-0.403204815583561,-0.101231774115492,-0.660002313040637,-1.04068052621419,0.0270018199987384,0.100757408158537,0.0745206617283277,-0.221875151640298,0.189864188587289
51.97,-0.450270155353638,0.205347649230592,0.856193051445067,0.151641708917954,0.064535640848791,0.159933858288442,-0.996065360178538,0.126434709897296,-0.170293798021572,0.669660736860821,-0.876340972459514,0.0575055325083119,-0.833098755111144,-0.423091712663832,0.0602405256569047,-0.473795681014751,-0.0893683919506009,-0.642370655371898,-1.070643042072,0.0341016670895125,0.0923454019988095,0.117843037316819,-0.29261784576522,0.190922202317743
51.975,-0.42799005750936,0.195407866747415,0.868326777288713,0.165796035391514,0.068302661721875,0.159205123782158,-1.0024954372232,0.15581771690874,-0.149701434649128,0.570348685373759,-0.840074918903305,0.0383775857536195,-0.820185006271341,-0.424586304621772,0.0979346220508419,-0.511254601082843,-0.080619482797797,-0.627850204395398,-1.08244593975675,0.0328716410111313,0.0785861303462668,0.177409256236343,-0.362241580194746,0.203536005160874
51.98,-0.429852124201167,0.195811260017246,0.868718340041901,0.18145893241826,0.0770237108397181,0.150159580060118,-1.01374742716124,0.15111916079986,-0.157767731333033,0.447295139347999,-0.818272827461948,0.0144741285159903,-0.820800445990817,-0.420367259956801,0.126993607818019,-0.475854088032923,-0.0500353703526445,-0.60857006825702,-1.08085585753721,0.0342422019640541,0.0396902063918908,0.258544186558419,-0.43061198317734,0.227168280592929
51.985,-0.438574661439093,0.191534599097948,0.863817011387926,0.191207483410835,0.0893434316900619,0.147618869907084,-1.02418126705463,0.125337816914256,-0.16267794439156,0.262646348023764,-0.779798391434687,0.0100120044814276,-0.839334496364192,-0.404116225629614,0.142093460607955,-0.398026554522082,-0.0268149968825689,-0.62772169200255,-1.07120593319975,0.0441658531787338,-0.0150394583962466,0.325252824647925,-0.444449556689855,0.256439245162637
51.99,-0.440881317466779,0.186665290774818,0.862760011648452,0.196036475714381,0.0987614028510696,0.146988183259964,-1.02522418400716,0.0649919298014281,-0.154793205313372,0.158448912526917,-0.764744687334308,0.00443743135314676,-0.867811164200137,-0.391717984614802,0.161200452104822,-0.278707703325761,-0.000357546620014616,-0.674544557636173,-1.05996345940259,0.0521464969135418,-0.0523448761265601,0.36683944969278,-0.418739307045501,0.280698101544075
51.995,-0.431535704980344,0.174542446191012,0.86347747010229,0.194417576827486,0.109085433797138,0.145766481757164,-1.02540277083097,0.0191392910635949,-0.143501771701033,0.112478269913625,-0.761097195459798,-0.000569225777507251,-0.900534966300299,-0.39231817857815,0.172073547017154,-0.184152701826543,0.0105994037188231,-0.711272661240839,-1.05882711299729,0.0656846651992008,-0.077535306788519,0.40759122765262,-0.330683950740534,0.301387784909869
52,-0.438166669923907,0.163581961007279,0.878361434753069,0.178982825613538,0.111452989280224,0.14625824390767,-1.01561588437126,-0.0163182018798275,-0.141196772412502,0.0907999468076101,-0.773094868873865,-0.00500646028311201,-0.922896944457735,-0.397439811284855,0.187429429176102,-0.0815467853011042,0.0220658483181132,-0.729424739095865,-1.06002099197487,0.0691558972908072,-0.0682315879568133,0.409714163104981,-0.26274519768986,0.293482810469558
52.005,-0.439835991589064,0.147896434452104,0.88428213947125,0.174669654270122,0.111452989280224,0.141985071856432,-1.01398517067087,-0.0312869736246704,-0.116326592017197,0.13102952877259,-0.793119512839391,-0.00346667994006202,-0.931823915997503,-0.397455927478323,0.206032548058171,0.000388908976995023,0.0441572430347442,-0.731039591560426,-1.06274203444364,0.0714186227081111,-0.0571788082687408,0.393054455684445,-0.205987324683062,0.270970245440506
52.01,-0.461607539412259,0.132110740656574,0.887039932372702,0.182085833607856,0.111452989280224,0.13477124273777,-1.02884516933648,-0.0153119427823286,-0.0808995007292532,0.258772538812003,-0.867402192097777,-0.00543594530646478,-0.935065236414705,-0.398453463128089,0.22982685087925,0.089826329745763,0.085547062832563,-0.723576577188767,-1.06162297361831,0.0664971135169476,-0.0382121722630657,0.359911195330591,-0.177225943462055,0.24861271207781
52.015,-0.482764524324666,0.136511162521045,0.884784378332423,0.200073983053577,0.110054313580602,0.131125817864621,-1.03399741440761,-0.00615784540281747,-0.111814692147467,0.427420486661949,-0.963318799436033,-0.007476839711687,-0.929747191558555,-0.4028011049579,0.231806652965338,0.150886791527899,0.130015041454512,-0.705364763736725,-1.06564307343416,0.0491525114535203,-0.0212477167385652,0.310843969530284,-0.164141186764231,0.21431471239417
52.02,-0.480355440647805,0.173969462420438,0.860378552970276,0.220449147795459,0.0986646956024161,0.133280098249364,-1.01337291636157,-0.0266363653341799,-0.152630428808092,0.527151399675929,-1.00505757331848,0.00183966563466575,-0.911665170025608,-0.396682966368954,0.227486679783012,0.17032266238402,0.176524994384108,-0.704404033956994,-1.06027463728491,0.0452849666186776,0.00187450155986743,0.253080354142085,-0.150517754151623,0.172762000919221
52.025,-0.482164397327906,0.197079525159594,0.849359491490965,0.224326022438559,0.0996145094915061,0.147678708238386,-1.00485496108058,-0.0183845071418137,-0.13113667381945,0.558888674754182,-0.994859600342194,0.00144162481910929,-0.886586245053831,-0.37496742462498,0.21468059455278,0.227998753994807,0.265767867860504,-0.708016825636186,-1.05183521433226,0.0335406698375509,0.0259845124092528,0.170197912699906,-0.131224334067972,0.13044950221139
52.03,-0.470734277211553,0.181822452440604,0.856724764426693,0.22083769507248,0.11506866241664,0.170753574381915,-1.00003969428442,0.0126570837300295,-0.108897787540049,0.547837710951359,-0.967681920704214,0.0103668415520175,-0.873393028647612,-0.368893939824172,0.192309143688922,0.288908961535705,0.341742858953025,-0.712296495558303,-1.03978509851332,0.0207452837447259,0.0417041995139234,0.105811991412409,-0.133264560456383,0.105611727198953
52.035,-0.454756928531162,0.147359267407106,0.860133724146505,0.228737986042809,0.119955992947686,0.180951320582007,-0.99211909887356,0.0340919796824333,-0.0795730707575141,0.477459702037451,-0.913837212015092,0.0189685748956218,-0.877950347198572,-0.35948356100242,0.174982233370144,0.346438268681789,0.420827621964257,-0.706659663732302,-1.03367569182401,0.0130591962529399,0.0562111447754924,0.0347648083463296,-0.126662729221426,0.090241582222698
52.04,-0.436145834412396,0.148588447395345,0.87582235233195,0.264598434489661,0.121655202720396,0.184596366953132,-0.981850465158863,0.0598703913543213,-0.0503681640132951,0.379323763962628,-0.869707994914507,0.0285016578904203,-0.891513431184442,-0.354699738742872,0.170546300586902,0.394571876296496,0.477292907782218,-0.702066697466727,-1.04319920970141,0.00867768958204669,0.0705401462622328,-0.0404515653502027,-0.121123954842291,0.067363531265955
52.045,-0.427716295217335,0.183157679152785,0.857791391414072,0.2971923410838,0.138795554624288,0.183708934214412,-0.966734854856575,0.0977754879704645,-0.0229084872364235,0.308990735756584,-0.84297321019665,0.0163001628738654,-0.924956280226358,-0.36661087313066,0.170885626132492,0.42259458453166,0.521949196965856,-0.699831629324052,-1.06537824988212,0.00447317342058217,0.0856752579703405,-0.0816395673369706,-0.122970573604107,0.0477274282741587
52.05,-0.422736405968386,0.188445430531148,0.866377697010104,0.304123415140455,0.141475326782282,0.169997341583863,-0.960415510205118,0.12119877607876,0.0105310116710697,0.209498894016809,-0.811872580797242,0.0100316773821,-0.964065841086761,-0.366933359570737,0.183822709887925,0.388365224663061,0.521096412063582,-0.719740253563314,-1.09173574448487,-0.00562902641879512,0.0996783634542566,-0.134668206372936,-0.132780731388225,0.0260661984652018
52.055,-0.413911416811477,0.19884557766474,0.859694276270308,0.307260916268839,0.14319439403468,0.15803631725526,-0.956102127036763,0.131253134240618,0.0405873149379593,0.108874749251038,-0.783393794572791,0.000895448603084461,-1.02784905768151,-0.337037896600105,0.205907685790138,0.391586250995555,0.522129969044754,-0.764915582856483,-1.11976332862047,-0.018061102439231,0.0980839319785313,-0.18038751962311,-0.150211401602597,0.0119524938716563
52.06,-0.414155089146608,0.205525797922782,0.859219679963876,0.291992862317671,0.149087724456695,0.140436828044892,-0.950622157311576,0.122458661953728,0.0480208817992311,0.02068384604148,-0.73808080632748,-9.27726931301241e-05,-1.08492216516741,-0.290299387003856,0.219497509509617,0.547567001035672,0.520327263668573,-0.744455559287873,-1.12239291546351,-0.0293891834042944,0.0932259176475052,-0.20690814095986,-0.159377548782412,0.00915302619081729
52.065,-0.417678552768959,0.218551772312697,0.851673783091018,0.264924859711262,0.148688696128825,0.127700876263735,-0.948754475815489,0.0983384335766207,0.0636976417112528,-0.0507093042594882,-0.689243777425195,-0.0211504563238457,-1.11650539468707,-0.240717931887144,0.228051992016907,0.721237278347457,0.483276748269767,-0.679635470524387,-1.1016441481343,-0.0486797993671841,0.0827593718116116,-0.209673424589602,-0.167283272705662,0.00336964305637692
52.07,-0.413399414032983,0.251102858123015,0.820357220324822,0.233217712175042,0.146743368901973,0.111864728083668,-0.947611557734722,0.084416238133468,0.0742128219339185,-0.0668453247288679,-0.636210305230332,-0.0390877945136264,-1.13234422776838,-0.189256455014704,0.222374281717234,0.949449276926758,0.4199082925815,-0.599775715119274,-1.06732394075914,-0.0553427158374535,0.0730679631606111,-0.201004146215951,-0.168185933739948,0.00497018416728395
52.075,-0.420235475649895,0.267076889653666,0.80590732574159,0.189666269615831,0.164074815760124,0.0986867659041938,-0.930888978003155,0.0702022423615036,0.0912934393023714,-0.0118538045063524,-0.560214850267684,-0.0632011417754223,-1.13424698555668,-0.131347162653195,0.172974328198711,1.15938176210184,0.363873893190629,-0.521900560008432,-1.03606069548302,-0.0604980722788354,0.0573148003070954,-0.186696873462629,-0.151160289566231,0.013184242610848
