Header,foot_Accel_X,foot_Accel_Y,foot_Accel_Z,foot_Gyro_X,foot_Gyro_Y,foot_Gyro_Z,shank_Accel_X,shank_Accel_Y,shank_Accel_Z,shank_Gyro_X,shank_Gyro_Y,shank_Gyro_Z,thigh_Accel_X,thigh_Accel_Y,thigh_Accel_Z,thigh_Gyro_X,thigh_Gyro_Y,thigh_Gyro_Z,trunk_Accel_X,trunk_Accel_Y,trunk_Accel_Z,trunk_Gyro_X,trunk_Gyro_Y,trunk_Gyro_Z
74.58,-0.445010099869799,0.160970903034891,0.944096351360574,0.0134653837010928,1.45001820794281,-0.508584663978946,-1.24787948533974,0.131287053634865,-0.318147138394007,0.69763076396026,1.76482566562154,0.283395982603335,-1.08669352117913,-0.265773719544121,0.311157979847026,-0.400247763075016,-0.0535800127071557,-0.539126941400424,-1.18784150572589,0.0446153000411449,0.210800510584799,-0.35081293524573,-0.395603834341447,-0.668567463151152
74.585,-0.375894646180069,0.154722907392319,0.960245988701951,0.0302474619358705,1.5905337839114,-0.494481889363411,-1.23175491789259,0.0332069823623836,-0.313462775730105,0.679189695419447,1.75769619673459,0.295749626321279,-1.10001798232145,-0.227088634317105,0.293851726656304,-0.205621461028949,-0.00341805518558428,-0.568229290309273,-1.17682274273871,0.0458361946237452,0.202085342444095,-0.399358632532452,-0.389055311644295,-0.644378128262593
74.59,-0.376671712857796,0.164129169440361,0.975868303467488,0.0156825971317403,1.73086739620249,-0.50846226406498,-1.21147754902479,-0.00280153105419937,-0.287187936905932,0.576174032442157,1.86017913564776,0.272388203982418,-1.10995129876232,-0.192409652072124,0.264298430724625,-0.0283815073819541,0.0401143952755304,-0.601846408043747,-1.16925897622134,0.0366291076136212,0.207017974860801,-0.440775559342533,-0.378304719924927,-0.629159973278178
74.595,-0.400460587786711,0.155261696876456,0.967452003548946,-0.0243805261003394,1.86954532505502,-0.514877518903209,-1.20439415411328,0.000706773085091149,-0.262009917720681,0.544938892364904,1.87853345001833,0.259540788951334,-1.10652233980183,-0.150044697366765,0.216595399976152,0.0730692140457304,0.0855413707113312,-0.553894864208573,-1.1400577154113,0.0434909649842724,0.230844245407739,-0.494059972609688,-0.365259130313348,-0.618886379358896
74.6,-0.407040929681091,0.147492409569084,0.969979645477862,-0.103951843936479,2.03646854474054,-0.508280024256148,-1.19982824635849,0.00268776778152799,-0.273588594121609,0.472830359791646,1.90719491148171,0.252407192652679,-1.10046082597881,-0.108924421649121,0.162510124526152,0.187167822566486,0.135359728242,-0.429591842282312,-1.12622471551315,0.0407976410306825,0.25887736199307,-0.571792762917509,-0.319543332579318,-0.564515340563691
74.605,-0.403153147801448,0.128053340510729,0.974881421427554,-0.189423212009709,2.2186110803403,-0.492261160301707,-1.21461922997577,0.00696926947781902,-0.303847286966786,0.357767842265599,1.97155972827919,0.241554497995194,-1.08848538703786,-0.0809707835105701,0.0999200177448123,0.309701754499348,0.182885548430192,-0.30708295946235,-1.11973021159507,0.037227455545727,0.290620668841643,-0.633288207054183,-0.305813724684305,-0.538591460136284
74.61,-0.415050973746208,0.134417981816976,0.977983863730665,-0.247981795543468,2.41205661889275,-0.475763545896671,-1.25074692835758,-0.0114106568653137,-0.310177967526336,0.254680075331739,2.01730452180815,0.205984976029168,-1.10438945585068,-0.0332714807304385,0.0298167088616919,0.391480320419809,0.253381929960688,-0.230702833343981,-1.10230275284541,0.0348883177502917,0.319116563905878,-0.680403725702788,-0.306195812224056,-0.536047279139848
74.615,-0.422702779686522,0.151312376316627,0.969453986516769,-0.289094412860597,2.57322457541906,-0.460193991661072,-1.26504030884949,-0.0213140783188609,-0.315235978202141,0.17837239409904,2.08301618799491,0.198764916314883,-1.12602968805552,0.0117517116248453,-0.0190995388868539,0.488765590567125,0.334948445308935,-0.185656484686139,-1.10611960606167,0.0395129034153579,0.316753879878343,-0.723550660458979,-0.268899890622572,-0.542295488255477
74.62,-0.423810809415247,0.135729772638766,0.971685882823174,-0.342242897711272,2.7302543923977,-0.456193357058925,-1.28039761264386,-0.0146478569478017,-0.341328939633526,0.159372947926452,2.12964148411676,0.184507154455933,-1.14677931447135,0.0630302851082063,-0.0550810950061302,0.525679494756467,0.396665062791915,-0.126023202466639,-1.13029142599736,0.0464018299455082,0.305743660516413,-0.753492501058878,-0.22854795661392,-0.524422485497807
74.625,-0.43906257745088,0.121394715265091,0.946221138908437,-0.388685021239004,2.89378973403587,-0.455804360307614,-1.29103468058895,-0.002779523127565,-0.364947686741883,0.150888783872259,2.16656408495517,0.181860539842373,-1.16489775866913,0.100716840448997,-0.0658206190083095,0.516148297594105,0.432279257872979,-0.0557464339701142,-1.14196825765147,0.0452609877563128,0.285393227555669,-0.770353542510896,-0.184981923824018,-0.492113827585665
74.63,-0.482458060787667,0.150492975581231,0.959968216954189,-0.428290392466691,3.10743476119934,-0.463901407217891,-1.30537833233162,0.00212459024562635,-0.368069104836621,0.18504441493778,2.196329520101,0.174372124238943,-1.18337344236377,0.122948552914588,-0.0656719709370488,0.456541588353343,0.448032622028146,0.00598797416545665,-1.16573686110295,0.0360203011960858,0.272420335095256,-0.775998139263677,-0.182769262346315,-0.445898080693919
74.635,-0.48739314054927,0.145032875920578,0.957899027868199,-0.435210112485356,3.3037515416794,-0.474041056331094,-1.33329617924209,-0.00436365913995398,-0.361696622068629,0.233382692039448,2.23626708815582,0.177165973692949,-1.20070691650816,0.106888766894075,-0.0232648870388543,0.318855654684495,0.46557180861551,0.0730656463469189,-1.1988079360708,0.0321231864407059,0.252595007953268,-0.809249439286397,-0.207261511618473,-0.384628356096667
74.64,-0.497390677639915,0.146234681079868,0.964679063272913,-0.415350248435816,3.51137682196351,-0.501625119107449,-1.36252992463447,0.00705175400617091,-0.337599340874521,0.305490162441684,2.28022851738625,0.174647575980272,-1.22998028060831,0.0813989310679541,0.031461248927125,0.211959593766389,0.497189258568757,0.120543141309254,-1.20764455843902,0.0153264733589876,0.228462081925586,-0.820185743274169,-0.241331642731224,-0.311910074080962
74.645,-0.508400681596552,0.160778240919504,0.958705263268026,-0.387587723222858,3.68765598645667,-0.535110784457785,-1.39334891312656,0.0349802068762064,-0.306564975218912,0.379647113497686,2.31109195019067,0.166020937875705,-1.27471024189889,0.0457915383423949,0.108022942653543,0.0711440138968466,0.560510253467529,0.224380538504797,-1.20968227249248,-0.0272824374414339,0.209686757473407,-0.820686519145966,-0.243062265437426,-0.259341089014884
74.65,-0.529587997903393,0.192117573022615,0.971201360783745,-0.325883642630388,3.82972522615067,-0.56939416139988,-1.42958082875378,0.0695138067926603,-0.24937607997484,0.517578920900263,2.36908529301267,0.162113485864755,-1.3104281645216,0.0125773969559058,0.175522293933792,0.00897191061182152,0.612073117110842,0.300370759256468,-1.20524435891559,-0.0693270215765458,0.190353540044548,-0.82236877911949,-0.208544859808285,-0.249084772177115
74.655,-0.508329960334449,0.253017083107743,0.973788143035925,-0.242537151473105,4.04535585590196,-0.660759115990259,-1.46675849994535,0.092199077046111,-0.182858978444757,0.59013608750315,2.4016087412076,0.160572085465515,-1.32313992329386,-0.0122272171236438,0.241695161636279,-0.0805230335977723,0.713739661341926,0.486914074078892,-1.23250023942307,-0.131282579781969,0.175801647659941,-0.871887475276852,-0.149868899960494,-0.273352947421871
74.66,-0.515008789545751,0.213059564710726,0.962024782320504,-0.13947980189337,4.23239471432807,-0.749887771473949,-1.4905747662359,0.110408146457292,-0.151877948845907,0.627929417169149,2.46947522686369,0.180051817475349,-1.33351146903806,0.00572779608125234,0.266599923615803,-0.0909388193086715,0.793548040982693,0.641421134028489,-1.22896149880533,-0.167697232163875,0.153070724872207,-0.960098516621241,-0.104575763977043,-0.308244240315099
74.665,-0.529295239352483,0.196592745057804,0.957077845969546,0.0433367395219535,4.45772578990064,-0.844242816957406,-1.52240660955096,0.127838318265873,-0.16371611480647,0.66021871690722,2.50478232844025,0.198905667509211,-1.34591435592401,0.0698889580480904,0.234710201533508,-0.0531738273227262,0.888677613074068,0.815671416130584,-1.21256831624896,-0.194204827248232,0.121161400736935,-1.07087713463486,-0.0550301031289187,-0.362370168148088
74.67,-0.546646602827875,0.258443784766432,0.956136724839371,0.314865569291935,4.73589058678973,-0.933637463416104,-1.56849949612538,0.112253301174752,-0.130521937855512,0.733812533352134,2.53304195892119,0.22139236630301,-1.37293705151265,0.13054898129447,0.167819107177055,-0.0716731025346155,0.937832577962388,0.940750071762641,-1.18523767565491,-0.227869424756192,0.0889599560081501,-1.1777339831906,0.0193578470519728,-0.433758772168512
74.675,-0.564701667900239,0.280534728290855,0.977359958661412,0.479429503322571,4.9540283361765,-1.03592693841497,-1.6041078382071,0.0651846740726655,-0.0865442245828692,0.830643766183556,2.54164389350527,0.21113027268334,-1.3840888225507,0.183282769146955,0.0833709692450922,-0.0421298682187416,1.02935042914998,1.11771038011766,-1.18639102805388,-0.21244710222027,0.049746026911841,-1.22973066835053,0.0956151467276137,-0.47184957596057
74.68,-0.582059501375852,0.316796114368915,0.94716116492719,0.667872445801654,5.23145282545616,-1.11515949694763,-1.65440120654226,0.00887233696693037,-0.0207313209105621,0.921832851359722,2.57528894885264,0.20852980017662,-1.37954811569106,0.202751144142069,-0.0160518480820197,0.0210947464911769,1.12069811063482,1.31384381122689,-1.18474654362397,-0.199757351050477,0.00630170903372712,-1.25581992782255,0.193234792650906,-0.477838089868398
74.685,-0.538977674602422,0.42073703198463,0.986037505411122,0.653179098069234,5.54089075087867,-1.15357403725058,-1.68268855648569,-0.0366834287485247,0.0334494491910374,1.02679540034623,2.61526413860163,0.205577421257482,-1.39651420564994,0.211316741360378,0.0136590932992345,0.122387621658705,1.2005557927589,1.51217646669335,-1.20176501554747,-0.186556239608177,-0.0305646668772134,-1.25645127198042,0.248938484962887,-0.463072840962748
74.69,-0.620830404475914,0.416212381703371,0.935637980765024,0.328189217470979,5.9253998791366,-1.26435265339246,-1.70299625563968,-0.0799718027736462,0.107480468096623,1.214505689742,2.66503912887759,0.206743687992549,-1.37462265248815,0.193446654345172,-0.0205603934002859,0.154462475944805,1.30819569682695,1.71803132972976,-1.22000744543111,-0.172801082072747,-0.0670587627406662,-1.19056228567067,0.234330112691688,-0.457727531486226
74.695,-0.517854117474873,0.278661984457569,0.886649968405732,0.301265870840829,6.25280618314158,-1.37007448073744,-1.72290745494942,-0.0906530088544334,0.239066908987614,1.48519771195652,2.60902161452994,0.223308923438227,-1.3199690358101,0.213468466206539,-0.0217866576550831,0.0617026171500139,1.33881549891107,1.83855792082344,-1.16704999561517,-0.163437231499555,-0.076561673108063,-1.07592301241566,0.143261126607644,-0.467953643358514
74.7,-0.549073807603307,0.322531167683479,0.846733402555367,0.363276627158967,6.8097462903416,-1.46640861143838,-1.75981886012261,-0.0417627047179588,0.527072504319866,2.11167984412124,2.33050591178271,0.264049262332452,-1.2737785282202,0.234735715664295,-0.00910912270951876,-0.141343703312555,1.34197334438499,1.94169239307818,-1.14210384778448,-0.156960812409888,-0.0841318996315749,-0.940321609876048,-0.00972992912388031,-0.487087059985965
74.705,-0.559486554931488,0.331069245520408,0.804289568790032,0.394974191060089,7.34793661935744,-1.66649380724532,-1.77060653081878,-0.00883560173067808,0.829439515573369,3.04402849446993,1.71651773637176,0.321056112669413,-1.24216734139054,0.232459264645664,0.00327927838975463,-0.385107087392347,1.2959969265612,2.07877709844592,-1.12669930783347,-0.154244097300759,-0.105654899962585,-0.848693511050678,-0.167135588574866,-0.502910532878229
74.71,-0.597493120037729,0.271440725506566,0.89975198725225,0.741205491913673,8.0745468248166,-1.7502819455241,-1.63866558397465,-0.214133779185787,0.275613096423033,4.10651729829714,1.09962054943342,0.273939866578142,-1.23205149211752,0.223462592505792,0.0333328150218188,-0.614465027161852,1.24403587083019,2.17701807576746,-1.10461786534652,-0.144557508313276,-0.150767015667375,-0.796759411752706,-0.326307649960723,-0.506441087499572
74.715,-0.693095172188117,0.103121676690322,0.881513821464487,1.52601023590934,8.63949630790414,-1.70474992014285,-1.4985403029061,-0.448164111735637,-0.111960876772857,3.75222311171438,1.39478462724805,0.21983582404346,-1.30249897320695,0.168040968272687,0.106032512937587,-0.444007576684075,1.40860670231054,2.45898165408696,-1.00836976577669,-0.151507802259764,-0.170748288658443,-0.763930253667247,-0.409514543247714,-0.49519612670268
74.72,-0.705477103177031,0.0192996632299453,0.773876715910743,2.43817275504378,9.17900394564979,-1.75765822134644,-1.44551832952413,-0.432983226051095,0.136670709439424,3.38705834420519,1.842688616097,0.0546888991908368,-1.30491086469616,0.113096989452253,0.103942919236368,-0.169613171152122,1.55481475808854,2.73968007241261,-0.86835044601203,-0.171093537154905,-0.189664941387894,-0.749081633451862,-0.41801005709378,-0.487685650218934
74.725,-0.608068048194046,0.160387407234872,0.778327589955376,2.59432634151723,9.7545129889876,-2.0580561275984,-1.39030490508284,-0.267889570745732,0.267001942495678,3.54113359657273,1.87883506097487,-0.129275114781997,-1.16216152319207,0.0641744383984467,0.0978852026903967,-0.222301898269265,1.49020071964319,2.8113200279145,-0.820264428849185,-0.176748387923708,-0.195090983027266,-0.791251419521326,-0.331529534673815,-0.455603098071377
74.73,-0.728767372742805,0.332641185164115,1.23329619729614,2.74123999769153,10.3216916776438,-2.2145655549112,-1.21266110323147,-0.175183458872915,0.135802209964961,3.59912080911211,1.97177718297277,-0.254395327852132,-1.12133510926463,4.40743804152582e-05,0.121708183488314,-0.441854763032189,1.34423104448447,2.71971490584069,-0.953151366223022,-0.190361646757949,-0.225215235805713,-0.83389188126993,-0.229910608530805,-0.365675748404113
74.735,-0.900408314983863,0.425114463966079,1.41159941907787,2.94957094993236,10.2518341709774,-2.05053873378211,-1.10189622877587,-0.189793276085709,-0.0378833459385181,3.32515499929198,2.03417474198514,-0.415996449338807,-1.12945975536298,-0.194745432297315,0.148032111846424,-0.608845601629114,1.21228855279129,2.82343772845657,-0.953734835928819,-0.200667522350237,-0.247355187427734,-0.798829829886691,-0.189413624555792,-0.292118537890069
74.74,-1.53117958252541,0.768633158798747,2.4937095276021,2.90477564338645,9.61542121185592,-1.87438765980006,-0.972277942183538,-0.0236058327174146,-0.229899559265445,2.92778679988973,2.10402976448845,-0.541515390394884,-1.15354978505256,-0.309655343435932,0.159415159935943,-0.812967568907036,1.03991392056559,2.88589187824339,-0.958002086709171,-0.211152557511945,-0.250363682188233,-0.729249285497189,-0.137904813012599,-0.259269726218737
74.745,-2.35248020072157,1.58387809724125,3.54233534438994,2.07200257176163,8.03647183964388,-1.82268464072592,-0.840143443132404,0.240745787909431,-0.593682587422305,2.62072655077291,2.18463595913723,-0.564344539315807,-1.04468730376592,-0.434962716415154,0.321813099934456,-0.853447128627628,0.759569971726739,2.72251632082783,-0.98694711206338,-0.207498790290808,-0.256230446036812,-0.611847003109398,-0.192167748211254,-0.231288543840708
74.75,-2.27474213291487,2.08122936763503,5.6189504199687,2.10174991789313,4.93470797828137,-1.36311829645053,-0.776246797375185,0.498125839146801,-0.82359354287432,2.20040948021306,2.23995078901155,-0.502818138092668,-1.09440642088519,-0.485758332888266,0.36789987691104,-0.78897259861334,0.467254325463904,2.38381028835336,-0.973629472164019,-0.197142167310966,-0.26442836949979,-0.508814394207741,-0.293733006277592,-0.198983307372313
74.755,-2.18963978105402,1.47742796482997,5.24308107888098,0.684026205259057,1.59021081347452,-0.849127290843792,-0.85469672828406,0.661183362634432,-0.667065919347602,1.73445592139499,2.14738423710544,-0.601035915664687,-1.14019061496238,-0.558254646540172,0.40686100911407,-0.800203060321234,0.417352008315879,2.39036144190476,-0.989177495438071,-0.203449209022208,-0.270532395213324,-0.38597725441385,-0.396311582299878,-0.17091224260456
74.76,-1.54098206883241,1.29252917846931,3.49488836778042,-0.150603443786224,-0.241600317259144,-0.389268936055147,-1.0740557600568,0.747741986774932,-0.173318495639663,0.885359359998302,1.82898241046725,-0.802725708876692,-1.17801777909275,-0.666675594470469,0.445038735559774,-0.60249282264936,0.334664856073414,2.41190719743604,-1.01409560710379,-0.208697413244,-0.257699055014796,-0.273101621075409,-0.515247208069624,-0.176670847734514
74.765,0.0356862925640828,0.419657525240124,2.16956838445877,-0.943864518639806,-1.09331903808185,-0.306976043521363,-1.33811479857918,0.641809717118315,0.333103860357337,0.13672632623747,1.47116293265698,-0.919886654796816,-1.24342304344795,-0.72286794478509,0.467525863170281,-0.435657034930714,0.253915333854597,2.30215727415396,-1.06037907149417,-0.204629881349522,-0.225038712620996,-0.203496525147247,-0.647739520436946,-0.191336477492267
74.77,0.74078749095201,-0.165121234790964,1.52294588061914,-1.43653657238553,-1.42045891722038,-0.974591550860231,-1.50281405627884,0.369132909431017,0.50611103417582,-0.831629614086292,1.10091832878549,-0.905798071706858,-1.37480635902666,-0.701114727707563,0.487882764055015,-0.159063256122294,0.13750754732741,1.97391714977483,-1.10929839944932,-0.188341638583696,-0.190945554202187,-0.190455148941783,-0.85121283751257,-0.1971949425246
74.775,0.526163516422628,-0.415523466975343,1.35502696117771,-1.01051197982999,-1.35777784962595,-1.38221449862148,-1.43172617583035,0.00238329699757885,0.434952404565272,-1.47673994302216,0.872069198259698,-0.800852484657698,-1.48462842119951,-0.615246491441762,0.507673537110699,0.482408847815867,0.108346753308288,1.6898970457181,-1.14140433573682,-0.180967220646766,-0.187276853530227,-0.242934245155247,-1.11650620579657,-0.204106379433759
74.78,0.216832119746232,-0.32080188878117,1.36170116867453,-0.267875235120687,-1.31192871547136,-1.53151247461413,-1.21620057666437,-0.224076134499588,0.279461227491851,-1.89324980514345,0.691659294852844,-0.762092866175848,-1.54534009112457,-0.503539607124146,0.502582247213325,1.12049169891384,0.124314730092733,1.56798082885039,-1.13061985411239,-0.172082159939504,-0.191018925651124,-0.337712704703225,-1.26047917332911,-0.218112698200771
74.785,0.0155118421338668,0.0789480974622367,1.38167564453761,0.282633138427394,-1.35766890512527,-1.40140691797075,-0.982824354868018,-0.317861695203765,0.149262646965383,-1.87740208649329,0.540338792661548,-0.841487798106944,-1.53412129777795,-0.416909869820428,0.477764104147264,1.76292137862498,0.130685985323421,1.51693149201503,-1.11990370904951,-0.176106382450649,-0.213774134328828,-0.502836083529728,-1.3483719454238,-0.247626528982726
74.79,-0.125748714619808,0.537622629673368,1.4350738580302,0.463937567171825,-1.52728171782021,-1.17800320100454,-0.824129520529475,-0.28907091937443,0.0772950189982266,-1.45622080089396,0.348442688126498,-1.05092213258651,-1.45118780650559,-0.394838626970644,0.448983929194154,2.05431245043465,0.0742959469039416,1.52584289815798,-1.06014038663654,-0.168654529559098,-0.20198696185403,-0.654598511618718,-1.3745922325702,-0.28073675743033
74.795,-0.22021096800337,0.905075970159202,1.45436126646087,0.109031679284241,-1.88897731727823,-0.950745228251532,-0.804516254781139,-0.255402134344138,0.0382003912536459,-1.0531123536673,0.157995821740487,-1.19026355657604,-1.33336367954628,-0.411973555455019,0.394111252591109,2.08630303294004,0.00438714730235106,1.56529792286621,-1.01337568401146,-0.15246891452609,-0.190129581296898,-0.750485394395997,-1.35717975749011,-0.319896155712153
74.8,-0.24164077977971,1.07155943756378,1.40235329385108,-0.325902825466884,-2.19864568272454,-0.728376314180968,-0.777372810441178,-0.219458787286666,0.0122896441189213,-0.669683882053942,-0.0855581194995609,-1.30391655952731,-1.26410800382609,-0.447655138740266,0.326440382566492,2.00430408270348,-0.0253966063644706,1.59399982215,-0.966092013889754,-0.121537518698901,-0.167688369571938,-0.815160510778634,-1.27006793604337,-0.348490753287513
74.805,-0.130886992324134,1.00204275871693,1.25557141541502,-0.768410223052078,-2.48215538923449,-0.429088121277088,-0.782149538981229,-0.222251530181371,0.0546649924353465,-0.401839443529244,-0.246947319376681,-1.34449612782556,-1.21143389682633,-0.490804291192157,0.239872054106492,2.00983749777045,0.0109191797717002,1.62124921588011,-0.931961648860605,-0.0990542593202364,-0.155774849981517,-0.831068925991675,-1.13304523930064,-0.347372722480517
74.81,0.0178234726892694,0.850991622711894,1.08975752334292,-0.99915190967972,-2.631950566543,-0.17533668776828,-0.791416956943987,-0.223980600186669,0.100652832539139,-0.18387303291665,-0.455739260373603,-1.40787238752736,-1.17443606312438,-0.519971953231991,0.182559007530714,2.04099672816719,0.0851451591297628,1.65725408055289,-0.916174115757048,-0.0971301554793613,-0.143460626877944,-0.82990263676713,-0.976044759238155,-0.316997059243763
74.815,0.14433542257533,0.700858255241715,0.970197735372136,-1.07511432209764,-2.68662896617921,0.0697815029977133,-0.796412985802519,-0.137647739427862,0.127314270613256,0.0795999117630498,-0.668063308619417,-1.4630249326749,-1.15153473698589,-0.520920942121493,0.121453995956688,2.09956528194893,0.162117263829351,1.69578089355969,-0.917173554862818,-0.0929159150712454,-0.119137608010388,-0.810155306749163,-0.806198315345321,-0.252829595362741
74.82,0.177248169482423,0.600181444956912,0.882250711258991,-1.23897812329082,-2.69763617683654,0.274978989092926,-0.795961653103189,-0.118175441642915,0.10952962995361,0.296990060289286,-0.927988881985209,-1.54265446649395,-1.11899711324662,-0.478342320045701,0.0913658793876526,2.08891286706556,0.226653586304768,1.67204255595982,-0.942382871453695,-0.105946285988284,-0.0899551240493024,-0.787352417701619,-0.696253530964947,-0.188966708691624
74.825,0.120206356831187,0.474131729008294,0.858142115953707,-1.36607921079404,-2.69882518004827,0.439885822941928,-0.782786590414,-0.129518939895937,0.0872167705746262,0.384505845995154,-1.11714282017595,-1.59578599907042,-1.10766269928913,-0.443409838229004,0.0901061832812376,2.10222619757295,0.267670544258889,1.66350540249058,-0.96650777101609,-0.125145407218053,-0.0581980640024827,-0.766691997192507,-0.655846068712598,-0.141985758292009
74.83,0.05839281675319,0.386012753411567,0.870606296342997,-1.37993845410013,-2.7049286654245,0.597507530486929,-0.748574791592745,-0.126070280403656,0.033804143545076,0.393674936080653,-1.35213716522509,-1.65558645188516,-1.09759576388867,-0.39610088458856,0.11727498017662,2.03414362408229,0.239651456391261,1.67949567135579,-0.994029654413212,-0.147822168980798,-0.0243477157646369,-0.747464374501592,-0.690516274921149,-0.0801648964978748
74.835,0.0177763345854821,0.376659701406115,0.903499629122615,-1.3372401954574,-2.74197181328133,0.742419903242683,-0.721084216775177,-0.115908885345528,-0.00434007890111452,0.346184349531258,-1.531680445521,-1.67637661577665,-1.08391371333185,-0.37065848682145,0.150453062941097,2.0166476831014,0.199391436156109,1.68903569948462,-0.987159199952304,-0.168660433892842,-0.0041672846525122,-0.766317429577783,-0.722446596269276,-0.0398563191773295
74.84,-0.038780554010185,0.406778908047062,0.901422008734058,-1.33816395211496,-2.80271058041662,0.866244850577137,-0.6914728399898,-0.0716944292974245,-0.0305396122876198,0.225234012695194,-1.73041938893398,-1.70859994665769,-1.05692210977179,-0.36025565009669,0.186969688508611,2.05995165987683,0.139682465197848,1.72665493274817,-0.984016645737636,-0.185935804462235,0.00661487030014335,-0.803163644489363,-0.720831991359075,0.0130669714036383
74.845,-0.0809122188203371,0.45449645791622,0.906906848674867,-1.43579909766172,-2.88358119911577,0.950737243664135,-0.671973446773483,0.00524621086449304,-0.0438610063610523,0.068636129127654,-1.8790988309148,-1.72975313033504,-1.03922375373434,-0.358872849592448,0.209332216337134,2.11339379043436,0.0970880797866089,1.75915170987908,-0.97808173209314,-0.195801143911235,0.0144179078907591,-0.842208319417305,-0.696377591617877,0.0461390238102757
74.85,-0.121777827934091,0.502599523540024,0.899696570472518,-1.69190624973916,-3.01896783237738,1.01994981991769,-0.651520609965614,0.0359415427009726,-0.0353041431635027,-0.15763399521284,-2.09220571490552,-1.75116894116844,-1.01195595305364,-0.365435796699548,0.219811781002756,2.14570429769205,0.0713272160007005,1.74852406334311,-0.963512196921458,-0.202978061059337,0.0245700698634842,-0.875283811420171,-0.606647706409859,0.076937078970707
74.855,-0.153369953197163,0.489373449938026,0.902671768144301,-1.88696583496616,-3.15377749493685,1.06408628473029,-0.618053607096337,0.0469516741966087,-0.044173745283557,-0.420629145345813,-2.25223987867501,-1.78466792907262,-0.980588340509789,-0.38027800089083,0.20342952273845,2.10058419756874,0.0614340379834175,1.70534230637576,-0.956790781828993,-0.202975295309504,0.0414557668454783,-0.887343670932295,-0.522765855168051,0.0954651318465062
74.86,-0.188203104712153,0.474480419802205,0.928215901449222,-2.01262286534821,-3.30102065988341,1.12209415712478,-0.611753629206741,0.0628193594566921,-0.0135774257150238,-0.654493244308336,-2.42706130580893,-1.81766525079322,-0.956735903272933,-0.396593484874544,0.19331843128965,2.01890425696728,0.0665413511858322,1.63776078860526,-0.950593472780211,-0.202012905353747,0.0546435282734146,-0.906620608842211,-0.454915000093494,0.120949129754945
74.865,-0.23932472102123,0.492392046510327,0.953564317206598,-1.96873076038648,-3.44039883796199,1.1825552677979,-0.62209755029349,0.0438020201881685,-0.0547242068408236,-0.844750635814026,-2.58538769252498,-1.8533821306034,-0.936918069863978,-0.41430250983008,0.184596189879849,1.93157583201116,0.0806956079194254,1.55144587475582,-0.935732030729336,-0.199400264364625,0.0639986737035432,-0.916652700975051,-0.413765684361477,0.151930400765125
74.87,-0.27379986738438,0.54934090629351,0.956659284497595,-1.89400890428156,-3.57665925948555,1.27301689723326,-0.657927643120646,0.0276163204533077,-0.101317816001819,-1.02785822289308,-2.70122741044234,-1.8985779870723,-0.918874664339318,-0.434964184676734,0.171985708532976,1.90130185774014,0.0908897136332756,1.49260537981658,-0.919575546860733,-0.201324622890317,0.065964482225837,-0.939104545075493,-0.380338044718521,0.1848547352215
74.875,-0.287669570848807,0.66024777113274,0.943827596810996,-1.84601496391861,-3.71414243639922,1.37490407169045,-0.723501434650135,0.0390290091586957,-0.0931298419773268,-1.12675365557508,-2.87121169078767,-1.96030265961262,-0.894474590234333,-0.444378619285481,0.165609033494181,1.85126209718751,0.0974185681368814,1.40403043694969,-0.901162714270445,-0.206681488213631,0.0627087248163022,-0.97391636243649,-0.352590511701073,0.211707487287934
74.88,-0.313778242151272,0.787278931629867,0.930895558984713,-1.81630983009736,-3.86679530187714,1.49580426197591,-0.781890185396795,0.0829506559731301,-0.115768180766462,-1.15802402934723,-3.05066549108458,-2.01690961909128,-0.885522149483207,-0.453381433294722,0.170690169810197,1.80614287406194,0.0905282196803615,1.33293511619923,-0.887358072800968,-0.217409924408889,0.0602165795657575,-1.03798935904288,-0.298475814421431,0.248648203369948
74.885,-0.357569045859974,0.892089771716079,0.891134683025251,-1.85308523048094,-4.00866690503483,1.64766367122829,-0.826344562601897,0.102446755115433,-0.138276115800699,-1.19809686211486,-3.17456764883885,-2.04013566100882,-0.863203303827234,-0.462843735448396,0.177298656905729,1.75946103742162,0.0723740452419307,1.26702855487456,-0.876780158102802,-0.222150449567349,0.0706713612695761,-1.0960792206143,-0.245555667596016,0.273386518139804
74.89,-0.395438749858089,0.949092737556068,0.853782371862747,-1.88867054719192,-4.09691270191994,1.80156324956899,-0.90136131214178,0.118747612514312,-0.149374914744055,-1.28937851218004,-3.35963999534674,-2.06839786226187,-0.860507655961104,-0.466904118720804,0.187614712420797,1.74374815037574,0.0662974220410138,1.22354317970504,-0.865860609485098,-0.237369152571968,0.0778448683793238,-1.17813533348013,-0.15474185601804,0.30292232367745
74.895,-0.434457253843651,0.993566783302083,0.804746278695932,-1.92216131212199,-4.13685255864302,1.98651551810036,-0.943866093410775,0.128998044551598,-0.164752131199956,-1.38378414762629,-3.52830340552071,-2.10152761389554,-0.848887925295615,-0.482104712395433,0.193984760910654,1.74346377926726,0.0860675303437902,1.17413864228346,-0.863273020215509,-0.243087897164055,0.0960963129405968,-1.23593739297161,-0.0934166534267713,0.31671106629118
74.9,-0.475842514006997,1.03456694888279,0.741826895883345,-1.94768678216737,-4.16265356259552,2.17473271695084,-0.968815231843162,0.15021420877719,-0.173791877836659,-1.46484562754394,-3.64385916629618,-2.11281575719598,-0.839297126209835,-0.494337970289388,0.200124065541334,1.7486982896069,0.109146601695293,1.12245372185007,-0.86443176396257,-0.24733109079076,0.113324601848197,-1.2883799507173,-0.0286032640086548,0.315465848250419
74.905,-0.538304365787397,1.08797652619997,0.653429961499357,-2.0176984815917,-4.14747958578014,2.40163735700437,-0.976049069224864,0.179366640351829,-0.191844645297529,-1.54523537302415,-3.74092566662816,-2.11488510146748,-0.835509107475911,-0.512622729747076,0.202695109991134,1.77864815636401,0.143067903348701,1.0515109655164,-0.874851145001589,-0.2477793702035,0.127763579464555,-1.32280668783336,0.046375575423467,0.305475567370977
74.91,-0.590486223788678,1.12177497590467,0.584009137900573,-2.10983174052931,-4.09383199563872,2.62752027713896,-0.990942785923862,0.203856917369445,-0.221040689066892,-1.6613131081118,-3.85447819233192,-2.12272714824131,-0.827714763278243,-0.53747499559275,0.20800074325364,1.88531083950177,0.197672520745337,0.928437240390684,-0.880728137159064,-0.256115983716498,0.120301492888948,-1.35846174457961,0.117026504198524,0.293003368972995
74.915,-0.675248830464003,1.16613526520718,0.508350827224723,-2.18927759330027,-3.99770328784332,2.88583285180174,-1.00451332113237,0.230704227813166,-0.259675230804812,-1.85220894005477,-3.9599636436669,-2.11261878697049,-0.810102422894409,-0.562588403141996,0.210117344545136,2.04643623567388,0.256336498184293,0.817981273978625,-0.892409676214303,-0.253107764865592,0.116136575958218,-1.39512729016127,0.189966367322492,0.267745857046972
74.92,-0.740023703866968,1.2371881751295,0.447957983221756,-2.29153950572492,-3.90473237936617,3.08543427219423,-1.01355624385291,0.277658418362515,-0.298601857028993,-2.0370603985389,-4.03576045292702,-2.10508981245782,-0.789328508470684,-0.593035275278921,0.201347790077309,2.28233486302244,0.318194266483196,0.687457225892345,-0.911731059367043,-0.244878888251984,0.105954084030038,-1.4341086112132,0.259877671664369,0.243389266067903
74.925,-0.802901490665236,1.36136310986464,0.35199595108283,-2.45741093079562,-3.79415611457393,3.29238154419852,-1.03449409775342,0.327493615032767,-0.356986837955453,-2.32555912750493,-4.11562525392414,-2.09244502559101,-0.767007747409303,-0.624207841477709,0.186305255523998,2.50549104261995,0.371876602394609,0.557695076059665,-0.926714445764764,-0.239959354711193,0.106132079253023,-1.46481969114953,0.285098068920493,0.218860230099219
74.93,-0.848193801914103,1.47101355924007,0.258799937575002,-2.70485043919991,-3.65343184611376,3.50630435614123,-1.06692261430508,0.372210987728873,-0.379991870447566,-2.67086467255624,-4.17688343938293,-2.07978043380662,-0.736487099171349,-0.654425310649238,0.171895195744452,2.71906113329095,0.411450950994154,0.460129354066013,-0.939121385624764,-0.226470814267332,0.10399858399944,-1.48979281786,0.301437039453352,0.192837831182865
74.935,-0.910811607889937,1.58434601405556,0.195932968168743,-3.050193253066,-3.39992256385204,3.82118910521379,-1.11470261267717,0.428934407088559,-0.417409444161309,-3.02358821703413,-4.25850227842475,-2.08391735010103,-0.700977326976671,-0.682486419468561,0.16059609193416,3.0321722963996,0.465016797287026,0.363578101736212,-0.942337733574739,-0.216071438939839,0.104833823838248,-1.49232338747109,0.295048546219168,0.176206222883003
74.94,-0.993773762006114,1.64058217617672,0.210957539362127,-3.28197886970855,-3.16413144000106,4.12734149273893,-1.14423652344104,0.489668523186143,-0.464414506926293,-3.48527397829791,-4.34855402236909,-2.10544895169468,-0.673760739435011,-0.702198815223733,0.141018392512876,3.2592971342211,0.485948748404561,0.299466686479532,-0.95115303449441,-0.207462817819876,0.100854348568474,-1.49095837340195,0.25981264246492,0.151923898679701
74.945,-1.12848341751729,1.67004982639201,0.234046055587949,-3.49496255297819,-2.89863629288948,4.54855787164396,-1.1560343777084,0.530528895543244,-0.491118930402182,-4.04897062223748,-4.40940053072188,-2.13434423976535,-0.653241170910569,-0.715001305544844,0.133609575487959,3.44962251625439,0.504870206375916,0.248164032202734,-0.947552427583611,-0.205609121983036,0.091226632992651,-1.50896171312732,0.217463438873093,0.14175050579828
74.95,-1.23009666274647,1.68931348911644,0.257194952225359,-3.67332916597822,-2.64839444773221,4.96242824636057,-1.16124712294659,0.561979145570991,-0.498234998216159,-4.42972958010961,-4.44283617866335,-2.15021338268248,-0.632683784137662,-0.736417582614635,0.110548471814253,3.65275141293093,0.528356104072487,0.183233609420413,-0.944208424428008,-0.198219527289147,0.0973920704068325,-1.53741228994574,0.160193058035441,0.137975259786632
74.955,-1.33594088091954,1.70972032350651,0.299156229765785,-3.76134252738213,-2.44763050160832,5.3569885443904,-1.16659025803585,0.621777325394464,-0.554303758771414,-4.89907496107721,-4.45586931367788,-2.17852397039169,-0.614028756695471,-0.73881951074697,0.080461074684125,3.72775327807453,0.529372533816755,0.127758050423533,-0.9340688231371,-0.193761183690213,0.097573539497653,-1.55930305254609,0.103238590430436,0.1201048362586
74.96,-1.43680246394533,1.6708497566186,0.359637249747125,-3.86392793405339,-2.28828232729935,5.78350079441492,-1.15308926635704,0.684047622904172,-0.591003072582609,-5.26143403404045,-4.45622928983204,-2.20747561123411,-0.595319872564634,-0.722252223423367,0.0448326200557447,3.75980864609332,0.519243132848057,0.0753703236851525,-0.923835503129064,-0.191554719145336,0.107478859900651,-1.56055720303849,0.0384411741202713,0.103840183513967
74.965,-1.53338420515154,1.59194636571989,0.345383105240209,-3.99619033920011,-2.20786616944841,6.08559241367577,-1.15305880216494,0.739284329946561,-0.616796878474865,-5.67991898015377,-4.42577623141946,-2.23841392990276,-0.573400655788564,-0.701090292114669,0.0130000412508661,3.77137133191453,0.507162442953715,0.021280880830153,-0.909157557719661,-0.184632440985775,0.10949774447438,-1.60344946848658,-0.0100775737287102,0.119803375904092
74.97,-1.55749250414543,1.48642209534686,0.281888867456586,-4.17574346731378,-2.133499789308,6.32491464801554,-1.1425914196761,0.723339637832754,-0.589122145708802,-6.03044768769222,-4.40349782244321,-2.25089808642906,-0.554998416586101,-0.673270444603025,-0.00581927541525251,3.74361746528333,0.493813696885343,-0.0295946435531231,-0.90415509391087,-0.178398661351634,0.107478044278389,-1.60751275261336,-0.0292334684783161,0.120680325917553
74.975,-1.53760346233381,1.35725281699323,0.219657544309014,-4.34197420413382,-2.05552584047686,6.48356483925986,-0.994177286228938,0.553383961757449,-0.493251842838815,-6.39997457315241,-4.38755097025537,-2.2850652311628,-0.546108180850584,-0.630971287444857,-0.0133259502096988,3.67010085700671,0.468426960177082,-0.110272743904991,-0.905129094442949,-0.179704848798138,0.0990929201799786,-1.61199685986447,-0.0282662919644102,0.140813790237058
74.98,-1.52817904964548,1.25517511003531,0.158481090607873,-4.47786636369295,-1.95083522686372,6.52409960839077,-1.17036486392295,0.826512432209067,-0.653412807875648,-6.65787003695367,-4.36700849969383,-2.34267680604461,-0.544311552630178,-0.596918534803925,-0.0232923760878294,3.62124154216433,0.445931627127342,-0.177525276002857,-0.901821597574904,-0.188401979270173,0.0826734191214797,-1.6562662855111,-0.0122675994338128,0.181736193499985
74.985,-1.55853655371856,1.17026837875734,0.117458861071521,-4.55676126167035,-1.827415999198,6.45675385909488,-1.25588916147239,0.821510731646193,-0.66863697897973,-6.877655740135,-4.29377169348856,-2.32787490877862,-0.555718278186754,-0.557395375453771,-0.0278572116641236,3.57574960953762,0.414876250073419,-0.225736923038706,-0.907460930936082,-0.194394018952582,0.0633226535461489,-1.70211240354509,0.0220922061249835,0.212255982630172
74.99,-1.62545347783245,1.15895854452835,0.106132228344924,-4.59630741063585,-1.69089931854585,6.38960901377686,-1.25500894885666,0.98369464293135,-0.86567343834336,-7.09547546638884,-4.27633359831891,-2.49756699483648,-0.580801748825473,-0.500937760303176,-0.0196654782565929,3.54030007535459,0.40385146145162,-0.280257769830729,-0.912075295499846,-0.201223419106822,0.0574184485598359,-1.72417559656371,0.0461034792478246,0.236895092234054
74.995,-1.67829111518863,1.16083062534331,0.106164981639325,-4.63727887006795,-1.55973610381055,6.3316269051402,-1.32263919337323,0.865593575618071,-0.78181270396052,-7.44386215206111,-4.2090458984486,-2.38063083265842,-0.596429580356998,-0.470508575758712,-0.00383521946893099,3.56116518535016,0.394582574813548,-0.351499089284224,-0.909551384162583,-0.199705474480693,0.0357771674165091,-1.76807517597974,0.0799285634612954,0.263504762052543
75,-1.72154285696793,1.10913147198493,0.0812056688980384,-4.79395682863715,-1.40127527564646,6.28599574415745,-1.35764630014892,0.811793357423695,-0.858357771774889,-7.61234745797253,-4.11801485678116,-2.32974121488719,-0.624918631763142,-0.464480299548658,0.0251650031193104,3.61473858207697,0.399780506881276,-0.409627016918522,-0.912096232474261,-0.20236478901141,0.0122206499009325,-1.79983973277232,0.118910425959313,0.274984412292443
75.005,-1.77041061091084,0.951514602148938,0.0666826844956332,-4.71372187982185,-1.29892586707626,6.21165562250353,-1.34971881130161,0.697361498024172,-0.892898900033697,-7.87345595774043,-4.03892962919172,-2.31292761312677,-0.658745101595612,-0.474808654252551,0.0574402373128806,3.67955802416551,0.411428429627031,-0.450746703664361,-0.910615855505344,-0.206474313052162,-0.00894462304060809,-1.85348364620301,0.177382044891346,0.286947872851211
75.01,-1.79231819008741,0.737798932961901,0.0516507199158203,-4.61416656644944,-1.12853783955728,6.18225115300473,-1.27718000889089,0.591883019397308,-0.937513122096868,-7.96523488307025,-3.92473903067695,-2.37792601984566,-0.694002558369265,-0.490545162267642,0.0940241727889802,3.79162494147273,0.43267912199784,-0.462073771103391,-0.911639937425024,-0.211138201019884,-0.0222862561944314,-1.91437484570826,0.21527689774093,0.310675947433068
75.015,-1.84851425708671,0.533080748084685,0.096838772927823,-4.42340663807013,-0.891201790020738,6.09845199130283,-1.19156036389356,0.532898570402976,-0.927182258232699,-7.73814935981437,-3.78483270751664,-2.48042528831669,-0.770308352652621,-0.468124266898091,0.14229530504033,3.99921964959048,0.49004673191476,-0.43973425553287,-0.899678298648031,-0.213814144669492,-0.017719692773523,-1.95561124966152,0.247166023781287,0.329210770618516
75.02,-1.91113285261519,0.509984390852882,0.0990633613776646,-4.31922996508425,-0.757371454470523,5.92743589737252,-1.14692002257273,0.488320449887704,-0.948659934454079,-7.3269143509262,-3.61175171853212,-2.56152695916406,-0.836639198267116,-0.407414617276636,0.180121519077608,4.16514619237932,0.531370535204667,-0.366146864602698,-0.899389009706737,-0.208250697680634,-0.0152304330623113,-1.96400855651085,0.272774637279166,0.352254593813863
75.025,-1.99487681510394,0.487561844708936,0.0875578036570972,-4.38273919347959,-0.629787416618686,5.5947614962755,-1.16436824370051,0.441798259018455,-0.967341338074753,-6.89377329942597,-3.45083547017076,-2.5773112676333,-0.888778465044537,-0.329858198675547,0.216627395839471,4.40229216369196,0.562824530621053,-0.236346094026731,-0.907079449626392,-0.207964951510206,-0.0124013806387276,-1.95314055138359,0.289513235011224,0.370495024106235
75.03,-1.9773171246534,0.422515272494378,0.0686371768303384,-4.49004532719997,-0.548887898436586,5.27759955646965,-1.2304066189643,0.42110482841199,-0.958752636876022,-6.29225749461214,-3.26555835371489,-2.58490996331346,-0.953554168879945,-0.268765804029351,0.246185269822962,4.62414539636292,0.550566769079008,-0.131935113235674,-0.921882462281328,-0.213716602606909,-0.00416751464232242,-1.9190962547422,0.305621129058506,0.381959942435524
75.035,-1.91211434034773,0.351724552473969,0.00406491198593067,-4.54988267079649,-0.497861817056043,4.95295449408891,-1.25513330778895,0.467764961010228,-0.939096459612937,-5.72874641761845,-3.11394206995564,-2.59080628493869,-0.999714372518178,-0.233957784842701,0.208168655521319,4.83661148898778,0.609593127469629,-0.106163800226401,-0.925585149811184,-0.22308462900689,0.00369712217060366,-1.90771192483875,0.298594709874225,0.39534395277658
75.04,-1.81795634947258,0.289418890044108,-0.109793142930493,-4.52850360078178,-0.406360036982643,4.51736813040814,-1.26509737517216,0.514819746035755,-0.902165064029827,-5.00041922035169,-2.93063162207344,-2.56268801121474,-0.998184329607538,-0.226306710331984,0.121551034140958,5.1462713405954,0.712973668142186,-0.145747708071635,-0.927952747910529,-0.234194135165525,0.0140419265751254,-1.9168523605216,0.275301532362721,0.410735133245095
75.045,-1.72665962168882,0.321033039520867,-0.180655273259918,-4.44206664266261,-0.268569743024561,4.0886504837516,-1.25056133515398,0.576980338728529,-0.861747011394529,-4.47368126651834,-2.78084144327308,-2.49183040289873,-0.964606129787689,-0.226231075584125,-0.00146047866896014,5.40766126511661,0.788767561205819,-0.218333970860816,-0.925943139142346,-0.252691166809349,0.0289421078433943,-1.95220586704573,0.227065086773818,0.430705111852504
75.05,-1.65193578705696,0.411154011729124,-0.230437503579223,-4.34794917963868,-0.1361082239768,3.67169080840426,-1.21723476243034,0.729296039767196,-0.78807698541779,-4.0333424891189,-2.65688188572352,-2.40650752923908,-0.921622529905016,-0.224541660752551,-0.153881745796978,5.64788578534975,0.92316428225505,-0.298173646661154,-0.924845671958671,-0.282103564608603,0.0475241387558574,-1.99491750772191,0.171448208226995,0.448498959030726
75.055,-1.68195791127158,0.528233792138188,-0.162646643074139,-4.18342525272434,0.0435982204155593,3.24627207174153,-1.22240960369504,0.866555290313216,-0.720925305642427,-3.55990125574218,-2.6006725483538,-2.29210523847967,-0.899212348480265,-0.208426248438436,-0.264161679533708,5.73712694179595,1.01614021374683,-0.377571317914602,-0.918835571749296,-0.29425504189657,0.0584771216744784,-2.04332891557305,0.121980802387663,0.454868138553086
75.06,-1.90176172136079,0.647163102440086,0.114194131337484,-3.67220343787134,0.230330610501776,2.90766382847576,-1.14323977863807,1.02228272197198,-0.803347420849597,-3.10816293847884,-2.61410216859643,-2.23277786788591,-0.865115970196619,-0.17786758273222,-0.367328047605557,5.7278899299548,1.12837794980641,-0.451613974324242,-0.923759137894077,-0.312319824289767,0.0595411683558234,-2.10916900177642,0.0612315174633838,0.468613146878488
75.065,-2.2399676161855,0.760270374349858,0.426597802758521,-2.84233182921289,0.410820130426204,2.8355873902026,-1.08119828594827,1.08769444291726,-1.00185721092966,-2.76361837554118,-2.43165878818552,-1.97421354925725,-0.843652414088551,-0.12449907553451,-0.459264228189214,5.56195117548266,1.18588820168537,-0.507437965397805,-0.916038704852002,-0.319911436715226,0.0496592678485556,-2.17186543584224,0.00441950001675919,0.474768643529808
75.07,-2.49928721396269,1.03192951782671,0.531111311344663,-1.71162156063669,-0.252878106981691,2.931427536893,-0.95026001297486,1.03443565707744,-1.09874911633169,-2.73702785116781,-2.24558938274795,-1.78292316798425,-0.870336450283685,-0.0537739466707889,-0.515134074570564,5.25771507511625,1.21764042548455,-0.569608910919439,-0.912237264074988,-0.319509588851303,0.041588608482854,-2.23582271586666,-0.052671275029364,0.479043733971018
75.075,-2.44551452807903,1.33886431641439,0.334541786681136,-1.26259957387134,-0.71194896546609,2.95230127120297,-0.997273037103632,1.05205642906404,-1.05037704911454,-2.85843732309234,-2.05893156351452,-1.5112767700977,-0.938526333367925,0.0270543916655717,-0.560455231232525,4.87853987411193,1.22269124475527,-0.611654463667934,-0.917878169901237,-0.313105607149872,0.0537320933692715,-2.28279509003583,-0.080653728792953,0.481135129928589
75.08,-2.18394035518513,1.51154947922685,0.0418077776856409,-1.31717293371884,-1.05323695004812,2.95198260216572,-0.994102973815144,1.197307346348,-1.03340509489079,-2.90027449156292,-1.94660594398726,-1.34871097471287,-1.02354962506695,0.148168094968886,-0.596475399919652,4.39852268872294,1.23342689678113,-0.592255423444005,-0.928640422510761,-0.287277209001185,0.0710250439978177,-2.27641938283035,-0.0905979801970135,0.467778155153509
75.085,-1.79330251872595,1.30360819137379,-0.320026403392406,-1.84756694981586,-1.21117572103238,2.94246933985893,-1.09635930474155,1.08790581700777,-0.880696175883624,-2.98746977681949,-1.78921357080692,-1.10477438785949,-1.09984409958092,0.272367909558316,-0.610801523677674,4.05436466033218,1.25649991586509,-0.51226766581589,-0.946386875165447,-0.264349289675062,0.0670165594989022,-2.2437508345904,-0.110425413110233,0.454075510192653
75.09,-1.54786156289416,0.944859549752034,-0.531538904892075,-2.25164576981475,-1.07955027260758,2.90115694177906,-1.09320953763294,0.957080374367448,-0.781396670352793,-3.11518052316377,-1.66641373208228,-0.925831789848985,-1.17002732142573,0.36798344084602,-0.591651470723681,3.81242875411692,1.27847991587647,-0.366713875805622,-0.974890821829482,-0.244101957268119,0.0624620048617798,-2.20330306662287,-0.123995063045238,0.448149353265762
75.095,-1.32947199836505,0.703222104768885,-0.713144417584186,-2.05212418055991,-0.74538868017775,2.80675422864868,-1.02935007333927,0.889818577570573,-0.728063468304944,-3.19935857030685,-1.5503764555277,-0.754175360904143,-1.20636380058066,0.443845818885811,-0.557151507222439,3.66340652450514,1.28664836333702,-0.21011576022119,-0.994530848017641,-0.248082053682007,0.0477425530735021,-2.21376145203111,-0.0988010642057662,0.45433032569672
75.1,-1.24306049329991,0.643944577628507,-0.895736130807286,-1.87533603258315,-0.34353814121237,2.71973320273816,-0.932669911495205,0.817632275168898,-0.685319527889323,-3.20388850122818,-1.42667544567905,-0.581852441779398,-1.19426935505001,0.468564445007047,-0.497161456909575,3.60832522303745,1.25997441908686,-0.162630606381203,-1.04509975897529,-0.258875262413154,0.0332840068394419,-2.22509588492456,-0.0643394760616808,0.474972054022552
75.105,-1.16760136810767,0.56372409346146,-1.00242500737814,-1.47349355663034,0.0754627645023842,2.64846436125603,-0.886276072551053,0.754598597022405,-0.646370825906305,-3.18674981787365,-1.33134350933283,-0.498834081790298,-1.10387466585203,0.436300874055175,-0.428656957912811,3.52937918686102,1.15904158615499,-0.275944934988987,-1.01679707121758,-0.277494191628549,0.0115881726023045,-2.22685670852661,-0.0577006131324686,0.483318428041827
75.11,-1.1080169072759,0.519093918332803,-1.19451306277791,-1.09672915938794,0.585104737114802,2.60069907903797,-0.844525544635323,0.637107037966921,-0.613917095847733,-3.08884785337039,-1.18141509288255,-0.415688469870247,-0.984230891048156,0.375230852429917,-0.403143445043399,3.41436225846384,1.04098137736831,-0.423359278019575,-0.996023664477293,-0.292812674768106,0.00852533274311059,-2.21642567604194,-0.0582365625313001,0.481150917473964
75.115,-1.07195376604796,0.477828059966327,-1.32388142157756,-0.761597043067179,1.36864432390662,2.56138552004583,-0.828359003608676,0.572066113072811,-0.62997660641269,-2.98081927089182,-1.04331831370878,-0.359079059965513,-0.85647033456168,0.286329335710209,-0.377742696418828,3.25889143760558,0.892424698981451,-0.598616169024247,-0.979649001219092,-0.296873585490953,0.0156984730456778,-2.1947550206166,-0.0457917256802181,0.473804950714111
75.12,-1.11845248327857,0.591533235323076,-1.26410824426395,-0.405596024753958,2.22172295539671,2.58638759884649,-0.827487774891763,0.503822517240186,-0.64327321564563,-2.81986067181627,-0.88289206379071,-0.29544342835291,-0.775924529869861,0.185625815712354,-0.339034675646784,3.10326960650028,0.719978786041293,-0.768870589038054,-0.964836062413915,-0.290283053148032,0.0244910111199671,-2.19253130912094,-0.0157488785883759,0.477680494577043
75.125,-1.28265476523416,0.794684182051058,-1.02460868005992,-0.0776817409528387,2.93682601332954,2.75618897786972,-0.820986411242186,0.469054083701504,-0.689086168815419,-2.64866008944497,-0.77062484724044,-0.251383187506268,-0.766507737619898,0.0909934735404644,-0.284137691070199,2.98068822000719,0.573923814828773,-0.904797242531364,-0.95849053607459,-0.297609127058211,0.0351724328153011,-2.18951607081704,0.0239747651849321,0.48535728751007
75.13,-1.55232006606879,1.03649892227027,-0.756631572289989,0.137705128593855,3.34557252643604,3.00992314007732,-0.784380432033834,0.432135949868653,-0.752162776832391,-2.37362420415642,-0.548825525952767,-0.192865785286893,-0.823660380157857,-0.0144557179588898,-0.215942128369952,2.73697503810039,0.388548978933722,-1.04745339189267,-0.94839132330894,-0.298672380700172,0.0515008598470085,-2.18986016611584,0.0642945118254843,0.502426459355187
75.135,-1.75139378165099,1.18651853707691,-0.615580562798029,0.229017178514784,3.58914572448065,3.30249873434975,-0.749301027962454,0.434133195241976,-0.738162710146639,-2.15128598714943,-0.374079759562226,-0.125045448366715,-0.889236318802325,-0.0713513802956321,-0.175566076087767,2.42844094067139,0.220793760577985,-1.09538678519789,-0.947485555214071,-0.300294867410038,0.0590474807270555,-2.16713250106573,0.0756222223571382,0.508419015141048
75.14,-1.80853072687591,1.20901678995153,-0.362863740803842,-0.0536404427180422,3.72787846074237,3.58731258948598,-0.725976402915271,0.505297376127559,-0.677074537410771,-1.99496377142269,-0.223471236036199,-0.0337226692628353,-0.931543271918263,-0.117615943016925,-0.1459683748784,2.03781738989987,0.0208901386579374,-1.02356970648078,-0.960434085495809,-0.311550887092803,0.0572328494668867,-2.13452797324274,0.0778292158741841,0.513678999855075
75.145,-1.65101045015895,1.05809819538844,-0.127009378337324,-0.596792658673336,3.67074129691123,3.71956342068898,-0.72314628660013,0.645778953271534,-0.629113008895843,-1.8891476533739,-0.1244063034499,0.0710705118114336,-0.938883058255657,-0.154482107888764,-0.113994451186024,1.74233978143967,-0.148780973517727,-0.847594926988553,-0.973753972282232,-0.31653540324978,0.0518377111510083,-2.09070837344349,0.0741057554755749,0.510839300128033
75.15,-1.39176768711653,0.671890107242949,0.178541730397852,-1.50553319194389,3.50198230393069,3.60037457221931,-0.743472672553899,0.76694835749963,-0.547372437679343,-1.72268475879374,-0.0611986465098414,0.179290109590355,-0.902847129541988,-0.190018772218531,-0.0841872992560709,1.56324291075317,-0.254167728113813,-0.62658878542778,-0.979680604636633,-0.315417318970159,0.0386501294783936,-2.02539978305939,0.059914200369556,0.479710917560788
75.155,-1.65390377298869,0.398983088217351,1.01585767571855,-2.68401003490189,3.12115960715433,3.13391935036623,-0.789045561323643,0.790307282596569,-0.539843507164822,-1.72787780637905,0.0030222708023905,0.283657825880282,-0.832128399820739,-0.225495759932695,-0.029994615958101,1.34680711828156,-0.336985138090867,-0.403316779160038,-0.990531279407042,-0.304681129054934,0.0702007314912357,-1.95933806178439,0.0105386644800024,0.4552820450811
75.16,-1.93705437159379,-0.197225810514479,1.6892128840727,-4.00103362181992,2.13821359094066,2.65067757055016,-0.790320587940288,0.837611878470678,-0.789067612532458,-1.97784661696222,0.150820767639533,0.343041088571912,-0.764006161564519,-0.241920867678859,0.03255385871937,1.12487558836138,-0.394948676881017,-0.294960750916645,-0.996907373375686,-0.297555248599276,0.121439043457437,-1.90166535840135,-0.14917497023984,0.460810098375395
75.165,-2.42222594942915,-1.03181902559443,2.5481488641277,-3.74057660451354,0.767219764310798,2.2948502826891,-0.761604035194584,0.785096510789371,-1.15310990023606,-2.34158919184623,0.378446336464067,0.395766340268645,-0.732765334050309,-0.225227542741726,0.118528109507368,0.86778198921993,-0.474103171091762,-0.256733644035573,-0.945486537949433,-0.292982046985136,0.130359621919105,-1.83729806869114,-0.344042562634957,0.429247917205704
75.17,-2.53620237930243,-1.08228130127918,1.79889119897512,-3.88996497996965,-2.32714314674194,1.98495264108277,-0.724512396226265,0.667446496691905,-1.35915423854253,-3.00969290056034,0.659205809475322,0.411605608105618,-0.707987038937012,-0.170072264914808,0.22519121112724,0.624799359953684,-0.624746324613409,-0.254865221792278,-0.923437234841519,-0.288611474083019,0.126494065844133,-1.82246950014125,-0.340035821253729,0.442047394187842
75.175,-1.43623552772234,-1.06004719720806,-0.105026262729387,-0.875680339713311,-2.55099800473653,1.36698718165306,-0.780587065592033,0.472439407454554,-1.02780955454638,-3.38121117891204,0.682682983520419,0.368602885107088,-0.688094766734247,-0.145519681230482,0.270563590002968,0.642275707742821,-0.742711368417752,-0.286413686725953,-0.927729570031718,-0.29789058018375,0.147660015179375,-1.80938409277807,-0.269392391683429,0.442168884628133
75.18,-0.604754915269219,-0.0797260838288918,-0.360153146005065,0.342755170877015,-2.28048138984841,1.20743371768677,-0.968002694013808,0.165342849723514,-0.812759273750169,-3.72811641807512,0.739543702227547,0.294384376071827,-0.694092177393696,-0.132673672579547,0.264099600774255,0.864810810688649,-0.876262319065724,-0.361514501680565,-0.952887599097205,-0.299292140080126,0.179849936858398,-1.8020565549605,-0.250551805618142,0.412978750301214
75.185,-1.12917407461519,1.15892476512528,-0.0925471478826966,-0.172768072378235,-2.04415364704804,1.19484770750757,-1.01340977689209,0.134120203585756,-0.752117445808629,-3.8779785098298,0.84840247142848,0.347240519518901,-0.723163310524226,-0.148125374366859,0.205202902170038,1.14548709457543,-0.983228748297095,-0.446456720804564,-1.01267098539372,-0.327683445120349,0.211339411785648,-1.8114276076322,-0.303780737011409,0.375326116289732
75.19,-1.69199563632936,1.87495283403187,0.0143931179965576,-1.14763638682199,-1.97656289460474,1.34208181271766,-0.947509184018956,0.191532024909938,-0.749054736901178,-3.18494611031646,0.913270282640414,0.470397107565734,-0.789772678752385,-0.188145946578198,0.112965194570434,1.36431378856585,-1.07517742570262,-0.565922905195726,-0.934135305907788,-0.246554538754477,0.186495586930617,-1.81941954159378,-0.384457362113474,0.36394952040604
75.195,-1.25783331254977,1.38874005055238,0.358684244440502,-1.78047529839719,-1.79801543889811,1.67306558834798,-0.884554702846757,0.193411861281003,-0.495717136052469,-2.51751140023283,0.905235870218599,0.506015730244157,-0.867320142116342,-0.281812858422361,0.00229192488794248,1.49338605316765,-1.11017096042633,-0.713273090205808,-0.98375251629067,-0.286320236730581,0.175964679935388,-1.8831610533716,-0.328559922209514,0.314888810583318
75.2,-0.479763603650901,0.521346723574846,0.760810232904425,-2.22077415129917,-1.6937308150793,2.1318000352515,-0.915303807841478,0.2388082661167,-0.224342685623385,-2.13932450364155,0.830185768686961,0.562010405273354,-0.891451364052357,-0.416519432500593,-0.103195264782362,1.52299798879938,-1.08790826420054,-0.814012667673689,-0.967296288051735,-0.265052715947959,0.196051751961572,-1.91938829228064,-0.405512767195429,0.294256760139701
75.205,-0.12379201764005,-0.472099842621923,1.27398585442866,-1.65263713314689,-1.86924137571197,1.95041776927161,-0.989740955377381,0.337089408992353,-0.0458408745697645,-1.724677495431,0.693600547034162,0.683266270440204,-1.03684998483545,-0.497508850581088,-0.0314396777567898,1.39459456423481,-0.855107352655375,-1.01055854261633,-0.963402084756127,-0.256361046199813,0.181475293163888,-1.90098336115006,-0.511232362183175,0.260703915265629
75.21,-0.0841883328888082,-0.618673988210211,1.27584953736625,-0.270446464322765,-2.16554303157504,1.30306924717464,-1.0468431588394,0.246397214553075,-0.00512668996071501,-1.54861672349939,0.636820495764147,0.767597346857985,-0.93026884679143,-0.546577893308863,-0.0869796255211962,1.51462267452267,-0.591746139356463,-1.18114190150211,-0.93912539249742,-0.26974495873423,0.163796927632218,-1.85460652718182,-0.52302640172366,0.202856914544075
75.215,-0.126171059189562,0.292061147734868,1.02892828869502,0.679339556751162,-2.19997177269535,1.01942290725943,-1.01849378500522,0.153859261131115,0.0286889880316878,-1.35798361603554,0.553354298952773,0.786492749752886,-0.953224326224845,-0.61195311047232,-0.154959816410308,1.11977278756677,-0.466820526943409,-1.54254929416922,-0.948059187834934,-0.257643688230607,0.156412615494711,-1.83631594808069,-0.524041160831465,0.16564301738878
75.22,-0.300656635593169,1.04338103584219,0.786225775185841,0.631479900768818,-2.06729746991644,1.05185368130775,-0.95987211778164,0.183047501523263,0.0129738475709972,-0.975207451401779,0.445776608126131,0.816961169946248,-1.00069857681442,-0.640903364412972,-0.16060258638756,0.876693862686483,-0.35336796822941,-1.4780864616507,-0.903244122340272,-0.227632634025684,0.109714618928152,-1.81282439629643,-0.508859607314678,0.166753929492116
75.225,-0.593685670677317,0.902649970744173,0.781722559766217,0.236302179195114,-2.010405795157,0.963699876134614,-0.956633241695229,0.253164371804266,-0.0464652251043691,-0.557267308545742,0.353596018814729,0.870197454835578,-1.03159754157922,-0.596489324219875,-0.161018229095805,0.726809742800086,-0.261149516320418,-1.40410191079726,-0.827667973427872,-0.211070913138251,0.0750558613271369,-1.81148076057434,-0.321106794984356,0.204116132607674
75.23,-0.76125677395563,0.262633135241434,0.794841884246372,0.15395803181121,-2.00355715453923,0.69143681260945,-0.992707711901631,0.332538255534691,-0.189847074629692,0.00984877106835533,0.261098797541271,0.937196770395731,-1.05550696953964,-0.499666894709199,-0.178714026596192,0.727885961338598,-0.197071095788421,-1.33113297176402,-0.8678819110766,-0.194917880835581,0.0446835843920643,-1.78332711223846,-0.127836323911546,0.273677899308334
75.235,-0.804104354320537,0.0383078191881301,0.830251079780824,0.480877363622744,-2.007446251446,0.386082381673175,-1.03451638519349,0.3604500316145,-0.284140842609363,0.314211399883961,0.232271181938039,1.01267023445972,-1.0847674281779,-0.439425741114043,-0.181623172548333,0.768796438931867,-0.220791670324911,-1.2407046678708,-0.920390921556026,-0.208011550032175,0.0176819568299347,-1.71783280668426,0.0582916600519184,0.312740815102725
75.24,-0.808738961742502,0.263331035704339,0.743446629745144,0.813056782654672,-1.99755388684378,0.195192653165833,-1.1279288629513,0.263345840034619,-0.291282376919942,0.473341635619495,0.202252388152289,1.07292144019316,-1.13631999302271,-0.371579682955734,-0.156403148073343,0.796248701072686,-0.263583869053861,-0.98694954883576,-0.963804884931063,-0.211218011982481,0.00886679887250459,-1.62847905003839,0.179379533046143,0.307175994344759
75.245,-0.673753563605027,0.255640040641459,0.868781749458351,0.637803207907948,-1.87506327404012,0.157097081987588,-1.25613825485666,0.031613911300294,-0.295621733784465,0.531592570675708,0.1945765377628,1.08241053509287,-1.15133288132719,-0.340783819977127,-0.132470590522848,0.755363435841868,-0.314808828938359,-0.77002417010354,-0.966561194543935,-0.197054342406625,0.00649517931863424,-1.51866908275213,0.213613696214955,0.248201263015901
75.25,-0.528043519492673,0.134112451925047,0.999916181550851,0.546400084204297,-1.8083701281933,0.145753476337185,-1.39750598665584,-0.234290491861471,-0.238622620651355,0.614542527560525,0.160542065209561,1.00762889078351,-1.17136401515813,-0.311455473548076,-0.0839408018787136,0.448719654593375,-0.476669292963367,-0.622010674441787,-0.94294122319424,-0.167543990160791,0.00346532798783518,-1.45236047439417,0.230576645819908,0.209053843841731
75.255,-0.469443035673881,0.0543494778083442,0.995013430496399,0.254346335041163,-1.56425767480178,0.238030844539282,-1.54090713544853,-0.595436723881366,-0.103661356487876,0.63834592225422,0.0941624288103049,0.854812647136502,-1.21594611144173,-0.302373532197949,-0.0248950175034926,0.0817542619366571,-0.639181636901305,-0.543524888620992,-0.943592056269672,-0.144327061753465,0.00729468049746629,-1.36760263930332,0.268438001395849,0.157307971191148
75.26,-0.470936405013904,-0.158912247884687,1.16518518232859,-0.216300768177046,-1.14793385063817,0.485031766577929,-1.68272668061966,-1.04052220420072,-0.194200478483113,0.391476649466052,0.109420496090367,0.734770105204572,-1.30650236510482,-0.287987922893205,0.0549592303426094,-0.133923336742472,-0.763342267709121,-0.487048297737636,-0.950746811348769,-0.119299528502838,0.0232629488652646,-1.31370114442508,0.280844703330577,0.124080094475109
75.265,-0.636976209569735,-0.247923438800233,1.29750774205969,-0.393256920809572,-0.567366512151133,0.801258710258258,-1.97496890625734,-1.45556919880819,-0.326462046230524,0.223116225246554,0.267833467349378,0.516343796337178,-1.49239807441674,-0.289094578182406,0.1653380021338,-0.31171136128914,-0.921511451959842,-0.401488321640553,-1.01841427382491,-0.0842276750211079,0.0561911518748557,-1.21522675466291,0.249166256276519,0.0889976319334143
75.27,-0.337621211840943,0.309215155942788,1.16568819842199,-0.0790792788945599,-0.187868339056096,1.1075860398508,-2.29425354681825,-1.34540997977572,-0.14072023932102,0.301706654304956,0.344888649884813,0.29831350275874,-1.78257521098484,-0.309816224739967,0.257931574525178,-0.342538814305147,-1.08132083497591,-0.367700002842586,-1.13877653163676,-0.0483290336926528,0.0715634454945034,-1.06323086827447,0.17618757084986,0.0407820485381178
75.275,0.0258613181057298,0.68848185135734,1.01964649943882,-0.0967586300467119,0.00930218152480681,0.967037140071263,-2.38901889958818,-0.337990676238265,0.408948860231966,0.0534978451981396,0.257677663972917,0.306894757423996,-2.00256869330657,-0.353171131317717,0.187635955332273,0.0114122905361859,-1.27746257194144,-0.44574823814614,-1.28056499886832,-0.00713262181623606,0.0474289016280129,-0.931355688578994,0.150494117899813,-0.000981582214292348
75.28,0.00449122873410145,0.181497652486102,1.15593147023187,-0.219031067342429,0.132730159548602,0.664922204759725,-1.98059573345564,0.272312193930493,0.439584654413848,-0.821937201760425,0.193594751664174,0.767847019934423,-1.99898833136546,-0.312984526558833,-0.0338884587564996,0.787129668642417,-1.33630028312199,-0.506228566169739,-1.4597910511275,0.04132208296326,-0.0322624030861264,-0.814748936880454,0.205081093398135,-0.0389742660239094
75.285,-0.264238980179657,0.0757000419673889,1.06374146218514,-0.0373836184712131,0.239221779108233,0.494462115581193,-1.14097065868272,0.103569793927206,0.129977212694499,-1.53256552810275,0.230600384987992,1.02658823214091,-1.99366885426994,-0.184141254737837,-0.343591766267172,1.8281833856623,-1.18753622388967,-0.34961319824207,-1.59091151900669,0.0848550325345721,-0.130635838880885,-0.749557905761372,0.294557501492461,-0.0771422000554315
75.29,-0.461709905178396,0.241066352802597,0.872396062120016,0.066552057295201,0.356562277788671,0.476564758418124,-0.598510747308947,-0.187305585375598,-0.105837366995306,-1.97952737383016,0.289791803536882,1.01514194411111,-1.98197965447559,0.0540880565928716,-0.569516777667585,2.62864173537324,-0.791633964868197,0.154755704383355,-1.61380895710127,0.123003040007667,-0.206638446149201,-0.735708241383094,0.303706297467012,-0.118540691538154
75.295,-0.513145899737912,0.0655853152837437,0.889652341573601,0.0482595823451039,0.429773824440877,0.4802968816883,-0.62309638818355,0.0316923095648764,-0.223320574008712,-2.33131934847927,0.315798736919896,0.795352420701172,-1.73334972697242,0.243682171199632,-0.625159958455935,2.77490697029677,-0.342390755453536,0.61676804523745,-1.52357695855418,0.141436730589236,-0.245530281366636,-0.782238661360351,0.182727296332049,-0.113887641027375
75.3,-0.538989000178588,0.0306225165889781,0.875529223976813,0.102186397392538,0.416352986074542,0.50861581413331,-0.778190217086752,0.181212713739941,-0.299346866139289,-2.50084669783334,0.163261857887973,0.721809420125348,-1.37774107016329,0.343345756331125,-0.538010859617559,2.14812088539381,-0.0242209031054736,0.967838939091715,-1.35864502919326,0.121180543131155,-0.273101575000909,-0.931193365624444,-0.0144763718954063,-0.00364671566913819
75.305,-0.500891009694783,0.229821078189829,0.793467591661931,0.161579056549832,0.386660674607453,0.543096940700752,-0.886353040999834,-0.0612132051148013,-0.341651570198571,-2.4508395005845,0.0302018839515125,0.725604399885945,-1.06070000627457,0.372675896447548,-0.404498311395919,1.17447589626813,0.0563876688906728,1.05387532711029,-1.19104309009884,0.0676843122178161,-0.288746098094241,-1.08324390334005,-0.110036935148759,0.160827890619436
75.31,-0.449758397689537,0.348575712314196,0.810909088077435,0.156265505725791,0.352411490440495,0.515002943053896,-0.915394002200478,-0.34004033464478,-0.212393172517777,-1.81180359473977,0.0324117012029595,0.746061140647016,-0.775048885768438,0.315506309335202,-0.238007713250845,0.157579008596547,-0.0253309774538107,0.939612957782604,-1.02627242098297,0.00254051334352937,-0.289062096195322,-1.21828181668318,-0.0304781486015375,0.386031163372661
75.315,-0.419676681838611,0.300281785591266,0.853000552290415,0.163043902580538,0.315777484673796,0.400869638858575,-0.929612789727301,-0.276266031743051,-0.112672792401845,-0.910093198570197,0.0126419086183444,0.752177290219029,-0.611605987631511,0.182098253393135,-0.0741784619445045,-0.380968669586252,-0.138822353028938,0.771084256884348,-0.949349268545445,-0.0411562442752202,-0.289456740583651,-1.26113560269058,0.132143915820879,0.553690809083016
75.32,-0.369606418297226,0.355520141457638,0.838241064766492,0.19151096967494,0.256625100107357,0.266493918843577,-0.960815542264099,0.0226553816943009,-0.10092479771521,0.603261585154511,-0.0953841068890991,0.781324222962752,-0.466850468314309,-0.109910653922165,0.117077329898903,-0.940207739881276,-0.311750703030685,0.509788336991102,-0.928757287218988,-0.0784325815992307,-0.271092226186037,-1.21611557776562,0.384856454368723,0.739266001062209
75.325,-0.390372281804481,0.378511318039539,0.840627365791544,0.136731227667317,0.211213579307685,0.119470821514605,-0.974766773973887,0.222166627306787,-0.0667714956438123,1.63495514400123,-0.207822003130372,0.832210405188901,-0.389639565297083,-0.354070269618686,0.337302966415459,-1.2402314026979,-0.335856906978725,0.33136880114762,-0.969681470677087,-0.0921721265259402,-0.252842987548427,-1.12493411086998,0.528105285764042,0.828431503869191
75.33,-0.376276520921697,0.371021764999475,0.839509645850436,0.149487708944819,0.14904041321902,0.0161381938208022,-0.987273696208983,0.271850013884025,-0.0891892458107114,2.19874385170342,-0.26072985018055,0.854741344849094,-0.36623044398574,-0.500891751618468,0.538438692156214,-1.30145258730307,-0.299927441722073,0.233703221937998,-1.02691260137095,-0.0960865326829417,-0.232943417446064,-0.990334862933455,0.557837016787937,0.879651602488567
75.335,-0.417801038017653,0.288807305273274,0.845723043119286,0.165384745432857,0.102051793142245,-0.0542095425405748,-0.99219569383751,0.283478281607611,-0.206010481323769,2.2633789794966,-0.227710712589425,0.817618959527653,-0.387616685413516,-0.541988431515605,0.738524651901367,-1.19974622143029,-0.324380674270633,0.125862191237919,-1.06397716770633,-0.0997548369643341,-0.210793536248743,-0.872876249412752,0.482401968341271,0.863329523040224
75.34,-0.45708841844597,0.247017896267586,0.84239136957055,0.191235160032509,0.0805126247139767,-0.0663549975254568,-1.02922226134843,0.287241269804353,-0.260329416209715,1.96137349788893,-0.178136259762032,0.712870620014979,-0.465028413984569,-0.549235700598678,0.941581313867894,-0.747568757214095,-0.368033349034522,-0.0734461276658646,-1.09679916306971,-0.100717719493761,-0.186298338234766,-0.781171382735615,0.310431591779672,0.800422726412438
75.345,-0.45703641635145,0.251332464688419,0.828914984776166,0.180244875982856,0.0859059862511571,-0.0514639001266031,-1.02784642319832,0.260856317022693,-0.254763339170136,1.51350777845557,-0.153331688756816,0.587529662574231,-0.556766755802389,-0.524121586395899,1.0368297366857,-0.22655126152218,-0.398934757758832,-0.271177434614142,-1.12412481537816,-0.0827447527748002,-0.16183405548367,-0.749828279018402,0.145190481623937,0.706985997627062
75.35,-0.450965682713057,0.249348332015241,0.837913898542319,0.145144502275429,0.0960236201338904,-0.0297498923227544,-1.01701242718996,0.242517984968539,-0.219656734684878,1.0555040400288,-0.107103659021815,0.488404346991099,-0.65539051135168,-0.478015198901277,1.039078443721,0.253500909248217,-0.443071954570686,-0.487133445139578,-1.11406383072865,-0.0611567579543324,-0.146990418076764,-0.815507285601548,0.033600917897407,0.597146316013107
75.355,-0.427381050332099,0.232700374213501,0.852037551348511,0.130390309056387,0.098091067778163,-0.0048462061972898,-0.990470459369876,0.246418123320338,-0.184874489638901,0.521744595005833,-0.0525812288036709,0.404138439372842,-0.747482995341735,-0.443179616287465,0.966940623412336,0.429508724070034,-0.501978330505919,-0.597505642748852,-1.08505067839918,-0.0531206076515425,-0.144995119565568,-0.910202241371852,-0.035977482779833,0.506599950298031
75.36,-0.399440639109235,0.222591607671432,0.868385704895917,0.122658038711902,0.0906169041254654,0.00692297211977336,-0.97239602158629,0.251864331857699,-0.170709783587033,-0.0558545590392081,-0.0320749375202205,0.362430085065913,-0.826545404313829,-0.430803046158491,0.828177556940436,0.399121987127532,-0.557347488444377,-0.567480402460766,-1.05131170585925,-0.0341338268398477,-0.133962542948464,-0.994025203321498,-0.0439517567286076,0.421402122646052
75.365,-0.410797427442014,0.209280926493076,0.8614277165116,0.104855022538021,0.0920792605008577,0.00771500915288925,-0.959484551168417,0.190890554356162,-0.181510056292136,-0.706900578687878,-0.0173674095282009,0.364775958158344,-0.916978791128158,-0.431447723960314,0.629646311286842,0.333070166773213,-0.632856294347064,-0.453158558297336,-1.02350929485599,0.00136229260213843,-0.114266021831892,-1.06237293077017,-0.0188378395067931,0.341284528658247
75.37,-0.430994831208505,0.17393957874503,0.878574812991601,0.0704315835607154,0.111040159744805,0.0110531875731836,-0.976771136442949,0.044940749061661,-0.219989653352352,-1.15240776762644,-0.0854699501341921,0.359580714917801,-0.988179897879987,-0.432633331219385,0.367189296390568,0.465416825150618,-0.665927971390965,-0.260883237331998,-1.00052475569355,0.0670863349043291,-0.0705639065085526,-1.11281687507369,0.0321617382434209,0.25473012468864
75.375,-0.45107986311834,0.162999316499965,0.873575558338284,0.0525001584735425,0.133310570471215,0.0216165753314402,-1.00810190149551,-0.0658761365899365,-0.25858800690624,-1.25590562820435,-0.185949646503608,0.332112787966021,-1.04347691793089,-0.410327807428492,0.191303919512509,0.769062153305295,-0.642310155410487,-0.116848990543106,-0.986626869033428,0.104261096442403,-0.0321469547256205,-1.12683197998763,0.0754438343546043,0.201734605385169
75.38,-0.462738469243681,0.179015181719876,0.868102815058523,0.0402797796233625,0.154695709814138,0.0397339402759943,-1.05339212598812,-0.145901206414406,-0.258372960976588,-1.20092534060598,-0.254939508227582,0.3293112354772,-1.09125653456628,-0.393771921158934,-0.00639043204035736,1.01473565954887,-0.590592097126492,-0.0632727319585736,-0.970836395220391,0.131227260628477,-0.00587374271812635,-1.08417282637245,0.110518128495349,0.159958400630058
75.385,-0.467078244972436,0.163445007925595,0.86940761844954,0.0222932643404255,0.161384415757702,0.0348571296742521,-1.082833229365,-0.240779818556562,-0.248026632384579,-0.879729008933019,-0.404711199542985,0.33087279992802,-1.10904230638284,-0.371862599330218,-0.159087064933473,1.23609549261543,-0.499764152991689,-0.0653494868436917,-0.96425113915993,0.155093229792278,0.0181569422260297,-1.03366383095629,0.119408225131561,0.124104769331696
75.39,-0.475275967950509,0.169602434693958,0.861414721595002,0.01700672697004,0.172734116258258,0.0540306504021287,-1.06241429117236,-0.280122345181214,-0.305375933645198,-0.55944017665947,-0.477647189427656,0.334550107390187,-1.0910991407589,-0.331885523767602,-0.258629656247522,1.37782801898167,-0.301757214018963,-0.112901925390188,-0.95623876247414,0.164541719225919,0.0347922920980659,-0.981103712312063,0.108375650307758,0.0879604564701066
75.395,-0.476970483825834,0.178071727021464,0.868825678016362,0.00462557818749398,0.175781113719751,0.0751202555334981,-0.996843382732201,-0.293762685892185,-0.294176474974273,-0.0956696329732722,-0.496502326341919,0.35346575485827,-1.05636590234421,-0.307294460816561,-0.266121684274765,1.39672650980659,-0.116352943146052,-0.124533487169457,-0.965623741376015,0.16853602990281,0.0400444566282348,-0.948493857729106,0.0917580806646994,0.0651345553135587
75.4,-0.467519697625068,0.191463562669128,0.869493942372727,0.0144439949188304,0.168430435075159,0.0991696763668012,-0.967310837143254,-0.198223827931742,-0.257254877447164,0.170223924114627,-0.476790581599377,0.362521604088323,-1.02243681308659,-0.286835109863604,-0.209156172629949,1.3109940969609,0.00793260837397814,-0.121729631840173,-0.968185410845493,0.1673046064309,0.0377781172119995,-0.937592235160082,0.118111298931328,0.0518980015626694
75.405,-0.436364579826045,0.195459880865324,0.870605863355495,0.0491733577854282,0.149927687375799,0.120161232264306,-0.986763426066237,-0.0508599782185859,-0.242230168589957,0.410131621632739,-0.461066705842976,0.366128385066986,-0.98387300218949,-0.267641454871552,-0.0789859420303286,0.925074905102354,0.147812801097647,-0.193113224105723,-0.967016969520553,0.156884723081352,0.0314639646787914,-0.952958596414254,0.183114896938288,0.0532167566002126
75.41,-0.426883514580867,0.199799273682702,0.880147956034958,0.0905001421574581,0.150277058399194,0.125859160448866,-1.00880017487571,0.0172322614947502,-0.239706420544219,0.474674146767636,-0.467024666882938,0.366128385066986,-0.981278445624162,-0.258734849042169,0.00890487796481204,0.661646962082392,0.222896876348083,-0.217072050022085,-0.971399603634015,0.136756240106575,0.0311628500933102,-0.987968338397959,0.255573984867654,0.0594162171463569
75.415,-0.449423005793111,0.183713778477408,0.877244730515019,0.131825429603387,0.150547221302986,0.116630998223841,-1.01207401254044,0.0526074213482446,-0.263716981499845,0.504494943059071,-0.50651717754886,0.35150142543199,-0.979657054642366,-0.193276189515371,0.110819914805007,0.355562995823137,0.270215792459933,-0.18713951003841,-0.971709182721522,0.12679982742735,0.0380608005799641,-1.03162735463815,0.312602244571557,0.0949869364584022
75.42,-0.461088247016554,0.195945418625892,0.864941442688872,0.182212854860763,0.167298370315516,0.126653938313353,-1.01785924716621,0.0485362055253542,-0.274439439388427,0.410458319581998,-0.482843813415421,0.343391965894417,-0.967084310649692,-0.20799963338482,0.176956632346588,0.0788768730583439,0.269510392231666,-0.3039718164203,-0.985986832169931,0.110806634360058,0.0439306696191024,-1.06777276354548,0.351105673564159,0.137531032458165
75.425,-0.454540387468439,0.222469103026816,0.85370308170306,0.225985463739701,0.185284113577375,0.143526969807196,-1.0284153038522,0.0354512081585774,-0.241724194547382,0.339637412591522,-0.473098249315182,0.32026072126136,-0.938426887312538,-0.222851711510891,0.258003309066708,0.149224270895737,0.259360882264289,-0.223632835014246,-1.00238172881296,0.0921693281280865,0.0481103430678088,-1.09249530790954,0.387108560305848,0.201726685522792
75.43,-0.443558164978833,0.228568566389328,0.842637951391132,0.243255464255852,0.182776696688644,0.157653693509478,-1.03342284052363,0.0439355470135434,-0.217671246627073,0.239465245135187,-0.467924874312866,0.296388485359295,-0.914133633707002,-0.241424084633487,0.290616570252387,0.284739168412034,0.230488628924693,-0.202409012249046,-1.013378373205,0.0860382641591925,0.0482965010836773,-1.0932500382691,0.407587022708224,0.254081699587048
75.435,-0.431064606429907,0.235967773273686,0.839944547218615,0.243141080082379,0.162530630390284,0.151999449960367,-1.01379478556459,0.0294567579690532,-0.199455065306394,0.0670486175884053,-0.449872914851128,0.297103931517298,-0.882540843922554,-0.277199763874287,0.284396921009907,0.400718829316478,0.13996616549198,-0.272279417521576,-1.03049250605665,0.0849470855601041,0.0644748033143536,-1.05899456785083,0.408206413076022,0.312554883401944
75.44,-0.430047812665826,0.230435677854982,0.843382928449002,0.207364363689231,0.146178197949879,0.144516424255396,-0.985593358687517,0.0196534960877105,-0.193594895199092,-0.0461313972753241,-0.451855258900035,0.286501798453503,-0.864660273126697,-0.291810679304244,0.258549587854334,0.544243102592236,0.0855936691695801,-0.356440978987452,-1.03575518800943,0.0808571261833908,0.0737749978366504,-1.03054714618593,0.38742694771993,0.35616222459011
75.445,-0.443528367598179,0.221427012644175,0.846703350230468,0.159545041526044,0.135217798065363,0.141214251050326,-0.960615011528066,0.00321218587481332,-0.183732987298484,-0.163651363709188,-0.446179099785095,0.282833941146133,-0.862980273761883,-0.308595136401101,0.178749351423457,0.695114448048968,0.0509877875094605,-0.440392827966133,-1.03442128033797,0.0754458672669665,0.0734399932964992,-0.965075231447097,0.323007781164745,0.401208306886754
75.45,-0.448364368236941,0.236068002351644,0.831278051893096,0.115170369759367,0.132353080016952,0.148643904873743,-0.973353200723228,-0.000664323725741862,-0.174330561193672,-0.234453202812945,-0.447729940005929,0.269802103359303,-0.883359625395134,-0.31683287992824,0.0981841699379056,0.832939072658857,0.0591642581098845,-0.475614159744637,-1.03379412183708,0.0710660400426455,0.0735878523569102,-0.931173985395239,0.271005814800831,0.431732410993769
75.455,-0.447325496156591,0.2335574365004,0.84201916167605,0.0752281137558896,0.125491000528303,0.151829048256746,-0.986372458374642,-0.00168285703980501,-0.144322670287806,-0.240773472593185,-0.454169261858818,0.268255379530511,-0.906754430087901,-0.318307273981071,0.0399245927184943,0.274246610721942,0.0873601040605867,-0.442373981764662,-1.01360918881277,0.0765934716906578,0.0479172608810976,-0.864932769505364,0.206903002566289,0.469766120490845
75.46,-0.44343047110293,0.22324867644576,0.856561771152024,0.0340803876626983,0.122343589349207,0.142555273299838,-0.993442004338784,-0.00232112410922938,-0.133414875582669,-0.235619921580337,-0.461530833696164,0.277156038318395,-0.92657070840111,-0.307645261804554,-0.00867757163263305,0.956110749627825,0.12385985262894,-0.385977033370037,-1.00883970433703,0.0864337214266593,0.0310602649966861,-0.833011489598685,0.18469607652893,0.485609462711488
75.465,-0.443981420358063,0.224649778934905,0.854126206180482,0.00472908840027854,0.121368518726512,0.137214630842209,-0.996053774107359,0.0151563829356515,-0.14503459757373,-0.195030003636948,-0.486779903160585,0.283784676295923,-0.944867061461603,-0.281492627212632,-0.0359479970321293,0.941491607520632,0.155675912440652,-0.34208569286787,-1.01045233953633,0.0918988295931699,0.0158845886730796,-0.801488262802005,0.168149974874804,0.51242565905227
75.47,-0.462294656205104,0.230183019502244,0.847027464594971,-0.015922680506073,0.123669937252998,0.131504653061705,-0.985510856486726,0.0176904761142422,-0.145127833794114,-0.162239206215785,-0.494694561274254,0.29513131791696,-0.955895876751634,-0.235143440798387,-0.0542815590441176,0.840868971769478,0.18360348045826,-0.339355576840594,-1.01123334136311,0.0962803827080808,0.00105914658110293,-0.800474548582499,0.16228727263075,0.522734636405269
75.475,-0.456119360028728,0.219769615937982,0.846801455418259,-0.0275913902350508,0.135057277602877,0.142516206294015,-0.985658497350779,0.0405951232393065,-0.130563495084997,-0.149819015124397,-0.507995350155608,0.288826695755621,-0.955029536207666,-0.198470959032863,-0.051514017502717,0.744937315620307,0.181463896689935,-0.357492108397301,-1.0127906584483,0.092342329481567,-0.0169656771104195,-0.814591570783002,0.147240301051355,0.523204689544437
75.48,-0.456677084737495,0.213483711203414,0.856309165979872,-0.0121732585919202,0.13118199077036,0.145391444755611,-0.992440475852349,0.0362099145554276,-0.123825245359406,-0.139717159535803,-0.508609238616715,0.281874840956116,-0.957384605930542,-0.156776759565475,-0.0309126197844157,0.676784990000052,0.168737045189951,-0.402561343431568,-1.00750925096415,0.0812416943047357,-0.0384196832034399,-0.842154280057668,0.120112526769146,0.515774412086708
75.485,-0.448429683014761,0.210462191249843,0.860721435030968,0.0255285808602486,0.130982564151196,0.146586794662994,-0.992686082443402,0.0204885222007196,-0.121366691127723,-0.141935500174418,-0.507109389139185,0.270405704439372,-0.965129398494937,-0.133748079419697,-0.00827171593416601,0.682471208233354,0.153084447088614,-0.43869785451967,-1.00654739998573,0.0597988331447461,-0.0604053761099887,-0.863864391794117,0.0837899198595429,0.496508113355009
75.49,-0.439920474572909,0.205565238043562,0.859517228190354,0.058327720259634,0.128412596482096,0.145910598736944,-0.99983591193746,-0.00475535868376355,-0.108624856367434,-0.127606813685046,-0.495989521262854,0.26131509964215,-0.98556592183553,-0.113797336485162,0.0174682895778922,0.721825144913787,0.117776101379558,-0.515309812849468,-0.994886745766439,0.0383828516361832,-0.0841100732316653,-0.890443108159882,0.0629069946236494,0.459526283526412
75.495,-0.434306652146348,0.206305340736913,0.864345245249489,0.0911782990651008,0.12586470767155,0.145290646696976,-1.02343386389673,-0.0243776767511312,-0.0951682532317482,-0.0837546975714945,-0.476219097175909,0.2396557189041,-1.00852279455052,-0.0995945402813785,0.0245039202950416,0.741958625925644,0.0813723196534873,-0.567881775891952,-0.977839587754891,0.0221328840274116,-0.0894446595019894,-0.891619842005788,0.0740366801781202,0.430648978989741
75.5,-0.431036758988688,0.218423735048178,0.862310445561253,0.130760820677674,0.126591581095808,0.146934912054327,-1.02948078909457,-0.037776650042269,-0.0896067615700609,-0.0239375037954415,-0.461368824554275,0.235613471315626,-1.0322450243007,-0.0905125482658779,0.0266001233457747,0.721736994717505,0.0513178904862721,-0.581305677410315,-0.966787066498903,0.00272189022951095,-0.0924714494248288,-0.885203050472004,0.103008450992784,0.391251483288242
75.505,-0.434292367289551,0.228602516599842,0.861232700118621,0.15531045399828,0.124617525874419,0.143899680576775,-1.02436207442289,-0.0463702786021054,-0.0791331536524557,0.0485480119889135,-0.442368946037762,0.230431678588449,-1.05585592489195,-0.0907662451285502,0.0254987331535509,0.66859451350154,0.0251958949771054,-0.559995392400513,-0.958764819486886,-0.0206254928604401,-0.0850452022319802,-0.864098271351688,0.143520503947558,0.356319619016393
75.51,-0.437657824697238,0.234311268891801,0.852555202008507,0.16902830951084,0.12000485509634,0.143323093652725,-0.998074367086318,-0.0444474999495878,-0.0813260447305163,0.122535215150932,-0.415225043837283,0.232489101759277,-1.05962977159411,-0.0954774594477651,0.0184334608740228,0.579584521891332,0.0110164383046979,-0.508125391536263,-0.957739760121351,-0.0290498546567198,-0.0688984511300251,-0.828011480132779,0.198232113993854,0.320866245024944
75.515,-0.443957752127145,0.227901684336288,0.85315930223712,0.157813387800108,0.115795308216089,0.152283308219064,-0.981853232848651,-0.0194520621695476,-0.0746167961508281,0.189042027576067,-0.366474353302801,0.245926909349422,-1.04823742251306,-0.0956782621660194,0.0252822051565511,0.434086253435468,0.00753589965172702,-0.450748515688521,-0.955140242405021,-0.0405486658530131,-0.0627637544695366,-0.785137721387199,0.290327785546072,0.285863057121858
75.52,-0.443953769082879,0.23412104073647,0.848147493929311,0.153039536940312,0.110239299797647,0.15554004907608,-0.975734913066822,-0.00111189328907649,-0.0647453675453478,0.18787900931172,-0.373574005723218,0.243379528480641,-1.02183217336658,-0.091135578229162,0.0367121462549765,0.26603564665485,0.0168361714971234,-0.423679552117265,-0.965097429210856,-0.0402452927827022,-0.0577344753848296,-0.750716723293872,0.365163672042881,0.2641118837101
75.525,-0.439493297100303,0.239972048416417,0.856937192357387,0.13882704193046,0.106566213071346,0.156914496764646,-0.972793974090655,0.0350400966612414,-0.0515819481287014,0.180066658094461,-0.351752021651049,0.247283441658266,-1.0063348403325,-0.0855627682818819,0.0722852908731519,0.0880311586194864,0.01914830104015,-0.411596383902166,-0.966493237062632,-0.0426567447638109,-0.0533898616476434,-0.706101317283875,0.425932463877668,0.254505380043749
75.53,-0.455822850826676,0.227951774097647,0.869617294183283,0.131344452500343,0.0923383134422189,0.15134374760178,-0.969066109845976,0.0719970425948017,-0.0566070301854996,0.146304845851843,-0.340015700883253,0.240195588350776,-0.989849898406606,-0.0872705368808834,0.113251866166039,-0.0677739795487164,0.00637411040070016,-0.380740440490773,-0.966730118868583,-0.0417879193114484,-0.0448234012557312,-0.651404953846076,0.461263798903326,0.237540975362894
75.535,-0.467492868934463,0.229562216384248,0.856133838445862,0.126423921257895,0.0790612082037538,0.149536191998054,-0.961838241521099,0.0895671575961049,-0.0810807612387186,0.0713062790723043,-0.324600269064678,0.227572349498213,-0.985445864990708,-0.0827650754742378,0.148416768011577,-0.182308179559648,-0.00600559589429651,-0.349863135248945,-0.959234606056399,-0.0366288921765642,-0.0412130393404275,-0.573329844580063,0.4678845951349,0.228551802759941
75.54,-0.466496724494765,0.237355257500041,0.841521291729478,0.104700721306066,0.0698632708199204,0.1523169256311,-0.965564829514385,0.0814501504168384,-0.0789154616466402,-0.0304055953723494,-0.309136498763852,0.207752971297114,-0.987287095419897,-0.0657792909591931,0.178142699157037,-0.2257304218562,-0.0321933008944064,-0.305780185311129,-0.948637883121819,-0.021808605039819,-0.0402027654512799,-0.494724729420414,0.462901148346444,0.2187646841437
75.545,-0.454322534484144,0.238839181301296,0.838264794994742,0.0757793006389066,0.0690725512460137,0.153518069540054,-0.971602647427675,0.0776610663667622,-0.0718881270164431,-0.126319136011923,-0.29516866852272,0.18853595368536,-0.981154657698467,-0.0564155778378868,0.198635980760512,-0.196839480863532,-0.0598609253542189,-0.276341659971215,-0.950086565137807,-0.00205933208749019,-0.0425098170361941,-0.412281022125878,0.434565734734248,0.211479592744548
75.55,-0.444944103315052,0.246292612960377,0.838573504570676,0.0550371932092034,0.0640901607337323,0.150841377668725,-0.975133518313135,0.0737678725831188,-0.062377901642061,-0.185415846414456,-0.272880773499738,0.182874217629433,-0.965810789980016,-0.0604864505769679,0.20602774775378,-0.128091770670004,-0.0839034540491713,-0.278261739762463,-0.954511489073434,0.0100209743612291,-0.0420022521179826,-0.345470599786311,0.400803769473534,0.196591587131271
75.555,-0.437576863588814,0.234691078567384,0.841177522956515,0.0252736336723304,0.0607255963341113,0.136338970839728,-0.973779388858083,0.0441003168725171,-0.050381884448255,-0.232196684835653,-0.24680067084036,0.182002358999407,-0.946792102053157,-0.0746532157258638,0.199084514089429,0.0075405676951499,-0.091670414878883,-0.319307883650884,-0.959429543555659,0.0313945483003327,-0.0528024557609471,-0.274587313907065,0.36489210122207,0.174896852655657
75.56,-0.425768592349954,0.23780439731429,0.84119664606668,0.0110016825480958,0.0613752478989561,0.129314662175789,-0.972070412516804,0.0250180502187431,-0.0324066299583311,-0.222258251119837,-0.224927270053476,0.184628465412706,-0.937677062091642,-0.0875991053472745,0.189100735246966,0.140832754236539,-0.0833515408702475,-0.362928415705216,-0.960017069062785,0.048480233191631,-0.0566884961495503,-0.226684193281856,0.338320504152071,0.156793054686704
75.565,-0.420844477989833,0.252991716753254,0.842884602650242,0.0125754145821896,0.0543996972841591,0.116384493820995,-0.973499152629307,0.0190034866189945,-0.031853425808494,-0.17222480768436,-0.210079266869531,0.185895861051188,-0.947228089890822,-0.0952527110451203,0.179961424173747,0.23420491072528,-0.0619592752970463,-0.399937872731057,-0.957861787829889,0.0586855772918048,-0.0644606145488037,-0.181602715627018,0.312494721040307,0.13773965988166
75.57,-0.411747248327226,0.267763394498729,0.83715651411496,0.0202194832961996,0.0496490560113311,0.111894031341799,-0.977884219694119,0.0231005502144693,-0.0322466153937787,-0.113729449197995,-0.192356797050417,0.186539307236671,-0.932247811236855,-0.1209710214395,0.147943845117472,0.27277293328688,-0.0475568275570272,-0.411215140910246,-0.959430183431152,0.0756543767421011,-0.061950876515127,-0.134116298148625,0.285454591061679,0.125627535261197
75.575,-0.417943176773458,0.264830498015472,0.834196071537413,0.00422634863776875,0.0513733863207717,0.0895376015897737,-0.971398990127582,0.0349245691473954,-0.0384125154290832,-0.0615079639529926,-0.184687112569051,0.18663367436652,-1.01405048412643,-0.106361135306638,0.163103258953902,0.133744537651344,-0.0557078793972986,-0.550575685551822,-0.989792277328758,0.0734718305491043,-0.0607098236858064,-0.0991501987465226,0.245729736917567,0.108108109413936
75.58,-0.434329165339469,0.257566436767578,0.834511488318445,9.27521820551111e-05,0.0412860157055136,0.0830905899439105,-0.969785120793594,0.0624786017823041,-0.0510085089194921,-0.0379448359983409,-0.161626169516031,0.188383284308675,-1.00885464905009,-0.133944845193975,0.175334636465563,0.373100652818584,0.183002384851679,-0.537974373870142,-0.989189280632438,0.075307700344509,-0.063459689020118,-0.0658451520667451,0.20440117704157,0.0800378847292163
75.585,-0.437011617626298,0.256437846585442,0.836732901263163,0.00155172119804353,0.0410590009714721,0.0807235587290046,-0.966051180935347,0.0731139438131393,-0.0602342600495572,-0.036025330151111,-0.156257768627243,0.183225459114985,-0.988798296032505,-0.164979702860458,0.115198394233071,0.353202364580391,0.18546604440524,-0.517075329831043,-0.950475826218117,0.116647896023509,-0.0566696828162317,-0.0438914083174497,0.182165742082293,0.0732524529254532
75.59,-0.448044573590339,0.246366006138103,0.840557772100051,0.00425085557559828,0.0461110207105338,0.0795581160054469,-0.974528164542516,0.0874420688228421,-0.0681033513978094,-0.0802888538430103,-0.151381141808152,0.180788258115887,-0.979601044002277,-0.186299123541573,0.116052378438807,0.204247015013132,0.114409397390894,-0.420372077148403,-0.985269151988862,0.115803546648736,-0.040369792397214,-0.0579915717418138,0.192852175958619,0.132952183485031
75.595,-0.460395059049331,0.240760269703226,0.8451703843411,0.019096804411661,0.0421835976965776,0.0773515924811363,-0.976288711138376,0.0999319802256948,-0.061153682642862,-0.132770570009604,-0.156884926676153,0.168964788790275,-0.97693469140003,-0.186023066762531,0.126398310810961,0.128289029584451,0.0792447715441068,-0.31445913068219,-0.929833761049703,0.102649813661074,-0.012785497240778,-0.0497071901251022,0.107933942602118,0.128576727065851
75.6,-0.453127227936652,0.238800432681008,0.85220686563024,0.0332786122148247,0.0467031821608543,0.0777684422692877,-0.978941051173758,0.100276720165694,-0.0820013952220687,-0.168310883825366,-0.167038425641331,0.150920142700595,-0.960247819996041,-0.174975459308787,0.130032665191186,0.129063745944655,0.0841834028489466,-0.289832563612806,-0.944708285623016,0.123858766800836,-0.0142467176566296,-0.0365625345586222,0.0376797825207801,0.122568603476361
75.605,-0.446762027833017,0.233212532089094,0.845351509794273,0.043652524151304,0.0545734929003291,0.0697191869514466,-0.988628987799502,0.0804792589515684,-0.0942721693396856,-0.218899321218077,-0.172493943771456,0.134553593964972,-0.951270598662355,-0.173205016720993,0.131287715432901,0.160781420379792,0.102178326946648,-0.277847089608109,-0.964377243165605,0.130732338934508,-0.0343061148206535,-0.021694438644431,0.0421164565316075,0.134633221250832
75.61,-0.459381204539221,0.238823725247449,0.840373270158074,0.0245171505582521,0.0564767345786095,0.0746675649667473,-0.996602976850927,0.0622330795658184,-0.103519210261526,-0.268001186967638,-0.168282922426777,0.130384435911932,-0.940708217331868,-0.179411533741918,0.117236010369419,0.17463432492879,0.0746324086394603,-0.281433389152961,-0.997743825169601,0.116636703277251,-0.054873086518991,0.00804519790643696,0.110631319360417,0.126050880214349
75.615,-0.446237049020506,0.244632513056764,0.837288991692693,0.0124422127306029,0.0625283729255803,0.075021883106111,-0.999925326231759,0.0421497820587914,-0.105851630623198,-0.278343087315142,-0.170925895843178,0.120424943430588,-0.939587510371072,-0.180476267000052,0.107839744899572,0.129814889603272,0.030141601283984,-0.323219406130871,-1.02410347044034,0.1134563100439,-0.0570748776724113,0.0177882366053023,0.149112845920707,0.107733648981301
75.62,-0.439456343190263,0.229664577783998,0.841313318083207,-0.014211979168504,0.0640841354790406,0.0762633455847471,-1.01290720983721,0.000870110457904434,-0.109805483275818,-0.255917707125596,-0.176106835206733,0.122183661681878,-0.941316540083972,-0.193101935843186,0.0877072828744391,0.110403007527426,0.000921829781717449,-0.408755126980862,-1.04718311293939,0.107240562166136,-0.0540751945889693,0.0210609994828701,0.199128838528165,0.0978290611668886
75.625,-0.442675857236471,0.21936793574004,0.845911653689552,-0.0382741116413618,0.070546153315647,0.0820812556151566,-1.02454736932428,-0.0264476077140196,-0.110453307214135,-0.211876812927266,-0.16531817171655,0.123558885754958,-0.944900194573537,-0.217148082141412,0.0609412267261208,0.111642538669015,-0.0230858565608312,-0.449365413258035,-1.03675744003334,0.103102724952371,-0.0423163417904173,0.0145376411741342,0.180121184138571,0.103777462653279
75.63,-0.449448829230279,0.230126762576482,0.83551870611116,-0.051604198313491,0.0615314375912788,0.0903167938260657,-1.03019201142883,-0.0353110893999181,-0.0995923774846871,-0.147131308615204,-0.157608856595614,0.133366438517445,-0.953060626227898,-0.232381458339901,0.0404509437757104,0.101971016357304,-0.0300557819271439,-0.463743777137176,-1.00101212752775,0.0993708022279437,-0.0369208516281585,0.0464945260462979,0.11979401961774,0.113530648992173
75.635,-0.429049903158855,0.239333540751207,0.843156318519793,-0.0753926482756867,0.0738918122973699,0.0985468057329126,-1.03483677815454,-0.0123436841189671,-0.0907285942741387,-0.0881890406511543,-0.150577574972696,0.1398348330783,-0.96016402250055,-0.244346292137217,0.0224808929403444,0.0959853612317815,-0.0268877518940722,-0.467475338958139,-0.755535600022995,0.0939535081193732,-0.0298880332472157,0.0550564409042959,0.0856169549900591,0.0953159877519273
75.64,-0.427793592770746,0.245562605898982,0.847066338289583,-0.0851532819331757,0.061105706414398,0.0978625902904616,-1.01973954939622,0.0105482147427833,-0.0767927308550642,-0.0462081971177393,-0.151804084828326,0.145512354214145,-0.962910392845288,-0.246411942244886,0.0145920352561658,0.0901896739454119,-0.0156355638783046,-0.476211329104081,-0.459938095286235,0.0940811319813461,-0.0303724600359599,0.0717577858445873,0.106097205049252,0.0672588612964221
75.645,-0.430135035696138,0.244966685685248,0.846167084184243,-0.0841612843400107,0.0591648554573456,0.0973881613727499,-0.99747593166274,0.032037717664097,-0.0594249979140103,-0.014367341516899,-0.146742964304937,0.14744508266449,-0.959794559500289,-0.247900244207019,0.0228355783384215,0.0566037141608581,-0.00202681670105985,-0.47361080308001,-0.921748547877393,0.0951202926968976,-0.0439441026317605,0.156986799355448,0.143671749765827,0.139573794860363
75.65,-0.454816019225117,0.235506664835276,0.856180979022778,-0.0755734855534757,0.072587022749373,0.0880282759957344,-0.977772190913839,0.0914768336387488,-0.0499637410781573,0.0189296248501861,-0.149759760658621,0.1498326689803,-0.957188378287643,-0.253208120602477,0.046435037376855,0.00897431066263729,0.0129195436533138,-0.441508110119328,-0.911693959732293,0.0933125180713293,-0.0575088685251712,0.1726074634044,0.215964031175814,0.151333954736454
75.655,-0.456138252366859,0.227825498798742,0.852464523101872,-0.0354215249693442,0.0705255562925292,0.0895685404539108,-0.97417487501448,0.12563862016245,-0.0716114917614779,0.010401750276982,-0.161846844801581,0.135220930366333,-0.962227023812907,-0.252761269463379,0.081820938755935,-0.0222036998165933,0.0262940123493044,-0.401618001462722,-0.924318917366256,0.0787132391001153,-0.0427264199242668,0.173119918382814,0.252089649438858,0.148799579543408
75.66,-0.452624480943166,0.253127168771571,0.845333772261556,-0.00115826354319938,0.0735040383477822,0.0912993661557655,-0.979285508783908,0.139482107651722,-0.0573360926126416,-0.0549753063914347,-0.166364620381774,0.111559444089328,-0.972226543856335,-0.236423805878358,0.139789690604518,-0.0544110677867954,0.0561758688911361,-0.343002350442685,-0.948094188828816,0.0780018270348887,-0.0379362221308581,0.166068893163925,0.235357332242806,0.129999565091576
75.665,-0.447216146257909,0.259695508242761,0.839126190433704,0.0191440208181697,0.0711370706558228,0.0866975620854689,-0.981476489105886,0.14519897051562,-0.0479502707456972,-0.114815715491955,-0.157713630439907,0.0873845692078871,-0.97041130337722,-0.227931989466072,0.17939688934544,-0.046399908870609,0.078389951228945,-0.30645199781155,-0.970216784818163,0.0810414393946446,-0.0395100420939003,0.135125741456473,0.186706353773071,0.125422389986767
75.67,-0.441681015891365,0.252406455637235,0.842311307624543,0.0355381680076195,0.0724766945081454,0.0772760587322201,-0.976775135303253,0.141346202377804,-0.0573024344898386,-0.151179448315444,-0.157331148667418,0.0556138622114512,-0.966287473257747,-0.21569615637621,0.220775646381512,-0.0625786885987936,0.0774280254552685,-0.285658373491809,-0.977498024643007,0.0720638541454729,-0.0468084377702196,0.0981369169640718,0.0709910299815023,0.11890121038238
75.675,-0.437890493080011,0.25763485156536,0.839202380463558,0.0409680205191348,0.070598617843085,0.0621528101325183,-0.972250814768929,0.141120137449878,-0.0573093001351386,-0.15655176499321,-0.157774015148783,0.0397058499708391,-0.958867445295843,-0.207402819456107,0.247014318234615,-0.0436083848564661,0.0587062455343096,-0.264333039522171,-0.972836277167739,0.0662344003820824,-0.0517805291869472,0.0837725056738216,-0.0296008591465383,0.102840653334494
75.68,-0.449152483904865,0.240979213567085,0.833667384599748,0.0313838306556746,0.0547370987623421,0.0418736782453692,-0.967343759371324,0.112787393614639,-0.0596988834928677,-0.16232359166839,-0.150707304544214,0.0206553154539919,-0.952481835192317,-0.198302629651402,0.249979418218215,0.0173469059359444,0.0389058565498826,-0.271321211118691,-0.963045366910624,0.0648088506998705,-0.0566807447935771,0.0980137621167397,-0.103678837802976,0.0828023660502091
75.685,-0.43914472824358,0.229329471571978,0.838787129161001,0.0217381532073395,0.0381234419808483,0.0173054805362066,-0.964812792289136,0.0592412705089565,-0.0529699056174639,-0.170547156987083,-0.141604403745202,0.0213256530646185,-0.948272501961742,-0.187551396434091,0.238859411217375,0.0758480442837651,0.0115136737442057,-0.302159375681621,-0.956018982178457,0.0722764971233316,-0.0573166011308763,0.110657970117177,-0.127341545167507,0.0699398871314678
75.69,-0.424353316105429,0.220780264596692,0.854428430787169,0.00949266406348718,0.0267944555797191,0.00156258056629544,-0.96933448953354,-0.00586775615656555,-0.0541360350106508,-0.176248714971137,-0.138976486906387,0.0285220327061866,-0.956154901228684,-0.175426905506503,0.209002437592664,0.202606978447326,0.000969407394219902,-0.349994163120966,-0.959717570117041,0.078820449403057,-0.0543173020544313,0.143514647648778,-0.118748529895938,0.0486495395801208
75.695,-0.44200098351375,0.197933558225618,0.860525754137124,-0.00393887380162851,0.0201506649004857,-0.0125805905779065,-0.980699984637755,-0.0703045706959037,-0.0695008257268428,-0.0452773608649878,-0.139664217940453,0.0387933544119984,-0.968459151862154,-0.168154891909537,0.157554155856445,0.304756686315086,0.0151402375804401,-0.367095277664721,-0.968770976153029,0.0773747509123549,-0.0515277632744696,0.171336373021064,-0.0859336725840279,0.0327662809889936
75.7,-0.461873534609738,0.211147566596774,0.854108310558427,-0.0027201797550183,0.0213693563495308,-0.00566832992400427,-0.995786849905858,-0.0849433595222765,-0.0830572741011345,0.118407271194325,-0.140384326935484,0.0388953379382573,-0.97818919160368,-0.160387774522268,0.0903367970003489,0.384005167433907,0.062321081620473,-0.377839460910629,-0.984133721455058,0.0804036568649133,-0.0523281276897529,0.188216135054009,-0.0542716938360719,0.0174672222618368
75.705,-0.460967557964679,0.222571900073867,0.85156759027264,0.00479550113980602,0.0280505662968463,0.00172658750821648,-1.01505152316734,-0.0338252646033611,-0.0851138982655019,0.285810430065655,-0.135309881034129,0.0426436768403421,-0.984099394873517,-0.157203140752216,0.0424322265554204,0.396530098534917,0.104514318488248,-0.380915511361629,-0.984791778545251,0.0853595234160887,-0.0637733371708408,0.193956395779472,-0.0252713811906853,0.0135187328882907
75.71,-0.456422296122202,0.223563891949587,0.853732875196108,-0.00102949351342672,0.0389420775003641,0.0126980157858884,-1.03590857969747,0.0335350383532838,-0.0836932354451075,0.415129533913387,-0.129283772226547,0.0402187403226503,-0.988808775406387,-0.154682840671233,0.00486373298389486,0.310983649450781,0.142162989782931,-0.382397800588893,-0.994084883877237,0.081339202305505,-0.0704744110251956,0.193464429690386,0.0131366795644827,0.0183274576142228
75.715,-0.454988760409413,0.223199463930428,0.854920511195664,0.0124887327094642,0.0438394153646968,0.026060149650015,-1.03880298182514,0.0986532960367531,-0.0740882311270201,0.379268816029484,-0.10773914759235,0.0355638690955983,-0.983204788251723,-0.158251220447075,-0.000809721022461892,0.135213431637926,0.181059367380924,-0.372745830659605,-1.02079704892863,0.0750948552879812,-0.0674415359875082,0.193316614615371,0.0552030071143035,0.0285432726460017
75.72,-0.450301342986102,0.244861796636684,0.844795165142921,0.0408175402532893,0.0420485925090029,0.0287463841904139,-1.03164973536415,0.154124191757976,-0.0611436305277745,0.317880878177363,-0.0938288310624959,0.0183674566213227,-0.977164474832511,-0.164104642671323,0.0142988540455296,-0.0377193905786686,0.200284572133036,-0.358167967131495,-1.0534779583882,0.0722043039471727,-0.0576339945884261,0.203093484044075,0.0810906897012529,0.0424844541018218
75.725,-0.436890727288053,0.261789869083271,0.835644193451765,0.0507126189768314,0.0409278958271885,0.0209315056906527,-1.00907422919294,0.194158893762101,-0.0377055232124532,0.22870362020528,-0.0793576295488882,-0.0132548113644044,-0.972351798810603,-0.180107430758258,0.0533312138143201,-0.220998853868258,0.215247070854349,-0.317093122807428,-1.09132119355246,0.0629642934017668,-0.0389557562594479,0.198692027454357,0.0936417395738631,0.0563578131115766
75.73,-0.420569342466185,0.272377088176522,0.838200877139816,0.0474500831448634,0.0312237020814021,0.00864259058378679,-0.980287194085457,0.192423922350511,-0.0175996511320889,0.116845486469946,-0.0502779222584976,-0.0503680918855115,-0.974271668331663,-0.197705520935543,0.107226656817684,-0.339550490706387,0.223206150649495,-0.269770729671687,-1.13392681411361,0.0559585835379452,-0.0197732700267514,0.185496772267058,0.0849212151545783,0.0801620492649966
75.735,-0.42379521668932,0.268057285569751,0.835138001300828,0.0401998046601558,0.0222484863554192,-0.0257843867743898,-0.960748124372161,0.186725523320729,-0.0166277163157612,0.0767705436788551,-0.0500001689845816,-0.0734989344502739,-0.98060072388062,-0.233761246615749,0.176696439192558,-0.420484754590188,0.217429065187677,-0.215457097785463,-1.14942037488063,0.0464424597600261,-0.0123912961392685,0.188683960822861,0.0578887655607597,0.0979761114398429
75.74,-0.430960577048183,0.271107155628677,0.82869486914166,0.0376551152461538,0.0137661831357613,-0.03596314701689,-0.955006761184927,0.175774933564934,-0.0242064457658302,0.0432141111567617,-0.0345823481881354,-0.0934514123263619,-0.983651308235126,-0.251253075249997,0.255800772552937,-0.459565409810784,0.189181263654509,-0.182399437993029,-1.16010036140809,0.0382220028724119,-0.0194143718618148,0.188646909582115,0.0257915579166972,0.113730684394147
75.745,-0.430633519116925,0.266476388968739,0.828746354075703,0.0254426822312523,0.0060438317639737,-0.0714389872236853,-0.988480914722339,0.15363225570567,-0.030901802714074,0.0514853048646483,-0.0149330166093889,-0.120875032089316,-0.986768738304844,-0.254266274291226,0.320764967643022,-0.432911807638181,0.151845847960489,-0.151690170520257,-1.16591214828379,0.0297239697250489,-0.0359973754629359,0.195765342641253,-0.0122428500922923,0.12828864352268
75.75,-0.420506549982467,0.274422941187149,0.838344759427283,0.0199442458644301,-0.0103545413271719,-0.101845027067876,-1.03732907394478,0.140166687891579,-0.0426964934832796,0.103285130773246,-0.00986749561579499,-0.152495577224275,-0.985490799322769,-0.256821654686432,0.375726327951188,-0.302775221991739,0.0914983289620028,-0.107528478366272,-1.1491832302842,0.0190167934512855,-0.0701473047825902,0.209067097799081,-0.043606717174767,0.157613497601801
75.755,-0.430862984476535,0.258697270099373,0.845065012569679,0.00329429672226726,-0.00490305233969866,-0.127437556395761,-1.04865048105536,0.150830310953091,-0.0469502874912171,0.164192614852407,0.0030795710204643,-0.183542052623971,-0.98677818614951,-0.263365217208514,0.386715568996257,-0.174640465490078,0.035916322851329,-0.0858829954037802,-1.13156012937781,0.013373749886049,-0.104512230912414,0.217719127912656,-0.0499271183979226,0.170273610264213
75.76,-0.437900159626592,0.256125863766371,0.849354277947951,0.00635450194429238,-0.00889373836159677,-0.154566099907647,-1.04345510363075,0.166864278141811,-0.0518586723644418,0.226101120213425,0.0132825847000969,-0.215524400076007,-0.990743406814189,-0.269735304058369,0.385128127220469,-0.0710520795298762,-0.0152633670958694,-0.0744458568919981,-1.11369554938444,0.00717521425206522,-0.134005550249574,0.223778451445236,-0.0539528175985638,0.177719703852928
75.765,-0.429420003996108,0.255144598291426,0.856574299151157,0.019092348047777,-0.0125951836968995,-0.186873420974933,-1.0325465595881,0.165585935056904,-0.0296787715884588,0.271665755825951,0.0252079051662801,-0.234682802163033,-1.00071640664487,-0.267805777354556,0.378028361449306,-0.0351546840260759,-0.0412904685221561,-0.0782183171150797,-1.09530718379653,-0.00300776516701563,-0.144808089919526,0.219706816517298,-0.0408675987975489,0.169551423544313
75.77,-0.419953129600512,0.269528887264471,0.855205188306846,0.0495177715347711,-0.0292029514168956,-0.239792144890996,-1.00996339552101,0.149484093675768,-0.00260602114579893,0.343233609479896,0.0423575172816431,-0.25463334739051,-1.02913300246389,-0.252559906259397,0.356440224558249,-0.055854505328727,-0.0672875631138465,-0.0684198420120053,-1.07981476405343,-0.00507377061641626,-0.145718329837394,0.202097058228885,-0.0141328921373494,0.159324015948963
75.775,-0.41692635568154,0.294908172842415,0.834993694744229,0.0508385203581231,-0.0377569650693575,-0.275578274860916,-0.995461688550119,0.150018408169821,0.0192242214403844,0.388174282733864,0.0577242945637661,-0.258532245498193,-1.05473180066675,-0.223140480193251,0.351445590865671,-0.13599323894295,-0.0767928606938254,-0.027643965017927,-1.07636315973077,-0.00814174434449337,-0.135888834640895,0.18045256442745,0.0117186565654715,0.126344709398961
75.78,-0.406703851916682,0.304102685342564,0.829431920886422,0.0536671510534738,-0.0550091900787664,-0.334563499243395,-0.993194963204502,0.162756802650602,0.0506615904265248,0.446122286500639,0.0758615083240948,-0.252642333523355,-1.0636927730321,-0.199431727195156,0.341275435947235,-0.234659311683449,-0.0759982749227025,0.0657907178118554,-1.07858411832275,-0.00471616280571783,-0.12409711230051,0.146005046806472,0.0273272825142699,0.101578210963385
75.785,-0.39191322753826,0.297557840152063,0.84089212131561,0.0653676282372158,-0.0638906346949886,-0.397484683938842,-0.994770987709185,0.179906106640848,0.0770855102041065,0.442506070551826,0.0933558967184519,-0.250613500138112,-1.06383247774605,-0.19257896374882,0.327087439134143,-0.316167352867479,-0.072521700993194,0.156662099232102,-1.08235040108908,-0.0121574082654858,-0.109876171090603,0.12617710398001,0.0381545550134185,0.0824344855469732
75.79,-0.370680175667297,0.29730856350761,0.851526525659757,0.088475214568481,-0.0745785180017228,-0.475435931056495,-0.994653094325577,0.194116302455291,0.0803834431107877,0.392686346553626,0.118830131946808,-0.242550787923474,-1.06146758984532,-0.191254968735973,0.311121937788344,-0.376039013668886,-0.0643080780239053,0.241030004688841,-1.08675526658593,-0.0181787273060671,-0.0880626494533685,0.102801755059396,0.0478618831872081,0.0642266735020669
75.795,-0.391162154758125,0.312372156232999,0.855555291504246,0.0941301247746816,-0.083359930786384,-0.561744644816242,-0.989765618571001,0.190240101880542,0.0627319294276652,0.344051819939425,0.141046054289708,-0.233169142271577,-1.06326965546906,-0.18590980866517,0.291663504789086,-0.412221462412812,-0.0548425429876931,0.317696527880193,-1.09155712547494,-0.0274626370454461,-0.0671354682178733,0.0765470773554999,0.0575124589772272,0.0655769046134969
75.8,-0.384706251184664,0.34076460781713,0.84373395229673,0.110372009164068,-0.0633680476946212,-0.592900595166338,-1.01502077317796,0.166472488331564,0.0434165876862418,0.207069950820384,0.183958465663098,-0.216964193096491,-1.0792575123964,-0.17426004621665,0.254382765189197,-0.398359399976225,-0.0628687106253297,0.337221884756341,-1.09710524271095,-0.0496994072340575,-0.0538874062931589,0.0377078726148863,0.0589840465785549,0.0772110815911912
75.805,-0.418573447982323,0.338335752440354,0.833861687958788,0.0638414860327848,-0.0112024354199157,-0.593041179310061,-1.04296288739543,0.121195824240795,0.0261709050589171,0.0982483153565684,0.208729929390302,-0.207981291874374,-1.08778579886413,-0.171031768553388,0.216676637324869,-0.368056675557015,-0.091719113186368,0.323973648219454,-1.09464250536795,-0.0551318987516713,-0.0524752044436154,0.0321649610957891,0.063505213708964,0.0850886675568958
75.81,-0.422028182791649,0.2433214116212,0.898462876687819,0.0198998339805021,0.0539350870520855,-0.58531814260519,-1.06528769487493,0.0657286755963046,-0.00632341130351112,0.0359059020874802,0.229595219450158,-0.204516414006718,-1.09198031749642,-0.175270132868307,0.158930344745542,-0.315467244843118,-0.12424848193978,0.27251564903434,-1.09995917686581,-0.0577278379634457,-0.0577209344161427,0.0377808622687029,0.0685795523124612,0.0970112334557181
75.815,-0.466051063378157,0.186531951402978,0.916140928948272,0.0836727606573185,0.0546892454672531,-0.650585422794999,-1.1215762973629,0.0394378433734917,-0.0647023628785754,0.0609046091295212,0.25156371059784,-0.21645689329092,-1.09047438153409,-0.19160161052087,0.0775089171917734,-0.250663181643208,-0.161862476449262,0.209321676164307,-1.08733943473181,-0.063029595092718,-0.0798692737676044,0.0496169731151487,0.0745615911856045,0.117736998196568
75.82,-0.440693142221567,0.264241884193411,0.864428091611195,0.164247974188465,0.0924110049535879,-0.626626387493043,-1.15569537061668,0.0154194039218658,-0.06718360809562,0.0725795366982556,0.259881334789816,-0.224848384579635,-1.09351606254812,-0.194184972178152,0.0100771251431814,-0.206721724051451,-0.172746647208794,0.159751814801633,-1.07301194161958,-0.0559660432159529,-0.0943109562328044,0.0649974124801505,0.0802280362501936,0.136153059389309
75.825,-0.490056912561714,0.269174685726863,0.87110173723829,0.164704018257826,0.143116809653526,-0.668175671675246,-1.14921038404968,-0.00851541620064454,-0.0626825070775151,0.154191806641787,0.27981080268471,-0.210534494053807,-1.11233394212452,-0.178865259680197,-0.0902196442606622,-0.114214771453409,-0.146877632150186,0.110665164979293,-1.05648241913909,-0.0438400162158311,-0.123693190716999,0.110404814544554,0.0898480320313514,0.165529751833767
75.83,-0.500076765905299,0.241561160633459,0.888980113806077,0.196123380996632,0.187254355544033,-0.690362008894374,-1.13523939884491,-0.0173471374569846,-0.0363867865476958,0.293239770268233,0.260897403165544,-0.196467019337905,-1.13005622314104,-0.170845574829624,-0.133682557979676,-0.075578583367499,-0.115717483184054,0.106707462843883,-1.02236535894017,-0.0268648944032825,-0.139760518734596,0.160394156596913,0.0943689842074815,0.171129870526249
75.835,-0.47983670035841,0.222888677532288,0.880148436214934,0.244403114006297,0.236583641009557,-0.709254055512684,-1.1122112716683,-0.0410778742845124,-0.0512347073542132,0.408710203955185,0.231504938913512,-0.17757185094361,-1.14304478583974,-0.168468605817694,-0.168892723552128,-0.0501894744809042,-0.0903283646201395,0.0993023005745974,-1.0144326149924,-0.0122737838573568,-0.142701447636518,0.182620656163134,0.092252176569197,0.176421896076705
75.84,-0.466702171368317,0.244956598109721,0.8783855530555,0.259150487773633,0.288694824185856,-0.715528130531311,-1.090698433614,-0.083756645155045,-0.0605965061463917,0.53110839303129,0.219324648256669,-0.15070261941977,-1.13999977674326,-0.184287581235553,-0.198674917205696,0.0124312594975916,-0.042954459621862,0.0819719751139252,-0.992347874074431,0.00877320778516685,-0.136735136938042,0.210845258973946,0.0986858788963028,0.17693318426609
75.845,-0.455323975238076,0.212114766714016,0.891960374183172,0.24528039458039,0.351330946189154,-0.711746073122945,-1.08599144169708,-0.111937964564119,-0.0108126848729514,0.639036246815565,0.200105205739201,-0.138833380471149,-1.11137275147614,-0.20999563767419,-0.200931586421486,0.0957354571909826,-0.0102388925023182,0.0815931530130839,-0.977730087224019,0.0240942002267851,-0.126681827269469,0.214254964287272,0.0953222608355434,0.168489569749475
75.85,-0.462638368250354,0.190947804844637,0.911816886360794,0.321628572438651,0.406428694512187,-0.707913451506342,-1.10172482912605,-0.103199861437434,0.0449561190719104,0.806071331061161,0.0492222277441473,-0.120677945276013,-1.07570154616299,-0.246037158777139,-0.188054965043602,0.175004352212595,0.0222920660462202,0.0786013804643427,-0.9758785892582,0.0308551602788692,-0.119218820947141,0.203694013111547,0.0850413128034951,0.162434760544927
75.855,-0.475528829721122,0.212091675779485,0.893422356909108,0.411627133147813,0.447840290840247,-0.701777546241202,-1.06363328808983,-0.0910926742722939,0.0118682573046867,0.920668342601197,-0.0884455800389605,-0.0953677863123549,-1.03516214091984,-0.293791714729767,-0.149341124832132,0.248666830388483,0.0499930264210811,0.0811371616545146,-0.979360277645421,0.0329593873209941,-0.106952228246055,0.168505086245996,0.0763374458347478,0.156452380091867
75.86,-0.43204498962105,0.177931157099943,0.912398685035852,0.419137761800048,0.486653369480673,-0.690413323471992,-1.0152150982852,-0.109571399068755,-0.0661337657036578,0.893755251292441,-0.130149190575199,-0.0646292459423263,-1.00350278713836,-0.332624587371476,-0.0930002162715596,0.270020521696567,0.0831410550748003,0.0700400171055184,-0.982665975343775,0.0291143575113418,-0.103965312581768,0.151347677235537,0.0477473014634466,0.153055814445606
75.865,-0.33196430932215,0.118624919095157,0.94786580108067,0.49257515394091,0.505755300646673,-0.681276890860916,-1.0399719286278,-0.116961529636887,-0.0946352964960057,0.833735533396332,-0.142797072411241,-0.0373761494147636,-0.244907662935067,-0.350319686178922,-0.0367932955719037,0.353938305870281,0.0232767306222526,0.0651678791195359,-0.998063971999498,0.030251858898347,-0.0945495709259213,0.125830714297522,0.0150656569854745,0.154100419869183
75.87,-0.193242422837131,0.284079107311663,0.967125596517993,0.936591798001299,0.40014077742648,-0.809616264509327,-1.13303307180339,0.167743994704464,-0.00249461432110737,0.793431158928646,-0.164950905040546,0.0513454043749854,-0.964850291968738,-0.369756338657305,0.0216837507390443,0.0514588673547922,0.0973902771108615,0.074971220901342,-1.00853429996067,0.0147390917506898,-0.0956575820465346,0.116251838630335,-0.0154557243451648,0.159930796752346
75.875,-0.862332725857885,0.754927286438319,0.771327706839764,0.911734926142137,0.404183751222612,-0.858191655705297,-0.887610766504298,0.438976598104518,0.23111280993274,1.09318781997028,-0.350197105031264,0.120021256765253,-0.943363666162098,-0.394245582059151,0.0332691505627249,0.0023250171125199,0.109486594110722,0.129400001167239,-1.00663198922962,-0.000573096280454747,-0.0921368399316868,0.116703053860509,-0.0344006561559946,0.166551710907866
75.88,-0.417691597004064,0.219058920188765,0.86214206995936,0.643315082404483,0.502889215938908,-0.865275688260593,-0.90816063065016,-0.0539456566871385,-0.178311088612588,0.473276790674913,-0.284316779845546,0.222701745674855,-0.926503053283509,-0.397905462347167,0.027160594490985,0.0226012980777633,0.140078504286127,0.183228147025359,-1.00068590976037,-0.0220325821685904,-0.0845534730213272,0.126409639752151,-0.0488444444654562,0.181705654566607
75.885,-0.467957200800671,-0.31585746353645,1.01648927629847,0.611215989277356,0.544224037451469,-0.792780579710724,-0.866095455997983,-0.42247426707384,-0.285935848043772,0.689004367884851,-0.190240477603734,0.0688738014182422,-0.90850707006447,-0.385153231253816,0.0203778882838396,0.0493617760499862,0.174987809445437,0.238320020965017,-0.988046659625629,-0.0431461306292477,-0.0821776416293023,0.133018848302022,-0.048885251579627,0.19328743235736
75.89,-0.742113367560772,0.038958987254566,0.829015728271419,1.03496581256504,0.422057869340947,-0.701557609736612,-0.934487442594819,-0.351392078123852,-0.215679804185973,0.971791493950212,-0.16101833155608,-0.0964598810415032,-0.883738636805562,-0.36545562138693,0.0265499723000703,0.046958401681471,0.181883843131471,0.286334872495239,-0.972350792029286,-0.0544444465734533,-0.0853823147151912,0.167795828036215,-0.0309712091043591,0.211022452395039
75.895,-0.573564071707588,0.402693346924236,0.7135765949208,0.852352214243346,0.392694013833334,-0.588393958783931,-1.05209219966428,-0.0720924860286835,-0.24633648212304,0.737750374315757,-0.117948712742938,-0.0985350930777168,-0.832604327126222,-0.348903737520798,0.0853603745142554,0.0230218814364869,0.148738882837808,0.338176576573758,-0.959845866262923,-0.0652756910286833,-0.0883085507191778,0.203838345206155,-0.0171152141853015,0.22393861032239
75.9,-0.501067405280697,0.236256777321312,0.808121025399192,0.693748704194239,0.332924731580052,-0.556853924885981,-0.945835546864469,-0.107428755447875,-0.188692454818045,0.712532320823133,-0.088642579298239,-0.0462582165101055,-0.791338795840063,-0.350244040333032,0.124264836736576,0.0730269152497156,0.114877936436383,0.358263186176567,-0.949133808140839,-0.0698031432942129,-0.083849496296362,0.242907434759386,-0.0163668418312069,0.234080068950654
75.905,-0.455733537653792,0.12933946148198,0.839311273173122,0.66082161711832,0.244336524145267,-0.542161798419111,-0.830412510446343,-0.135299505150236,-0.150617394521234,0.778635258187491,-0.0437165621085555,-0.00951440760576907,-0.761070573919251,-0.342555805908959,0.121139352832669,0.134613875306664,0.0940025550974008,0.304373493331122,-0.945830859440214,-0.0750934373256539,-0.0765888257797128,0.267065780122173,-0.0262503991418548,0.224928382509999
