Header,foot_Accel_X,foot_Accel_Y,foot_Accel_Z,foot_Gyro_X,foot_Gyro_Y,foot_Gyro_Z,shank_Accel_X,shank_Accel_Y,shank_Accel_Z,shank_Gyro_X,shank_Gyro_Y,shank_Gyro_Z,thigh_Accel_X,thigh_Accel_Y,thigh_Accel_Z,thigh_Gyro_X,thigh_Gyro_Y,thigh_Gyro_Z,trunk_Accel_X,trunk_Accel_Y,trunk_Accel_Z,trunk_Gyro_X,trunk_Gyro_Y,trunk_Gyro_Z
0,-0.588200318774944,0.326138825425754,0.739377903080884,0.00675229713952274,0.0032036150791537,-0.00833867729802523,-0.993904272894508,0.073182532727569,-0.0809815684435178,0.010849191634252,-0.00202131426541941,0.00105170426288411,-0.951171864337881,-0.279569819573611,0.127522808997403,0.0130641341604657,0.00336964014673445,0.025919911457491,-0.984293594941115,-0.0946836152888621,0.157180694737103,0.0207232803045046,-0.0067520765248547,0.0110194335777316
0.005,-0.588219491814535,0.325863011911898,0.739350765708803,0.00660600490601333,0.0033286022126669,-0.0083127764507256,-0.993948983697011,0.072889030479241,-0.0809030851291886,0.0107640293691298,-0.00199359640182158,0.000925498314439388,-0.951014867748415,-0.279783546258545,0.127101370928471,0.0130487635876348,0.0032282157046303,0.0263959126587076,-0.985379842364543,-0.0940439233234266,0.154253645184324,0.0208289983983615,-0.00716405918204915,0.0111393403308405
0.01,-0.588496878706305,0.325172350322382,0.739691980116794,0.00621612722833198,0.00353051871591363,-0.00816296492969391,-0.994182313490333,0.0719587112187524,-0.0809611082678806,0.0104736356050733,-0.00194127143114138,0.000628943616808764,-0.9509257460087,-0.280112114125946,0.127009739625325,0.0128964470255827,0.00287946459465128,0.0272074228786398,-0.986354001564672,-0.0921538610547051,0.151745928823827,0.0208602792065132,-0.00801738474831875,0.0113033810393324
0.015,-0.589018626285397,0.324386512080081,0.740391929255863,0.00564300694839889,0.00363434722471954,-0.00782507894873871,-0.994547069889347,0.0707569494066396,-0.0812338251446773,0.00995801840998183,-0.001901512513782,0.000246932402639141,-0.951094229536334,-0.280237705546606,0.127630855028124,0.0125162836973076,0.00240240639266752,0.0277465441342767,-0.986146994659133,-0.0897549474186452,0.152594475144451,0.0205551925441861,-0.00892624525835207,0.0113193744387395
0.02,-0.589493482808467,0.323698890230306,0.741044584014781,0.00491301254560968,0.00363844301013718,-0.00732028836353426,-0.994875740406438,0.0697214173302331,-0.0815144618222869,0.00925237472700002,-0.00188404530142196,-0.000212513048015384,-0.951249635758678,-0.28039727973881,0.128159442736297,0.0119441057728205,0.00181251086874691,0.0280352562588623,-0.985953122839513,-0.0877540430998216,0.153416399703312,0.0199676558878085,-0.00987906427222093,0.0112055419201716
0.025,-0.589909655982342,0.32313301925439,0.741637645410277,0.00406125978903747,0.00354098028537749,-0.00667871007849335,-0.995149895476657,0.0688943135365471,-0.0818014698754805,0.00840340731952122,-0.00189504612536315,-0.00073758503174406,-0.951384330154715,-0.280576747365506,0.128576563359631,0.0112267932165884,0.00113104300829497,0.0281049553060233,-0.98572769283783,-0.0862253801166577,0.154281881153518,0.0191628767339109,-0.0108494256893783,0.0109891752176559
0.03,-0.590264393815103,0.322707715356726,0.742174629151456,0.0031298038787223,0.0033304522431814,-0.0059343103615912,-0.995358480281023,0.0682966579701135,-0.0821014279847576,0.00746612244799312,-0.00194287897375687,-0.00131359429729556,-0.951491356519267,-0.280787702985888,0.128878392759865,0.0104190441857956,0.000383806107709493,0.0279874070636634,-0.985436092892547,-0.0851825128784912,0.155240143481165,0.0182078819427769,-0.01179793814578,0.0107010548218832
0.035,-0.590559809579663,0.322425872419446,0.742643180558306,0.00216257358706871,0.00299104931730751,-0.00511861538376114,-0.995497782759,0.0679269050691802,-0.0824173381748896,0.00649568504164172,-0.00203893497550917,-0.00192422091599514,-0.951566940010632,-0.281032111945122,0.129073455483465,0.00957531235371347,-0.000401659956548902,0.0277102232810093,-0.985070378533029,-0.0846155869396127,0.156293533894389,0.0171644558737464,-0.0126809425866142,0.0103704462819684
0.04,-0.590794303595067,0.32226910025771,0.743015985969076,0.00120205703519754,0.00251801767593278,-0.00426207008495216,-0.995565594365333,0.0677710695586499,-0.0827457032995995,0.00554449447376211,-0.00219092302859362,-0.00255297653911185,-0.951607936998085,-0.281288916803429,0.129171457217246,0.0087471908359958,-0.00119840951090339,0.0273034518693973,-0.984637597890331,-0.084515596048645,0.157413578625595,0.0160919262355285,-0.0134587944751079,0.0100253890821665
0.045,-0.590964697103495,0.322213499250341,0.743277818200744,0.00028995950941716,0.00191833535012943,-0.00339805143501971,-0.995560145081233,0.0678100997051301,-0.0830842916081633,0.00466542308437822,-0.00240191316301566,-0.00318416652005795,-0.951610490929493,-0.281542342105867,0.129182133256252,0.00798683319896968,-0.00198043861704395,0.0268012092575948,-0.984139819382676,-0.0848430749316939,0.15857592555734,0.0150499960204308,-0.0140970071971193,0.00969160261950286
0.05,-0.591074722611171,0.322245365891133,0.74342174775648,-0.000534617258215762,0.00120266765587223,-0.00255935178667975,-0.995484366915844,0.0680176558888303,-0.0834294267243572,0.00390850053339129,-0.00267432572959514,-0.00380322310341586,-0.951573991017566,-0.281786803924136,0.129121814996704,0.00734351907728156,-0.00272347506326761,0.0262347912261537,-0.983576813965807,-0.0855048378687856,0.159763071135495,0.0140907708631594,-0.0145654912212246,0.00938875551457127
0.055,-0.591133480861173,0.322358052003459,0.743442298585585,-0.00124156015031978,0.000388715838948132,-0.00177063048351631,-0.995347734274471,0.0683579964582701,-0.0837713363263393,0.00330982415652908,-0.00300824101316082,-0.00439711195862026,-0.951502943004986,-0.282017878403616,0.129014726026409,0.00685248067866577,-0.00340763964564965,0.0256302972903254,-0.982951274358858,-0.0863698298455485,0.160958730814764,0.0132473778662874,-0.0148410188514045,0.00912926806426259
0.06,-0.591144296566843,0.322536428306632,0.743351837630453,-0.00181221549888056,-0.000499258845484966,-0.00104624943642083,-0.995162573476962,0.0687921400544958,-0.0840989956347742,0.00288781696349723,-0.00340207453337351,-0.0049548211751404,-0.951403727175616,-0.28223387225509,0.128884932631877,0.0065312560854628,-0.00401861655646466,0.025007108612489,-0.982268959023742,-0.0873127841135127,0.162147723093336,0.0125299362819133,-0.0149071219066865,0.00891675753690334
0.065,-0.591098972501356,0.322743534010553,0.74317466994661,-0.00223475318386576,-0.00143813899589546,-0.000397971940044081,-0.994940294087703,0.0692859861026574,-0.0843997366656757,0.00265278909019523,-0.003855180477235,-0.00546776025485123,-0.951284123497212,-0.282415016664825,0.128746814582816,0.00638942072454552,-0.0045460248684632,0.0243782351866887,-0.981555305772398,-0.0882710931641365,0.16329324955683,0.0119348395941174,-0.0147545432089429,0.00874694559405073
0.07,-0.590985204265465,0.322934071167506,0.742937263309696,-0.00249897577928439,-0.00240457881137514,0.000153467155515351,-0.994694252453813,0.0698124395446315,-0.0846591051572901,0.0026184218633138,-0.0043635009685628,-0.00592997488786344,-0.951156545161833,-0.282527482925495,0.128609067027935,0.00644019226475092,-0.00498157629757387,0.0237583029492362,-0.98085127385474,-0.0892238395052314,0.164346163236726,0.011460498642428,-0.0143871236755911,0.00861413100742189
0.075,-0.59079877472157,0.323087134989363,0.742687299589196,-0.00259583190052138,-0.00337673558477448,0.000577989137227352,-0.994445796425117,0.0703476956142169,-0.0848706937839182,0.00280171960748551,-0.004921085947455,-0.00633741694308094,-0.951038500426842,-0.28257926458074,0.128489104030094,0.0067002328661799,-0.00531829774684931,0.0231619262050183,-0.980174838912413,-0.090097241368828,0.165302627670887,0.0111068231323861,-0.0138200772674191,0.00850966047499056
0.08,-0.59054653802611,0.323208155165378,0.742485519776034,-0.00252071076472739,-0.00434518558392134,0.000847428116914752,-0.99422228993412,0.0708653616616596,-0.0850342482222524,0.00321323835329861,-0.00553088769429416,-0.0066868147399982,-0.950948768534881,-0.282619140709282,0.128413819320842,0.00717964466524935,-0.00555082136037654,0.0225900702566249,-0.979524064675322,-0.0907753991329039,0.166195051464398,0.0108599286815843,-0.01306919125752,0.00841189806389868
0.085,-0.590241149256089,0.323301605347821,0.742359699819672,-0.00227723138923272,-0.00530998140626841,0.000942958385667015,-0.994047402352732,0.0713352830589845,-0.0851406727433564,0.00384981413638375,-0.00620389177089709,-0.00697609623872958,-0.950902962400405,-0.282666559809188,0.128405712451643,0.00787492750648051,-0.00567725716666673,0.0220308999964441,-0.978923925485357,-0.0912143288417794,0.167016555401217,0.0106917318135196,-0.0121503037984336,0.00828891508665368
0.09,-0.589898917698869,0.323366119260076,0.742294707503727,-0.00187931339290186,-0.00626423566557884,0.000854487226262197,-0.993935417751954,0.0717318261922103,-0.0851738093892955,0.00469325773179368,-0.00694619646986,-0.00720543640916256,-0.950911425665745,-0.282698734534168,0.128477873893122,0.00876802905515787,-0.0057010863300915,0.0214747255027418,-0.978426961452711,-0.0914563484886168,0.167716690544824,0.0105751415467604,-0.0110894082194262,0.00811272331288423
0.095,-0.58953995924274,0.323410142972005,0.742261419250142,-0.00135077551184685,-0.00718971220437194,0.000579822372968697,-0.993890001883129,0.0720411456140268,-0.0851243630178332,0.00571045172610646,-0.0077549057601248,-0.00737645898183963,-0.950976219280399,-0.282696153695403,0.128637246275108,0.00982620049737833,-0.00563055607049442,0.0209175392321927,-0.978069991573051,-0.0915592230353031,0.168262229536205,0.0104893829416118,-0.00992458593269081,0.00786357467679813
0.1,-0.589184988356774,0.323450112826409,0.74222542604621,-0.00072413441811912,-0.00806338743578358,0.000127530189479157,-0.99390143569851,0.0722572243384031,-0.0849899904016759,0.00685320085259467,-0.00862184765843405,-0.00749128732006245,-0.951086100971978,-0.282648567308234,0.128880973201318,0.0110016005298051,-0.00547759760462541,0.0203564669774684,-0.977862739075141,-0.0915996311356006,0.168648974090795,0.0104183634974321,-0.00869837355684329,0.00752845778552538
0.105,-0.588852851530595,0.323497338867008,0.742146102640137,-3.95892828994027e-05,-0.00885871027317855,-0.000480281164453295,-0.993949145869915,0.0723777942056654,-0.0847717525704125,0.00806007032069611,-0.00953208977152908,-0.00755341167543582,-0.951219124418387,-0.282538818722651,0.129195081832972,0.0122334727254784,-0.00525837767575532,0.0197934997442878,-0.977804934983411,-0.0916956232650068,0.168875950942395,0.0103574476613981,-0.00745278974236506,0.00710742920352366
0.11,-0.588560932069356,0.323558005882,0.741998024932864,0.000658457137151351,-0.00954751067756683,-0.00121105297188079,-0.994012226306388,0.0724090188441831,-0.0844817100545449,0.00926269369324961,-0.0104629930874666,-0.00756782367497252,-0.95135405680635,-0.282359112710892,0.129563669226166,0.0134545476004186,-0.00499223853493528,0.0192385993072635,-0.977885099711327,-0.0919493554605692,0.168952370053819,0.0103179591478599,-0.00622787827567081,0.00661639207038541
0.115,-0.58832426362391,0.32364240750462,0.741788260903292,0.00132889537404879,-0.0101092088004709,-0.0020283187206667,-0.994075376489232,0.0723690459186904,-0.0841485138681637,0.0103965218983743,-0.0113905084365662,-0.00753921521683383,-0.95147681086385,-0.282127365628988,0.129973884297745,0.0146012566700096,-0.00469753696393558,0.0187035352207392,-0.978062663181297,-0.0923902367328534,0.168927212278982,0.0103200461458078,-0.00505763693240929,0.0060780832978524
0.12,-0.588153676740495,0.323769476201247,0.741546477288641,0.00194457017297949,-0.0105381661318096,-0.00289292497248623,-0.994127441959374,0.0722840452505236,-0.0838111800733035,0.0114149041309011,-0.0122966874004421,-0.00747051087969327,-0.951579135842077,-0.281874433897794,0.13041218466578,0.0156273288002692,-0.0043871033336519,0.0181949712930502,-0.978264637364542,-0.0929829216873075,0.168894148130261,0.0103833369907416,-0.00396120719577374,0.0055118254637343
0.125,-0.588056415822358,0.323960694291564,0.74129778176511,0.00250065983069094,-0.0108425074467515,-0.00375975604219736,-0.994162913146984,0.0721805657192253,-0.08350347474954,0.0122999707318612,-0.0131726386973112,-0.00736266870953158,-0.951660324650652,-0.281618968712907,0.130864521792731,0.0165145478318826,-0.00406578607996148,0.0177127832725149,-0.97842227112834,-0.0936637052111178,0.168941224165121,0.0105215618896849,-0.00293612006400673,0.00492873275974268
0.13,-0.588037080375656,0.324228480243038,0.741039552765761,0.00301072808267588,-0.0110333636639788,-0.00457974304770098,-0.994185881667255,0.0720789463151296,-0.0832384533173751,0.01305768272396,-0.014014091245092,-0.00721499542281074,-0.951731055017431,-0.281351455748403,0.131321423169384,0.0172678621949252,-0.00373194932677152,0.0172536202482192,-0.97852103197584,-0.0943726177673512,0.169083984715874,0.0107402870194681,-0.00196683668171792,0.00433230082799015
0.135,-0.588093708946594,0.324571728574708,0.74074939197267,0.00349308840280107,-0.0111117064725261,-0.00530796999554835,-0.994206210948658,0.0719920906565512,-0.0830095944557735,0.013700775565088,-0.0148137033409592,-0.00702567520164786,-0.951807717584457,-0.28104743470512,0.131776416666176,0.0178984956999562,-0.00338169804171196,0.016815960296986,-0.978594838813282,-0.0950663075762852,0.169275369076242,0.0110370111860111,-0.00104332046103332,0.00372245895672345
0.14,-0.588212427420776,0.324981137096592,0.740413857159758,0.00396240945339102,-0.0110671830415763,-0.00590957760826342,-0.994230231614341,0.071928544850283,-0.0828057981673312,0.0142391872953294,-0.0155606638560048,-0.00679276572239382,-0.951900123398949,-0.280698413101729,0.132218105267281,0.0184147026790691,-0.0030117400921451,0.0163997957042455,-0.978671859640633,-0.0957146506852214,0.16948050859821,0.011402944707932,-0.000166819695436145,0.00309912664970755
0.145,-0.588369591471906,0.325446244754068,0.740032737982085,0.00442984726923298,-0.0108864769153202,-0.0063600220745542,-0.994258082888044,0.0718937683759118,-0.0826184850101414,0.0146815846894612,-0.0162470831866937,-0.00651549945472766,-0.95200758054843,-0.280318803720475,0.132628281176936,0.0188237684417184,-0.00262004530047958,0.0160024643311531,-0.978748735307053,-0.0963041402209475,0.169709132776534,0.0118265078028832,0.000659713890039053,0.00246375412704822
0.15,-0.588542636556874,0.325961826142611,0.739599329307356,0.00490420705742189,-0.010553602241579,-0.00664166915167091,-0.994289509471749,0.0718878028466499,-0.0824365264352041,0.0150368774696665,-0.0168706081781214,-0.00619517011121437,-0.952125999181584,-0.279925420057933,0.132990025117298,0.0191340156483447,-0.002206278079535,0.0156195376974978,-0.978810622939177,-0.0968429067411198,0.169984922312799,0.0122996366220281,0.00144030498615427,0.00181982408934011
0.155,-0.58872282216018,0.326534798056795,0.739102329770399,0.00538996425476271,-0.0100424019068421,-0.00673731346375802,-0.994330945450423,0.0719031952364293,-0.0822432426674922,0.0153094839841307,-0.0174307503299449,-0.00583516315378303,-0.952257225970691,-0.279525544452727,0.133298717466433,0.0193502887310255,-0.00177292044677873,0.0152499215858314,-0.978859180447221,-0.0973382949833812,0.170310020377223,0.0128218881862672,0.00218564743309103,0.00117239409861873
0.16,-0.5889153883534,0.327179901956425,0.738557675374436,0.00588303429061615,-0.00931974640864463,-0.00662289587823822,-0.994396177004033,0.071927994977279,-0.0820226293354076,0.0154905294392471,-0.0179255219904272,-0.00544013444222265,-0.952411191577347,-0.279127452848254,0.13356411434385,0.0194647993583478,-0.001326356755218,0.0148955045573472,-0.978920549934119,-0.0977718857402148,0.170658399712894,0.0133945834952327,0.00290478853778084,0.00052592386770352
0.165,-0.589125132437745,0.327901116375588,0.738026640829182,0.00637083084525077,-0.00836426263093444,-0.00626927032739116,-0.994499035296955,0.0719514852506943,-0.081767636088356,0.015557911345791,-0.0183540343267603,-0.00501503286593346,-0.952598404529359,-0.27875270809306,0.133800387592309,0.0194566515072667,-0.00087579105859235,0.0145547733304342,-0.979031529478464,-0.0981148581662696,0.170990891118449,0.0140144266065558,0.00359737757004203,-0.000118355893814282
0.17,-0.589352106786554,0.328684256957357,0.737590905455762,0.00683719148401701,-0.00718400125860417,-0.00565228781689244,-0.99464794361114,0.0719638193279199,-0.0814796371883022,0.0154864257737814,-0.0187216264010938,-0.00456482645006752,-0.952823857923579,-0.278428846237998,0.13401970127401,0.0193018021554837,-0.000430755860142473,0.0142184163033113,-0.979228727144444,-0.0983490203996307,0.171262972172101,0.014675476597146,0.00425254278908069,-0.000762604888868248
0.175,-0.589593140229141,0.329497572228352,0.737311739307728,0.00726245824305883,-0.00581811602394997,-0.0047565308479637,-0.994843414094522,0.0719533866282006,-0.0811618508096575,0.0152493406492525,-0.0190389189312257,-0.0040947132314592,-0.953085328123813,-0.27817051533712,0.13423039094419,0.0189745970512265,-1.05893155809885e-06,0.0138698255116104,-0.97954004697109,-0.0984705890183025,0.171434875231222,0.0153679369232894,0.00484858097534132,-0.00140948404229145
0.18,-0.589826901584064,0.330279075719586,0.737218134558188,0.00762216432919679,-0.00432599938171168,-0.00358064790871053,-0.995072424415564,0.0719107790905728,-0.0808167931542188,0.0148185116114326,-0.0193177818294071,-0.0036106924343712,-0.953368923087932,-0.277972923348949,0.134427915818104,0.0184479127670339,0.000402482197834718,0.0134884648614779,-0.979965734285253,-0.0985050341529008,0.171497439433463,0.0160771379459046,0.0053568864261325,-0.00205745154144345
0.185,-0.590014295775255,0.330944407814313,0.737320488602211,0.00789141071006741,-0.0027787169439277,-0.00215288053577591,-0.995311636948249,0.0718300424562976,-0.0804444603623914,0.0141759538087147,-0.0195712146945476,-0.00312051453613263,-0.953651901742241,-0.277817812182477,0.134596105097343,0.0177050384469523,0.000769369326349887,0.013053793871247,-0.980485122428487,-0.0985010108117222,0.171462299983251,0.0167911567104163,0.0057520751646613,-0.00269591014620041
0.19,-0.590122791614647,0.331422024949927,0.737609315889736,0.00804438381538335,-0.00125586482599525,-0.000532914328413908,-0.995541100057768,0.0717030115797672,-0.0800381012647238,0.013313863882121,-0.019811839445255,-0.00263387339036956,-0.95391453603954,-0.277680164413511,0.1347239853603,0.0167398235761643,0.00108916915822708,0.0125477910267962,-0.981080101285307,-0.0984929851269563,0.17133190034762,0.0175002706719165,0.00601299481801107,-0.00330369978046384
0.195,-0.590126639656031,0.331658330996271,0.738043782408207,0.00804880739051013,0.00016690700431637,0.0012007851463337,-0.995747582628726,0.0715198068229391,-0.0795860281899615,0.0122219169623656,-0.0200476722962732,-0.00216171760159363,-0.954141847126935,-0.277536146956056,0.134808658490649,0.0155439782120937,0.00134950426226728,0.0119581381691285,-0.981722469322354,-0.0984996059689771,0.171117831918857,0.0181916455880868,0.00612080278243814,-0.00385349627457537
0.2,-0.5899967375225,0.331599634970492,0.738577977163587,0.00786782567970023,0.00143477146405698,0.00295232886653066,-0.9959188931302,0.071274925167103,-0.0790790544654401,0.0108884416291717,-0.0202820835879947,-0.00171580277328015,-0.954319293635636,-0.277366438966622,0.134846594473751,0.0141085756943389,0.00153673209107943,0.0112829147399459,-0.982370291341005,-0.0985437486629115,0.170846174817653,0.0188572697554051,0.00606763452712555,-0.00431831525392871
0.205,-0.589717013518043,0.331197031046022,0.739211453542011,0.00746437258664859,0.00250440200767195,0.00460405662430834,-0.996044190734082,0.0709694162842494,-0.0785151328570427,0.00930773542991122,-0.0205154539977906,-0.00130816750486006,-0.954437092815177,-0.277150029426377,0.134835193425155,0.0124312578486987,0.00163796503136909,0.0105303697972151,-0.983010434800705,-0.0986391393447617,0.170505147427871,0.0194974386062148,0.005856191112979,-0.00467295928251458
0.21,-0.589296985380297,0.330422599155895,0.739990474534767,0.0068007476247255,0.00331106887578568,0.00602011598515259,-0.996116463179199,0.0706101113117065,-0.0778995777056656,0.00747856662152907,-0.0207443451344138,-0.000949970072752028,-0.954493564287411,-0.276865032912514,0.134777336508538,0.0105138095684381,0.00164184856777447,0.00971212370775571,-0.983671351262887,-0.0987732685995195,0.170033590438878,0.0201081111299386,0.00548286959593539,-0.00489060259956691
0.215,-0.588762105272141,0.329285896864569,0.740940208276976,0.00583749408787029,0.0037548036131114,0.00705508713670709,-0.99613447791859,0.0702043308750058,-0.0772407921551601,0.00539948281038547,-0.0209613115207419,-0.000650421242778045,-0.954490777142885,-0.276509476672556,0.134684702085471,0.0083568174259783,0.00153866235272851,0.0088377175257269,-0.984375353620948,-0.0989098167635594,0.169385260509933,0.0206722765175627,0.0049293006813206,-0.00494239674250597
0.22,-0.588144345081329,0.32785256567388,0.741998505374186,0.00453076132681748,0.00373301292666706,0.00757450332886344,-0.996107693315664,0.069751265189183,-0.0765441267026548,0.0030570710443204,-0.0211569181532383,-0.000416337900677846,-0.954431625907493,-0.276124840659936,0.13458443620541,0.00594834013023021,0.00131857529190641,0.00791517223846538,-0.985094937334921,-0.0989923641796909,0.168585563103289,0.0211647855764042,0.00417366131254303,-0.00480636943863218
0.225,-0.587476301781492,0.326230226902576,0.743035290335964,0.00282868789231302,0.00319477798266615,0.00748371088512103,-0.996053951451563,0.0692462733807594,-0.0758127180490449,0.000409659624315187,-0.0213228187897477,-0.000251924336638783,-0.954320012075074,-0.275784770986743,0.134513511612498,0.00324856166748654,0.000968851086148456,0.00695465272864331,-0.985760991384577,-0.0989606221052298,0.167719097948112,0.0215636624145818,0.00320918082137829,-0.00448175605029712
0.23,-0.586785515785055,0.324518695122076,0.743938312558864,0.000675725876241639,0.00215742663399383,0.00673501374994076,-0.995984861570942,0.0686993188472626,-0.0750562805687973,-0.00260977846476646,-0.0214536320262419,-0.00015825726075091,-0.95415920306657,-0.275546903105363,0.134496302926458,0.000192945509234094,0.000475013773718021,0.00597082929525224,-0.986306545665227,-0.0987826576191428,0.166868459373367,0.0218583266308309,0.00205163355865818,-0.0039937032610518
0.235,-0.586098313533127,0.322785200354835,0.744654609271076,-0.00197488866642533,0.000672665839957869,0.00530850001079694,-0.995896208153399,0.068142416777288,-0.0742979263339421,-0.00606906023360979,-0.0215453630344386,-0.00013258921723497,-0.953949637575645,-0.275422342392885,0.134532527572118,-0.00328405073952248,-0.000173774321834618,0.00498240447116928,-0.986693245319424,-0.0984674564557001,0.166078040518547,0.0220485530794409,0.000731410726296739,-0.00338229922008778
0.24,-0.585449620354672,0.321085575653034,0.745155712962534,-0.00515062934740816,-0.00120466023265584,0.0031991815825715,-0.995773641783088,0.0676181701137664,-0.0735735875244738,-0.010016347284584,-0.0215920262618059,-0.000168119289882167,-0.95368970836177,-0.275389338633769,0.134606842335481,-0.0072294983101378,-0.000980685117271348,0.00401043882305909,-0.986900454717146,-0.0980466833116325,0.165371614339156,0.0221392914594285,-0.00071594801175871,-0.00268966290945323
0.245,-0.584884430839126,0.319488262015273,0.745402863601425,-0.00885399903993455,-0.0034163249071629,0.000424112757606446,-0.995602136546285,0.0671699109718415,-0.0729276399153133,-0.014473318944845,-0.0215835640008266,-0.000254288172251207,-0.953379260258886,-0.275414467659801,0.134699582195387,-0.0116655708325703,-0.00194028899410562,0.00307723303713043,-0.986908212514587,-0.0975547072702772,0.164778480338149,0.0221380695438209,-0.00225155168053036,-0.00195539185953991
0.25,-0.584450253022451,0.318076670515859,0.745351730705864,-0.0130559791867583,-0.00589008217252071,-0.00296624706635102,-0.995370620635844,0.066841485409051,-0.0724081089451347,-0.0194289032476037,-0.0215058177093942,-0.000377056658046847,-0.953023855631859,-0.275454249584808,0.134787230839024,-0.0165833986977891,-0.0030375937658629,0.00220589713898217,-0.986695623573433,-0.0970217120649673,0.164337902110895,0.022054163240482,-0.00383135121521415,-0.00121618042466538
0.255,-0.58418908890769,0.316941579349482,0.74496899497008,-0.0176864813120522,-0.00853399499271873,-0.0068811040959738,-0.995073547738748,0.0666759937751577,-0.072061725951091,-0.0248271083699698,-0.02134143159851,-0.00051929013389267,-0.952637480720433,-0.275446116016758,0.134840242209633,-0.021930988731949,-0.00424597296628568,0.00142040579130508,-0.98624506862897,-0.0964695270764979,0.164093912819293,0.0218970750895337,-0.00540504171493034,-0.000505024120234108
0.26,-0.584131241969223,0.316174956679034,0.744241145412978,-0.0226234950582788,-0.0112333099550176,-0.0111838176353687,-0.994710535972875,0.0667111949420051,-0.071929372447183,-0.0305517916716672,-0.0210707134775705,-0.000661738083084634,-0.952242307604602,-0.27530056048761,0.134822637247855,-0.027597983188014,-0.00552506102696555,0.000746190374917433,-0.985542434327681,-0.0959052229639106,0.164091531362492,0.0216743659847559,-0.00691593514337921,0.000149651165575125
0.265,-0.584290168215183,0.31586839839782,0.743178514366325,-0.0276813933113333,-0.013847694620801,-0.0156861545934867,-0.994285647596919,0.0669768489461242,-0.0720423554947727,-0.0364098105536013,-0.0206726020177367,-0.000784447064176708,-0.951867848070429,-0.274897636164974,0.134692440321535,-0.033398688479849,-0.00681872679781973,0.0002112825119386,-0.984575489720469,-0.0953167525204102,0.164374122394193,0.0213897400300497,-0.00830120632575554,0.000723980494266014
0.27,-0.584660583607383,0.31611463260922,0.741816612304703,-0.0325983726404149,-0.0162083954251319,-0.0201423239907006,-0.993808393699326,0.067494404986711,-0.0724207545252946,-0.0421130856610173,-0.0201260927575669,-0.000868154146523593,-0.951551638250551,-0.274087469654398,0.134403145263872,-0.039053931276736,-0.00805276385437133,-0.000151808717361627,-0.983333511339013,-0.0946733189907383,0.164981468796005,0.0210418498801917,-0.0094920758317618,0.00119748343227306
0.275,-0.585221273186395,0.317007973292126,0.740212411811491,-0.0370235371235713,-0.018114439958132,-0.024242954335722,-0.993295457200125,0.0682767537153585,-0.0730752230263723,-0.0472605334744991,-0.0194117258633469,-0.000895442022972522,-0.951340193949118,-0.272692853881509,0.133906214310816,-0.0441727462000838,-0.00913229196241257,-0.000303318327283503,-0.981806629401888,-0.0939290123632978,0.16595030330335,0.0206241070272764,-0.0104135100014569,0.00155089283472828
0.28,-0.585942589227809,0.318621517093602,0.738447477411772,-0.0405047126846914,-0.0193269760062231,-0.0276094793411461,-0.992772891741889,0.0693197754255563,-0.0740021761429761,-0.051321272346865,-0.0185123832130021,-0.000851685078653107,-0.95128255249074,-0.270561512500402,0.133166476896876,-0.0482353557448395,-0.00993922135174941,-0.000192738911231118,-0.980007353052113,-0.0930369984057114,0.167294042044697,0.0201254682049695,-0.0109830580520676,0.00176331971901027
0.285,-0.586798196686125,0.320916608967682,0.736650475633242,-0.0425294646765917,-0.0195935612083814,-0.029821250035836,-0.992278897830146,0.0705734411356849,-0.0751522754349165,-0.053685488293933,-0.0174164334007549,-0.000726040078317712,-0.951401842900587,-0.267761497337339,0.132212615347743,-0.0506432123262596,-0.010342968338447,0.000233350217600337,-0.978056280129925,-0.0919969565558492,0.168916173746486,0.0195334970962031,-0.0111227257478642,0.00181210596320798
0.29,-0.587763188819405,0.323634850541428,0.734995170986412,-0.0427233298372012,-0.0187586186844862,-0.0305437183662012,-0.991859389158935,0.0719185373545749,-0.0763936485176698,-0.0539136420122429,-0.0161276037047902,-0.000512725328726027,-0.951661035397491,-0.264762591542827,0.131178509310447,-0.0509653828292681,-0.0102502905353234,0.000992501900669616,-0.97624648572896,-0.0909113022804155,0.170541479325404,0.0188422548003617,-0.0108077873979049,0.00168295560321035
0.295,-0.588784314458097,0.326347578556673,0.733641150564059,-0.0411017266725833,-0.0168888433620211,-0.0297065294537742,-0.991550408050678,0.0732049520135683,-0.0775431307574864,-0.0520487113329374,-0.0146730740809155,-0.000212543854024481,-0.951977510628433,-0.262226923026388,0.130238671396763,-0.0492468822797586,-0.00966814734509558,0.00202577537385133,-0.974912995892016,-0.0899609261008194,0.171846780939067,0.0180626356154668,-0.0101158996655015,0.00138694517480257
0.3,-0.589767192084474,0.328677467143312,0.732692078660058,-0.0380623637292218,-0.0142532755208745,-0.0275360136990272,-0.991365540609386,0.0743260354953125,-0.0784608906989718,-0.0485943914878231,-0.0130978031014609,0.000166087802082109,-0.952285752987741,-0.260548681537498,0.129487350649174,-0.0459860061978266,-0.00870110336802371,0.00321452666171502,-0.974211270472348,-0.0892918689375591,0.172688939462205,0.0172266213799027,-0.00920058537181778,0.00096513200953654
0.305,-0.590617011971109,0.330456986015316,0.732205202277834,-0.0341230480214209,-0.0111878959175815,-0.0244046116838889,-0.991308016641892,0.0752377194864028,-0.0790949474158579,-0.044178487189107,-0.0114524263365451,0.000607873350495036,-0.952574096067624,-0.259721462512041,0.12892086539533,-0.0418008934764366,-0.00748507116008715,0.00443568576503938,-0.974084111607816,-0.08892989524062,0.173138207959759,0.0163791378554589,-0.0082148658471653,0.000473812497310602
0.31,-0.591277708537622,0.331691384850151,0.732190621762682,-0.0297280934830517,-0.00799283825841702,-0.020675077695724,-0.991387128102333,0.0759230912993155,-0.0794454579713517,-0.0393198291537111,-0.00978610068472642,0.00109316844772353,-0.952865283593584,-0.259569555739725,0.128510759522226,-0.0371995587393286,-0.00613915898506424,0.00559389842798499,-0.97438580436168,-0.088797106494938,0.173345597275032,0.0155629389625699,-0.00726872645979475,-3.60354750378658e-05
0.315,-0.591725840844701,0.332440190051811,0.732620191228792,-0.0252196820248688,-0.00489517876631707,-0.0166446330349688,-0.991609656996304,0.0763742994959023,-0.0795358645739394,-0.0344064987303839,-0.00814436944764653,0.00160061253139281,-0.953180407664003,-0.259932559948185,0.128236785103185,-0.0325590357006152,-0.00475873509251471,0.006624949961732,-0.974965166890525,-0.0887860526802542,0.173454078796489,0.0148104775787669,-0.00642508239586892,-0.000532035534758659
0.32,-0.59195480207247,0.332752139351236,0.733467123149133,-0.0208503582373447,-0.00205909744444705,-0.0125510253447777,-0.991961478529535,0.0766001144967737,-0.0794149871010173,-0.0297138953218574,-0.00657114759635339,0.00210859044024657,-0.953521299059412,-0.260684494449736,0.128070363879847,-0.0281439958279822,-0.00341733749681859,0.00748729011173522,-0.975691490087642,-0.0888142825591905,0.173572630610355,0.0141437302518518,-0.00570651190885378,-0.000999046131097672
0.325,-0.591973795936234,0.33266899780217,0.734689451092291,-0.016789239681372,0.000383090400274864,-0.00858605516798118,-0.992410749236591,0.0766240654697949,-0.0791423485891262,-0.0254097808217654,-0.00511001682737725,0.00259589938152326,-0.953876099860585,-0.261706785514752,0.127973191239334,-0.0241128147279216,-0.00216689279070195,0.00815042931090995,-0.976468096710911,-0.0888324351468085,0.17376147456163,0.0135715889161515,-0.00510852254079354,-0.00142696810699628
0.33,-0.591806437016893,0.332241628896608,0.73616813930276,-0.0131394303145835,0.002335297730171,-0.00489848151996495,-0.992925379384974,0.07647244531807,-0.078762178240018,-0.0215794410147304,-0.00379713783692151,0.00304247656726771,-0.954231836108407,-0.262878582283026,0.127913182083571,-0.0205430171086391,-0.00104227367191242,0.00859553748205182,-0.977226586459511,-0.0888104438750015,0.174036737397403,0.0130887896744325,-0.00461110655325726,-0.00180404805279183
0.335,-0.591482882230232,0.331522908360963,0.737727726855643,-0.00996134645891513,0.00377033856574088,-0.0015953212609306,-0.993476906420688,0.076172970413817,-0.078306891657382,-0.0182607402009318,-0.00265156178041084,0.00343014729137294,-0.954575709991878,-0.264092904747667,0.127865429328904,-0.0174658144993654,-6.79201196386783e-05,0.00882499559017877,-0.977910139465025,-0.0887239018789241,0.174394033963152,0.0126810534530894,-0.00418235462403642,-0.00211967461480522
0.34,-0.59103148987273,0.330553363843685,0.739231981247439,-0.00728399692406965,0.00472698719623298,0.00124848189835911,-0.994033525887928,0.0757628093503357,-0.0778180897080133,-0.0154583767849911,-0.00167610583762412,0.00374309570010032,-0.954889365802414,-0.265282497671726,0.127802361325129,-0.0148802549433844,0.000739854904670463,0.00886042257515769,-0.978466880081504,-0.0885550296031611,0.174823721686076,0.0123285553853388,-0.00378002678144348,-0.00236644041015428
0.345,-0.590472282603145,0.329360056082264,0.740627071874805,-0.00510480224248406,0.00526909756768201,0.00357493902937379,-0.994562051980929,0.0752883901391465,-0.0773458290068872,-0.0131394745572545,-0.000867367231464508,0.00396858844293414,-0.955150378743189,-0.266425777446104,0.127695604486451,-0.0127490174194525,0.00137491819740336,0.00873243641259641,-0.978854712879628,-0.0883091812364218,0.175306683032198,0.0120139660883594,-0.00335509932897221,-0.00254239984551306
0.35,-0.589815039878713,0.327966887732573,0.74190760303244,-0.00339145004488254,0.00545593116433376,0.00533100272404002,-0.995034474556614,0.0747956829769854,-0.0769301458523228,-0.0112334473665351,-0.00022330644573414,0.00409787417226832,-0.955338604937622,-0.267525749567375,0.127523277129995,-0.0109980090981177,0.00184259099358037,0.00847735143593865,-0.97904517995341,-0.0880080683153829,0.175812339681478,0.0117373039461024,-0.00285539002339024,-0.00265669929175074
0.355,-0.589069278688901,0.326408958646188,0.743075963953579,-0.00208992399000199,0.0053361013893333,0.00646632434145073,-0.99542978178395,0.0743220052161254,-0.076591604440659,-0.00964293592041441,0.000255318754936919,0.00412609453733037,-0.955440051773491,-0.268584681505887,0.127271480983919,-0.00952697707019463,0.00215746264242648,0.00813640275377666,-0.979024845689703,-0.0876579350676043,0.176304507112061,0.0115148842156355,-0.00222802835212637,-0.00272934001370459
0.36,-0.588258695286826,0.324740296633887,0.744127563027911,-0.00113604691449323,0.00494893818877967,0.00694176604839404,-0.995735765286828,0.0738932189268852,-0.0763344557325109,-0.0082620322656951,0.000568263404820078,0.00405146821084375,-0.955448942690789,-0.269595444304874,0.126936219318693,-0.00822771458639465,0.00233880848474653,0.00775358164262419,-0.978799202179927,-0.0872444437767405,0.17673858047189,0.011365152016491,-0.00142311443259246,-0.00278582139355337
0.365,-0.587416713840169,0.323023501051032,0.745054253606033,-0.000466017410730585,0.00432668660024771,0.00673891974511339,-0.995947974663597,0.0735260434530274,-0.0761539572365768,-0.00699370553112187,0.00072063249909399,0.00387492215682113,-0.955365924917629,-0.270547797214623,0.126523044640012,-0.0070014445595795,0.00240654078847702,0.00737648868353693,-0.978388046493634,-0.086750509061648,0.177064722362299,0.0113044038765861,-0.000398492583644196,-0.00285591225277307
0.37,-0.586570691334695,0.321316421419091,0.745852744129263,-2.00149790792175e-05,0.00349554331435211,0.00585972748299957,-0.996065027036204,0.0732309111677872,-0.0760422461600005,-0.00575481895733895,0.000722878096277509,0.00359993599991967,-0.955193366806678,-0.271439171969546,0.126043357099806,-0.00576380951108109,0.00238006220778856,0.00705514522512185,-0.977811470155526,-0.0861649909893987,0.177247631714098,0.0113463747140948,0.000878898997557307,-0.00297286544531863
0.375,-0.585742947392801,0.319675946188584,0.746525656044046,0.00025755632699146,0.00247624694623125,0.00432374774045947,-0.996090038619154,0.0730101137545774,-0.0759892872554758,-0.00447573351366083,0.00058686463093848,0.00323227631036672,-0.95493569480383,-0.272279904029253,0.125517273637653,-0.00444446715286231,0.00227827217152054,0.00683742934228242,-0.977087068056143,-0.0854898605348326,0.177274768543812,0.0115009723694128,0.00243513160192994,-0.00317158005990127
0.38,-0.584957160863149,0.318160082984848,0.747077628166395,0.000415380001504523,0.00128681354536017,0.00217203514609355,-0.996032684500001,0.0728582277068019,-0.075983104513051,-0.00310554588854521,0.000324360343561507,0.00277997884526391,-0.954603036935424,-0.273082244026548,0.124974788638369,-0.00299224593432649,0.00211859090030019,0.00676714586994927,-0.976239485959989,-0.0847411628758696,0.177145866869928,0.0117791819336538,0.00428971376256124,-0.00348974090247151
0.385,-0.584232209824933,0.316816731402392,0.747511940722128,0.000495801859990973,-5.4697936158772e-05,-0.000533029588401718,-0.995904334537505,0.0727682287219727,-0.0760122979270593,-0.00161138535230495,-5.25783537629352e-05,0.00225346544139343,-0.954211487498201,-0.273842169144642,0.124448188702863,-0.00137476238206667,0.00191718352429004,0.00688146100277558,-0.97530566665838,-0.0839374525234757,0.176865788664384,0.0121907852330909,0.00645270384500141,-0.00396516107855307
0.39,-0.58358217656569,0.315687280368495,0.747821192593862,0.000539626093270061,-0.00152693337102289,-0.00371437259580774,-0.995717890836024,0.0727310380025149,-0.0760636822458863,3.02953387765078e-05,-0.000531671224012377,0.00166563725946502,-0.953782341512776,-0.274539692900617,0.123972232113671,0.000429597871922581,0.0016907486736842,0.00720569243947303,-0.974332612796376,-0.0831045283691371,0.17644686851835,0.0127314558007017,0.00892132633727784,-0.00462730212028217
0.395,-0.5830276581905,0.314823518229659,0.747980275493852,0.000584265421327405,-0.0030954954389234,-0.00727751886863448,-0.995494977549148,0.0727270901965564,-0.0761162185805067,0.00182998296591908,-0.00109892125062382,0.00103190185373916,-0.953342574548194,-0.275155896577238,0.123592917816397,0.0024278280599132,0.00145572951051755,0.00775290466812951,-0.973373988422101,-0.0822954234825739,0.175912262721584,0.0133816815008117,0.0116791216853277,-0.005493945412087
0.4,-0.582594145544032,0.314278318453387,0.747966697687752,0.000655650322973177,-0.00470289291466199,-0.011100792091433,-0.99526431241034,0.0727266604974426,-0.0761452619530976,0.00377074025492938,-0.0017363753017713,0.000369748592483067,-0.952922301845596,-0.275680082206725,0.123363644894714,0.00459844012093192,0.00122497015892152,0.00852749857191573,-0.972488677689327,-0.0815887811136336,0.175294834147019,0.0141193758390633,0.0146967813708262,-0.00657428792285517
0.405,-0.582297598727556,0.314076315505117,0.747791769114189,0.00076750584813763,-0.00627645185508225,-0.0150398084822195,-0.995049332855237,0.0727022233667477,-0.0761357756244546,0.00580938738393173,-0.00242387458518114,-0.000301986183680076,-0.952548903060598,-0.276101325664204,0.123328994807866,0.00689267361815795,0.00100731239124957,0.00952235522745848,-0.971742152320504,-0.0810678096618995,0.17462847030174,0.0149246555810289,0.0179307989955156,-0.00786803352326749
0.41,-0.582143171305433,0.31420996643634,0.747492845905003,0.000929023928166926,-0.00774923764625609,-0.0189455874011722,-0.994862987992969,0.0726354894983971,-0.0760858970735022,0.00789385840716798,-0.00314343593504953,-0.000963607888636227,-0.952244948756141,-0.276398678048897,0.123517144314325,0.00925120468086794,0.000810729919739381,0.0107101884961899,-0.971213471049854,-0.0808100518250196,0.173927742264766,0.015773186649192,0.0213187301670685,-0.00935874308966431
0.415,-0.582138756669109,0.314664522547181,0.747097246293194,0.00114856630740606,-0.00906697576733687,-0.0226743457641854,-0.994714135768996,0.0725155219561854,-0.0759999869428047,0.00997221821935915,-0.00387917206795587,-0.00159504578826824,-0.952032144221061,-0.276539427732285,0.123943975156418,0.0116127836650603,0.000643617702982323,0.012040599828864,-0.971005258431265,-0.0808893067235613,0.173166753644294,0.0166316767686919,0.0247725504762105,-0.0110088106833675
0.42,-0.582299245387765,0.315434029931866,0.746613669029583,0.00143240058623279,-0.0101803344376106,-0.02608458046951,-0.994609532978914,0.0723429481598152,-0.0758887362160937,0.0119903814610595,-0.00461380705769149,-0.00217621297524454,-0.95193272844416,-0.27648643080437,0.124612847046746,0.0139119436046585,0.000513823441855243,0.0134423744800448,-0.971241899398098,-0.0813768096946899,0.172281747422332,0.0174581053780323,0.0281716155676453,-0.0127580305289907
0.425,-0.5826338922046,0.316506540636176,0.746047881086814,0.00178856948972184,-0.0110444977329663,-0.0290375748670134,-0.994546177220072,0.0721364036968862,-0.0757759030999232,0.0138975564935151,-0.00532916600864156,-0.00268672915890255,-0.951962028285356,-0.276206519910552,0.125505457840881,0.0160841981155359,0.000430016666788264,0.0148221556423211,-0.972048691639913,-0.0823471710758448,0.171192069579585,0.0182020927656125,0.0313583629381133,-0.0145222333893636
0.43,-0.583138001141944,0.317843454641498,0.745407230545655,0.00223487832220362,-0.011625078383079,-0.0314091673976273,-0.99450933046855,0.0719241823825009,-0.0756953805913788,0.0156618170742404,-0.00600937522370725,-0.00310642117711434,-0.952118728856507,-0.275683882154517,0.126580192718497,0.0180817622279881,0.000404432160901577,0.0160650116870413,-0.973501789542239,-0.0838672332270417,0.169839490161211,0.0188109837799897,0.0341414585166866,-0.0161925548986938
0.435,-0.583806006422391,0.319387993201977,0.744699986110466,0.00279769030615866,-0.0119005753610036,-0.0331010552507458,-0.994485002711694,0.0717279323044322,-0.0756762043978277,0.0172736692028839,-0.00664168742928271,-0.00341718719491966,-0.952382642742642,-0.274952101433735,0.127791512250292,0.0198788148534052,0.000451840128568011,0.0170482770630559,-0.97552491678592,-0.0859135481484686,0.168291155240915,0.0192426156597906,0.0363205694628556,-0.017647448225794
0.44,-0.584647227601369,0.321083437694609,0.743933414958808,0.00349288148081075,-0.0118680401270932,-0.034044112392126,-0.994472112260558,0.0715564402193385,-0.0757287627466597,0.018720308402994,-0.00721385098830774,-0.00360367724389767,-0.952721388933383,-0.274107316989812,0.129110007747146,0.021448825952534,0.000583792238357969,0.0176695910150748,-0.97782696572866,-0.0882909471087788,0.166813969695938,0.0194683647453016,0.037750534109299,-0.0187890679608957
0.445,-0.58567516482279,0.322868437105152,0.743098441725709,0.00430187887213654,-0.0115473834447261,-0.034201929932582,-0.994477137684013,0.0714110833751339,-0.0758473081037352,0.0199517582379953,-0.00770824652232146,-0.00365286460536577,-0.953100628366775,-0.273258570409915,0.130510789757827,0.0227331994268519,0.00080219090597616,0.0178729805966351,-0.980049010924629,-0.090720096732034,0.165721348333383,0.0194615776080519,0.0384023920699237,-0.0195770597071315
0.45,-0.586884841980994,0.324675881871684,0.742157197430582,0.00517000220298909,-0.0109689595089104,-0.0335739283214339,-0.994501541818802,0.0712912040832378,-0.0760232515864472,0.0208810028791815,-0.00809882419635062,-0.0035556828589791,-0.953491090741333,-0.272471131877166,0.131949642176315,0.0236414004944231,0.00109755794916254,0.0176486587441491,-0.981997721529066,-0.0930242182713856,0.165120870950653,0.0191936476661747,0.0383438725824821,-0.0200184453056263
0.455,-0.588253727092809,0.326461364695873,0.74105346669216,0.00602506781521602,-0.0101493504312956,-0.032184125247445,-0.994542514829437,0.0711922298382707,-0.076245965034744,0.0214099794906254,-0.00835437995454785,-0.0033098238337448,-0.953870843414286,-0.271769618959234,0.133370140899451,0.0240755848526689,0.00145149589583586,0.0170150339921527,-0.983675755185275,-0.0951684232557137,0.164889692557957,0.0186491407852558,0.037667311310273,-0.0201342535490691
0.46,-0.589750316718812,0.328213624330541,0.739749531818907,0.00678909032678707,-0.00907646179961115,-0.0300572779541324,-0.994598375423688,0.071108045742472,-0.0764971865403654,0.0214395212682308,-0.00844198525698796,-0.00292017597021687,-0.954224626307516,-0.27116806699687,0.134722796105669,0.0239398728701257,0.00183834229262994,0.016009324784724,-0.985146518192646,-0.0971570822073442,0.164844578978012,0.0178373668247706,0.0364512117183457,-0.0199474182221447
0.465,-0.591318234098651,0.329908099971593,0.738277766501719,0.00738487472496929,-0.00772137401983752,-0.0272133663421525,-0.994663050815437,0.0710433524612689,-0.0767622745741714,0.0208755041844363,-0.00833184447936666,-0.00239709605785661,-0.954539404920103,-0.270684434554239,0.135958139423739,0.0231459825084483,0.00222828459434652,0.0146820328074045,-0.986444144883635,-0.0989765635727737,0.164865568587828,0.0167870007237237,0.0347616939924677,-0.0194855162768137
0.47,-0.592865073790682,0.331466254291155,0.736759535785738,0.00775232217575224,-0.0060726852574134,-0.0236956158726915,-0.994722725441932,0.071014658028896,-0.0770422734670653,0.0196596181119679,-0.00800907366326855,-0.00175519414482752,-0.954801690256092,-0.270341985733788,0.13701557633439,0.0216431067266524,0.00259512741720733,0.0130843993098249,-0.987575152152586,-0.10060761819639,0.164901572665178,0.0155401142137239,0.0326622994245967,-0.0187794693431506
0.475,-0.594288681088171,0.332786983707451,0.735352044762978,0.00786102292098419,-0.0041637689521194,-0.0195957956783372,-0.994766287100462,0.0710328544284276,-0.0773394551658986,0.0177955411195331,-0.0074832867006389,-0.00101365821345879,-0.955004196737831,-0.270154126589211,0.137838122775122,0.0194434113886142,0.00292153456527265,0.0112561687517688,-0.98855950475962,-0.102029007324993,0.164910751784103,0.0141498722128832,0.0302152467720559,-0.0178589162467372
0.48,-0.595512391725735,0.333811289491018,0.734163697917128,0.00770461147076723,-0.00206557342368511,-0.015044079700033,-0.994798701664538,0.0710904453692043,-0.0776327855094498,0.0153380263737869,-0.00678405868445555,-0.000196411673674934,-0.955154215275568,-0.27010847853804,0.138398439054633,0.0166108006752991,0.00319648067222857,0.00922421513427645,-0.989427448919087,-0.103192002942279,0.16484401229343,0.0126719166233903,0.0274715029494514,-0.0167487392817509
0.485,-0.596495070453649,0.334544761997693,0.733222483341679,0.00728750678505925,0.000150982778782528,-0.0101765622977494,-0.994844014390896,0.0711651315868643,-0.0778773620020696,0.0123618542343391,-0.0059475102052065,0.000669787548467169,-0.955271596777577,-0.270180400449464,0.138707592393347,0.0132301786276242,0.0034103824865665,0.00701716380391372,-0.990157320757895,-0.103997814857793,0.164705391305015,0.011155038082948,0.0244771383626757,-0.01547868790606
0.49,-0.597216300494457,0.335019795091324,0.732523025731346,0.00661820888924317,0.00244629333556384,-0.00511098173347089,-0.994929483733169,0.071233007438815,-0.078028215299107,0.00894175756523024,-0.00500761282437454,0.00155799572688194,-0.955375891133918,-0.270350283119289,0.138794665637685,0.00938804477957958,0.00355337435773572,0.00468283873347151,-0.990678758245887,-0.104340435675187,0.164556220613574,0.00963994024173439,0.021299666154829,-0.014102071580046
0.495,-0.597655311496534,0.335243338026728,0.732087975982423,0.00571051977874461,0.00480206576780894,5.0823112895124e-05,-0.99506005382758,0.0712821943749312,-0.0780605505032886,0.00515410937759054,-0.00399662590328842,0.00244208739275659,-0.955472887590806,-0.270591395571796,0.138676340968233,0.00517369162241677,0.00361663822432713,0.00228510332717805,-0.990964574492182,-0.104201124154794,0.164426316857266,0.00816323033253826,0.0180291117779616,-0.0126923862168185
0.5,-0.597784691022975,0.335180888992667,0.731970057598748,0.00458717273502651,0.00718402989132509,0.00520231558420958,-0.995210356854375,0.071316222733817,-0.0779690436499613,0.0010893354326107,-0.00294843904345159,0.0032965925967936,-0.955552547071772,-0.270848786540606,0.13834803189922,0.000689818957366713,0.00359478436640186,-0.000116290832222251,-0.99107144291841,-0.103679242865294,0.164270530730801,0.00676074292474974,0.0147462696009715,-0.0113146612299315
0.505,-0.59758224918237,0.334779603411836,0.732208026062528,0.00328008401538623,0.0095221876675872,0.0102162968443094,-0.995340077635366,0.0713462230160095,-0.077757108553708,-0.003142419754114,-0.00189652840556389,0.00409682946961859,-0.955597712680876,-0.271042282702703,0.137798418574762,-0.00394323224595348,0.00348695607898348,-0.00247714000327082,-0.991090696244541,-0.102926863299455,0.16401180335773,0.00546636256124198,0.0114993373008505,-0.0100020521657592
0.51,-0.597047601228757,0.334012324247455,0.732803883625734,0.0018266501560233,0.0117193600281836,0.0149451606535884,-0.995415198071528,0.0713823606514937,-0.0774350546705378,-0.00741746157839791,-0.000868541232310648,0.00481967237922476,-0.955593904304083,-0.271109429475687,0.13703102917916,-0.00859400448899219,0.00329611729289882,-0.0047665456146747,-0.991091202532464,-0.102060689755943,0.163595825001427,0.00430728427277715,0.00830420257008914,-0.00875318519310934
0.515,-0.596211669954693,0.332915343336052,0.733733145069223,0.000266187910973024,0.0136686849483955,0.0192407413168702,-0.99542203818608,0.0714304988836872,-0.0770257143938559,-0.011612291987309,0.000111894607906688,0.00544544881842223,-0.955535475540014,-0.271055774487985,0.136079999891321,-0.0131334888884583,0.00302833546894525,-0.00696591751195123,-0.991095954542736,-0.101112732403336,0.163018681193171,0.00330036722758227,0.00515637970392005,-0.00754909674697446
0.52,-0.595130461204111,0.331575035027381,0.73494951239928,-0.00136161681782577,0.015269833994839,0.0229820929840832,-0.99536486642109,0.0714946129429514,-0.0765630739561956,-0.0156178814726933,0.00101769766297026,0.0059605217863931,-0.955425435155828,-0.270941293049858,0.135003668369793,-0.0174491321800626,0.00269291062041511,-0.00907174509819419,-0.991092224787678,-0.100055861449641,0.162316606698065,0.00245120184302501,0.00204489765016942,-0.00637751340464066
0.525,-0.593867425449885,0.330075239781152,0.736377009259931,-0.00301677960873101,0.0164420135509059,0.0260841944917578,-0.995250586281935,0.0715821156390206,-0.0760829443585243,-0.0193441368125754,0.00181842248897415,0.00635858782545375,-0.955269325456378,-0.270814189722079,0.1338601082892,-0.0214491643494231,0.0023027855802964,-0.0110922335527238,-0.991057978247666,-0.0988755869962631,0.161531911557224,0.00175514535846065,-0.00103976489309208,-0.00524186925851782
0.53,-0.592483858764351,0.328475809183661,0.737914282076121,-0.00465839499045368,0.017132023118249,0.0284866650776086,-0.995080082663828,0.071705448188783,-0.075616807612138,-0.0227148602175885,0.0024886964269811,0.0066402612448432,-0.955070635313048,-0.270682194879805,0.132693313409246,-0.0250574993813569,0.00187472299353811,-0.0130375002413779,-0.99097229327599,-0.097600995377572,0.160700806480225,0.00119972831075038,-0.00410402063542726,-0.0041531622425831
0.535,-0.591042505234823,0.326833217575483,0.739453599646141,-0.00624470736098259,0.0173168745548395,0.0301476555655753,-0.994852602381682,0.0718780445337939,-0.0751918184825957,-0.0256647351723166,0.00301413990335004,0.00681219955505327,-0.954831725788352,-0.270536929327324,0.131537535973146,-0.028210527639288,0.00142875844044131,-0.0149124284827965,-0.990806817770619,-0.09628054527691,0.159869884824958,0.000767171058445379,-0.00714861591542336,-0.00312276228419089
0.54,-0.589610653126912,0.325216560471295,0.740895178600547,-0.00773423969161585,0.0170029433950679,0.0310500177259171,-0.994572269206147,0.0721094680280274,-0.0748302028504228,-0.0281417028581447,0.00339193239335587,0.00688621447385531,-0.954557111350608,-0.270373485037514,0.13042355122938,-0.0308591074790891,0.000986845440179157,-0.0167143882616396,-0.990520256820723,-0.0949584510845617,0.159108352014193,0.000436449094478933,-0.0101631335794219,-0.00216236803924183
0.545,-0.588256324532524,0.323705310497299,0.742151380621388,-0.00908692068361815,0.0162252902633018,0.0312090937557015,-0.994250209923635,0.0724033633241274,-0.0745456016902875,-0.0301096459541239,0.00363053664424412,0.00687817374729916,-0.954255661575167,-0.270187124446806,0.129379310236087,-0.0329707660248526,0.000571276015537475,-0.0184313244815455,-0.990060814651897,-0.0936696428385435,0.158505772712977,0.000185432027024552,-0.0131204635422739,-0.00128575068205761
0.55,-0.587043550848195,0.32238388642994,0.743149646802716,-0.0102645462107695,0.0150475962182353,0.0306775618558158,-0.993904027602122,0.0727575130174818,-0.0743414000283932,-0.0315490462990781,0.00374990950320161,0.00680673606607022,-0.953940847200447,-0.269969259389285,0.128428358312744,-0.0345298444953313,0.00020331068758116,-0.0200389328934941,-0.989368266614124,-0.0924349101549496,0.158167409586054,-7.09546827616344e-06,-0.0159724112568797,-0.000510097766217486
0.555,-0.586028568701259,0.321333822618347,0.743842811959113,-0.0112305882771469,0.0135604773462962,0.0295485254848608,-0.993556240218441,0.0731653933491553,-0.074214911300758,-0.0324560832183666,0.00378084260322481,0.00669198289310292,-0.953630034537513,-0.269712464863825,0.12758772363693,-0.0355361096018458,-9.79472926922308e-05,-0.0214989075847879,-0.988381970352716,-0.0912547232662438,0.158205031868659,-0.000160559395097101,-0.0186459340675386,0.0001421914836488
0.56,-0.585249774275968,0.320613780761233,0.744234543562234,-0.0119491116532403,0.011872690382124,0.0279524645539973,-0.993229926647754,0.0736213711469062,-0.0741665316804021,-0.0328386371202513,0.00376132620419244,0.00655403168117704,-0.95334339273654,-0.269420470349999,0.126862913276857,-0.0360005755859503,-0.000315956010629845,-0.022762926893035,-0.987073228365609,-0.090115576707836,0.158705823481328,-0.000293299315836514,-0.0210449734805563,0.000643313383862217
0.565,-0.584716122700502,0.320235416944046,0.744396855314776,-0.0123823095879869,0.0100863095264943,0.0260383145968587,-0.992943129152228,0.0741251948329918,-0.0742058704517823,-0.0327057268849198,0.00372681520417887,0.00641171820128235,-0.953102015412569,-0.269114686741414,0.126243522886305,-0.0359355208212274,-0.000435511274678007,-0.0237895265436133,-0.985494903631384,-0.0890141317000358,0.159678899392737,-0.000424520094794354,-0.0230684890166866,0.000966409748313068
0.57,-0.584413240081415,0.320161744400133,0.744430266902327,-0.0124924627893346,0.00826801552626249,0.0239440862566944,-0.992709157221869,0.0746732912060567,-0.0743418765861954,-0.0320602970373397,0.00369948440853412,0.00628123031834458,-0.952925100553773,-0.268830185115137,0.125711587637691,-0.0353482199085793,-0.000442198471604902,-0.0245667531303407,-0.983815566770931,-0.0879961062354539,0.160999278309579,-0.000574371780813827,-0.0246438675863439,0.00109811241425309
0.575,-0.584321959951113,0.320330659277411,0.744395062194076,-0.0122606763939693,0.00644746449896823,0.0217791905177827,-0.992541295175981,0.0752417721454318,-0.0745640349280876,-0.0309196301573779,0.00368832079321469,0.00617445575758736,-0.952825049231677,-0.268608690234477,0.125258034181183,-0.0342613642034621,-0.000328077512216807,-0.0251202430317286,-0.98229556703429,-0.0871795472948704,0.162405799147207,-0.000755897133377258,-0.0257626259042019,0.00105057109078379
0.58,-0.584417638787438,0.320669298341093,0.744301753122916,-0.0117117000264405,0.00463898486803049,0.0196257347136533,-0.992449062210258,0.0757880132868537,-0.0748411054891773,-0.0293501824243375,0.00369743682020748,0.00609727460563351,-0.952799987150648,-0.268484643955543,0.124879492630144,-0.032746573598051,-0.000100638158596457,-0.0255019415241927,-0.981158057620107,-0.0867117088537651,0.163638914271362,-0.000961584080997307,-0.0264946773167621,0.000864804639777133
0.585,-0.584647901720452,0.321079999393533,0.744148843868278,-0.0109083173216753,0.00285639768103368,0.0175418584072287,-0.992424994532472,0.0762745142872185,-0.0751370849860593,-0.0274593467784536,0.00373150167319168,0.0060485954720437,-0.952828883724051,-0.268446993840643,0.124552683360144,-0.0309144276179866,0.000217640062354032,-0.025766413058059,-0.980424446185121,-0.0866917735586955,0.164644525127807,-0.00115859046088403,-0.0269490633295717,0.000600859191789224
0.59,-0.584928770115456,0.321435644315959,0.743937272726851,-0.00991349545230161,0.00111861238736766,0.0155530454461151,-0.992442616715756,0.0766829529758177,-0.0754201786920896,-0.0253376198687455,0.00379958607408491,0.00602046541418224,-0.952878693238345,-0.268417601498299,0.124229083955428,-0.0288554851216389,0.000600685871043083,-0.0259415900086298,-0.979906797889481,-0.0871441656697259,0.165600089024872,-0.00129637277845312,-0.0271976434672482,0.000323857566711504
0.595,-0.58518408139328,0.321630673556658,0.743672756737205,-0.00876399133141274,-0.000544970569914327,0.0136449095464092,-0.992481316706885,0.0770020500408398,-0.075662172042905,-0.023019516058517,0.00391888738692918,0.00599961769884708,-0.95292768112995,-0.268307748881001,0.123877465895763,-0.0266012951007409,0.00102794915300432,-0.0260138142981621,-0.979396108344723,-0.0880186282601945,0.166707635929241,-0.00131833066073588,-0.0272348182780314,9.55927576425375e-05
0.6,-0.585389290326079,0.321643130721731,0.743378224492129,-0.00748053096627477,-0.00209674325093385,0.011780994753695,-0.992553976003597,0.0772115817061135,-0.0758395606923465,-0.0205083099089267,0.00411104213621361,0.00597157724775559,-0.95298591810553,-0.26809826119332,0.123528174434447,-0.0241507643253605,0.00148370246437855,-0.025945643368164,-0.978831783923936,-0.0891747947300571,0.168001749323762,-0.00117656460358036,-0.02701217093286,-3.61976795777499e-05
0.605,-0.585561495331779,0.321516377169564,0.743083293652736,-0.00609230327202423,-0.00349864336419608,0.00993312210874645,-0.992694950970385,0.0772847813097675,-0.0759359339019573,-0.0178262383757113,0.00439374690592583,0.00592540740406569,-0.953081292940116,-0.267833116919071,0.123252550208987,-0.0215223064745067,0.00195210527541358,-0.0257063670271763,-0.978263435652187,-0.0904190304344045,0.169387440676401,-0.000846944959763155,-0.0264975824400532,-5.18779552388122e-05
0.61,-0.585718725122386,0.321295736503433,0.742803319995118,-0.00464241447443923,-0.00471193839927516,0.00809114861208277,-0.992922883711057,0.0771997857552261,-0.0759435242491247,-0.0150262726000301,0.0047791035315947,0.00585446307036933,-0.953224911673894,-0.267558499604063,0.123106241874786,-0.0187658823544505,0.00241565821930737,-0.0252776229918762,-0.97772014938696,-0.0915967286007135,0.170780892022689,-0.000330638836487457,-0.0256850324063097,3.89391355577542e-05
0.615,-0.585874129447588,0.321022722079498,0.742551467838063,-0.00317749870537514,-0.00569797137154516,0.00626117000647559,-0.993230841341568,0.0769439760706163,-0.0758666802290068,-0.0121735467395579,0.00527581855940823,0.0057539605953349,-0.953402840621343,-0.267315193501544,0.123115175799042,-0.015943567917508,0.00285640208047874,-0.0246430076320173,-0.977208279101537,-0.0926308578601617,0.172111044736133,0.000357342893279786,-0.0245735594749738,0.000209275752926313
0.62,-0.586048595299621,0.320753954490756,0.742353347375016,-0.00174421848312058,-0.00643151668563075,0.00447413625267436,-0.993599535832294,0.0765181084069368,-0.0757243550768597,-0.00934161045677472,0.00588635730023631,0.00562014408303562,-0.95359187011145,-0.267159603902759,0.123291112820869,-0.0131258699483087,0.00325597122567561,-0.0237926842054805,-0.97678236661326,-0.0934960871277448,0.173246439945236,0.0011970479628396,-0.0231753740338686,0.000424615192282684
0.625,-0.586256983333547,0.320536096479796,0.742227039005193,-0.000390265636140052,-0.00691247844722907,0.0027847275007759,-0.994000476898859,0.0759436544869147,-0.0755444735360918,-0.00661447676127416,0.00660338123279274,0.00545118425781919,-0.95376683509505,-0.267143567365101,0.123627870113489,-0.0103946420747709,0.00359621240788467,-0.0227348240836799,-0.976526841644063,-0.0941970214537048,0.174026449293792,0.00216669339322394,-0.0215375948337992,0.000649615720843169
0.63,-0.586489492539542,0.320381157127066,0.742150995590412,0.000839528562472051,-0.00716144530149915,0.00125004988161763,-0.99439544440638,0.0752589794767863,-0.0753499993415089,-0.00407494435015078,0.00741151166174924,0.00524730382998134,-0.953898951324487,-0.267284482566399,0.124094715165933,-0.0078317484762295,0.00386153851525336,-0.0214943995234159,-0.976469323899638,-0.094746972138638,0.174367890235178,0.00324423184371756,-0.0197387687820443,0.00085510627225507
0.635,-0.58671554325746,0.320279604389608,0.742057226697956,0.0019070404744402,-0.00719786387645678,-8.62454844297695e-05,-0.994744704678883,0.0745065850835501,-0.0751505710311871,-0.00179371203381936,0.00829312214318975,0.00500992740773243,-0.953957411278844,-0.267571326464223,0.124646916469563,-0.0055074571887403,0.00404001848698837,-0.0200987610957431,-0.976522517393507,-0.0951339641591326,0.1743363994115,0.00440527405267802,-0.0178568553941514,0.00101902591815961
0.64,-0.586899318039339,0.320219087537976,0.741882508136857,0.00278305734473366,-0.00701868103490677,-0.00119577743894845,-0.995016304265936,0.0737288680148955,-0.0749556651902598,0.000174736886669321,0.00923225115155835,0.00474099405424659,-0.95391498712163,-0.268002999745038,0.125238976225778,-0.00347524334418653,0.00412338987756035,-0.0185625913603713,-0.976509999235637,-0.0953081234004958,0.174124957281282,0.00561809445023851,-0.0159289642708415,0.00112008964481238
0.645,-0.587011462927699,0.320189880815013,0.741638206799876,0.0034529929765128,-0.00661120953720535,-0.00206628073464593,-0.995190424772663,0.0729708588030172,-0.0747951631492174,0.00180023187577094,0.0102079310822531,0.00444332226818967,-0.953753522185951,-0.268624838373995,0.125832101381198,-0.00176361256894271,0.0041093763859979,-0.0168914752368457,-0.97624603975802,-0.0951985061900398,0.173969597621012,0.00684198501704204,-0.0139348249556098,0.0011308972631726
0.65,-0.587035048522,0.320185782021913,0.741394920558464,0.00392326534835326,-0.00598750362314623,-0.00270445804576578,-0.99526011213809,0.072274099529817,-0.0747130533641621,0.00308615850729573,0.0111815923074243,0.00412155298962211,-0.95346702265911,-0.269510374693467,0.126398913528337,-0.000367653636423147,0.00400505490218847,-0.0150994714008207,-0.97559796800673,-0.094746815468842,0.174070694628264,0.00802873686167708,-0.011805959759883,0.00101463164664462
0.655,-0.586976286912662,0.320209895468208,0.741207420841087,0.00421799824358985,-0.00518864875388901,-0.00313197159712575,-0.995231203052386,0.0716630805978531,-0.0747389131907467,0.00406375713781233,0.0120975296311863,0.00378206939535863,-0.953066367474085,-0.270689546992532,0.126926109799015,0.000744773333519351,0.00382560806660868,-0.0132152010973208,-0.974557160082144,-0.093969243465787,0.174493471765478,0.00912471918578009,-0.00944504190511265,0.000729851266661063
0.66,-0.586875873965521,0.320283446146014,0.741096617471624,0.00436629738257893,-0.0042670863060909,-0.0033698196366919,-0.99512118486294,0.0711423989240326,-0.0748760627114841,0.00477118701222476,0.0128999960051865,0.00343175007381137,-0.952583862999223,-0.272106438845759,0.12741295345573,0.00161153359302392,0.00358807183550569,-0.0112771991267478,-0.973311431106528,-0.0930044594636858,0.175074929040337,0.0100808341031135,-0.0067725404521232,0.000247755516186931
0.665,-0.586793418765801,0.320441367567676,0.741068549900652,0.00439179778525393,-0.00328415601780193,-0.00342186381642041,-0.994954504710744,0.0707080497695324,-0.0751146236413875,0.00523562692017825,0.0135485460976154,0.00307708562396236,-0.952065029744708,-0.273663235526657,0.127865253302494,0.00225721707384416,0.00330610570701376,-0.00933530641803495,-0.972166766167337,-0.0920482143043749,0.175516052144008,0.0108666976904434,-0.0037879063502259,-0.000428791629157058
0.67,-0.586768947644713,0.320708939317547,0.74110345818738,0.00430958143546209,-0.00230466680492002,-0.00327373850303416,-0.994756305733095,0.070358152601231,-0.0754443527334392,0.00546825104872367,0.0140179566609799,0.0027241915603175,-0.951550790358125,-0.275291519951337,0.128287807581726,0.00268796383929482,0.00298899844633788,-0.00745348139850747,-0.971344837556272,-0.0912187988013484,0.175614946937831,0.0114659197912627,-0.000574674206715213,-0.00126435344210479
0.675,-0.586802544020374,0.321074819539266,0.741152695295268,0.00412785668286626,-0.00137413716810243,-0.00290852046527625,-0.99454834740514,0.0700972727654706,-0.0758533671888094,0.00546968107579635,0.0142897573458358,0.0023788829205549,-0.951070839656898,-0.276952659943785,0.128676732699451,0.00289822196582409,0.00264328726603318,-0.00570359146750339,-0.970907018999205,-0.0905297234429147,0.175345030350163,0.0118555610929209,0.00275347072752609,-0.00220654074242929
0.68,-0.586865769902971,0.32148284907646,0.741168984453483,0.00385371804646,-0.000506997169151327,-0.00233038856655681,-0.994347630445858,0.0699384137687074,-0.0763213800727389,0.00524488645947467,0.0143506660472273,0.00204653460499028,-0.950650962256299,-0.278582071973502,0.129014687239981,0.00288681247954115,0.0022757058265121,-0.00415171891288016,-0.970842560329058,-0.0899751701194189,0.174745845533326,0.0120023307807949,0.00609183399228862,-0.00319859618091997
0.685,-0.586926870251299,0.321860106539169,0.741132896279875,0.00350020161604088,0.000304000398060789,-0.00158307299476365,-0.994167481678042,0.0698988626675796,-0.0768203673643274,0.00481962804361217,0.0141989816000693,0.00173213207705885,-0.950317100129257,-0.2800790944029,0.129277331160771,0.00267362915186139,0.00189620056388584,-0.00284489985874252,-0.971138164983755,-0.0895708068509618,0.173846875413997,0.0118786876142463,0.00934715544677807,-0.00418350127748736
0.69,-0.58697146091076,0.322159667165106,0.741058347734421,0.00308752390395356,0.00107097258243576,-0.000745085195549982,-0.994019256246433,0.0699884894686624,-0.0773223982808225,0.00424154833042375,0.0138473800415643,0.00144039911991262,-0.950090039894668,-0.281354124796531,0.129448113595353,0.0023007273489192,0.00151812573087361,-0.00180769501949585,-0.971773275077822,-0.0893201640031977,0.172679566802701,0.011472637314663,0.0124339437834674,-0.00510783551078302
0.695,-0.58700522673847,0.322369952321214,0.740980830038483,0.00263832398211951,0.00179624227708069,9.40065422086194e-05,-0.99391206523383,0.0702026351121133,-0.0778045014782231,0.00356673314044566,0.0133193508578527,0.00117563483793909,-0.949980649485114,-0.282353692617989,0.129524728596408,0.00181906001677405,0.00115557683725671,-0.00104752099838887,-0.972709442003985,-0.0891986041331294,0.171289944828201,0.0107847420879694,0.0152766091090171,-0.00592728856537684
0.7,-0.587041774303033,0.322493018586345,0.740938427286371,0.00217369160354817,0.00246660451049362,0.000850711302528035,-0.99385176684433,0.0705254959688016,-0.0782477844279904,0.00284932020844236,0.0126462572386239,0.000941331106673196,-0.949991198840276,-0.283046065928338,0.129513695765564,0.00127829780939972,0.000821091478584151,-0.000558690663084794,-0.973897924039829,-0.0891747493876133,0.169729499194182,0.00982472750983039,0.0178116421137301,-0.00660939467594303
0.705,-0.587092089461121,0.322532704245875,0.740964298617824,0.0017123246519599,0.00305584259435341,0.00145159209641384,-0.993840587216483,0.0709359338465605,-0.0786373916574539,0.00213929417552591,0.0118661848971704,0.000739850088660817,-0.95011713005451,-0.283416359450027,0.129425030520731,0.000724758988161006,0.000524953569662314,-0.000323380481002887,-0.975286065609019,-0.0892237396659162,0.16805020692832,0.0086114176639848,0.0199880780011677,-0.00713286432684204
0.71,-0.587161249979338,0.322498541563335,0.741090219926246,0.00127071906901608,0.00352726296200538,0.00183557491154953,-0.993876586558796,0.0714097596404793,-0.0789652985950388,0.00148181381396031,0.0110198924624024,0.000572302911138844,-0.950345946904756,-0.283480053911598,0.129271772294542,0.000200828088119376,0.00027514268103243,-0.000315336637357294,-0.976815931228518,-0.0893228464522108,0.166308275994972,0.00717162276302441,0.0217680378865519,-0.00748651019218119
0.715,-0.587247190038035,0.322405768962182,0.741344796664372,0.000863302820198126,0.00383479684490859,0.00195806144339051,-0.99395341126514,0.0719199399321452,-0.0792300838245459,0.000915675327889922,0.0101442089099465,0.00043851726563253,-0.950657024956603,-0.283283638295654,0.129069969006458,-0.000256510304446856,7.73241648153126e-05,-0.00050650321277481,-0.978424269079257,-0.0894527964182907,0.164564568479158,0.00553759071772474,0.0231277472106731,-0.00766869374381638
0.72,-0.587342708925674,0.322271696641731,0.741738971884382,0.000502654081950454,0.00392726352615303,0.00179284529186143,-0.994061600681368,0.0724378159844787,-0.079432962500345,0.000472651010582615,0.00926757920420783,0.000336960817897715,-0.95102442023104,-0.282887357786489,0.128837933462574,-0.000616242330618294,-6.51331755882019e-05,-0.000871066735205113,-0.980044337354111,-0.0896069092078601,0.16288011653607,0.00374648476208282,0.024057985944618,-0.00768619315976274
0.725,-0.587446668259115,0.322121803021236,0.742240518730459,0.000199045984617376,0.00375951622271973,0.00133302774976833,-0.994192466384611,0.0729351319535164,-0.0795737796199582,0.000175960661213327,0.00841058854200976,0.000264976308804061,-0.951421472946189,-0.282347530373288,0.128598400654439,-0.000854727232541795,-0.00015124459762364,-0.0013833932111814,-0.981598581562327,-0.0897875991101627,0.161319035228165,0.0018420049234656,0.0245655880687189,-0.00755359902120043
0.73,-0.587573292506237,0.321997653919215,0.742764187681984,-4.27111433922967e-05,0.00331325261276131,0.000596957966989845,-0.994342090100623,0.0733856069393808,-0.0796485443875328,3.27295488313407e-05,0.00759252045283426,0.000219712756197908,-0.951825148631102,-0.281708511340013,0.128380854876609,-0.000963003350166967,-0.000183293118537865,-0.00200829347152912,-0.982989727739321,-0.0899890362775351,0.159956987936536,-0.000125070280262115,0.024680435565306,-0.00729661162863445
0.735,-0.587740717957143,0.321943564759061,0.743218755982287,-0.000226550499529169,0.00261395864601963,-0.000366094263134978,-0.994508826832043,0.0737710019110077,-0.0796562393011668,2.63652082080778e-05,0.00683795359050638,0.00019915629345202,-0.952217196862597,-0.28101212518775,0.128213188185947,-0.000954253049582128,-0.00016763575823619,-0.00269187743529238,-0.984118560580074,-0.0901876129295407,0.158874778095449,-0.00209935336848655,0.0244631717594187,-0.00695655181930826
0.74,-0.587950010784789,0.321979610835934,0.743576292698607,-0.000361066989719237,0.00171609395906149,-0.00148664641326294,-0.994685277559196,0.0740910818294495,-0.0796137608004092,0.00012528674300549,0.00617162401738594,0.000202506938618566,-0.952581832154052,-0.280315528412159,0.128105728128784,-0.000855744083101248,-0.000112372732684529,-0.00337129618771306,-0.984922180406639,-0.0903508188497839,0.158134684855792,-0.00402703784130115,0.0239993493155718,-0.00658717325179706
0.745,-0.588181039699058,0.322093450855028,0.743872149889326,-0.000449906214522424,0.000665849405598702,-0.00269880648287105,-0.994854675147862,0.0743630457970845,-0.0795564539571282,0.00030428511767249,0.0056049280676579,0.000229948580406063,-0.952902663813728,-0.279687753285336,0.128045992489256,-0.000688813157064485,-2.27320134776321e-05,-0.00399889763101227,-0.985389945244393,-0.0904596583439127,0.157759805934232,-0.00586351445164367,0.0233810155753574,-0.00624311666935801
0.75,-0.588404270376656,0.322255650626818,0.744142522763356,-0.00048760738646983,-0.000515379960952403,-0.00395535777923667,-0.994995318619714,0.0746080464566276,-0.0795191839197854,0.000555965407877115,0.00513053655423466,0.000281857777394418,-0.953162243406393,-0.279183398830181,0.12800807583184,-0.000458050427351691,0.000100655426082979,-0.00455366875454854,-0.9855525498405,-0.0905321633368092,0.157724473636824,-0.00757683787236546,0.022692650188672,-0.00596791982606598
0.755,-0.588593699306115,0.322439177996894,0.744385750976086,-0.000462838060784525,-0.00181833342529672,-0.00522728934970906,-0.995089025827564,0.0748397981392603,-0.0795208824804708,0.000887159985978669,0.00472832718416463,0.000357695759053093,-0.953347450142152,-0.27882204134449,0.127965847254568,-0.000154527601979456,0.000259674237922449,-0.00503435957772187,-0.985480344831996,-0.0906320973033643,0.157945754974626,-0.00914410567688392,0.0220044791564559,-0.0057865766504759
0.76,-0.588735069735134,0.322631452878083,0.744567668455843,-0.000362485543315555,-0.00322719169530433,-0.00649493892824963,-0.995128057014105,0.0750610680418001,-0.0795629322596916,0.0013110982813649,0.00437427235896595,0.000455445672131546,-0.953456755557055,-0.278585423481244,0.127902657105737,0.000236679468475835,0.000456195284549785,-0.00544980468956917,-0.985294225070264,-0.0908620712037697,0.158277756582399,-0.0105409662704536,0.0213616477821577,-0.00570429085380542
0.765,-0.588824936920797,0.322834645152167,0.744637062318183,-0.000173988555388502,-0.00470607261055111,-0.0077366641999001,-0.995114658843084,0.0752639202192397,-0.07963350659335,0.00184084273232055,0.00404763000263306,0.000571623534721167,-0.953499647192083,-0.278427206417922,0.127812639602829,0.00072986409592212,0.000690432458035218,-0.00581343488775954,-0.985158246045336,-0.0913525792483936,0.158527221877122,-0.0117280190298348,0.0207687598181014,-0.00570947898806199
0.77,-0.588860791197398,0.32305268946139,0.744543919029715,0.000113365919293681,-0.00619138838378308,-0.0089203464117735,-0.995054945113164,0.0754342519733531,-0.0797136395149339,0.00248530063544787,0.00373475966944556,0.000701001872893552,-0.953488924988369,-0.278291519244118,0.127694164500488,0.00133471295389529,0.000959693949330202,-0.00614060105826251,-0.9852323332509,-0.0922292333955702,0.158509834187894,-0.0126406861374198,0.02018067990851,-0.00577591997346526
0.775,-0.588828225117123,0.323263925232632,0.744274532528989,0.000508122555857382,-0.00759608442018719,-0.0100066110886762,-0.994953991430252,0.0755632297736598,-0.0797858021944857,0.00325008633873593,0.00342857980566026,0.000836345263180463,-0.953434021527061,-0.278137669983843,0.127543413500147,0.00205742264540714,0.00125832867698094,-0.0064468361861025,-0.985571328168503,-0.0935128978909291,0.158164550198528,-0.0131936485221424,0.0195135257216539,-0.0058658861315135
0.78,-0.588695583702676,0.323402512282822,0.743881054267753,0.001017465901864,-0.00883649418024443,-0.010975734544435,-0.994814194994734,0.0756565100517299,-0.0798402925983936,0.00414576360115034,0.00312357207803495,0.000969517799925624,-0.953337950519,-0.277959254074605,0.127354482647653,0.00290935279814325,0.00158071361055637,-0.0067445791907147,-0.986038594417262,-0.0950200009128331,0.157647726433808,-0.0133159405495344,0.0186925979617705,-0.00594277216677555
0.785,-0.588434096802953,0.323398700017134,0.743451790490663,0.00164701600162334,-0.00986639521642974,-0.0118581683623075,-0.994638900098202,0.0757237337191998,-0.0798709444509094,0.00519486777299429,0.00281001272595015,0.00109345642971703,-0.953200003121347,-0.277779610221423,0.127129057355473,0.00391445686119541,0.00192489117808606,-0.00703915756160701,-0.986388169203849,-0.0964406440888296,0.157235995250154,-0.0129976525131284,0.0177112957210606,-0.00598824123441635
0.79,-0.588051552574202,0.323251745995409,0.74304336695872,0.0023955334090574,-0.0106781719246577,-0.0127173653528419,-0.994439337371748,0.0757569845654244,-0.0798657594020183,0.00641870960893823,0.00247443409722472,0.00120266472705597,-0.953023110284088,-0.27762910194039,0.126887910065549,0.00509623448375331,0.00229042044033977,-0.00732864038236134,-0.986466800706456,-0.0975496537971316,0.157098149350901,-0.0122944947387666,0.0166329252942211,-0.00600550812105912
0.795,-0.587593543265041,0.323032590757648,0.742663328178484,0.003247550617417,-0.0112740400533416,-0.0135945237697698,-0.994233860883434,0.0757308498822681,-0.0798085654485173,0.00781124165143402,0.00210546572129925,0.00129217957263655,-0.952816820493075,-0.277527701905474,0.126666771700314,0.0064513754435321,0.00267187579393406,-0.00760810247322783,-0.986281727431305,-0.0982869752067915,0.157223911370779,-0.0112901055256293,0.0155376733608141,-0.00600799147885714
0.8,-0.587110814310574,0.322815220488498,0.74230914452791,0.00417363434182621,-0.0116510656003828,-0.0144844636481029,-0.994039709487673,0.0756242017979229,-0.0796893382666179,0.00933253268503778,0.00169709954957188,0.00135728087930858,-0.952594571478353,-0.277478971521386,0.1264989329934,0.00794269137496054,0.00305708296585015,-0.00787399715875667,-0.985902578298669,-0.0986687110550277,0.157540617932082,-0.0100684771227162,0.0144863150744307,-0.00601013458159174
0.805,-0.586638206410251,0.322634696341391,0.741991897463506,0.00513835668389208,-0.0118087923211885,-0.0153558408185104,-0.99387023503639,0.0754325297665859,-0.0795068556263978,0.0109254423023421,0.00124792684518255,0.00139442229174239,-0.952372740718399,-0.277469073094395,0.126406048374305,0.00951516733196776,0.00343135922108293,-0.00812580235290717,-0.985386633356408,-0.0987118937335233,0.157996657901561,-0.00871220826338967,0.0135206374785775,-0.00602575234784864
0.81,-0.586198397505104,0.322496907506234,0.741724506548917,0.00610702432563811,-0.0117550911595247,-0.0161745264875748,-0.993737609440711,0.0751636642675766,-0.0792645923265473,0.0125314194478072,0.000760949862779697,0.00140213392905277,-0.952170601722098,-0.277470798399085,0.126400541879659,0.0111114201228812,0.0037815364624339,-0.00836432579504729,-0.984783929451993,-0.098439381869456,0.158548430504813,-0.00730630038740342,0.0126700054786654,-0.00606782255733404
0.815,-0.585809652570574,0.32239654804299,0.741507170311204,0.00704873468203445,-0.0115025720486238,-0.0169131753201751,-0.993650612213139,0.0748325130719619,-0.0789727750164344,0.014097399006832,0.00024465159719779,0.00138131048049097,-0.95200423015387,-0.277457325962054,0.126485633394093,0.0126785884600591,0.00409756243339062,-0.00858847308692408,-0.984151569237585,-0.0979155901768354,0.159139007433611,-0.0059351915021222,0.0119516103489119,-0.00614685094981958
0.82,-0.58548853069457,0.322327609787195,0.741322055682995,0.00793916754245413,-0.0110640827270844,-0.0175528584721171,-0.993608445321664,0.0744580520516638,-0.0786522740928211,0.015580610626583,-0.000288125678749114,0.00133477406255259,-0.951877411752882,-0.277416864599221,0.126651991169705,0.0141733759123327,0.00437308740005705,-0.00879381486835037,-0.983551628122143,-0.0972703366580158,0.159699395039763,-0.00466888778813741,0.0113693594837008,-0.00626808193169387
0.825,-0.585252582849517,0.322292043267578,0.741131483317495,0.00876146488022573,-0.0104484780017217,-0.0180783370854438,-0.993601002982329,0.0740582095868752,-0.0783279724030848,0.0169494290089755,-0.000822366606151436,0.00126615008184252,-0.951781879594909,-0.277349174272543,0.126881632681093,0.0155633167658516,0.00460464551837738,-0.00897272608064377,-0.983042272822491,-0.0966672224957633,0.160160687107933,-0.00354547883315305,0.0109131330915363,-0.00642809181277091
0.83,-0.585120544190719,0.322298843231419,0.740896852856434,0.00950215978047387,-0.00965561324335695,-0.01847023452064,-0.993617794445646,0.0736501490969261,-0.0780210356895399,0.0181760313641008,-0.00134009467063943,0.00117897790386338,-0.951709671172383,-0.277254177472009,0.127156871513298,0.0168196492792889,0.00478928755805002,-0.00911483411373876,-0.982658086619867,-0.096213378951793,0.160484599001013,-0.00256999896689301,0.0105598974293285,-0.00661384483035153
0.835,-0.585104466085075,0.322350306759084,0.740618481190339,0.0101496733436788,-0.00868263606703188,-0.0187080520637735,-0.993655681527755,0.0732582736318873,-0.0777519145394562,0.0192345473428085,-0.00182102297618066,0.00107732555978577,-0.951663724917933,-0.277135086832094,0.127463055617673,0.0179151022060741,0.0049248358855823,-0.00921064600187372,-0.982391948249152,-0.0958993186504342,0.16069127748323,-0.00173441318555087,0.0102817980391977,-0.00680919175281115
0.84,-0.585205121429789,0.3224367561752,0.740339531524113,0.0106999292757959,-0.00754290660433053,-0.0187852404693979,-0.993717241418368,0.0729119301635349,-0.0775406344857287,0.020112259379705,-0.00224816895755616,0.000967197579861506,-0.951653934852617,-0.277002443007443,0.127786371846425,0.0188346089008783,0.00501375401826164,-0.00925707240797965,-0.982214515016504,-0.095654959992198,0.160829546649908,-0.00103754645931335,0.0100574970387944,-0.00700498550363663
0.845,-0.585420602514951,0.32255043123185,0.740097997839201,0.0111577316086204,-0.00627301771229028,-0.0187132153092713,-0.993803626256824,0.0726284259983465,-0.077395767690842,0.0208131217185127,-0.00261007164607956,0.000856277207409615,-0.951684892965111,-0.276862464748223,0.128114520726915,0.0195791042034682,0.00506371352266313,-0.0092565834440698,-0.982120459501326,-0.0954620191185349,0.160908559970043,-0.000483978700170145,0.00987277079733408,-0.00720006239758758
0.85,-0.585754955372432,0.322697542875581,0.739894370483805,0.0115277331251867,-0.00491971808756402,-0.0185060772004954,-0.99391142244361,0.0724037855069953,-0.0773079535124568,0.0213425145473834,-0.0028951255551823,0.000751779978683601,-0.951751373860861,-0.276707628022353,0.128439854857772,0.0201511935458613,0.00508220737501938,-0.00920958852392498,-0.982140245839118,-0.0953788413544417,0.160882729476355,-6.88310964997756e-05,0.00970965204652557,-0.00739184814810798
0.855,-0.586210019175427,0.322890315622403,0.739715925266775,0.0118046347178945,-0.00352660025688034,-0.0181653798788889,-0.994035643955279,0.0722237596932269,-0.077260458005083,0.0216903436086044,-0.00308611559256056,0.000658776777628985,-0.951844323546125,-0.276531813914678,0.128759280635783,0.0205388201169149,0.00507128921643827,-0.00911008016877934,-0.982299894811139,-0.0954602601807355,0.160713531825279,0.000227445059841238,0.00953980231539706,-0.00756943533096698
0.86,-0.586769039132434,0.323129876591227,0.739577845779227,0.0119750506814763,-0.00213522023665573,-0.0176832654344086,-0.994172604539181,0.0720800134986016,-0.0772450262016589,0.0218340713571269,-0.00316516977833082,0.000580416370375105,-0.951956266631176,-0.27635515298021,0.129070230791823,0.0207181388625314,0.00502862730155144,-0.00895137832820284,-0.982582146803079,-0.0956923266108394,0.16042582767155,0.000428712000623913,0.00933225908018683,-0.00771740361608013
0.865,-0.587402805004639,0.323408308712158,0.739518487116639,0.0120274615593665,-0.000795278348288248,-0.0170571037760905,-0.994318543014163,0.0719684007183525,-0.0772587806362315,0.0217557300613052,-0.00312495823012555,0.000519035756442113,-0.952079655024278,-0.276215036158428,0.129370673347448,0.0206701800827307,0.00495251661054057,-0.00873543547144333,-0.98294360874024,-0.0960204757973689,0.160078693384668,0.000552014362950065,0.0090663633118756,-0.00782407380464487
0.87,-0.588092640648814,0.323727009701674,0.73955483159957,0.0119499336463938,0.00043299218048224,-0.0162883624477081,-0.994468180844648,0.0718755801730175,-0.0772870291782189,0.021438459643455,-0.00296791452444293,0.000476104589088554,-0.952204743741416,-0.27612831086658,0.129663741378256,0.0203774685018172,0.00484110535854834,-0.00847204715072266,-0.983362938692275,-0.0964152334050428,0.159692373473487,0.000605640784383804,0.0087311794511408,-0.00788097896923949
0.875,-0.588820047570959,0.324090759386042,0.739665427486147,0.0117198219653389,0.00149129680687487,-0.0153681166991725,-0.994618927708694,0.0717861630532442,-0.0773067496837717,0.0208486443268749,-0.00269488328289198,0.000451418144735138,-0.952326179361468,-0.276083486929595,0.129954835402033,0.0198064924901515,0.0046875064046345,-0.00816910798585799,-0.983842715884784,-0.0968731724474499,0.159244849237299,0.000593578838687214,0.00831423126733344,-0.0078763234782649
0.88,-0.589532632738192,0.324480847790334,0.739811031083002,0.0113175885999984,0.00234627708802439,-0.0142845471976721,-0.994776389792915,0.0717054300094275,-0.077309522999858,0.0199562324257554,-0.0023061037399522,0.000444232157743929,-0.952451972185817,-0.276067565357857,0.130241959438238,0.0189278830290337,0.00448500377001559,-0.00782811571475634,-0.984368214146298,-0.0973641242259083,0.158731617559222,0.000519800822350377,0.00780192115726081,-0.00780013656175833
0.885,-0.590158941731731,0.324860896937064,0.739947620713073,0.0107569247343786,0.0030110813114656,-0.0130482982238976,-0.994951213797992,0.0716566280437895,-0.0773041898170008,0.0187817697240291,-0.00181336630043145,0.000455709827015362,-0.95259881763962,-0.2760757180941,0.130514546124207,0.017762887207259,0.00423940556412561,-0.00744703564147624,-0.984902292166346,-0.0978246979327848,0.158179517852528,0.000389471663757999,0.00719149317255309,-0.007658249898355
0.89,-0.590663085498269,0.325213312716887,0.740030053572263,0.0100842542067376,0.00354448638213525,-0.0116932946178942,-0.995149083497859,0.0716556177629515,-0.0772970044350423,0.0173959935690708,-0.00123930825859093,0.000488895747791725,-0.952776919044859,-0.276098662161008,0.130759637544248,0.016382769488974,0.00396890448883546,-0.00702171878258289,-0.985419732186672,-0.0982036153587475,0.157610292896594,0.000207348457153794,0.00649274205406547,-0.00747227792902109
0.895,-0.591055154278848,0.32554725808859,0.740035386861702,0.00934795962798706,0.00402459106681034,-0.0102529375156646,-0.99536433340626,0.0717055084661393,-0.0772875403469571,0.0158726746789263,-0.000604469856140527,0.000546095312722163,-0.952982324939463,-0.276126956399612,0.13095977711732,0.0148618979834341,0.00369148361268897,-0.00654592758660418,-0.985909508719568,-0.0984743799258377,0.15704415850371,-2.49831580784821e-05,0.00571854598090039,-0.00726476354575083
0.9,-0.591353947950926,0.325871834150291,0.739988180294474,0.0085824605008085,0.0045155426847284,-0.00875053483423983,-0.995579950404947,0.0718132862811594,-0.0772851462721888,0.0142658824483535,7.52058639712023e-05,0.000627019333732863,-0.953199610561149,-0.276171480686091,0.131084770146499,0.0132550208087913,0.00341843336110886,-0.00601771490265421,-0.986342428591871,-0.098608267465403,0.156540035743288,-0.00031104518335995,0.00488309954678805,-0.00704972348141889
0.905,-0.591568133494832,0.326181899563655,0.739940252243965,0.00781527168792521,0.00504437644672788,-0.00720968592388178,-0.995771846094612,0.0719937352578459,-0.0773115036868901,0.0126235636209004,0.000779464057878634,0.000728611774270998,-0.953406849633502,-0.276260280517292,0.131094554598582,0.0116105620360361,0.00315730626718555,-0.00544913060791529,-0.986668701305986,-0.0985734512073647,0.156187108139792,-0.000659388688014874,0.00400924888852066,-0.00683312013793208
0.91,-0.591706338670735,0.326466969728619,0.739921051815895,0.00706978510088791,0.00560069296866759,-0.00565939503434476,-0.995914915745011,0.0722552167630293,-0.0773826473769064,0.010992982808953,0.00148204153914707,0.00084504700443362,-0.953579600425864,-0.276411572480523,0.130953117047155,0.0099760805772464,0.00291308009134866,-0.004866598396855,-0.986849869494555,-0.0983661815191909,0.156050686474789,-0.00108103089095271,0.00313000397660148,-0.00661271049691926
0.915,-0.591780419591359,0.326715385357642,0.739923228263388,0.00635708632022331,0.00615334757467146,-0.00412818497105861,-0.995985187995001,0.0725899710132621,-0.0774984165065843,0.00940759027317655,0.00215852996441609,0.000967321652942382,-0.953691483351751,-0.276623000866141,0.130637311027688,0.00838557054566171,0.00268476987236758,-0.00430189277415291,-0.986871755601488,-0.0980266452778165,0.156151241807842,-0.00158554753235518,0.00228219328676273,-0.00637431380264262
0.92,-0.591796681623974,0.326907959319984,0.739928934208053,0.00567010069574863,0.00666222419931994,-0.00264018044204328,-0.99596081564373,0.0729777712315982,-0.0776488638752556,0.00787768356596887,0.00279135020674971,0.00108294674001997,-0.95371590838888,-0.276882390133098,0.130138790019445,0.00685054190323817,0.00246303339383001,-0.00378523914840807,-0.986733195492095,-0.0976221357463113,0.156482030996675,-0.00217782199834319,0.00150207036400955,-0.0060888175781594
0.925,-0.591754037786039,0.327017479752742,0.739934313564246,0.00498740294763091,0.00708137056372252,-0.00121831551163417,-0.995834793250138,0.0733966462063296,-0.0778235259929455,0.00639570513214835,0.00336877293245221,0.00117687964156129,-0.953642443538688,-0.277169983726562,0.129471741075801,0.00536530977614459,0.00223219039843865,-0.00334323614236956,-0.986450895753315,-0.0972050019064188,0.157006523386795,-0.00285609973204117,0.000823323744523103,-0.00571553299992231
0.93,-0.591649603951593,0.32701586747268,0.739955608141832,0.00428811718544897,0.00736647306829454,0.000107864325556698,-0.995630068462812,0.0738326086406172,-0.078015464581284,0.00495582225729078,0.00388342345785774,0.00123525669383233,-0.953495707954491,-0.277451178404848,0.128680539308594,0.00392581284612587,0.00197784826001872,-0.00299602412339097,-0.98607613501929,-0.0967766505449594,0.157639396918724,-0.00361124014677374,0.00026930967109398,-0.00521878529142796
0.935,-0.591480121904757,0.326880004529735,0.740019729882984,0.00356947095890753,0.00748538649286401,0.00129419041218492,-0.995387485128014,0.0742783990836915,-0.0782204055460686,0.00357645905745714,0.00433155190128863,0.00124998631816661,-0.953321009486944,-0.27768677964561,0.127826009363727,0.00255115169904104,0.00169591866927525,-0.00275358341076291,-0.985677243174353,-0.0963083430191678,0.158272389092653,-0.00442609529311838,-0.000156974890299167,-0.00458854833911211
0.94,-0.591244673515558,0.326603092818625,0.740143788437618,0.0028488044946983,0.00741935048943858,0.00228348170663932,-0.995137264292558,0.0747219129613435,-0.0784327144059134,0.00230212711136215,0.00471134462321467,0.00121916639831355,-0.953148796309231,-0.27785642963764,0.126961370426922,0.00128543998257341,0.00139347514684395,-0.00261599951139047,-0.985295298554581,-0.0957867437527116,0.158835571495303,-0.00527514131117331,-0.000470719133477317,-0.0038418217250061
0.945,-0.59095360266248,0.326210083333215,0.740322210408473,0.00215008135829123,0.00716025161378123,0.00302406385997032,-0.994893641694065,0.0751404570227594,-0.0786427573173246,0.00118193305944873,0.00502187501112646,0.00114381332232398,-0.952986697229378,-0.277964862680949,0.126127586456672,0.000177211556005081,0.00108132867713862,-0.00257697168502157,-0.984929928808028,-0.0952111413345747,0.159318502791523,-0.00612906008598753,-0.000691761531993616,-0.00300844153333844
0.95,-0.590626677567624,0.325747477177039,0.74053723108815,0.00149340596046933,0.00671361675049952,0.00349103147305371,-0.99466677839512,0.0755082421299949,-0.0788392151061567,0.00025034817821405,0.0052636657456932,0.00102575976829098,-0.952835248746392,-0.278029699110064,0.125359255985758,-0.000739225163036579,0.000768118773879555,-0.00262591356617888,-0.984563034833815,-0.0945798865633392,0.159740649835165,-0.00696220290085284,-0.00083449535475705,-0.00212360524101021
0.955,-0.59028081062162,0.325253158517852,0.740774819800291,0.000893727305985234,0.00609801743755257,0.00368718151577218,-0.994465333917049,0.0758058801359796,-0.0790124680905938,-0.000474609059229119,0.00543837733145823,0.000867333782679061,-0.952695236023408,-0.278066400203048,0.124682313039193,-0.00144552720350479,0.000459655306651461,-0.00274856314742721,-0.984184211020621,-0.0939079239809207,0.160117749861934,-0.00775281112862851,-0.000906197831300575,-0.0012259555609089
0.96,-0.589928657842261,0.3247490812321,0.741023088270259,0.000361724132961579,0.0053388101450518,0.00363028649718853,-0.994294817774851,0.0760221101302317,-0.0791542827776112,-0.000986029481126127,0.00554901182761128,0.000671233231294869,-0.952568261414154,-0.278077271837664,0.124113516676563,-0.00193412057376741,0.000159846019305065,-0.00292737693283413,-0.98380018197333,-0.0932276631640914,0.160445712534693,-0.00848021544594564,-0.000910653241358748,-0.000352449260107584
0.965,-0.589582281805779,0.324252213574371,0.741266160691646,-9.61010869049285e-05,0.00446651809889705,0.00334720680937381,-0.994158694721559,0.0761515939376333,-0.0792576310733056,-0.00128621197461829,0.00560219159196619,0.000440689525648574,-0.952456638085711,-0.278056365298494,0.123664890583816,-0.00220657336294352,-0.000128882419909779,-0.00314123306775974,-0.983425987420486,-0.0925729404235401,0.160708664184366,-0.00912685283113709,-0.000853100783453305,0.000465016485863198
0.97,-0.589249951052972,0.323777176211957,0.741486477346354,-0.000476805461776188,0.00351715611146075,0.00287169462922216,-0.994056816988176,0.0761937658651994,-0.0793189463337434,-0.00138545933402288,0.00560795046648466,0.000179744485177207,-0.95235935929361,-0.278005337580653,0.123344333554442,-0.00227248995887682,-0.000405063492072468,-0.00336582059719028,-0.983067156445695,-0.0919792503597821,0.160904093183596,-0.00967713231879031,-0.000740576255293673,0.00119871379910771
0.975,-0.588936898174059,0.32333756260863,0.741663813959957,-0.000781079708075211,0.00253011424129851,0.00224089987132929,-0.993984157123431,0.0761512747035095,-0.0793386292050356,-0.00130129679709885,0.00557692183117138,-0.000106785349550215,-0.952270441135442,-0.277936187818937,0.123156372227763,-0.00214869182278587,-0.000667931443554089,-0.00357610935682415,-0.982713259835094,-0.0914823947010913,0.161055140207732,-0.0101142205402513,-0.000577810887423379,0.00182480567469619
0.98,-0.588649669680739,0.32294781499619,0.74177239136839,-0.00101444996932498,0.00154804411542213,0.00149556469941567,-0.993933922141373,0.0760291965647099,-0.0793212348561177,-0.00106042453285306,0.00551952072632845,-0.000413243529592835,-0.9521824689698,-0.277865702197256,0.123105623972619,-0.00186131003916926,-0.000917711278005983,-0.00374899206177282,-0.982345192390947,-0.091118570912354,0.161200872528826,-0.0104219737782709,-0.000364481402938581,0.00232427357140962
0.985,-0.588393156522841,0.322616966234065,0.741789671518205,-0.00118589727488437,0.000618707193718317,0.00067886282699242,-0.993899680493386,0.0758378084495588,-0.0792774369552743,-0.000697042740986275,0.00544561650955802,-0.000732598196260307,-0.95208883386149,-0.277814905690543,0.123195501280059,-0.00144424356157992,-0.00115474642419552,-0.00386350585493399,-0.981943782747828,-0.0909375906528642,0.161381228382103,-0.0105806942522496,-9.47260472957895e-05,0.00268051242320136
0.99,-0.58816589442293,0.322341045867514,0.74171577337044,-0.00130297057715374,-0.000208575045328077,-0.000170502312900551,-0.993869958020463,0.0755962155522643,-0.0792237862639459,-0.000244280298305892,0.00536259357413772,-0.00105595380101345,-0.951981702740611,-0.277797254280805,0.123418473404949,-0.000930630284806265,-0.00137721825680981,-0.00390034271147483,-0.981497510387224,-0.0909932779484084,0.161623660232059,-0.0105582342265936,0.000242157828998152,0.00287680009497386
0.995,-0.58796172683364,0.322101587039218,0.74158511924163,-0.00136644395339775,-0.000899994076315351,-0.00102558486691361,-0.99382162801155,0.0753304797492911,-0.0791789483645131,0.000276840389461558,0.0052746656353623,-0.00137308218183004,-0.951849761861891,-0.277797220345037,0.123747962408718,-0.000342234766547509,-0.00157945648265584,-0.00384568390837859,-0.981008615982395,-0.0913064166669186,0.161934298937405,-0.0103222996911919,0.000657808838852762,0.00290500968947756
1,-0.587775613368065,0.321874731674933,0.741445618037851,-0.00136798769671307,-0.00145704692705883,-0.00187385472143587,-0.993727881288698,0.0750624792588752,-0.0791569876193304,0.000864104429174919,0.00518469752677055,-0.00167396608662758,-0.951682201960945,-0.27777451413003,0.124148659802698,0.000316638528525172,-0.00175224071450144,-0.00369755971899839,-0.980490011498466,-0.0918483200878461,0.16230314427806,-0.00986915796574037,0.00115899339448723,0.00278031210772365
1.005,-0.587608593380594,0.321650153209179,0.741318543366628,-0.00129450631091926,-0.00191097753216067,-0.00271150330322169,-0.993576921154846,0.0747997652720022,-0.0791605441222358,0.00152751035535411,0.00509664717855332,-0.00195005600975751,-0.951477507717084,-0.277695370925255,0.124597776785257,0.00105269953493854,-0.00188546730124956,-0.00346589310864215,-0.979956490156133,-0.0925593968494922,0.162717902567146,-0.00923162166088896,0.00174543476375194,0.00254025063855171
1.01,-0.587467884643578,0.321441898443655,0.741188795155171,-0.00113639895329523,-0.00229446481213902,-0.00353246107872977,-0.99337907607068,0.0745407024020463,-0.0791819071846247,0.00227321104576164,0.00501672554285489,-0.00219433302042208,-0.951247312533252,-0.277553653280049,0.125089490627589,0.00186848672094399,-0.00197143225443782,-0.00316582303047985,-0.979423471414479,-0.0933752584434639,0.163168406888387,-0.00846032792344456,0.00241176000509689,0.00222743512047757
1.015,-0.587363361447064,0.321280153276852,0.741030345658254,-0.000891672517479071,-0.00262277737109737,-0.00432246850808074,-0.993159094774556,0.0742860927968577,-0.0792113953812439,0.00309441870066051,0.00495215717405285,-0.0024007476230503,-0.951012797077553,-0.277368357270941,0.125622195326407,0.00275395057300063,-0.00200600220394529,-0.00281270500857565,-0.978913041365479,-0.094240596429173,0.163641117836823,-0.007603598219472,0.00314908527310314,0.00187541536365528
1.02,-0.58730581549028,0.321197908006111,0.740825356211905,-0.000565325477451353,-0.00289276949391434,-0.00506011022233125,-0.992948257799479,0.0740405051236899,-0.0792423961623146,0.00397221292753239,0.00490868653878697,-0.00256408121171886,-0.950799992709632,-0.277172591194279,0.126190950083232,0.00368750515063647,-0.00198818569288177,-0.00242169804200401,-0.978457491921605,-0.0951085926063271,0.164115401387564,-0.00669759900296565,0.00394457825119191,0.00150456001260855
1.025,-0.587307264051988,0.321226123779008,0.740563646092465,-0.00016911504883351,-0.00308564424884873,-0.00571822118010828,-0.992780956737205,0.0738068919731223,-0.0792700850777713,0.00487672820144728,0.00488913331777317,-0.00268036867796765,-0.950636891357083,-0.277005410627155,0.126789858372486,0.00463730493392667,-0.00192023885100229,-0.00200898722427608,-0.978098750329714,-0.0959359323594097,0.164562637471092,-0.00576406559958986,0.00478004122755833,0.00112237807698651
1.03,-0.587379870017885,0.321394047147473,0.740238833056732,0.000277284764543287,-0.00316790675166619,-0.0062632843374598,-0.99269209257206,0.0735839792184258,-0.0792892878649683,0.00576571309553601,0.00489302651925646,-0.00274728731887068,-0.950550872567383,-0.276909020138131,0.127415550846997,0.00555984520741807,-0.0018083145043179,-0.00159289501038956,-0.977886976203183,-0.0966847111245097,0.164944399856413,-0.00481193059209047,0.00563010706064979,0.000725183630819646
1.035,-0.587531683620266,0.321722752335669,0.739852053780388,0.000745344548081187,-0.00309241636666184,-0.00665469524629245,-0.992711505903828,0.0733676058454478,-0.0792940112504263,0.00658304344993803,0.00491607536571878,-0.00276425831115336,-0.950564354966449,-0.276921219561246,0.128065103515176,0.00639849760746038,-0.00166282863880866,-0.00119475371800882,-0.977871848505194,-0.0973292737514322,0.165217796911675,-0.00383929073036663,0.00646030054730396,0.000300304637682158
1.04,-0.587757605519688,0.322202093889355,0.739427222022464,0.00119971794076764,-0.00280552838429307,-0.00684873970806465,-0.992849843158484,0.0731574983603037,-0.0792774407699673,0.00726331702969786,0.00495074620658315,-0.00273260440870191,-0.950685771547907,-0.277044075734575,0.128722051401408,0.00708809810002101,-0.00149772597976533,-0.000837659176372534,-0.978072096593571,-0.0978608821622722,0.165363078367132,-0.00283703380354818,0.00722891932815226,-0.000169218636333977
1.045,-0.588032239284667,0.322770229409027,0.739023849774881,0.00160768240372729,-0.00227049163671084,-0.00681457352854765,-0.993085146933382,0.0729648211849453,-0.0792320261741718,0.00775215956785592,0.00499125344901013,-0.00265614558632922,-0.95090154374055,-0.277212149002662,0.129342051876429,0.00757512385004158,-0.00132727132271175,-0.0005392415635671,-0.978445376250108,-0.0982864680846935,0.165411397620322,-0.00180011166052368,0.00790020952327559,-0.000692656216763239
1.05,-0.588319626605377,0.323337360014911,0.738717983176232,0.00195077114360349,-0.00149547715150445,-0.00655344118478427,-0.993375029073911,0.0728064630604425,-0.0791508875814465,0.00803099581786437,0.00504026656456605,-0.00254180742236226,-0.951183538875922,-0.277323726602147,0.129867539251059,0.00784224511319421,-0.00116205696999382,-0.000302595343400699,-0.978915879712922,-0.0986194872911722,0.16541719474901,-0.000742012280400455,0.00846108634441009,-0.00125776322887984
1.055,-0.588592399099499,0.323837740277272,0.738564514587849,0.00222410941916119,-0.000533787705729751,-0.00609773809088413,-0.993686696135788,0.0726906016436795,-0.0790315500465584,0.00811537360924153,0.00510868022608885,-0.002399231229708,-0.951506987820265,-0.277319430095478,0.13026202227223,0.00790651245682391,-0.001008952269268,-0.000117509390599659,-0.979439998230305,-0.0988707833732894,0.165396520023719,0.000303084587735572,0.00891887826592535,-0.00183045665322273
1.06,-0.588832589931549,0.324243288114756,0.738591027681971,0.00242612858604289,0.000540579159048188,-0.00549344595090049,-0.994005608588587,0.0726162061049679,-0.0788805146412008,0.00803179503898591,0.00520733999798515,-0.00223939507360123,-0.951855233065712,-0.277213493240107,0.130517805258937,0.00779615800017587,-0.000873957025395526,2.81951959096148e-05,-0.980015264424769,-0.0990515233563171,0.165325231953884,0.00129328126033285,0.00928290312970073,-0.00236815867847063
1.065,-0.589019089328613,0.324539442688756,0.738814262881471,0.00255670635839103,0.00164698512255975,-0.00479262878788731,-0.994320661326379,0.0725834350005299,-0.0787117972705562,0.00781014822570626,0.00533822117044905,-0.00207327683254402,-0.952211160934507,-0.277055750470255,0.130636696193332,0.00754302803306503,-0.00076196137956447,0.000140505382528487,-0.980632401637425,-0.0991756815660348,0.165191962914994,0.00219512109867031,0.0095574432542403,-0.00283228184226776
1.07,-0.589132240670745,0.32471719241913,0.739231151839345,0.00262160200202507,0.00270044457660821,-0.004054866664712,-0.99461711014798,0.0725918916767825,-0.0785362348423917,0.00748962039652679,0.00549242809725264,-0.0019111675282195,-0.952555324097444,-0.276885185122505,0.130623359829885,0.00718848198871647,-0.000674796866057535,0.000219753517009,-0.981262690428202,-0.0992417626896685,0.165006503200136,0.00298988657251571,0.0097490180139597,-0.00319320782201417
1.075,-0.589168943314177,0.324781248685952,0.739801596297027,0.00262689406366616,0.00362172397068761,-0.00333961574747117,-0.994881557522655,0.0726313014018235,-0.0783548726538721,0.00710844991269092,0.00565678073359413,-0.00176259025662337,-0.952871005606357,-0.276715446654666,0.130493066560453,0.00677296194507067,-0.000613521920646966,0.000263511528380522,-0.981887518282853,-0.0992200121065912,0.164761187916441,0.00366333140610176,0.00986619706612661,-0.00342912322670755
1.08,-0.589140298992783,0.324748271279979,0.740459063302456,0.0025700664419461,0.00434972423846614,-0.00269469670798414,-0.995103123831593,0.0726841067062147,-0.0781654953538526,0.00668780315489462,0.00582139621457221,-0.00163635783847473,-0.953143303890601,-0.276543527730954,0.130269620802982,0.0063196301207946,-0.000582060277507644,0.000268321129589365,-0.982492471173932,-0.099084193247069,0.164435210199492,0.00419482062899285,0.00991148554595199,-0.00352387624742401
1.085,-0.589058440667303,0.324642676964941,0.741129416385553,0.00244617950480279,0.00484924711791425,-0.00214947535088029,-0.995270900931105,0.0727354302126483,-0.077969497903353,0.00623836902493966,0.00598233058208178,-0.00154018835701683,-0.953355160505035,-0.276357830820073,0.129976449901615,0.00584124784468219,-0.000585625977198633,0.000237803683750788,-0.983028532121108,-0.0988542422620572,0.164040030915265,0.00457006625600416,0.0098868861030518,-0.00347186511712884
1.09,-0.588933291243013,0.324494558184272,0.741743511597348,0.00226242893547955,0.00511771869852951,-0.00170995896772112,-0.995375758606026,0.0727772973265914,-0.0777714597393489,0.00577915783715273,0.00614195075040253,-0.00147988036324557,-0.953490971097669,-0.276145134112869,0.129635524187312,0.00535959289374068,-0.000626168161636285,0.000195583832343213,-0.983423123101788,-0.0985847144971593,0.163617493099648,0.00480479689820395,0.00981061700160255,-0.00328672286289365
1.095,-0.588776759517315,0.32433100968533,0.742252160588693,0.0020401036709119,0.00518177401800939,-0.00136143559561818,-0.995414402774287,0.0728076254869144,-0.077578519073219,0.00534024748055129,0.0063075884778323,-0.00145851257766073,-0.953544567912222,-0.275902778972578,0.129271450049804,0.00490799871774966,-0.000700980759514337,0.000184007265326362,-0.983639273463794,-0.0983144735700607,0.16318928897385,0.00494429680101256,0.00971746455197299,-0.00300042710230638
1.1,-0.588604069945674,0.324168986206293,0.742631332931908,0.00180367139330633,0.00508159311016933,-0.0010807443219912,-0.995390095572834,0.0728280388239605,-0.0774011109814948,0.0049500427468517,0.00648787874660102,-0.00147597238121076,-0.953521161275669,-0.275643272647889,0.128912532431294,0.0045175076845757,-0.000804633871929515,0.000246726493763079,-0.98369885067761,-0.0980453506221904,0.162736215313652,0.00503944498607474,0.00964034343341702,-0.00265254814834461
1.105,-0.588431787793094,0.3240178898807,0.742873005947344,0.00157221754519133,0.00485882604864902,-0.00084656110194201,-0.995311357576405,0.0728418726720079,-0.0772520022920614,0.00462570568460788,0.00668984418852531,-0.0015288045962639,-0.953433717077963,-0.275388034976687,0.128588670065194,0.00420644152334854,-0.000930615039327653,0.000414706954481868,-0.983656526692179,-0.0977600694798632,0.162219538528814,0.00512823710999703,0.00959594054963158,-0.00228177895094939
1.11,-0.588274934181449,0.323884177988566,0.742978776680206,0.00135807224614948,0.00455355206047367,-0.000643040539864609,-0.995190773848816,0.07285210552888,-0.0771436118678604,0.00437225031475327,0.00691762060997529,-0.00161026178998616,-0.953299054891271,-0.275161243781953,0.128328281981693,0.0039793118676002,-0.00107150124818483,0.000702622865732251,-0.983570584724692,-0.0974434381228714,0.161606312838978,0.00523188538380953,0.00958179583985734,-0.00192372214831423
1.115,-0.588143396607474,0.32377245609865,0.742959397904522,0.00116821326204801,0.00420357478582952,-0.000459702709706011,-0.995040094875988,0.0728572848391141,-0.0770839238619967,0.00418519300587544,0.00717174810600726,-0.00171090224484623,-0.953130913953448,-0.274983550667494,0.128152934892113,0.00382974074039984,-0.00121897571852093,0.00111027391845606,-0.983474695476656,-0.0970961637560537,0.160898768825546,0.0053575242378801,0.00958020100867683,-0.00161051672703435
1.12,-0.588039711313552,0.323684803474665,0.742833865704951,0.00100648935735601,0.00384287507742605,-0.00028640028957573,-0.994863996233459,0.0728486952425747,-0.0770744021964859,0.00405446396412561,0.0074497067571559,-0.00182040780556893,-0.952932526379274,-0.274866532418868,0.128071654003393,0.00374513944711176,-0.00136484002198544,0.00162824061923996,-0.983354770577651,-0.0967444123004681,0.160158206890882,0.00550509059072552,0.00957139430724636,-0.00136943255559748
1.125,-0.587960040072084,0.323617448967557,0.742632243271777,0.000876632761786948,0.00349942888911092,-0.000107184365361103,-0.994663856541564,0.0728156083055666,-0.0771152184555201,0.00396960651036707,0.00774694506785497,-0.0019297507860612,-0.95270161683962,-0.274818974084237,0.128082676354354,0.00371281444505697,-0.00150213467720411,0.00224507431660466,-0.983172433199546,-0.0964354492503873,0.159474419065406,0.00567633455009846,0.00954958363037123,-0.00122120823560868
1.13,-0.587896193859825,0.323556859175722,0.742400942378386,0.000785829198328081,0.00319205472129817,9.54645479456879e-05,-0.994449536610613,0.0727544369163491,-0.0772128909453774,0.00392665182633726,0.00805506518418188,-0.00203160907836745,-0.952445092596498,-0.274861152065145,0.128182229464213,0.00372704648561439,-0.00162408952479056,0.00294819059044514,-0.982922196986211,-0.096217013496402,0.158897571487714,0.00588056216907738,0.00952323353029169,-0.00118067716692361
1.135,-0.587839910743718,0.323485889043939,0.74219300196901,0.000746952403934555,0.00292797079559382,0.000327878808207378,-0.99424277004029,0.0726691175287307,-0.0773775685918761,0.00393344425672374,0.00835744475037557,-0.00211913465876869,-0.952183908500893,-0.27502345506247,0.128369442266591,0.00379390965433969,-0.00172166184659203,0.00371771562895834,-0.982647451805175,-0.0961136515910789,0.158419805888691,0.00613421328496757,0.00949968245414622,-0.00125965788029815
1.14,-0.587792100201794,0.323399846969565,0.7420396142227,0.000775297037946225,0.00270577994760904,0.000582168324850817,-0.994065706797973,0.0725611048504346,-0.0776080795805767,0.00400510563701667,0.00862923773237853,-0.00218547950389623,-0.95194101725814,-0.275315933546495,0.128641190390717,0.00392640684229147,-0.0017839839781067,0.00452299630473118,-0.982393670851349,-0.0961218806020182,0.158026347858414,0.00645390460310117,0.00947525599725462,-0.00146789986887258
1.145,-0.587768778606477,0.32331508554599,0.741932138389802,0.000879947782645,0.00252343291186306,0.000851716034328631,-0.993927509220218,0.0724228516016091,-0.0778819424614769,0.00414933289985968,0.00884780374885271,-0.00222545791470358,-0.951727177370518,-0.275700293935873,0.128983718823914,0.00413024327271221,-0.001803406675874,0.0053317960130985,-0.982161263789549,-0.0962287143568534,0.157743216811082,0.00684746925672811,0.00944391520267309,-0.00180816228944938
1.15,-0.587793496069262,0.323261337298776,0.741839245629373,0.00105694878646047,0.00238381009861418,0.00114945488295461,-0.993827052875413,0.07224629341438,-0.0781684990059274,0.00435427060112963,0.00900531720910329,-0.00223764312191506,-0.951543529827058,-0.276117581959577,0.129374249533565,0.00439246185500542,-0.00178054958302082,0.00612450091190938,-0.98192189730503,-0.0964168422239602,0.157620587765916,0.00730935088508178,0.00941277307857968,-0.00226932803954783
1.155,-0.58788170614313,0.323264817628231,0.741738353760943,0.00128927900820725,0.00229428031813902,0.00150699586974917,-0.993766166004899,0.0720374861285202,-0.0784527151950238,0.00458810437481109,0.00910679840074617,-0.00222393923647373,-0.951395357942849,-0.276545620332906,0.129790630215192,0.00468087673254749,-0.00172386264461018,0.00689120729513496,-0.981673966639876,-0.096650125079787,0.157677752514671,0.0078185198471859,0.00940127313546402,-0.0028267975272787
1.16,-0.588030051012322,0.323328130269249,0.741624637109456,0.00155233981137296,0.00226305902841761,0.00195561626970673,-0.993748755126344,0.0718208670847532,-0.0787389364414562,0.00480885201043772,0.00915683412382704,-0.00218707384467182,-0.951292990875816,-0.276994210207407,0.130210239393691,0.00495289931051155,-0.00164459880636113,0.00761506185573797,-0.981457171447089,-0.0968975355121854,0.15787979703759,0.00833874181236814,0.00942465702935657,-0.00344913852991021
1.165,-0.588216177471844,0.323418534472364,0.741498373739578,0.00182347053982857,0.00229485902900626,0.00250562068984506,-0.993767691699291,0.0716324713592391,-0.0790356684196578,0.00498242274277962,0.00915535025704313,-0.00212910622327013,-0.951240387582255,-0.27744870269089,0.130599165482774,0.00517317575430437,-0.00155157508394451,0.00827056630361347,-0.981320606870147,-0.097182239352546,0.158158510750554,0.0088303315778333,0.00948443122660952,-0.00410069305819526
1.17,-0.588409368928066,0.3234850780989,0.74135614628985,0.0020904831745091,0.00238774328539188,0.00313421914918289,-0.993804537024213,0.0715089547721384,-0.0793474492986184,0.00509946394200139,0.00910386550389311,-0.00205161702572409,-0.95123228008493,-0.277865464522222,0.130915829877192,0.0053307050606203,-0.00144832373102438,0.00883640556068908,-0.98130177137716,-0.0975606541413162,0.158440784700612,0.00926636137901708,0.00957032943882677,-0.00473892524160483
1.175,-0.588586339348716,0.323494523289538,0.741195787267938,0.0023506655770909,0.00253327791423441,0.00378879334239435,-0.99384138431159,0.0714761917187461,-0.079678171227232,0.00517348097672036,0.00900673564607054,-0.00195609286976856,-0.951259561204146,-0.278219276024196,0.131129488856753,0.00543709289306353,-0.00133390946289029,0.00929692015924217,-0.981421485876065,-0.0980540078555724,0.158670611908013,0.00963246715490491,0.00966212972091602,-0.00531506334784465
1.18,-0.588738136854486,0.323444804475434,0.741024903732409,0.00260494455230362,0.00271682272195002,0.00440521904706173,-0.993865168369721,0.071544241270047,-0.0800326275032531,0.00522658236946833,0.0088666313741553,-0.00184390548172515,-0.951310329744879,-0.278518029736087,0.131228408883002,0.00551239470385893,-0.00120551265617284,0.00963520648357436,-0.981675132288796,-0.0986381842169671,0.158821089098495,0.00991878797411927,0.00973272423260999,-0.00578197152034049
1.185,-0.588862132074471,0.323346018210798,0.740858083310499,0.00285648842915352,0.00291526217694999,0.00492480291602711,-0.993865160679171,0.0717115570636104,-0.08041369119183,0.00528247218372963,0.008682826666425,-0.0017163059382906,-0.951370562669422,-0.278780918226356,0.13121233387209,0.00557845882041792,-0.00105971532019579,0.00983345285266049,-0.982042903252037,-0.0992743587202068,0.158880944552064,0.010121304927721,0.00975479304387467,-0.00610234505222541
1.19,-0.588952332366743,0.323198404967865,0.740703078392162,0.00310913811131809,0.00309804517650864,0.00529567526538813,-0.993833732130408,0.0719709412260537,-0.0808187605466232,0.00536405255395353,0.00845145910586201,-0.00157470990562382,-0.951429562469534,-0.279018397101343,0.131084987002187,0.00565661689277191,-0.000893266028771337,0.0098730022954152,-0.982518612229279,-0.0999254323882086,0.15882560812232,0.0102410315656704,0.00970048329694072,-0.00624906359331065
1.195,-0.588999513180523,0.322987515405273,0.740554021153927,0.00336433397732967,0.00323449089029029,0.00546555038504197,-0.993767717637763,0.0723118991970139,-0.0812372826282849,0.00549121964336676,0.00816795988193565,-0.00142093551369369,-0.951482760039184,-0.279218100276041,0.130852893292529,0.00576536398072432,-0.000703870835935931,0.00973470778451458,-0.983116469108928,-0.100574542856955,0.158607154574876,0.0102809487859683,0.00953499927497219,-0.00620153932861753
1.2,-0.588996991622226,0.322698600599525,0.740399458233189,0.00362168255189779,0.00330015682185277,0.0053779857135907,-0.993667608273405,0.0727206770833276,-0.0816533682263439,0.00568279916065807,0.00783227280564424,-0.0012570392063045,-0.951528897175309,-0.279354146786051,0.130527692073327,0.00592241256107533,-0.000489895701310193,0.00940649213565966,-0.983848365435367,-0.101222837734467,0.158180473489576,0.0102516851259723,0.009214767480181,-0.00594474393682399
1.205,-0.588952644757791,0.322351373343651,0.740231430426768,0.00387961249472059,0.00327805636327995,0.00497846977406421,-0.993538479242311,0.0731762130217776,-0.0820510349151064,0.00595537146318337,0.00744945722585037,-0.00108496945848382,-0.95156562255603,-0.279418791580424,0.13013251784327,0.00614366882542239,-0.000250278301385697,0.00888606571731419,-0.984674355695864,-0.101843288340289,0.157566574177914,0.0101722785288898,0.0086934002629392,-0.0054713799762894
1.21,-0.588903261838232,0.322029694176585,0.740045930994609,0.00413641284025994,0.00316066270400245,0.00424313956225646,-0.993392471384987,0.0736446653612699,-0.0824143907454785,0.00631591054141701,0.00702748324764224,-0.000906257886826185,-0.951587148216772,-0.279431250048466,0.129707488020373,0.00643644306505735,1.44578675707377e-05,0.00818365785077207,-0.985453574533924,-0.102353862053391,0.15690602354325,0.0100660453934311,0.00794544969977282,-0.00479344943827679
1.215,-0.588903825503751,0.32185449967606,0.739842856141006,0.00439475032401927,0.00295464668219836,0.00321711368807569,-0.993248439813424,0.0740855664193422,-0.0827269094385827,0.00675702078179517,0.00657914765367424,-0.000721728324917093,-0.951588673469137,-0.279423102468616,0.129302046669304,0.00679572976315066,0.000301505183851259,0.00733463287171989,-0.985988291533631,-0.102642648423877,0.156410087205148,0.00996490307095428,0.00699959487836224,-0.00395985668499456
1.22,-0.588991714968118,0.321911127584154,0.739629770070372,0.00466077249614933,0.00268000863300231,0.00201398621845265,-0.993127185257934,0.0744678691574445,-0.0829758376764134,0.00725568136840536,0.00612120676054655,-0.000531447756432807,-0.951574052683443,-0.279429232549021,0.128956904510846,0.00720286402296284,0.00060561682506692,0.00639747923495336,-0.986149961374607,-0.102609056321036,0.15623222825927,0.00990624413793993,0.00593920079926086,-0.00305569051497169
1.225,-0.589164963127303,0.322204240797203,0.739420829771924,0.00493628775855516,0.00236205437809681,0.00077168366611331,-0.993042819185514,0.0747778793836893,-0.0831548941173796,0.00777467751141879,0.00566775472541847,-0.000335107731690217,-0.951554143669579,-0.279470837937264,0.128690949015653,0.00762545365995277,0.000919278444064347,0.00543048358023579,-0.985940867767112,-0.10220893172384,0.156395555471116,0.00991588323819471,0.00486546026559144,-0.0021786292619332
1.23,-0.589389051330642,0.322669638797039,0.739230247452857,0.00521746653835786,0.00202421344723529,-0.000391945675542325,-0.992996025340729,0.0750153807887671,-0.0832607653285381,0.00827432244298661,0.00522786934867271,-0.000132707463628059,-0.951537532596712,-0.279532376276078,0.128500301557649,0.00802790999625769,0.00123441012251078,0.00447780180180408,-0.985451438121216,-0.101485489003171,0.156817777187127,0.0100012147814433,0.00386324257234325,-0.00141354157147438
1.235,-0.589620683504666,0.323223384208787,0.73906977257081,0.00550095113213064,0.00168517944308854,-0.00140030491001926,-0.992981034822909,0.0751856120623826,-0.0832899900145259,0.00872843338333032,0.0048088835347329,7.49594844064248e-05,-0.951529848809678,-0.279576987583134,0.128371851463707,0.0083871977397846,0.00154485874927025,0.00357302332337522,-0.984792375454219,-0.100528199770172,0.157383745317748,0.0101584798437223,0.00298816840264637,-0.000818640439878172
1.24,-0.589832765207463,0.32380987616455,0.738951176720025,0.00578407372272749,0.00135954413703889,-0.00221385201696517,-0.993000941142487,0.0752905278519096,-0.083240474419708,0.00912316206081545,0.00441718676740017,0.000286590740999367,-0.951541230500208,-0.279589376858685,0.128301716583138,0.00869180102884713,0.00184641043214221,0.00274178418453357,-0.984050993204426,-0.0993940281920707,0.158013772447455,0.0103738341905406,0.00227024884648658,-0.000427317172361991
1.245,-0.590016195994729,0.324403627321298,0.73888730511535,0.00605911529887629,0.00106040915722565,-0.00281139853316963,-0.993067194135368,0.0753246425234772,-0.0831133971616048,0.00944246539983297,0.00405590101574641,0.000500756664432456,-0.951583997759976,-0.279579430111481,0.128294316182737,0.0089274107749136,0.00213442808085306,0.00199918765888237,-0.983289077652752,-0.098120249547316,0.158668595085016,0.0106192886116563,0.0017247764992746,-0.000259008766986305
1.25,-0.590160852343875,0.324978414667963,0.738889486788762,0.00631471225476743,0.000801028092158032,-0.00317870489742422,-0.993183956365395,0.075278212447429,-0.0829114181093327,0.00966778783145417,0.00372475925010932,0.000715018147094544,-0.951661037544696,-0.279548082360232,0.128345005669028,0.00907704683831209,0.00240294147217376,0.00135237992368629,-0.982567133997633,-0.0968075532346749,0.159302196415821,0.0108651669945547,0.00135663400214055,-0.000322266664731594
1.255,-0.590249253155358,0.325499222236846,0.738965041622567,0.00654352074827306,0.000595043964703696,-0.00330802632296332,-0.993344642309945,0.0751413910253261,-0.0826362523395274,0.0097910712999631,0.00342248213521617,0.000924387195411522,-0.951764916947935,-0.279479720888781,0.12843800663006,0.00913459411135914,0.00264558961755116,0.000808228889525984,-0.981947581838591,-0.09560857369822,0.159851493710704,0.0111025144263505,0.00115708594004561,-0.000608945180316549
1.26,-0.590267260808957,0.325937739599715,0.739119920057782,0.00674287236107511,0.000456409567717732,-0.00319782595074341,-0.993543011041085,0.0749069633386078,-0.0822906362809563,0.0098159205565673,0.00314757764620696,0.00112113240755706,-0.951888373998562,-0.279368326193315,0.128560702927142,0.00910608198006723,0.00285562131766654,0.000375218767968641,-0.981472563589266,-0.0946279386786904,0.160274489059916,0.0113440475911665,0.0011050025553743,-0.00109388204110975
