Header,foot_Accel_X,foot_Accel_Y,foot_Accel_Z,foot_Gyro_X,foot_Gyro_Y,foot_Gyro_Z,shank_Accel_X,shank_Accel_Y,shank_Accel_Z,shank_Gyro_X,shank_Gyro_Y,shank_Gyro_Z,thigh_Accel_X,thigh_Accel_Y,thigh_Accel_Z,thigh_Gyro_X,thigh_Gyro_Y,thigh_Gyro_Z,trunk_Accel_X,trunk_Accel_Y,trunk_Accel_Z,trunk_Gyro_X,trunk_Gyro_Y,trunk_Gyro_Z
44.785,-0.540067721492716,-0.151578165620797,0.976374333623217,0.0386251142888349,-0.110516547366213,-0.148928051466763,-1.06433501632882,-0.227824215228668,-0.131365130503159,0.739874379887175,1.49519835457438,0.295936818707653,-0.268065102719968,-0.427367348785789,-0.837303557783022,-1.3067384096321,-0.807670450238499,-0.557937973071733,-0.801378778360469,0.0195453036098856,-0.0380846505742812,0.409262143958997,-0.185389991955416,0.192671433927644
44.79,-0.503066515826969,0.0514210742569551,0.911350452224398,0.18145970621916,-0.159117900527366,-0.157282631561517,-1.05411777221731,-0.160755925219609,-0.18652146120716,1.25861561918919,1.42837992727082,0.288685967912884,-0.267980564916203,-0.421777458137008,-0.512019779002443,-1.67335904795704,-0.531352643547467,-1.08610531066639,-0.836487238377258,0.0640771113319057,-0.0337343957220844,0.416291710774167,-0.218278152236344,0.157972821200905
44.795,-0.55179809762545,0.223678357564476,0.86200839798307,0.161462272248927,-0.155453931129009,-0.125165849097457,-1.13805221052073,0.0234372388384231,-0.181897489532697,1.61128040285448,1.39243707689148,0.369396910065642,-0.417871307813406,-0.474202124698957,-0.105988642425017,-2.14684491131565,-0.3359616513407,-1.58380356952935,-0.885913581216717,0.102805129711585,-0.0331747644680552,0.427908310042863,-0.226192242848027,0.115986964030656
44.8,-0.563666110347451,0.282291187663113,0.844567530063129,0.0929986594371893,-0.138419305983882,-0.0878743354102104,-1.10705185288986,0.148882957144128,-0.0948506397491766,1.77397801848252,1.3283283688615,0.315278109203531,-0.677696181425256,-0.546876860152211,0.270005584605827,-2.58540376864315,-0.251766444879989,-1.98986002854613,-0.922921341545612,0.127962518752076,-0.0455072574229684,0.429015333429548,-0.220657616049422,0.079025118139966
44.805,-0.483594322421711,0.217290644451016,0.86530166675478,0.0163629959686012,-0.113168314315099,-0.0696268104224748,-1.12018578921589,0.203355781301168,-0.0827054009789888,1.89644712950392,1.29381122736772,0.281225308895057,-1.01304740607723,-0.618338204661956,0.673699666934964,-3.00003844531266,-0.226822440022363,-2.28582798604681,-0.954961793091565,0.124023079200613,-0.0520812958129817,0.401294737287236,-0.206954769477106,0.0306100928098509
44.81,-0.430261520569465,0.196709601630498,0.869646284018977,-0.0394530858555486,-0.106565347014775,-0.0913350482746461,-1.10087750417516,0.288491181992272,-0.0339249905954845,1.76428311582019,1.24785536199252,0.261716900925317,-1.21627355118934,-0.633189729537256,0.896479156945559,-3.15739991525615,-0.278041532068908,-2.25165099855994,-0.968424525509016,0.113798669356882,-0.0542978943420195,0.3560083702359,-0.192657915195987,-0.0213941838942102
44.815,-0.450492438465568,0.256376393113231,0.841425470880874,-0.0912384225493201,-0.104786932468414,-0.127304506580775,-1.04539445268511,0.362089198695181,-0.010993944442199,1.51425127894312,1.21040280157503,0.301084136870395,-1.28574656022564,-0.557861736703701,1.00981710586456,-2.9252562148346,-0.4182341514239,-1.8440611851615,-0.959279874277045,0.110635248822901,-0.0644736535731908,0.294625808408516,-0.182824134603208,-0.0637880177546528
44.82,-0.46827848936681,0.297937525328539,0.829822253738728,-0.144618674731675,-0.116245846769195,-0.140798158023585,-0.974058242522708,0.418433244808626,-0.0112474595018325,1.16544339086347,1.19348616415053,0.319346342199722,-1.2254026436355,-0.4315539176736,1.02216050855716,-2.2739457832917,-0.529749297202118,-1.3237882923228,-0.924787502809525,0.113944848774391,-0.0781823477816926,0.259285894859976,-0.177930199455484,-0.0870471075349052
44.825,-0.45990365147861,0.303271551458519,0.816013197915192,-0.183747633113763,-0.124439136371711,-0.153408540989782,-0.916079892126838,0.502245843270383,-0.0144206955760657,0.80510688597744,1.1804084273412,0.281778659618126,-1.09378246477713,-0.259107645204849,0.980089341504857,-1.66456720952336,-0.639405703579914,-1.10119033877388,-0.908647738040292,0.10670211393138,-0.0860638587609965,0.259258607666293,-0.171012395783019,-0.110396565016059
44.83,-0.432393710754111,0.288913820010792,0.835118338995257,-0.181692259496035,-0.128600976616171,-0.149564663803135,-0.885721301554091,0.568284510018667,-0.00118634326779079,0.218366484475417,1.1407933441355,0.199634647677706,-1.04330654475304,-0.203480461233309,0.90706933916096,-0.794141918762359,-0.474545622906846,-0.994531654637584,-0.888155763854542,0.100913047397493,-0.0850422475535917,0.25941475491038,-0.130738071087866,-0.109272174392532
44.835,-0.410683596968989,0.254993896663655,0.844846849260754,-0.188893129407774,-0.131091778237703,-0.162065759458702,-0.87432728756864,0.540834821264081,0.0180358288822923,-0.361542423314409,1.10661446994807,0.129362676342634,-0.907677380783317,-0.211142861542587,0.725264307909503,-0.0902708953508828,-0.462789566487831,-0.950893295857198,-0.902736959956859,0.0621910087440631,-0.090820394144972,0.247332997379557,-0.0524625165143257,-0.1046986742716
44.84,-0.41968660129675,0.254901341575921,0.844365982387201,-0.190227797046933,-0.129754017622537,-0.167787079533026,-0.893419979320892,0.447259111712122,-0.00266740327872952,-1.02516642130546,1.09119153607108,0.0448773840546746,-0.870796403161931,-0.234629099702096,0.627720371442899,0.181056073046675,-0.507103979264762,-0.925950765422044,-0.893539404812902,0.0508730711573354,-0.0760237581010947,0.238435878433923,-0.00549132881597352,-0.115098059722234
44.845,-0.460749048775302,0.265018459784848,0.839155546413989,-0.200566003793492,-0.115267608236407,-0.160403842113692,-0.923048350964858,0.385911073290731,-0.0314636736262034,-1.40754674377827,1.0948288731729,0.00334960773044591,-0.834753147990014,-0.233140370891714,0.538348997531952,0.296101767876014,-0.497712245747659,-0.93131958129422,-0.877128707930552,0.014438825235322,-0.0431495956616041,0.220507409902222,0.0342987275295652,-0.1325802670077
44.85,-0.489924415164928,0.238740378884905,0.848400943120842,-0.228449677466221,-0.0988803801055606,-0.142819243579065,-0.950624821151903,0.335278873996247,-0.0703735583551856,-1.79960074263623,1.10872952887755,-0.0528225277969528,-0.840608120745795,-0.237240488953112,0.508439047481377,0.345036262074415,-0.399918329654568,-0.964591507634639,-0.918928447355607,-0.0158055705038884,-0.00201886340083846,0.220190994935476,0.00334138072703028,-0.172558330004636
44.855,-0.462216904727083,0.212565383550481,0.865169871565951,-0.238984548075228,-0.0936361332056504,-0.132052345760232,-0.987166833044352,0.274621049973737,-0.0587398255312196,-1.98260516491383,1.11750992580346,-0.0820029100774094,-0.849572573734047,-0.243273263372537,0.502825010002912,0.426873617185339,-0.147675428699311,-0.956439324937439,-0.998498231205176,-0.0254116690589154,0.0219908625038737,0.210679346482294,-0.0642724386141365,-0.197871329543488
44.86,-0.43003965394295,0.197895345576102,0.872806400687374,-0.229868152241209,-0.086596543521953,-0.133187526172878,-1.02879651307082,0.155267066813717,-0.0235988529697357,-1.99031127504737,1.1087121890866,-0.0647495408884806,-0.899592145292208,-0.251063014382745,0.516835595077978,0.439891303615783,0.157029749924394,-0.994892210464697,-1.07027769360838,-0.0352547810986577,0.0196165375538133,0.200598877847508,-0.152672418050264,-0.199343043547102
44.865,-0.427187199239634,0.210994754904522,0.868253805120706,-0.224134227430161,-0.0778408020868037,-0.137649427252678,-1.0621209737342,0.0557008749881286,-0.0227287502530227,-1.77714901259566,1.069617949714,-0.0323821920148326,-0.936796796312272,-0.241964060640311,0.530029529668454,0.463489682974221,0.451703920337444,-1.03210612253148,-1.13025571836969,-0.0531940088692735,0.00315812768093761,0.1917822925158,-0.246605553244669,-0.200862320585542
44.87,-0.444352438305998,0.210184017364045,0.858698574293021,-0.224564221768324,-0.0695530442749589,-0.138337585507992,-1.0698865661884,0.00379585198987457,-0.0407384518127209,-1.4897072116076,1.04477105643385,-0.0170133127288936,-0.98325897735431,-0.21708074320333,0.495634371563431,0.504799116138059,0.727174399487116,-1.04501252977836,-1.13736779787881,-0.0618296910026711,-0.0105732784350431,0.196998810902159,-0.301748650585449,-0.218785401611635
44.875,-0.456231386019656,0.199655642122352,0.860934664937252,-0.233959868964775,-0.0571055401849179,-0.144394792823604,-1.05765079243153,-0.00898473382622039,-0.060248015609758,-1.02326704409897,0.993995631712296,-0.00432546565821103,-1.02123565682658,-0.194605119719093,0.427708911759389,0.492177027732351,0.80456245134216,-0.999527567141572,-1.11392705371227,-0.0628165643834294,-0.0215856493016054,0.197587727960592,-0.325136622756465,-0.245089101899515
44.88,-0.45497294920922,0.19178911863494,0.863860255490058,-0.219442989300464,-0.0630202938854785,-0.150545360744741,-1.0286125174064,-0.00177772869040742,-0.07360223161351,-0.611049956468893,0.948522972413557,0.00326693483035418,-1.02264767533108,-0.190189724910794,0.335919198393453,0.498358778320615,0.775126530314525,-0.929536965267946,-1.09267210687035,-0.0641647766416577,-0.0203129325106646,0.201849262476749,-0.314851715898407,-0.257944992305411
44.885,-0.453261515623417,0.188917104748904,0.854794982454285,-0.181479618824274,-0.0815409020280596,-0.164517899005849,-0.986987703963933,0.052706888020874,-0.0728892002994005,-0.129581838785846,0.871125195595072,0.0213166711718309,-0.978575264122578,-0.192592281515632,0.197299617764496,0.499109418413006,0.658232373944935,-0.913486992792266,-1.03613931369575,-0.0545355886447326,-0.0238685593986067,0.245878427255452,-0.29436485846223,-0.254750893723319
44.89,-0.47097771786018,0.201631369501965,0.859249015903622,-0.160310624240143,-0.087906165448512,-0.173984560516187,-0.983319810013743,0.086985601262027,-0.0707055719587489,0.210849928346428,0.823321721447295,0.0351396360143744,-0.928730254992273,-0.197938239814478,0.0801901102519647,0.485748619192905,0.52963429794841,-0.924873049477338,-1.00434900388277,-0.053863377088209,-0.0182084578707931,0.306313088926322,-0.287901064319532,-0.236005349512463
44.895,-0.460149647845238,0.191155727840163,0.859276686058234,-0.139922421905184,-0.0904253518782526,-0.174392158692143,-0.982728636634511,0.128887924125384,-0.0824453515225015,0.516438477120722,0.759382749479089,0.0391995154350835,-0.883940542294937,-0.198934759703028,-0.0429160924161721,0.447401373134409,0.38740378782753,-0.940084151902759,-0.977670396904738,-0.0463856304198532,-0.0153318820115828,0.387570796199271,-0.295294101966325,-0.211801111630476
44.9,-0.475377247767057,0.181246458857235,0.867281546865658,-0.113196206228493,-0.0959672623699687,-0.180308554062681,-0.985991831063075,0.176647462405669,-0.0898175865127059,0.675929591110036,0.710676725755855,0.0241307028942758,-0.858360020208662,-0.204975532793897,-0.141069361277257,0.406852534280085,0.27387874465504,-0.990097649755401,-0.967626412574785,-0.0431987555482522,-0.00896279604819485,0.452514415963737,-0.296467916143752,-0.189547273983518
44.905,-0.467337445945567,0.16152318480328,0.867631093167011,-0.0736645633387173,-0.0962350815534592,-0.188941373978316,-1.00401318528963,0.181362238241944,-0.0952100157433716,0.7267560426701,0.673478946454976,0.00655260284595726,-0.859755135256752,-0.210473861331783,-0.217291187380758,0.316483364608706,0.183868142992438,-1.02991121170961,-0.972633506615403,-0.0390680190687649,-0.00162908282349929,0.50835029681833,-0.293634682155367,-0.181306170648189
44.91,-0.480501187095711,0.162058178207258,0.865896350105626,-0.0152702346719586,-0.0949037000524173,-0.184760510751376,-1.016222229548,0.185229492660587,-0.082789321301473,0.713845276485531,0.635089936557731,-0.0110793751965776,-0.872420685066867,-0.208933148286876,-0.284847365249073,0.149391793871875,0.0993975075643594,-1.08450232878323,-0.976630981417481,-0.0353262958757068,0.00721903960450287,0.555494761190333,-0.270822185372381,-0.173095578002467
44.915,-0.479156820541768,0.175649119406501,0.85326250200041,0.0224302973998938,-0.0887733710421446,-0.167748616808711,-1.01576283920435,0.18093916906657,-0.0669040222601209,0.669748149921816,0.589513793992719,-0.0226125062797224,-0.889452759765215,-0.19988315438033,-0.312518536587013,-0.0574750637716324,0.0416513688660655,-1.10696643122047,-0.984808955806451,-0.0300937690751007,0.0229507541254417,0.595659630852021,-0.241397520530144,-0.178602045168739
44.92,-0.474244032081628,0.159429883554068,0.855562418324719,0.0261222084079297,-0.0769075109412778,-0.141504523522037,-1.0119623924528,0.152767153811346,-0.0900833120909165,0.549557162459134,0.545171443685231,-0.0145569372314928,-0.91708190107614,-0.178213765884743,-0.301234147452516,-0.321825000921812,0.00921247803090793,-1.10983580410029,-0.983689646694226,-0.0177187598732222,0.0321586626030109,0.631914683015059,-0.199685960197556,-0.18720267203839
44.925,-0.463121159400035,0.145035383464596,0.863626867842123,0.033642593728118,-0.0678328058097385,-0.11619015832481,-1.00972921524257,0.143816737719131,-0.104337005057579,0.393987280141697,0.532561111080201,0.00034703455252601,-0.961972948877786,-0.157335021641553,-0.251932414592905,-0.520611174188048,-0.00069289125552473,-1.08712988071841,-0.994201963251802,0.00434602589746121,0.048980679218481,0.63526650579738,-0.133977886636011,-0.204538312944483
44.93,-0.455747138998413,0.152870012909049,0.865463592462517,0.0341733941322833,-0.0551692688279866,-0.0879562727542074,-1.01480683449784,0.14288984150083,-0.0855044442307888,0.225317636222708,0.539582762239802,0.00862401733992659,-0.994333997067372,-0.143464747355178,-0.192013729635045,-0.683376455960438,-0.00982380351900492,-1.0795173832146,-1.00259272724713,0.0247439934590687,0.0710827001140243,0.638646518029828,-0.053493246815389,-0.220094788193543
44.935,-0.451783943282925,0.159346269461718,0.868327374227356,0.0278687611538494,-0.0433557668799058,-0.0732158820728164,-1.01414679598406,0.138173310480487,-0.0514863347886937,0.0900969348507334,0.527911382372899,0.0162398059920138,-1.02685561740268,-0.119019204122854,-0.113664608478066,-0.807110342575081,-0.0163553718403245,-1.07144950525284,-1.00754837352037,0.0389026425796559,0.0900905513613529,0.618071913581992,0.00363991597949481,-0.225624871049204
44.94,-0.440077777898311,0.16893514708929,0.864269062675787,0.0200360425822211,-0.0404432140034967,-0.063280930713539,-0.999463960184797,0.118353495394738,-0.0343522108652912,0.00681386401924327,0.534162994788976,0.0274790411996026,-1.0459109095998,-0.101357671354185,-0.0373341828433537,-0.848901914147869,-0.0122445956228716,-1.07403377925038,-1.00740464051138,0.054867894820697,0.122380068987189,0.573174544981257,0.0811376799576571,-0.217667030180809
44.945,-0.442494490708566,0.163926528493907,0.868623864158163,-0.00218060363406998,-0.025593010264718,-0.0618855423102638,-0.993296800167667,0.104797302325826,-0.0219191430907956,-0.0151041234261159,0.546159740286839,0.0439918373565356,-1.04211983921589,-0.102147282238675,0.0212902980570252,-0.846331712660296,-0.0373929373494075,-1.02510665413211,-0.998109786288797,0.0605260330647714,0.14014665384465,0.537494139225466,0.114998500143659,-0.213997318028838
44.95,-0.434923721740121,0.191884110192486,0.861564723822261,-0.0187677810896404,-0.0316932615054295,-0.0647546768178747,-0.985187628203398,0.110404082743734,0.00331535166648048,0.0334765655529155,0.566099163978377,0.0561293033865837,-1.02996041207985,-0.103628093830938,0.0964226978970922,-0.881184586371138,-0.0820339079801429,-0.967749721743197,-0.984744694915598,0.0686135452993338,0.152591972031535,0.515815286577188,0.128085648550597,-0.210343986749649
44.955,-0.403644953598339,0.21426467952222,0.858244645737588,-0.0395837233936213,-0.0329385595539086,-0.077958010453621,-0.972186398442747,0.145642403027355,0.0227822166330167,0.0951877714853887,0.578808123956037,0.054365020998138,-1.01481580828023,-0.100600654945774,0.151465693556496,-0.904999973827391,-0.130002487815403,-0.92580207851888,-0.969161731534468,0.0739758665778735,0.161187704274652,0.49408638057758,0.132087325532354,-0.209421865198902
44.96,-0.379824927784544,0.23427316365076,0.853445956871021,-0.0545476370021593,-0.0438967394552782,-0.0924746249160407,-0.959582069252954,0.186962352802552,0.0456912443199036,0.158430512571387,0.597917406125378,0.0619823426677979,-0.999852037470981,-0.0891125652041173,0.214088994068161,-0.949532665754011,-0.193061726936815,-0.873146410371566,-0.955092276000922,0.0684372252889394,0.162383339245815,0.492594398644996,0.12633649959124,-0.20539323491357
44.965,-0.378769428633837,0.246968091050549,0.847445896648392,-0.0677527813700269,-0.0539043708883022,-0.120198431460519,-0.941872513180678,0.23504556689945,0.0645015795528849,0.200694172695776,0.599742987002547,0.0628951322795642,-0.984341456486612,-0.0819611825474821,0.259166384502532,-0.975227451335208,-0.237634530698685,-0.817947017354777,-0.933239312562715,0.0674500196475513,0.156815727234292,0.488109137265457,0.143978198727033,-0.18613451687321
44.97,-0.401485670396551,0.23457577503439,0.839062040268557,-0.0662429516321461,-0.0705125646117677,-0.157340076963302,-0.924840820213165,0.248815444424749,0.0539964556892765,0.238817982356071,0.603615113668196,0.0623553466677004,-0.97139251699655,-0.0742316586065931,0.290267066290474,-0.985285108536584,-0.25824810914569,-0.790786860313759,-0.916646731804494,0.0580818479530744,0.141102423931338,0.502339320613598,0.166575331765614,-0.163464706920447
44.975,-0.425294349659923,0.222843687720363,0.843221296292514,-0.0584493688806744,-0.0878792181539307,-0.201554093496758,-0.906330239030498,0.232230641532147,0.0256267300305854,0.312343324807048,0.623391274784213,0.064153502449072,-0.968467066506548,-0.0670032933740028,0.315568419710888,-0.994663945587656,-0.259083717641351,-0.776257183604213,-0.901539233154193,0.0471332422290178,0.127950270148737,0.519439295034968,0.218647848007579,-0.143223810895958
44.98,-0.425031506970003,0.199219908076874,0.85677574216081,-0.0442752706175122,-0.0988306040731533,-0.232765210234171,-0.919562869438995,0.213139894585315,-0.000314783655824528,0.386228659407719,0.646761866542195,0.0516766914842912,-0.96593250230922,-0.0668292104590757,0.333968776370753,-1.01605129628798,-0.238107464374169,-0.768033176797262,-0.89694445155211,0.0328574403812213,0.10559955048887,0.552747799782061,0.291530999772405,-0.118595091855996
44.985,-0.422208433787828,0.205107440208819,0.859477004191724,-0.0162911257148704,-0.117212287626899,-0.252733273317522,-0.937006664170433,0.201860821804915,0.00341947138099654,0.455942469825433,0.651500430839902,0.0329607288298401,-0.977190855663825,-0.0773435341371793,0.342854383514827,-1.01770624467774,-0.198382576632742,-0.73652715498897,-0.892522597923499,0.0151336938245605,0.0990660309034808,0.608204431707972,0.375010407122752,-0.0933961269017188
44.99,-0.416944425716858,0.234261304784301,0.855217386159261,-0.000879858244386978,-0.131119280976064,-0.267504632434253,-0.942990648525079,0.193751930337973,0.0300267410077209,0.553945384393103,0.680690996853464,0.0202110242868896,-0.997090142728045,-0.092631799393133,0.363437056775587,-1.07265084697834,-0.15890912604591,-0.675925464837603,-0.895617142088279,-0.00180127777244599,0.100328960879293,0.639891247558299,0.437841990277205,-0.0955193031156579
44.995,-0.404862183280323,0.24549632159513,0.85012563761218,0.00600692987212161,-0.132237113902066,-0.274227093948507,-0.948846766377533,0.199006811404662,0.0373840703689136,0.598666964502342,0.699751453583638,0.0145327909802641,-1.01281644231802,-0.109645590999673,0.378656188344232,-1.13767815391993,-0.147839834033485,-0.601828485361962,-0.906990012458909,-0.0193170975747597,0.101848569916903,0.672332705399964,0.457956031151088,-0.114216958174643
45,-0.353626889310979,0.234804499814591,0.884958001416618,0.0176400805418794,-0.122127181975821,-0.288920235238093,-0.957454220713558,0.205651178038178,0.0411718860029153,0.596220158650209,0.717997266952817,0.0165439699339991,-1.0354280997268,-0.136390377028347,0.385639042492572,-1.21082799788237,-0.172243531453806,-0.497316953141881,-0.910425575801447,-0.0270475132777112,0.0987631971571366,0.694220469804862,0.437653168987044,-0.144500686435386
45.005,-0.482301378335427,0.217407002286374,0.831053042007545,-0.00929885982924064,-0.123777358346197,-0.298522085535496,-0.964853205609069,0.209185882188273,-0.00607939289273079,0.549518832402794,0.7399187486883,0.00695021729916334,-1.03738997371641,-0.148721930497083,0.384881070923242,-1.269864261213,-0.194001757176432,-0.441657647922883,-0.913555349261436,-0.0399145865776535,0.0947343443350849,0.699135165328094,0.397358903138798,-0.178339118350143
45.01,-0.425718829787923,0.219316762534865,0.86902090815737,-0.0202718562458876,-0.10476170166594,-0.284556474008393,-0.961333967790581,0.212728018999123,-0.0331077497661293,0.490746962935312,0.763026502334543,0.00574422786114567,-1.02804692877083,-0.160201942870341,0.35248045461813,-1.23741705654454,-0.220965161079217,-0.35453213300409,-0.909357717376756,-0.0438019074499771,0.0905810693237152,0.723231824922253,0.322609156163141,-0.216066178151181
45.015,-0.427761976212302,0.202272480604727,0.873192945581846,-0.0397264014226304,-0.101121857762337,-0.284337220200321,-0.96928313892586,0.189597607304375,-0.0467846269647626,0.40797136429739,0.796899355854208,-0.00535460781796804,-1.00230408899451,-0.168831587104296,0.301783924159898,-1.15285994677017,-0.247641162258689,-0.267280442090844,-0.903248987113596,-0.0437926286540834,0.0869969667374981,0.751603468236649,0.247886961676334,-0.249100000561121
45.02,-0.442305932482904,0.192042174779509,0.856630358384377,-0.0493941619550845,-0.103006233265128,-0.281060246723726,-0.979760644897734,0.191555673940057,-0.0587218389115902,0.283145792360381,0.822371693172698,-0.0134372865708453,-0.968743025930386,-0.165378404183532,0.226462108655453,-0.976008496518999,-0.243380878987475,-0.211608652827102,-0.89198566069042,-0.0392989282806683,0.0794546166616008,0.79561972534822,0.191001988432792,-0.265321107684242
45.025,-0.466590920515334,0.175691125245526,0.867773733011143,-0.0668505661925348,-0.101223860515796,-0.276812306036051,-0.974808772560091,0.188898648329821,-0.0803260002171553,0.221722191026277,0.831600665571087,-0.0148146196988685,-0.955635746147326,-0.160494002118855,0.181849912596887,-0.898063838491695,-0.233653644722345,-0.176144665491005,-0.879830257595982,-0.0262609427137478,0.0640478289740732,0.872787499842078,0.145500236879772,-0.279966787557517
45.03,-0.456454040663699,0.182424879667425,0.851771800725994,-0.0828137295194855,-0.104138613351062,-0.271143014714459,-0.966409266421112,0.163902288299327,-0.103390939251479,0.172320547345031,0.837650510327987,-0.0134041031182089,-0.943916142656366,-0.148810783310898,0.128755454751158,-0.777430987565305,-0.20942243672376,-0.0951871838144754,-0.882563167421259,-0.0181106514181865,0.0572362420814622,0.931926190673227,0.145782995435605,-0.283044411253415
45.035,-0.475220331524515,0.182854771798783,0.861627449286406,-0.0890921965385384,-0.104413714115675,-0.265680551362229,-0.957212740178956,0.150486123123298,-0.118867006798541,0.132128152252422,0.849654335777523,-0.0164955275949655,-0.946719521761906,-0.125504913964367,0.100498963352696,-0.69522639667488,-0.175904029878865,-0.0243365709544523,-0.889116695898999,-0.0106495663555847,0.0577595130560866,0.997574754172243,0.168147051413037,-0.278750355530282
45.04,-0.475699716411686,0.186999820503245,0.848189460108462,-0.0864001345129435,-0.107796262997712,-0.249510120097351,-0.944899572418316,0.144057844233732,-0.122480418649384,0.108665880753983,0.875120684710103,-0.0154270944933331,-0.96589586667112,-0.0843668265519995,0.0803818260415213,-0.6765428687774,-0.138966890113394,0.0482311067329073,-0.888518237545153,-0.00614273076212346,0.0583184896414822,1.04965667748869,0.184879705209652,-0.275097977369564
45.045,-0.451884261447283,0.210448464047886,0.84554607286228,-0.0815664415981663,-0.101093853077803,-0.224210925859332,-0.944222550714484,0.142636955114192,-0.104667505092731,0.117099460925393,0.882755838530388,-0.0106166825484754,-0.934839329545813,-0.0508688342437458,0.0986337563826167,-0.70840631266099,-0.123445586103119,0.118269654636444,-0.894240673501671,-0.00240285497287927,0.0630998457792178,1.1223454190995,0.197445646660999,-0.260130474959054
45.05,-0.436040424038011,0.18848337147115,0.857109872363331,-0.0936749351393787,-0.100216700125645,-0.214905464072803,-0.95286368443611,0.141285887383522,-0.113400994993324,0.127869225735407,0.871458638113394,-0.0134069528266066,-0.950435658088073,-0.01923690745567,0.095539278710809,-0.73185790733998,-0.108245132354104,0.0643472221998417,-0.892324078524952,-0.00936387816493909,0.0594614637882369,1.15958879380782,0.183103938908815,-0.259816887366784
45.055,-0.449130102057054,0.158802622171014,0.864397760058387,-0.0816128718545219,-0.108756509854013,-0.210917560187708,-0.955822190764232,0.144983023900019,-0.146173919767611,0.131673789780692,0.866578459739685,-0.00724971063788699,-0.972130532468707,0.0264107485541409,0.128855072019024,-0.79434795938491,-0.0513186291718483,-0.208296397313616,-0.90968647322624,-0.0316124483246965,0.076254966858352,1.20520464301933,0.168704411808359,-0.328268328581133
45.06,-0.453558368336672,0.186965556744598,0.863475418804154,-0.0725648041028561,-0.109169268762814,-0.207857210708597,-0.954160832600289,0.143716569391016,-0.167203126008812,0.156962208157543,0.860369447300632,-0.00733639448532914,-0.965718298798779,0.00423500182517906,0.125536654564325,-0.705651049257956,-0.0152914760017919,-0.34822227757441,-0.88152089228979,0.0475066356582996,0.0718555446681515,1.21220894036712,0.0908554876711538,-0.331204558364924
45.065,-0.44140843465668,0.17818344189211,0.840743693226801,-0.07107687502639,-0.106135287154861,-0.191199552986396,-0.961142115746556,0.140653868774575,-0.157142643957456,0.199969398750386,0.862554712486225,0.00131995364920538,-0.949007621568644,-0.0664156794013393,0.119753658913803,-0.742044039717874,-0.109443827867424,-0.247335560219256,-0.829036749774653,0.0317533889584805,0.0400965927124867,1.21931412195671,0.136475643078919,-0.261698718222387
45.07,-0.399351898231564,0.181354289763213,0.865867552347979,-0.0593499382811763,-0.111214591499872,-0.182869344949722,-0.971827247031978,0.151640568263325,-0.142878032936722,0.218377809108827,0.857191858726747,0.00408338224319287,-0.95290933505775,-0.0769706659942887,0.152845043816793,-0.874358165148858,-0.246809151928415,-0.169191340757876,-0.797101471358233,0.0263002690042455,0.0614899161466104,1.27259636707067,0.212314635944535,-0.281805344794477
45.075,-0.419405707489454,0.209871976031904,0.856038824700788,-0.0523823372067418,-0.112762003902626,-0.174485691032006,-0.981993759363539,0.179051811059586,-0.128964584567145,0.226975511163912,0.850204989859416,0.00597766390636988,-0.970694573475383,-0.0857196509111997,0.17811001168478,-0.881420190954139,-0.265580828461176,-0.21091291509284,-0.829530062017893,0.0389549547752944,0.0526378979937035,1.30051182679337,0.283201087589659,-0.273517520226522
45.08,-0.389070916729275,0.224019789874953,0.866678951607994,-0.0567805067300331,-0.110490850273966,-0.165088678953595,-0.982831211930872,0.202676095227418,-0.119207823375788,0.210371991455431,0.834753090854948,0.0093936063349247,-0.983948550975483,-0.112295124218062,0.181169020933649,-0.881609590346521,-0.273875032123211,-0.246855626511049,-0.894164274286948,0.0211208715169449,0.04524693398653,1.33726420049959,0.408724010038923,-0.291414043029113
45.085,-0.409232679144568,0.192771012872868,0.869000874465453,-0.0677535997911641,-0.109635578070343,-0.180349651393165,-0.973770491039055,0.197416536476973,-0.149565604108626,0.174625598663806,0.824609240301166,0.00637589203201216,-0.985728347249045,-0.133121861011249,0.178959037032557,-0.918695817465632,-0.29963363671938,-0.261886569676879,-0.951776457017144,-0.00165357444692417,0.0730059396685536,1.45259598651415,0.462042766125153,-0.400537273834398
45.09,-0.439659109981692,0.175179024069527,0.862669828659069,-0.0650189432051411,-0.103277331380537,-0.177845078106393,-0.970999353149739,0.199982091952326,-0.197021552867585,0.151229221591834,0.818482263638235,0.0147304880118399,-0.966472263328846,-0.156702186463093,0.18599747379011,-0.969275369982051,-0.32622645395739,-0.314907927160305,-0.964348614219487,0.029523622112012,0.0998407513745246,1.53757951753753,0.409384238527995,-0.450310762781015
45.095,-0.451540079763904,0.167979410802626,0.86701595249242,-0.0622421105448727,-0.0925699919462204,-0.1784373540198,-0.985723272858991,0.164461933885727,-0.235026931948338,0.141299364985505,0.812387275041668,0.0143454575725946,-0.946878158136881,-0.174555738452567,0.179425594723823,-0.998692578197614,-0.33033192073276,-0.362781334703693,-0.934801276681809,0.0341645603904704,0.118040989480926,1.5847774950944,0.260340361883419,-0.505262449110096
45.1,-0.454826101516397,0.157464179275556,0.854657248133607,-0.0567346136566946,-0.0841843146997516,-0.165641847351531,-0.997653287856978,0.111206833049946,-0.249606182802031,0.158038961203214,0.801184664768001,0.0036629167220469,-0.927459865581004,-0.196646981616115,0.151423220597389,-1.01197077723154,-0.326163967987852,-0.388563354732016,-0.90482326613326,0.0730738184976095,0.125865780769978,1.59947826089055,0.17519159585582,-0.510892851932933
45.105,-0.46813189502707,0.147675692636301,0.861360472375254,-0.05175160395169,-0.0791313499212265,-0.148587489576933,-1.02388539567849,0.0984936936801052,-0.247573711049874,0.253774502085906,0.800905219791852,-0.00301902651955173,-0.863634024723945,-0.220379329477877,0.144947014471434,-1.02679513383813,-0.357521072530379,-0.384066965420511,-0.907358054133713,0.115216531791309,0.106355561823688,1.66436002064696,0.143154090714154,-0.431606725421834
45.11,-0.475776481869074,0.140010549996595,0.858209958898418,-0.0271936735929066,-0.0809531519852659,-0.135548356965033,-1.00714252697518,0.0892159135586876,-0.22259250179829,0.376133102244611,0.790041482849967,0.0156951203966856,-0.834241666038645,-0.225793376366982,0.0931549256508091,-1.08374330394745,-0.397437042542813,-0.425862698278075,-0.93072639262121,0.13721864969224,0.0818246919670405,1.72445632250806,0.220901836467575,-0.320315574872892
45.115,-0.445445799638321,0.133799761397655,0.865035163133839,-0.0103522091694663,-0.0827815080742791,-0.121769684822704,-0.98084431616593,0.0731426627542029,-0.210312248943731,0.441996746237712,0.789801260432491,0.0405572602782891,-0.829339377543981,-0.226862112144458,0.0541590572573985,-1.12401097077919,-0.382016342159307,-0.482741744856234,-0.948585313474456,0.136655526071916,0.088965019019997,1.79030713819952,0.324135079654637,-0.23671671121003
45.12,-0.436434036736082,0.129126973677094,0.875580860609377,0.009410792949654,-0.0660972475034848,-0.108809451546434,-0.966656527752602,0.0715730114743539,-0.209265263047021,0.519087869510675,0.786727235059977,0.0565049847634337,-0.848674097660458,-0.22859442465869,0.0344095309243576,-1.09738333204468,-0.327567251617146,-0.496767549569533,-0.962467549061518,0.1260212735495,0.110650024004718,1.86451985431683,0.381541152055739,-0.196939924962035
45.125,-0.433795633450879,0.122427663725584,0.876966926783129,0.0316162135176596,-0.0616091196028375,-0.095710516401925,-0.965867129286673,0.0715352156637668,-0.193351712920408,0.594156194607155,0.790812112929317,0.0616863857675059,-0.87257187969475,-0.218997123334629,0.0210173682392201,-1.07148509671343,-0.269040300164002,-0.450552550178792,-0.967837180228347,0.136851712402369,0.127397307012229,1.92017804807956,0.420370507712814,-0.188967343527579
45.13,-0.425735856575097,0.143821623474777,0.87999036424824,0.0501896843390557,-0.0448652995674225,-0.0783265446198601,-0.962853342396511,0.0908204828520207,-0.166472207172349,0.65090667783831,0.804702255206059,0.0582515297294115,-0.890102875746237,-0.197526030944001,0.0400193861866193,-1.07556484577456,-0.198709515785252,-0.346322084180015,-0.996582779679862,0.134307690643789,0.13069268122723,1.94449383330855,0.426266707248842,-0.181049652911999
45.135,-0.434136465901187,0.165168729465773,0.876618031658614,0.0568524054873855,-0.0406323197428806,-0.0741698421228797,-0.959805676569054,0.12775231109071,-0.148909775460097,0.694785741434914,0.825484037582161,0.058694860570839,-0.914360069504253,-0.182106077748499,0.0824444592239948,-1.1030426956356,-0.146234984401038,-0.267154456160818,-1.03227928980764,0.132640643737219,0.123024658504942,1.94979900932637,0.398961948217886,-0.17674391362108
45.14,-0.429958282795834,0.185610474280974,0.864881903267178,0.0627307766382963,-0.0400371253490448,-0.0772354195000756,-0.959920987809128,0.19196996214321,-0.14160048347699,0.700862638981495,0.858663988795213,0.0648189370032292,-0.910505673914301,-0.168031468560337,0.147316154900961,-1.14354088183123,-0.0679545728654481,-0.170048034637862,-1.06777674574246,0.139109038838553,0.107297529166172,1.92195944758941,0.37178422700958,-0.165109800196327
45.145,-0.419464275600419,0.186800956531145,0.875979705475938,0.0677823140301496,-0.0373214760760152,-0.0743767581212299,-0.957503828780691,0.243661591973391,-0.133195524672262,0.674231257773001,0.885765128435749,0.0547106426790298,-0.90179104181807,-0.15547009428367,0.2547664547666,-1.14487912491475,-0.00715399730206677,-0.111694052920763,-1.09465147886813,0.145259229059963,0.0918503955758384,1.87032477619442,0.344291268328995,-0.137307772706893
45.15,-0.424587996293732,0.183263167313161,0.873888729240111,0.0703097424244395,-0.0281579186747612,-0.0847168034099366,-0.957447018995627,0.27052380859716,-0.123493422599335,0.626013013098804,0.90155375558696,0.0371509448881113,-0.87703486247827,-0.162738954426456,0.33015649695346,-1.11881662694268,0.030388303760006,-0.0512199108698227,-1.1085620158235,0.141892774371523,0.0924880749279403,1.84257156479443,0.321669765856828,-0.118067537217905
45.155,-0.416740220695199,0.202654172652116,0.882282959658498,0.076798719054692,-0.0271011367301087,-0.0971365979160832,-0.946777609263167,0.280063193930465,-0.11810221494871,0.557743333635029,0.94462569982917,0.0140034791459045,-0.867775036354998,-0.173666326735147,0.407868045625557,-1.0581487496557,0.0472320959489986,-0.00386655760365608,-1.11248899562424,0.1265908683803,0.106091328094297,1.8165366235779,0.296300867114459,-0.101566893333359
45.16,-0.407772712097112,0.218340879776206,0.882478034580178,0.0710624212543201,-0.0301474596392489,-0.117771171415404,-0.932169380566841,0.278002881563626,-0.114527788783905,0.500933634518214,0.973511036496255,-0.00433055898616185,-0.869164000916458,-0.160043393452325,0.457619383047197,-1.02366959797667,0.0311368688687685,0.0248716798329964,-1.1184948003654,0.111320815632448,0.122705959180689,1.78872955540255,0.278861183918091,-0.106576314831002
45.165,-0.412298167649262,0.227609860362946,0.872416743398494,0.0561061802684422,-0.0275818807163681,-0.140785225992222,-0.923354150224998,0.277896103920506,-0.126761689759015,0.429685870020477,1.00821478052998,-0.0273038625914002,-0.87828603890926,-0.130707026311158,0.475452359841233,-1.01025625568349,0.00935325060617833,0.0354105084986098,-1.11285826776355,0.0947199198066378,0.151837013884573,1.75172343631542,0.247673273062394,-0.130754809882611
45.17,-0.430561561065447,0.201090983207636,0.88044779448027,0.033816754360044,-0.021165910171771,-0.165272121948128,-0.930774449788161,0.278400622696587,-0.165548650160062,0.406025386532621,1.01678913921458,-0.045502474072338,-0.889177050402225,-0.110411001107748,0.467476233825436,-0.996599388309006,-0.0114228639405481,0.0369106168782928,-1.10988532886098,0.0916672053459851,0.160055952041828,1.7032742954433,0.204991864860705,-0.163954611382719
45.175,-0.435764683778794,0.190777550970045,0.88551426367558,0.0292295423721653,-0.0171255146783644,-0.179987476731398,-0.94352382229695,0.241545295457692,-0.19239315842536,0.388476285807473,1.04302066888614,-0.0641576979000242,-0.896031230036936,-0.096096231419757,0.455830529391963,-0.970871534387583,-0.0142658428328412,0.0279838787707004,-1.12026866438558,0.102756599132496,0.149453770601335,1.66565819734677,0.147434207930322,-0.189042806411222
45.18,-0.436717274782797,0.186350186251195,0.888810940932378,0.0255940117615146,-0.003359306329414,-0.196214211146114,-0.966653110279152,0.214814574120506,-0.204814376601954,0.392939976972075,1.07558727297286,-0.0779867298593077,-0.909430445772079,-0.0760972848222538,0.439224341869811,-0.906967988497731,-0.000567291900632209,0.0172066515723499,-1.12125539140994,0.110242468733261,0.119820856784411,1.63605242258739,0.105371432720839,-0.202992923287058
45.185,-0.442617734787261,0.182828329628779,0.888314224550355,0.0274036837590373,-0.00200981994902695,-0.207438660548166,-0.98328330898144,0.208104917788474,-0.211799521311042,0.42764128057415,1.08422873940574,-0.109299415446418,-0.924158779703477,-0.0737868099611092,0.443583652752266,-0.824706295491819,0.0289330163548035,0.018435180922757,-1.12543293944487,0.11628432918672,0.0878571703512212,1.61389330068115,0.0738761674655148,-0.196352212483141
45.19,-0.44246308245145,0.18329970359316,0.872895635223194,0.0213919505476952,0.0116600335991792,-0.21821822034086,-0.975000594182916,0.196896253294628,-0.201146601688996,0.458785178373079,1.09955275314887,-0.125901932452938,-0.938250388416392,-0.0794247320955423,0.457371544076788,-0.737596897402311,0.0586729422843013,0.0286812117204328,-1.12052975008182,0.121707703161034,0.0616190089219989,1.60069482785491,0.0535532402250646,-0.185288200006234
45.195,-0.415982074363741,0.202274205171357,0.881482231470641,0.0187979378831116,0.0313483384862955,-0.228946474104142,-0.977812770871841,0.196851815196535,-0.192143200709877,0.471337612678568,1.11367042886361,-0.129879578948021,-0.945565410758084,-0.0949329777929481,0.475534002373353,-0.681854358531128,0.0955596448637824,0.0432946890629944,-1.12079954060621,0.125220197442039,0.051210668690591,1.58847397107754,0.0443804962032589,-0.168743141768441
45.2,-0.378548274343991,0.214140063823248,0.887428752093415,0.0126895631218601,0.0489120375974231,-0.242497839926049,-1.00582507501311,0.204871383443487,-0.169631360335607,0.49154623339846,1.14066673863686,-0.136130946248878,-0.953880892193747,-0.107685217692366,0.483377514337521,-0.640611771919944,0.14175247803601,0.0620702604522073,-1.08751192981383,0.121235717628443,0.0569186439974375,1.58602772893533,0.0394956162435979,-0.158989654678
45.205,-0.381046861464038,0.222281489239847,0.911368672678923,0.00428822636604309,0.0951560244887502,-0.26888736639867,-1.01089695213185,0.199576767675153,-0.163180114511365,0.484074361732359,1.14196259722076,-0.127813362708554,-0.967234903426952,-0.109306803164233,0.470626582156727,-0.593568308523484,0.187220511091068,0.0645721578019839,-1.06445383740155,0.11289013470391,0.0680242805257544,1.58056047963004,0.0352453032636478,-0.147420264581458
45.21,-0.403273556766624,0.199847543798472,0.913808791167568,0.00825612020547796,0.132569853514886,-0.287907225186485,-1.0328438155583,0.203401115795547,-0.19575905147962,0.499322328575169,1.15263545653642,-0.131939798069635,-0.98502140995733,-0.105198300242719,0.429658707746103,-0.560205271327202,0.237738261139687,0.0983989602168606,-1.02635515060587,0.0933217100451195,0.083112821924178,1.58541424232369,0.0400990676298841,-0.14196096952817
45.215,-0.402606040137005,0.191597880480751,0.914923161169352,0.0240858073737357,0.190831172231175,-0.304772346126196,-1.0557521749014,0.208527008738282,-0.223180607768719,0.516498225903457,1.16905983086846,-0.140857869341223,-1.00045728049446,-0.115335248461958,0.381703243366504,-0.541822534159265,0.26842883698844,0.0960122990962231,-1.00841375539034,0.0818185396219109,0.10333223498319,1.58206512273595,0.0477726700793313,-0.14377535198815
45.22,-0.404592600267689,0.183449037358577,0.919709271402397,0.0452365917911246,0.253222340052898,-0.334084028204627,-1.08215046525144,0.182890902602953,-0.226228096732273,0.53836826560021,1.17200207710266,-0.155794940644873,-1.01879760997592,-0.154934524007942,0.329085347912003,-0.557903320444753,0.276452273130417,0.0912713421000211,-1.00332021158406,0.0607774076300886,0.123486397079766,1.58360826969147,0.0627328790358962,-0.130904387829416
45.225,-0.402539293769464,0.181379084576297,0.920420996829903,0.064524624593602,0.317848873745785,-0.364613542480629,-1.09796004016583,0.148263142405164,-0.220433580511667,0.582923761218556,1.19593507034265,-0.150167853731691,-1.02462891560193,-0.19975232971944,0.299931980607177,-0.677000946926286,0.25023141693344,0.109236533567891,-1.01465087155044,0.0407008738075158,0.151599214462411,1.58575496530522,0.059348607517881,-0.123292002243549
45.23,-0.38634164915119,0.19571716373425,0.924695509896487,0.0857499491820836,0.382385050915,-0.406278123464853,-1.10682690713084,0.137379492902581,-0.227394390541006,0.651717106181616,1.20925312421439,-0.14743877744108,-1.03600266700179,-0.229882566279797,0.266917446874857,-0.833701728013338,0.203569389468825,0.149811486039993,-1.04188057272001,0.0150954364328215,0.180143354992723,1.59033800343485,0.015254944655502,-0.112643226284342
45.235,-0.403806319895238,0.172810926706109,0.964166326735804,0.112912723016828,0.474675907738827,-0.435964265873793,-1.14515446319886,0.133047220611303,-0.258870992808624,0.766043592668122,1.22430336622911,-0.147699310436428,-1.05554413070102,-0.226185615300516,0.232342443537173,-1.02491753718976,0.12914065457638,0.198282518245786,-1.07211268331063,-0.0188808268855483,0.206439661270516,1.57928088257841,-0.0615322004049349,-0.100971453302002
45.24,-0.375261873632426,0.191504378997522,0.929029159469558,0.185245796288346,0.554045744165635,-0.454657571778442,-1.18303444267436,0.144769528956516,-0.276608542212572,0.832333332919412,1.24451538633534,-0.139508695366552,-1.08339593663889,-0.203614793246854,0.171909816801479,-1.20817078109896,0.0532378444930009,0.23595579042397,-1.14232242008051,-0.0752536188288543,0.226435467603662,1.53081326091028,-0.177033841749155,-0.0905946124705219
45.245,-0.439192282456952,0.206467689536972,0.972536907672105,0.228205857979148,0.6709398712856,-0.498621133243512,-1.25588318732737,0.197626746078131,-0.257353199678499,0.986987105969363,1.25667687783152,-0.157260659034887,-1.12080211665512,-0.176706538092381,0.0859760888065239,-1.30186133485727,-0.00381822581544603,0.228107439629407,-1.21291889782455,-0.11776700714199,0.205035449937994,1.45504010551397,-0.249836611788182,-0.0882086711880051
45.25,-0.473557983833453,0.25098919671336,0.958875107214726,0.245972521288999,0.781580422628766,-0.566941661005435,-1.3069987142174,0.212778887169297,-0.261630402361401,1.03091222336336,1.26893607246934,-0.158652964427242,-1.19425040709369,-0.131427788012789,-0.0159137402090377,-1.32636826907339,-0.0350798293948174,0.224238247849882,-1.35834516656716,-0.171617925127767,0.132961660334928,1.35562370723602,-0.275686931866741,-0.10470146897704
45.255,-0.403325877700884,0.298869113041346,0.954598245862459,0.285306712792967,0.932620757092684,-0.631728883404241,-1.38821144319733,0.189792476554518,-0.234342038882924,1.09021432127823,1.31734265588558,-0.152354024731485,-1.28392584072293,-0.0797807446986674,-0.0647715969714558,-1.26647093776039,-0.0301246480373273,0.263023547675509,-1.47435973203199,-0.196550012036345,0.034307303529764,1.28992012352015,-0.249245558195587,-0.127659363541366
45.26,-0.328565937885414,0.252591123294727,0.947565266701214,0.396134959556151,1.07356324973086,-0.786621802321876,-1.4549432653535,0.256372412871161,-0.240380689352174,1.04729994887647,1.39234815989155,-0.141447849616877,-1.39627772432368,-0.0192647321202538,-0.0754349779288273,-1.12599412250105,0.00501995252254854,0.36049663941236,-1.52630516221327,-0.183037487635633,-0.102392368707537,1.31289709896298,-0.240505731698325,-0.150480940937996
45.265,-0.667197681676802,0.730635805498806,0.836634095441637,0.538357938356942,1.15889885500107,-0.942132424273709,-1.31083434655084,0.604003705370203,0.00679931015862951,1.23676724260203,1.36193568762936,-0.0466316595348357,-1.45618234255963,0.00243695989261932,-0.0619071993751339,-1.01051817922656,0.0275954132651565,0.459364560207639,-1.47087918903736,-0.132627132192497,-0.179936920520961,1.45972324420663,-0.317719675434322,-0.149264670188866
45.27,-0.522063347062681,0.5179950431538,0.900141198884161,0.300711795640491,1.32180396995836,-1.15355713910853,-1.35905262066283,0.382879061378456,-0.133357523894463,1.28054018525498,1.30741045260653,0.106610557407127,-1.46323087684316,0.0223268086654542,-0.0504038638427366,-0.948343287442636,0.0439047309453704,0.552863025879972,-1.32426080571072,-0.085237370124922,-0.239584178848403,1.69364855639848,-0.444633003546916,-0.132221285138157
45.275,-0.499625513946122,0.107553077849215,0.991817851945487,0.160215243498872,1.48299866813239,-1.40110293823317,-1.35901448098519,0.0420328744466353,-0.361939296399192,1.33642414287103,1.34340118554054,0.130948265201835,-1.41363985378666,0.048822402841572,-0.0582800744743248,-0.978285738909207,0.0419009587529663,0.659106650314308,-1.18806889360694,-0.0638577755479746,-0.269474427896232,1.85783735470249,-0.512374348770243,-0.10223601381371
45.28,-0.48350540826377,0.146805984059665,1.00313536558623,0.267742674380962,1.64086648060226,-1.41863301491581,-1.37981564448615,-0.10391391626321,-0.374706228745459,1.61113172650628,1.43890363521775,0.0452180312115285,-1.36581217322034,0.0947915193141644,-0.0693595698642503,-1.06633516015613,0.0204145058975151,0.776915361337697,-1.01514143409041,-0.0635264542053878,-0.273875610989832,1.87923219812459,-0.490637731911968,-0.0796298600342593
45.285,-0.468425332764507,0.374443997015435,0.935149610495964,0.319477345927658,1.75338312194709,-1.41677776265989,-1.45529491890909,0.0765942802069886,-0.188042271598769,1.69493933855996,1.54302211099647,0.0327772274422895,-1.31660713405144,0.13618840507893,-0.0965624427200483,-1.20327283176148,-0.0103872418226896,0.923488677520074,-0.899943606606964,-0.0665632351370863,-0.241184134839003,1.81793126952967,-0.353425128858768,-0.0956690576671926
45.29,-0.460367115190461,0.302124223035742,0.994477120681865,0.106736575892975,1.91431637931291,-1.61945454322897,-1.43857669877239,0.170447157317407,-0.0884997303542118,1.8563846332959,1.50749172224294,0.16230156355802,-1.29134284392416,0.147270501843133,-0.10845049174701,-1.35354652473982,-0.0484206840484896,1.0427984871561,-0.852793196673122,-0.0655712607069835,-0.202851890435143,1.72872223403415,-0.206015371766522,-0.12104165179573
45.295,-0.480017351045778,0.183885017518662,0.99501418367528,0.0349789128510615,2.02656198409573,-1.75437112381231,-1.38994178304272,0.0389467507746761,-0.215414355276455,2.03820578143596,1.45558170822125,0.250670000140938,-1.27693178601056,0.138477258997113,-0.115092997221839,-1.48172446941349,-0.0802786512575432,1.15973787588439,-0.847873574553613,-0.0634708282094569,-0.141062619566764,1.62657299449224,-0.0418806112798644,-0.154788475502205
45.3,-0.453970480479523,0.188621752866277,0.989776732701609,0.0485815155361209,2.18962539429246,-1.80315852666182,-1.38115719399468,-0.0761637289036422,-0.227770937334644,2.11936465760104,1.5452049899659,0.252571485813207,-1.27385572201706,0.127256520322827,-0.116527953336497,-1.58422187706632,-0.105199461721202,1.25030556525565,-0.895349438236507,-0.0677892881163973,-0.0895881526921569,1.53630900332258,0.0465501968545908,-0.177277309847164
45.305,-0.396945704886792,0.0957047274984726,1.01131017734958,-0.019156463770422,2.36395300821123,-1.90557704860402,-1.40489742879047,-0.0199699014061002,-0.0612012584903575,2.27703828569499,1.60169682583462,0.25390337069208,-1.27144103957358,0.131808959269865,-0.125266205792765,-1.65171426372514,-0.109004048734144,1.34126120842797,-0.989512327947216,-0.08115070064845,-0.0326432746483903,1.47920182100015,0.0359188906376211,-0.212114261510699
45.31,-0.435440569754603,0.137106180698934,1.01030456948013,-0.0751519985080383,2.48045677633687,-1.98047623912869,-1.39843332168963,0.090068250620459,0.0341782439233735,2.67999415140892,1.45564142126007,0.320007672919093,-1.26240585787124,0.136720007853819,-0.132608038705221,-1.71332840337022,-0.0934895843350687,1.48332596636648,-1.05691311250094,-0.103335934254042,-0.0144889927251732,1.46395003930584,0.00208315898157502,-0.238171636623835
45.315,-0.47509943206944,0.111036184880091,0.912826566625934,-0.089122068840101,2.68678300939698,-2.11216791440705,-1.39473322227989,0.0946221734401863,-0.0383649706242606,3.08980025408154,1.30191083564563,0.387057852450774,-1.24098340569473,0.126807472529499,-0.131477184730058,-1.79455835816626,-0.0564658593356169,1.63762872852582,-1.10536644026609,-0.134667062157549,-0.00274123592190228,1.46143877506256,-0.0771649931381605,-0.255512185138018
45.32,-0.547042869339118,0.125911548880012,0.869429400816879,-0.111968812723692,2.97256266199642,-2.26749959032075,-1.37648033072108,-0.00736650949763729,-0.166354092222617,3.25683182105593,1.28130783186806,0.427401825811762,-1.22174243228523,0.0973488366400525,-0.115940296892406,-1.88152832035178,-0.000983551695623942,1.85964394038431,-1.12985778738784,-0.155391375332053,-0.0108191889774927,1.43578310369015,-0.142518216713051,-0.254324952213418
45.325,-0.57851183780887,0.0623914810820068,0.884135794999138,-0.110018195493916,3.20838515068093,-2.40504307525785,-1.3874164298226,0.0378810752616789,-0.105537153619173,3.28513399881034,1.23958568875558,0.441873461008072,-1.19295695919487,0.0440948085967379,-0.0941474925332435,-1.95917713744103,0.0466706771405532,2.00155860653663,-1.11127196237263,-0.176145750277961,-0.0134587650131565,1.42571773669021,-0.180704148335401,-0.252811360597988
45.33,-0.739849017982015,0.258495221295931,0.847878340712477,0.000422075486685226,3.43760220465405,-2.50196046675835,-1.34964655049618,0.124075717885364,-0.138589198049488,3.39445820165855,1.18954082326911,0.447050235144602,-1.16545135612338,0.00167944520856715,-0.0846285247773205,-2.00490007278025,0.100511419030878,2.09458952349197,-1.06721709682663,-0.196463197429267,-0.0163154300375833,1.4461831069383,-0.206941478295726,-0.25188159942627
45.335,-0.645541081646765,0.356966525141506,0.843364629652882,0.088020690669194,3.71163918434265,-2.39789876534171,-1.30218893590677,0.113029399304651,-0.238257707229217,3.29762541472461,1.2595036302914,0.458253951660576,-1.1450258433253,-0.0461025010640866,-0.0785473417887679,-2.08774990511463,0.171014724410398,2.19498623534109,-1.02172871190179,-0.200299976029245,-0.00632787327476134,0.368343631840568,-0.231687327738704,-0.256459431238629
45.34,-0.59387672755818,0.367014259597018,0.885346292205496,0.115340751930256,3.94456711698298,-2.43559557833025,-1.30110232855588,0.0970568291675493,-0.234131766503934,3.06285055688704,1.37366916111448,0.449515907030152,-1.14401515018615,-0.0845027370788537,-0.0792763076900793,-2.19770610016178,0.223632711938914,2.28711208278145,-0.982128309506116,-0.194618950114792,-0.00629979931467173,1.58850276945774,-0.252471785724946,-0.272650788471299
45.345,-0.577345095154365,0.343310227855685,0.876373151549384,0.255005957707136,4.20377709123275,-2.4821616789228,-1.29659987786685,0.146779483014083,-0.136350272784693,2.91858761416249,1.4353761307246,0.45192428830596,-1.17312796870596,-0.10414769839952,-0.103566412266378,-2.2979197936942,0.252793298188235,2.40191577247124,-0.939521786348401,-0.19058434956499,0.00132979497740652,1.70238368657326,-0.279333940819636,-0.27631772695718
45.35,-0.475955458100855,0.285657586733108,0.920273597988405,0.338715763949603,4.36209398379703,-2.62130895296815,-1.23210703817651,0.185143328215921,-0.103507288302334,2.94827992920585,1.44690622616641,0.485485357161379,-1.16394458640848,-0.126370753427271,-0.141645229777013,-2.44791816351771,0.281094238302618,2.54909098033605,-0.909101870459844,-0.186857631266858,0.00303528620696041,1.7848415188759,-0.310985589456813,-0.272047418455367
45.355,-0.530897499376909,0.236646658229644,0.908660589478779,0.491635148461743,4.48918796758657,-2.77017505769561,-1.16917265927482,0.198767696714948,-0.157543555777937,2.91958383259337,1.43775482965947,0.518457607530999,-1.17574390227289,-0.104455496143512,-0.140040285667609,-2.4203929492758,0.1971398479162,2.52422296428723,-0.880725118291135,-0.189884236499065,0.00429372005898947,1.85605718533747,-0.334632616617426,-0.270512208583919
45.36,-0.568531528960986,0.0904496017782865,1.06606323377172,0.746189441510577,4.56137955365862,-2.96027522618427,-1.09241628452976,0.202668448852691,-0.222961699497296,3.01970056594274,1.40101335304026,0.593168006383315,-1.28102779720649,-0.181110461104725,-0.228503014222006,-2.68068630903069,0.148637451104413,2.57814750603123,-0.868192535800688,-0.192483200775412,0.0134667825083533,1.89772714865145,-0.346513767423877,-0.267781542852443
45.365,-0.551105931545549,-0.198785257727421,0.889061948213707,1.08599211185563,4.50153841961567,-3.25758322981777,-1.02449913457891,0.177994265299659,-0.241988850827402,2.98981968527688,1.36528283794526,0.586243994418842,-1.22413134767169,-0.183303099581973,-0.264536809184123,-2.9349497239177,0.260053263602471,2.44644721764944,-0.872179456339008,-0.20255396337937,0.0121491186403078,1.94039835554336,-0.335490117701814,-0.272960428618095
45.37,-0.489427401311442,0.015219923780101,0.736857204923559,1.53626718795788,4.38118093682288,-3.52941780784861,-0.973856710122733,0.182653100127496,-0.237431410919154,3.03849667749579,1.25056762562449,0.604160101388615,-1.24875302923478,-0.175728325371657,-0.297801270308168,-2.93866578623686,0.280666346720546,2.2594032940205,-0.885003022423537,-0.203233506759736,0.00375572070985063,1.95317660225498,-0.306167665042621,-0.276935850081913
45.375,-0.433311052560579,-0.0679872021503203,0.775960870039725,2.20577921030565,4.36675582751853,-3.84442615492013,-0.903432637885665,0.168218328923005,-0.298576535519427,3.10316943804612,1.1782361294385,0.622544877902161,-1.24689925525677,-0.216810061937073,-0.316023782573124,-2.90365588228695,0.214662499304138,2.18974396331547,-0.907682163510703,-0.206416000900625,-0.00456790120409733,1.946714518743,-0.249218026605834,-0.279980570077896
45.38,-0.595161644492278,-0.00890157057175018,0.842003958568595,2.73105835061837,4.30077224300502,-4.20677728206828,-0.84172248380635,0.199867328115746,-0.377668581894376,3.39582137275511,1.08357961064991,0.771911503949557,-1.20703758257394,-0.279238419363155,-0.315300537228183,-2.93374399178543,0.208689592468214,2.14393580740218,-0.930864600009214,-0.211069111554383,-0.0176323133024447,1.93910671440804,-0.204684903378009,-0.291001448769481
45.385,-0.645270364945524,-0.0243398177250575,0.854574877658951,3.64783234331496,3.91241975312635,-4.79392957690879,-0.770862454017709,0.183219065680244,-0.34959000907276,3.84058293718581,0.925211415699983,0.923929649688705,-1.15133601285501,-0.358312289044589,-0.296220491238679,-2.94869380993784,0.2165629104078,2.07912860940898,-0.949543166456859,-0.204660356424864,-0.0211634462637778,1.93762832661613,-0.153309135212751,-0.302355785173197
45.39,-0.533403979872913,0.0665098571108225,1.31370347738963,4.72530036999857,3.49880618589888,-5.54321637414125,-0.736855082221693,0.211415845906188,-0.320384946666775,4.03113921209359,0.774867189593091,0.957472923277174,-1.12641651171698,-0.402295200348724,-0.280103241755851,-3.03773186138819,0.224773125038406,2.01622563276299,-0.961742986997793,-0.191581906224528,-0.0203675352931313,1.94771152703343,-0.130492382415903,-0.319436514900304
45.395,-1.0027668926937,0.519423790779892,1.70189341281508,4.91648916776731,2.61517865745051,-5.74963529175047,-0.669607697180878,0.249503584287845,-0.408922193973,4.16708931670891,0.637069968699786,1.04850195656491,-1.11382642856287,-0.461009116967356,-0.253078680428846,-3.08103911031673,0.173396970563832,1.95961495165038,-0.970333826938735,-0.178646657741156,-0.0166000885448812,1.95555271775206,-0.125102373534716,-0.334907521793298
45.4,-1.17954536273385,1.14442199678347,2.0988577517795,4.96878631645225,1.55672255603667,-5.65464058528543,-0.614311559375409,0.258121152523464,-0.439040433704729,4.23148344952319,0.53899606720312,1.16731896128024,-1.10768310328658,-0.499552896668766,-0.250472592365919,-3.13013605531633,0.1021647132393,1.93564430301186,-0.974227167502364,-0.165430269538171,-0.00621627737653759,1.978288356356,-0.125510996327394,-0.358266061173325
45.405,-1.10851660815119,1.5798568629928,2.32199338792925,4.86178886543544,0.300674307619997,-5.35604070488257,-0.558055516925839,0.274392859636599,-0.376917000807762,4.45343239347523,0.400808190457763,1.27231995339112,-1.08983420532691,-0.547279179935788,-0.261197080329557,-3.19350327653818,0.0353308989263265,1.89421231775755,-0.976823849281966,-0.147199687903996,0.0154684534263306,1.99715631415588,-0.148617127446197,-0.386910485824188
45.41,-0.894421163328521,1.69934602739311,2.0250011742276,3.93773879499366,-0.870462535363025,-4.89470123048295,-0.575970111020325,0.252813613489191,-0.214885363425523,4.72693945730804,0.251970371555447,1.3588031569913,-1.06490594253982,-0.578945526533675,-0.281746086055355,-3.2691757063167,-0.00907495378412707,1.84429203683809,-0.982181400765712,-0.138722440748633,0.0239628099750336,1.99415932730506,-0.136517054717513,-0.408150666077165
45.415,-0.576316400097632,1.58722615666691,1.21702553147932,2.98708819482518,-1.56371242548661,-4.330283501207,-0.630685109668925,0.198919087941191,-0.039901176244113,4.84362156030264,0.107930092939562,1.45128612995721,-1.05531940943771,-0.589710432043382,-0.300813014071298,-3.3061185077999,-0.0293894658479229,1.7888030958216,-0.991885681988918,-0.130347939404701,0.0269087409976997,1.97636071021334,-0.106746455180729,-0.432414059893795
45.42,-0.144762962033141,1.36751271969128,0.485660590112337,2.36305360920442,-1.68497436408535,-3.81887586145502,-0.681313552654721,0.196125132702869,0.0637136499698587,4.89889398628744,-0.0270184595792363,1.54397270081674,-1.05832746532101,-0.581482423833933,-0.334508811199181,-3.30903405077237,-0.0663743416950644,1.74224997203151,-1.0099849400692,-0.12036263380689,0.0369154629580084,1.95245602929298,-0.0665934562390973,-0.45593925235575
45.425,0.0702407410509973,1.08342498065094,0.218937647275922,2.07547620218914,-1.46398333684814,-3.46269212565443,-0.714485836767294,0.222027213114356,0.0742996840077473,4.89837791601794,-0.208324550885088,1.63242673007382,-1.07115386716115,-0.57078666454985,-0.3624042063423,-3.37304985490212,-0.119855182878191,1.72380868692073,-1.0301909200672,-0.106494797545823,0.0472395178134025,1.92390569823087,-0.0216304679685534,-0.461720218187007
45.43,0.0943651895219028,0.657553582448463,0.270707491406707,2.34222476133125,-1.17007570670919,-3.16960872281377,-0.721769752244189,0.212082658363087,0.0165175519817626,4.79616817287323,-0.350589039189202,1.67157553586966,-1.07657713398313,-0.550392694664176,-0.363080040049836,-3.46296808552224,-0.168625914358142,1.76596587613733,-1.0434511076672,-0.0850722314833532,0.0475001745247745,1.88791366770944,0.0337983578104943,-0.449843835876381
45.435,-0.0605277370198473,0.566695440504251,0.41400541540198,2.95713463251198,-1.03969067186046,-2.9196317976527,-0.685391798908688,0.216525056262743,-0.0953080119834326,4.6156253028865,-0.497119677151065,1.71680752018747,-1.07397132944614,-0.528277861207821,-0.345351602820729,-3.5099736495023,-0.197782930135384,1.83055457695252,-1.05557808111893,-0.0659183157660228,0.0563024905479478,0.458409160688944,0.0952893224315751,-0.432318225504311
45.44,-0.288528172710951,0.721933726504942,0.550104493074757,3.47333155584566,-1.04994402688881,-2.6068398316757,-0.657553421479918,0.239744720561914,-0.156955289602141,4.43708495328042,-0.607388414027889,1.77992759592692,-1.05301739606071,-0.491188377595788,-0.297913352465855,-3.54978361531806,-0.248867861339131,1.86028505748332,-1.07273771730329,-0.0449632996683358,0.0550585570474148,1.82915889962603,0.109146370304307,-0.411803395928312
45.445,-0.395074368517429,0.936622768171809,0.59044022456091,3.63738241277396,-1.15375627342268,-2.33669113544451,-0.609372502461872,0.324624437637748,-0.166134848431193,4.27445376895597,-0.688033747139323,1.86357224058639,-1.02624165089976,-0.463021619729166,-0.242534854575416,-3.53608010588548,-0.298397009714676,1.8160856399591,-1.07835425066891,-0.0234609414916263,0.0536287424303857,1.82703497996976,0.101739552997971,-0.378579318085644
45.45,-0.383364401386031,1.03942328762799,0.602274603321554,3.5431293329173,-1.28002657330618,-2.15036138862823,-0.578975442487108,0.388715157094297,-0.153201594563679,3.98502681470179,-0.78432084776803,1.95905399820306,-0.983448839402429,-0.437017930898659,-0.183972643367855,-3.44246050955918,-0.336501299540959,1.73687974153382,-1.06752892200264,-0.015653216315473,0.058884214040934,1.83224393335473,0.0571011280334565,-0.364265567983992
45.455,-0.320830157494966,1.00244766491475,0.579956723560048,3.30472472647471,-1.39650833303148,-1.97853071745016,-0.568587150265181,0.412861070249621,-0.13833462657711,3.67931313252748,-0.87129897462834,2.02571773828467,-0.939191106378049,-0.415262603653933,-0.130641560170288,-3.26070596884777,-0.366760806588532,1.60178211536902,-1.03941860363752,-0.0114763145643937,0.0647316816676359,1.84295493674005,0.00237255823759427,-0.356300479408327
45.46,-0.255206627083485,0.820639265591392,0.555965273496107,3.05567807490511,-1.45580644861025,-1.82494676466318,-0.585036368047712,0.408108697469199,-0.12076608799274,3.30204970184698,-0.976318368108089,2.0970813951074,-0.898807432872644,-0.398632719603756,-0.103110530899133,-3.07253154270275,-0.399488496729729,1.44368186594919,-1.00973296487203,-0.00777570949303528,0.0705950348864644,1.84992001609087,-0.0681591573696964,-0.345899080064858
45.465,-0.232044449668872,0.638255075446381,0.564324849121896,3.02437738147223,-1.47252978642313,-1.67622960279563,-0.612911139969352,0.341698678124799,-0.122060190486182,2.84634707742781,-1.10263102392015,2.16842815536002,-0.850585448537844,-0.383243967321567,-0.0840637355578726,-2.84013334401621,-0.450018913915251,1.22783767836667,-0.970318802568289,-0.0176281704985455,0.0766854677156582,1.84627258777618,-0.106842933124183,-0.331862711691302
45.47,-0.22534603495916,0.49541696625748,0.566605099237094,3.17744160345246,-1.49849683473362,-1.55482904522985,-0.626082471371573,0.290064996784627,-0.117212531993886,2.53349391076955,-1.17547199473285,2.22730169151969,-0.817886817477766,-0.370588969285626,-0.0728134881181339,-2.73225104348955,-0.50173349742738,1.09284170712896,-0.948115658863704,-0.0261568385828132,0.0767459553855982,1.83442968955692,-0.116974311700403,-0.314449823268727
45.475,-0.233026519579553,0.47347684682923,0.579615411326014,3.37364331770508,-1.5289707640628,-1.44459406612094,-0.648646402595991,0.237393773508759,-0.116565298982607,2.2483892534879,-1.28633376475194,2.28492493307994,-0.786894763879813,-0.350220714145622,-0.0572952888715059,-2.62859403786924,-0.535040124310405,0.962076266265106,-0.941258412391191,-0.0440022269839424,0.0784000599905799,1.80182095957742,-0.0877198535409595,-0.282888682070102
45.48,-0.266284042799646,0.494098969259757,0.62377227891448,3.57253653648192,-1.57063867672814,-1.32796563719468,-0.661782653327566,0.204236310309564,-0.130681542093792,2.09206076944705,-1.38588840681839,2.32351008586749,-0.764015607202667,-0.335614664853467,-0.0486203693509946,-2.5618169243238,-0.548749496747262,0.878821603672103,-0.947084476613923,-0.0701858747860077,0.077296392274752,1.7730257543467,-0.0594912066840028,-0.256814075149164
45.485,-0.31635196517514,0.509709896744667,0.698469613372237,3.65088592861322,-1.60857953037148,-1.23866850034403,-0.66820965268395,0.179032622252772,-0.160291538134399,1.97769743778785,-1.49612257589323,2.38939955511354,-0.756166458881055,-0.32205340354765,-0.0501365811678197,-2.54047580207002,-0.559363904012872,0.814154480803212,-0.961340508115143,-0.0951851727877849,0.0710983497391885,1.73080172071847,-0.02310089620264,-0.228683623426031
45.49,-0.342406583743769,0.489161295979281,0.754978283281859,3.64312787228804,-1.67138084622424,-1.15718885948067,-0.688683767591783,0.136958280223923,-0.170525761752757,1.86126016879595,-1.60864109710992,2.45896699237455,-0.755859053961724,-0.312535516760652,-0.046231558748963,-2.56578549084439,-0.549395162463998,0.755024678582239,-0.972925478797603,-0.115839416460748,0.0694040424146307,1.69372956057383,0.017327380502255,-0.208602858025388
45.495,-0.332887770093727,0.415478703732281,0.810669605366321,3.60899131181367,-1.75473572659101,-1.08205085276415,-0.726134292608948,0.0982997833994081,-0.167366478301297,1.72954124151214,-1.69644858658495,2.51611595172646,-0.758368712070285,-0.305641178698187,-0.0437865467529196,-2.58169234101637,-0.511483683541095,0.70850288620095,-0.979012797861846,-0.132550432531388,0.0785212474842551,1.66973926255275,0.0529504811755137,-0.199654302128597
45.5,-0.327351449815129,0.314496993717845,0.864702108059508,3.57973414410376,-1.83201277600515,-1.02543463056686,-0.759476034534365,0.0636448980152351,-0.172958422671816,1.6591028368637,-1.80148419552716,2.56164129816924,-0.764946642906028,-0.301496634486322,-0.0411986286281601,-2.55906693709141,-0.446563665747543,0.67381472999659,-0.982085978542395,-0.142133986875588,0.0813878596614124,1.64466939948339,0.0823488903678687,-0.196913217216161
45.505,-0.30610629358333,0.21664395699184,0.905031439265001,3.58866735938457,-1.93066738616686,-0.993149358287991,-0.806895523582329,0.00878162226302447,-0.162341421771711,1.59451042886575,-1.91920660697148,2.63717930518201,-0.764608954432512,-0.303406210815737,-0.038676221118925,-2.47089975568226,-0.332377845268964,0.64288170363786,-0.975510679311609,-0.140508547878953,0.101421849792726,1.63490849082607,0.107633836615095,-0.200269105457159
45.51,-0.284965854777212,0.0995761685413327,0.924839073856988,3.6521061476382,-2.00556747186115,-1.00648877194473,-0.850073644285885,-0.0477136014464083,-0.172093273191489,1.57075299229658,-2.0054885990081,2.68135385124223,-0.768669023219487,-0.312234601631101,-0.0287760714430278,-2.37468274043804,-0.244210918837757,0.624720223279855,-0.971617041139544,-0.135374232915046,0.114682153090024,1.62337709939469,0.124267634655327,-0.203013807535172
45.515,-0.271501399710053,-0.00778760728160704,0.937013940779864,3.82105436557713,-2.07790495921877,-1.02365576369304,-0.882916459438694,-0.103147337070942,-0.180365876377732,1.64132899226371,-2.11547095348031,2.73698336238383,-0.764424091965756,-0.324761210838056,-0.00743974421086958,-2.22274576501984,-0.134899967676573,0.602570818656292,-0.965627281638782,-0.126900359180105,0.131032392839655,1.61811902551296,0.143990894489505,-0.203932205382707
45.52,-0.292934421338831,-0.0923138141559273,0.941256167650898,4.01814487905493,-2.15479182124285,-1.05237451152972,-0.889868451618372,-0.144073601885915,-0.190632926071916,1.7391832121442,-2.18224749183908,2.77278519013551,-0.759429715931881,-0.348659740640633,0.0125437408487688,-2.06137305635473,-0.0470052475113924,0.577571370185387,-0.974567467764124,-0.128095955507247,0.1425544796499,1.60926389694214,0.161730915478041,-0.206684730932695
45.525,-0.350195978572478,-0.164971102490315,0.903912349025399,4.21479838919462,-2.2446830767105,-1.12266710185724,-0.872804657989293,-0.202021920347333,-0.195295753093448,1.93571765704266,-2.24837672919238,2.8212429730277,-0.75562194656355,-0.37273069700571,0.0188550984862269,-1.93343113257303,0.0271532788603368,0.552668449071674,-0.968821245229042,-0.123074904431506,0.16348521200536,1.61110551736959,0.17084392506099,-0.20943526992942
45.53,-0.355025995599072,-0.321482828350258,0.848785401309638,4.33459711981317,-2.26793883950769,-1.20596002648022,-0.847778526816797,-0.232347562859035,-0.211097418117811,2.22792437938278,-2.29620748157267,2.86421065176479,-0.742997792580912,-0.398690096191338,0.0318616629919883,-1.82865608019782,0.10261832181193,0.529883403062207,-0.977247445002925,-0.127133727167205,0.175121619022415,1.61659407615662,0.161725857622771,-0.215831203134883
45.535,-0.34274825248335,-0.453913844119788,0.848593896807986,4.45994069355078,-2.26680735271301,-1.37948585042416,-0.83068307825537,-0.265963270362318,-0.224341326093594,2.50124841035535,-2.32406065204062,2.88409874131345,-0.729576810570681,-0.424326010596197,0.0350786204989048,-1.74320441076286,0.194737707128831,0.494880601730654,-0.981668604588564,-0.123640034193224,0.192634018603025,1.62028071448318,0.139607426076523,-0.221360796971712
45.54,-0.348637104471378,-0.55903689169895,0.908364159185251,4.58857968739277,-2.25249161063428,-1.57531174928534,-0.8259412169968,-0.272637519493717,-0.250269671492265,2.78245738417538,-2.35891768310692,2.89449784740816,-0.720258464353791,-0.438502682452476,0.0333101089583834,-1.73417634208547,0.273006585809362,0.475524259664148,-0.985868839225897,-0.124862664074169,0.204117152792614,1.63372081663465,0.105301747317914,-0.227436154354336
45.545,-0.386963235430764,-0.63651965571703,1.0122913894152,4.74699028866539,-2.27115273666384,-1.80648589897164,-0.860578817500558,-0.274424074122365,-0.308079296376094,3.13611315166156,-2.43188731514746,2.89630588972442,-0.716052688327832,-0.442776648441685,0.0256094890219382,-1.76858250214913,0.37842884306869,0.45518104431438,-0.988268850204337,-0.129392960024693,0.211091363949552,1.63951371894353,0.0632946623879914,-0.224694576443992
45.55,-0.430365780118417,-0.648119307937936,1.07975841455937,4.94500992744101,-2.34620850579696,-2.05351481794228,-0.911591715298735,-0.304970861654459,-0.324698015330678,3.41121898618544,-2.47792124894162,2.91067128613254,-0.719366701781401,-0.431939901957014,0.0171077630675113,-1.80956660600885,0.459659258912239,0.442429036468216,-0.989991511025418,-0.128550397000311,0.204400570667941,1.63979794625629,0.031497328690131,-0.223169704337651
45.555,-0.450140419031913,-0.621274428693727,1.10945167134945,5.12925345198398,-2.4683312781791,-2.32410002258215,-0.973036728726138,-0.333452858355881,-0.328560742676833,3.68896635493591,-2.52349171445549,2.92219182668926,-0.734566797765949,-0.406961377998896,0.00673037888237988,-1.82345587107619,0.540951680548812,0.425822123467323,-0.987347590501769,-0.127179752255991,0.195331196264121,1.63367536377576,-0.0214494286641547,-0.220717175362839
45.56,-0.453357322328646,-0.599334832969051,1.07504461028647,5.20958970574393,-2.55919497358105,-2.54995565861163,-1.05137010368601,-0.346967478111072,-0.326705545087362,4.081448950017,-2.56383292524337,2.94644543280965,-0.748114483618753,-0.381285864625932,0.00309934862329159,-1.86011262666874,0.589482260412064,0.399631396680301,-0.979323633498876,-0.126940074701922,0.19493166535708,1.63372287386298,-0.077956330038098,-0.224972908124577
45.565,-0.456816569372369,-0.597490774809596,1.02990339249541,5.26858054370156,-2.61304128891278,-2.82551382573313,-1.08393992478543,-0.383483598292581,-0.333078729993619,4.44690877128377,-2.59950674825369,2.95905845635832,-0.752108686555721,-0.356311314948299,-0.0122291995479562,-1.87116360757604,0.615724809579409,0.348069153407222,-0.970874398571681,-0.114403683995322,0.176331049573771,1.63949025242589,-0.116532151500219,-0.220103527224244
45.57,-0.50027096483208,-0.62602544013734,1.01137882798741,5.31362756950659,-2.61502870669988,-3.01681637058395,-1.06296592283964,-0.378184010641379,-0.350190166823915,4.80435539572979,-2.61037385299352,2.96547059427671,-0.744052859032006,-0.331959952480051,-0.0266008437305503,-1.88850278591836,0.631303435001784,0.263083490560385,-0.965357925962842,-0.110637956510143,0.164991188444953,1.6565580795685,-0.131317189843764,-0.224378811233907
45.575,-0.544796237057577,-0.653573758302187,0.995157048323712,5.34986998118276,-2.61175968734219,-3.22492875740066,-1.03396746506757,-0.384225586946924,-0.363310517593568,5.18779216773754,-2.60792064666748,2.96448097003416,-0.731157014042076,-0.310998097355075,-0.0323526846046346,-1.88286165925555,0.652290407109158,0.183326212041424,-0.968531756936092,-0.106797118121626,0.152430625231181,1.68065128378055,-0.137350009008562,-0.220463824013959
45.58,-0.586933527148165,-0.655140405858277,0.992823218353589,5.39237437153867,-2.60532240467389,-3.39607823142166,-1.01980519896914,-0.374066230539388,-0.390092054861438,5.46810679391838,-2.58191783812988,2.95476691289395,-0.715987126876386,-0.299788243441071,-0.026625264228698,-1.95259431230444,0.674658851895841,0.0683627051437624,-0.960234076518938,-0.101807868616803,0.130228418482628,1.70456890176122,-0.0922022335383023,-0.200499396718761
45.585,-0.632327936358006,-0.622144583760567,0.971672665872691,5.39658575029984,-2.59704375267029,-3.52974534445564,-1.01352682618104,-0.348345675322328,-0.400339397655045,5.72862693002929,-2.52888100237264,2.94597153019012,-0.714222321755514,-0.305999098418198,-0.0162892310099276,-2.04467913765119,0.708254986153062,-0.0316662960868812,-0.962847870374854,-0.091330887323144,0.122713090450676,1.70904843628245,-0.0391310847408823,-0.183033736369291
45.59,-0.64621148970618,-0.599373425429757,0.962164747848045,5.34130006506101,-2.58827012569064,-3.64130184469089,-1.02043523593218,-0.334389429872116,-0.407702673420219,5.78898319551746,-2.47480683478165,2.92205318382242,-0.737753864089743,-0.313286276600104,0.000868953442660487,-2.22451928592985,0.730922639369965,-0.140390871943324,-0.959494932009873,-0.0881255975334168,0.114322478633784,1.71739047612859,0.0151565415798569,-0.160218905163608
45.595,-0.632559421763337,-0.58148549837476,0.952841278419269,5.25672091598481,-2.54450254947042,-3.7127715792989,-1.01079033954088,-0.347504200628025,-0.410662511278671,5.75932772586378,-2.41423182036524,2.87478356230155,-0.793436267437331,-0.302632886303311,0.0346306744166318,-2.4771470359432,0.725143442040522,-0.244528133184852,-0.95428734904804,-0.0936074282806253,0.119854036078713,1.70907384451773,0.0644332494073555,-0.141260448587788
45.6,-0.60384453924089,-0.567056318009585,0.933107921146361,5.1695007360966,-2.49373549104168,-3.73872519213039,-1.00545859022068,-0.371459086769196,-0.411214093528724,5.65017598312457,-2.34842639693355,2.80830629642021,-0.861686085497539,-0.271239770383979,0.0520878621129454,-2.6573259788821,0.712194245858348,-0.31295428422394,-0.948643843202383,-0.103326438933314,0.116591693578931,1.68851388275779,0.0871608778834343,-0.128466730875257
45.605,-0.571836221894494,-0.560474056285266,0.909216014525031,5.06549633683453,-2.42296893360089,-3.72101511766596,-1.00742589635886,-0.428175278801439,-0.408677193858428,5.48452216652248,-2.29030843223481,2.74287951986584,-0.930345419361391,-0.213790347962054,0.0578787892910683,-2.81705522537231,0.639420992861533,-0.347358535120042,-0.949496397013171,-0.110533066496215,0.124130903829176,1.64705134016927,0.0868524158072319,-0.123295207831791
45.61,-0.517042156864243,-0.548082715269201,0.874322966782711,4.90839171598976,-2.30313137292351,-3.62367704629387,-1.02790263203625,-0.477828270922464,-0.401762053287615,5.26625969897492,-2.2333536602941,2.64752527468692,-0.97304148737463,-0.13539423371833,0.0703892403006775,-2.80745205486626,0.559093969336225,-0.330180338883237,-0.95022205654316,-0.11859573054342,0.121778760624247,1.60154521635236,0.0889597277706647,-0.119965538082163
45.615,-0.457153951275545,-0.54188290202917,0.8420333260469,4.70659872853393,-2.15501974726434,-3.4723543187877,-1.03504750085031,-0.527194708900646,-0.393081339477057,5.05538612949865,-2.16867078415282,2.55723577766643,-0.973086240620818,-0.0538408793756154,0.0819333289395545,-2.78235097900011,0.420036189113529,-0.296363522056213,-0.946633240593439,-0.129911270675361,0.123359748306336,1.54166812150712,0.106744128366483,-0.11290254259341
45.62,-0.368315572450175,-0.537706698219673,0.780982047771236,4.46137521266467,-1.97454897087754,-3.27660465287187,-1.036211212317,-0.60257732792312,-0.413796431378656,4.76499543093083,-2.08436515306642,2.38710071775305,-0.937576178854183,8.55101780210658e-05,0.113793740055762,-2.72708648693957,0.28691259684164,-0.283031339016363,-0.938515048865322,-0.152652823573387,0.121721274916866,1.46987255197021,0.136107447755465,-0.110172908302522
45.625,-0.273812811473771,-0.550889596307896,0.723256660041944,4.219679441772,-1.7766995477862,-3.08407450069536,-1.05493569260398,-0.649869279281229,-0.33862593986698,4.5746767647496,-2.04411679299293,2.25856313620956,-0.875804773999404,0.0199564082692212,0.154667846519102,-2.73637024919365,0.0753684931757539,-0.322558054373157,-0.935502255368912,-0.166932737239939,0.120486268725607,1.42330118575881,0.16548187529422,-0.113198925965714
45.63,-0.153265493739256,-0.57285240804851,0.616381657405481,3.97058995157082,-1.523685659222,-2.8737217353328,-1.09450143099269,-0.713830999217005,-0.28687030003564,4.23737094029886,-1.9825951103366,2.03516738317601,-0.825739625013488,0.0163675174759703,0.20521938756245,-2.82152372602211,-0.12167256464813,-0.442574729412365,-0.923653932331337,-0.183316475340586,0.117862664077309,1.36132595041264,0.196768262477891,-0.110271219670726
45.635,0.0160870963328976,-0.570764735251242,0.500402073737419,3.73131717916279,-1.14000581546398,-2.62050719976328,-1.12141879739662,-0.772231283269492,-0.23552397639976,3.95126653923847,-1.9204004819818,1.84349464995248,-0.783540162834062,0.0106821609130771,0.275718545064502,-2.9894638160996,-0.355248197705835,-0.651602652263263,-0.910741920712251,-0.195585692434213,0.109972646486325,1.31507062401087,0.224715871893273,-0.105278253555298
45.64,-0.00992873564298161,-0.3665503185395,0.59188178121067,3.39158127722494,-0.661256298918637,-2.34947259518928,-1.13874048769098,-0.827045380090418,-0.237037974095347,3.58062452402902,-1.86317321597603,1.5805542577391,-0.769752638257437,0.00766591041305549,0.348195384938979,-3.14985979741146,-0.566227371488641,-0.873886232293563,-0.899160113148165,-0.198127029781059,0.102725379900148,1.24909427133761,0.250785012239638,-0.104061158794562
45.645,-0.256703376652454,0.0694959571157757,1.06094117007244,2.61233157160964,-0.387162058958051,-2.0764835893336,-1.09146871024447,-0.796611631204225,-0.314690743007733,3.3270064650529,-1.79057757473628,1.37416852942811,-0.810373146427253,0.0269896141309238,0.481344916127549,-3.33186325550168,-0.791221404520399,-1.05397435824354,-0.890298153103803,-0.209202689222702,0.0999039235458899,1.21872597013718,0.2883507973376,-0.101296756654616
45.65,-0.727334159421045,-0.297978879299795,1.70146347796073,0.458201085786588,-0.355268316099531,-1.85013975008957,-1.01148193541254,-0.704028972152944,-0.41170334835937,3.0258673150863,-1.7179095936383,1.18086557187268,-0.874967000377518,0.0652572728998578,0.5688075070222,-3.39296950674886,-0.957776899078767,-1.12591400043308,-0.88688073163725,-0.210139932209994,0.0988148732967579,1.18599398909218,0.323475117335515,-0.103449346126204
45.655,-0.60236835872619,-1.52532039081413,1.82727672750972,-1.48154902225574,-0.621085511530556,-2.11311874799585,-0.979316019001587,-0.705612388064067,-0.514870008926227,2.4828686887781,-1.61264540649357,0.977793057645606,-0.952815780696707,0.131993608326615,0.675916277606738,-3.37807575046944,-1.15148904476021,-1.08959156151697,-0.889949076738409,-0.209176028062323,0.0941930331008837,1.17432339368757,0.356940473773288,-0.108358351619377
45.66,-0.502503329318837,-2.29295584351257,1.68026114039017,-2.20446715888787,-0.901980291784045,-2.37085386857296,-1.02675070293867,-0.82437457272932,-0.591664457351327,1.81733308979469,-1.51576121833415,0.813379187998171,-0.990213848092268,0.174988560690576,0.731168178404045,-3.31089540817653,-1.29258140874783,-1.00714521890223,-0.89262575966955,-0.209176963659393,0.0883894104808208,1.16580326067183,0.385210880494205,-0.115042145359459
45.665,-0.72618330801988,-2.58517332446806,1.46126512421205,-2.99060799790561,-1.07495615976532,-2.57625176130994,-1.06491076419176,-0.884088971313548,-0.764647524844141,1.2696328605761,-1.3895554294492,0.571567712384119,-1.01019159999383,0.213542479982262,0.764284415867804,-3.19734630844781,-1.47862155216059,-0.865051065775923,-0.900989361341952,-0.188038088279951,0.0847944371018422,1.1893216780485,0.412755055865781,-0.131546479588478
45.67,-1.01733538524757,-2.36495082958079,1.15715340752808,-2.8868989793087,-1.39601010291778,-2.80861758076001,-1.06608999803615,-0.962156510584573,-0.937782875187303,0.920970249861682,-1.21755090093313,0.387006816125937,-1.00451643361387,0.216325265732738,0.748806129730329,-3.10940810196435,-1.56695915681393,-0.764014855239539,-0.913224646302328,-0.179109174082386,0.0875306033601762,1.21404205064409,0.428012693395033,-0.138872659509965
45.675,-1.51502498961159,-1.02067565618168,0.936954114779493,-2.44663415498403,-1.59597207344346,-2.24943257235162,-1.04485066498811,-0.979976079905503,-1.0848840124144,0.813569886654639,-0.97665441597624,0.190081867761877,-0.991629605740662,0.185862804184529,0.696752711446774,-3.01906582571942,-1.58139680752741,-0.734791688160798,-0.933155492296268,-0.173400607017842,0.0832682277943695,1.24030473206706,0.426857834694939,-0.14347266742152
45.68,-1.67691568635075,0.382938705885455,0.685281661540446,-1.34379701343004,-1.95108581884491,-1.2109972752997,-1.03099942662498,-0.953977696737999,-1.12216155761408,0.932304248093805,-0.722078880064862,0.0385160731551959,-0.973199992412173,0.125939931353842,0.611751621820627,-2.85407882188949,-1.50943011567846,-0.760321333142487,-0.965527283273432,-0.154998945899147,0.08158833187855,1.25010516882083,0.421812766786467,-0.143155641019421
45.685,-1.77073042464263,1.28535910126183,0.207088084906164,-0.285411152657986,-1.9190519969604,-0.0874470662939643,-1.02708868124429,-0.817581070577718,-1.04287394652051,1.16238453599628,-0.508460066396751,-0.0386361578687424,-0.953172198556466,0.0496570377856636,0.491765130308207,-2.61631915622472,-1.34896323072549,-0.832968191588124,-1.00483904767669,-0.138435534223541,0.0781631900684835,1.25379382634428,0.395157079121427,-0.146140436221681
45.69,-1.80172974860907,1.17018517655788,0.558469607904705,-0.964590509382822,-1.21067040600026,1.26104267450604,-1.02620626102579,-0.526921926944009,-0.957333423156885,1.45861350112974,-0.315174833448426,-0.139559592661919,-0.924922575341886,-0.0335239088118825,0.337718882215979,-2.25600576026369,-1.06195618671433,-0.901662996675435,-1.04201955447767,-0.114509990873036,0.0723042997974047,1.23971095894587,0.363893509483602,-0.156584859661196
45.695,-1.51827570778306,0.155052457124952,0.877536098892276,-1.69073868671416,-0.900382885763254,1.4508369230944,-1.10303398024082,-0.182963688517442,-0.82153981029077,1.71137457074098,-0.213015844420025,-0.148157043652244,-0.914521768037432,-0.0705753319592882,0.213536718022891,-1.97405163165774,-0.778953272140251,-0.885502280994956,-1.06382325755544,-0.0960030202557625,0.0617676938247745,1.22562868805757,0.318821598269945,-0.16332027739356
45.7,-0.77595385140037,-1.05836550728299,1.02066611152455,-1.68064757094999,-0.858645959029964,1.01880383586121,-1.15652734771185,0.0608547483092355,-0.560335349059382,1.49466498126747,-0.129480668652838,-0.13497875450713,-0.939235707892597,-0.0746927772485704,0.094253258065605,-1.65677950476797,-0.401595285377697,-0.730567915169093,-1.07653656460727,-0.0716922730759762,0.0485262664589382,1.22824467804966,0.238408707272825,-0.168847601785188
45.705,-0.239238105561353,-1.07213678211286,1.27974346716603,-0.801785022427674,-0.922823297922444,0.581287380657137,-1.19276476560208,0.126028403773149,-0.246212747605653,0.785355961977921,-0.0786663217112643,-0.106569834790809,-0.998683357338156,-0.0544515433708168,0.0545801887224673,-1.41867516644943,-0.0928726365732034,-0.495652829380868,-1.0713374982166,-0.0509390693555077,0.0492520140539321,1.26999138643352,0.172916531473396,-0.177656056128786
45.71,-0.210124442523748,0.100187957033644,1.13791685355495,0.0889782792167284,-0.997842748839137,0.802482790406295,-1.14173745289271,0.125342095967726,-0.0411263839814875,-0.0979359406115752,-0.0338379823523297,-0.0431140647592185,-1.07920236197883,-0.0433391989964607,0.0851019654758025,-1.25348108366838,0.217309182873175,-0.248114153507662,-1.07163507523502,-0.0208131256420856,0.0544497947885686,1.3111660119294,0.142749080151348,-0.173082657685883
45.715,-0.218302750969047,0.615516945976193,0.992085035464281,0.294165312679561,-0.970251177769669,1.11791014484395,-1.06385249428324,0.20461157214573,0.0763487708083046,-0.743022802935019,-0.0603984782534127,-0.0652626656835204,-1.16911648128922,-0.040862755377472,0.169549455068535,-1.19748912019847,0.493124747136281,-0.104265494088615,-1.08573700122504,-0.000944823001473189,0.0552410034610117,1.35343038427905,0.141857061801886,-0.164800367863576
45.72,-0.339643692644142,0.486322286165002,0.95607451131855,0.0422141365566258,-0.98968992474886,1.12953024074579,-1.03621546617916,0.328749638463006,0.00757265127821931,-1.08237210992363,-0.103696760628583,-0.138832849059463,-1.23150504746983,-0.0468199964601867,0.27532955415166,-1.2287625995669,0.670790741234643,-0.104563120148016,-1.08904508756959,0.00964396722204087,0.048374191918698,1.40287781734266,0.142130958703753,-0.149141809709259
45.725,-0.557389462176965,0.274549709999859,0.93795855400128,-0.205534859556433,-0.918810427252804,1.04971484509232,-0.996905610744077,0.493634206821324,-0.132716294488569,-1.34725104683744,-0.15859645533753,-0.205839328050627,-1.26007721933377,-0.0717089922740978,0.380249296037062,-1.26526240561774,0.813610867490216,-0.305769568208726,-1.10057901793448,0.0106254672716528,0.0473101290144995,1.41990531612549,0.139383164271396,-0.118692148671739
45.73,-0.683753167899712,0.151852144248679,0.815235282148025,-0.0389111213827281,-0.918355587132716,0.970806599017055,-0.989049005006493,0.66029276870317,-0.220208384245565,-1.74058463510028,-0.187652277739209,-0.174876149727602,-1.21582871706279,-0.115436708244411,0.398080232696886,-1.07258532680517,0.886926750299793,-0.490840327076048,-1.12302777611403,0.00677668972675049,0.0440986291760068,1.41568455182479,0.1275315139475,-0.0815692030549242
45.735,-0.7510037476085,0.347367378873496,0.79405381761715,0.125858950968476,-0.888779213384692,0.94929069043458,-1.05218058759872,0.680275866782281,-0.248421202107754,-2.11682013572168,-0.144759536138424,-0.136855380490767,-1.21445955041781,-0.173039487943472,0.433889956268892,-0.743621725443123,0.881310273772509,-0.720189424491643,-1.16155727301718,-0.00400971845918349,0.029238156539421,1.39385040300974,0.113690822519904,-0.049583375935852
45.74,-0.638366024123515,0.414089273117759,0.836591429467996,0.178077478045896,-0.866998940633141,0.88632557823423,-1.14384069418103,0.630162353448579,-0.179969910322699,-2.47802005790553,-0.079196975395491,-0.0865885355705613,-1.1954365929595,-0.232916383175515,0.476246949506124,-0.237328729062739,0.955072529864661,-0.86133760358241,-1.19174837870261,-0.0208995558981069,-0.000211641510980601,1.3427076129212,0.134818901749561,-0.0160109607395646
45.745,-0.440813167204234,0.412962419974721,0.921143359639953,0.0830292293059489,-0.826683339050767,0.780735035198371,-1.23623878629823,0.561246502609271,-0.0733700236026667,-2.64271019179077,0.00777728077185569,-0.0672917169666486,-1.14070163924885,-0.280658534435562,0.458817788848116,0.135217069132731,0.86394731488327,-1.01320587793755,-1.20596669053043,-0.0182094985411954,-0.0148860488446959,1.2791562204523,0.144067953566974,0.0134047998507762
45.75,-0.21938917790579,0.421249828369966,0.984243515287887,-0.079790757690184,-0.730410632974103,0.532096808241839,-1.33780290215034,0.491903788586372,0.0356498346660657,-2.54757114308712,0.0135998160226716,-0.0944363413061893,-1.17070242041077,-0.311832747351215,0.456854788989349,0.213278442790288,0.609599973368426,-1.06713620338615,-1.13114742113313,-0.0265397136387447,-0.00805117511877479,1.21215508037902,0.177615410689434,0.0713347937907506
45.755,-0.21659382492084,0.399233260965043,0.98172847138336,-0.249693563299414,-0.608239412396661,0.242667565157501,-1.37485694047668,0.436738410233177,0.0515148971128535,-2.33579237813345,-0.00775463190022074,-0.111071004785681,-1.27354252081084,-0.295271911661459,0.498913760511348,0.181378385761402,0.401000035029004,-0.908319723994321,-1.05908917130683,-0.0511494657499474,0.0302916809617261,1.20370978953765,0.195616600972856,0.0843352373080315
45.76,-0.278830270455122,0.404337608614498,0.961681715307146,-0.345942426628303,-0.492855461996115,-0.0116082323114844,-1.368934223126,0.325256314904513,0.0331449705569722,-1.90188144188627,-0.041560045481742,-0.0917370848125555,-1.37852695350537,-0.227580965016042,0.550455201009383,0.287269672958568,0.311946757513572,-0.664946234294882,-1.05511298462822,-0.0455846521988676,0.0453945641600254,1.18528405498516,0.1812140765861,0.107446301690488
45.765,-0.334945409546218,0.347172319796273,0.922430607355714,-0.401920314831892,-0.410916848328354,-0.225316585464922,-1.32200645126573,0.168705889030281,0.0358736932079413,-1.31595958132792,-0.0605604963559791,-0.0547476356974795,-1.46365738482366,-0.126305894239365,0.520021192219318,0.481630953845405,0.260014929902058,-0.463572417434304,-1.09315321447837,-0.0418789395107002,0.0387751886507327,1.17836428777996,0.180661416486553,0.148965117727032
45.77,-0.391926641004785,0.244179634759302,0.937985054508006,-0.41422545311799,-0.346585310140371,-0.345359859615699,-1.23724380218431,-0.00335408613178967,-0.0205604746409759,-0.638558442711961,-0.0504994113801376,-0.0263440290289004,-1.47566103375097,-0.0733944366527046,0.434487826177709,0.680757578222688,0.244363152858736,-0.263391000736044,-1.12829086737739,-0.0332211144398553,0.0270229308709664,1.19328699277886,0.18794460439427,0.194089483156461
45.775,-0.445036027215371,0.179409894554981,0.89230453424245,-0.411611781043534,-0.292694728438261,-0.412373627539965,-1.13425533450832,-0.0761212379305948,-0.116042440566088,0.132863335711551,-0.02509954863744,-0.0238222568760621,-1.42841932364818,-0.038069696994575,0.290005019510106,0.87952473183087,0.221937639875904,-0.0707345752944735,-1.14524762560413,-0.0402871292130278,0.00817093384717519,1.21266739863116,0.204269604278279,0.224440107174926
45.78,-0.495052646116827,0.191391620991764,0.856659544544005,-0.422083169221878,-0.270116410449692,-0.4163432974712,-1.07390319374906,-0.0577637767985212,-0.165367994290264,0.795944558317417,-0.00770608137114877,-0.0248138401657343,-1.33503959311465,-0.0289030165688332,0.140718722142611,0.979589049970092,0.218480720359356,0.0236965948748888,-1.12916150183802,-0.0397490437607081,-0.0259795040870667,1.22438185260565,0.263350160913305,0.226986489262284
45.785,-0.539485603161147,0.192121243605858,0.835034846451605,-0.420319858307212,-0.247770324152735,-0.398672965694948,-1.00430045383128,-0.0334832499119664,-0.183051162534645,1.32480858946826,0.0269571084429023,0.00564482944897874,-1.21259119633322,-0.0165557010081461,0.0023021199815626,0.935922244915663,0.175094485434994,0.0145608527716011,-1.11364959808089,-0.0389850035179764,-0.0449351022932681,1.21407158815014,0.33233936202791,0.219400045716337
45.79,-0.531622958360991,0.13055342304473,0.844255731147022,-0.366551908317829,-0.255459107932979,-0.353664557840282,-0.951777026353169,0.0106900548291385,-0.219023454340655,1.49677431909392,-0.00442552698864238,0.0273296237495871,-1.0606433098322,0.00219409179325852,-0.142024656645792,0.793401202939166,0.103617441047037,-0.0461820100336072,-1.09833564818471,-0.0377362833910513,-0.0699177099468798,1.20738143702585,0.423262619221515,0.211827216600945
45.795,-0.523140543570134,0.112238303683247,0.844796892137158,-0.309089710428109,-0.283885001390458,-0.297111068590189,-0.914728152076156,0.0672781032511329,-0.247706041656705,1.64023479139969,-0.0877783468431889,-0.0085461170878237,-0.944411539556079,-0.00241128878078143,-0.257106338575663,0.629192188603966,0.0408574603117157,-0.0938480490932069,-1.05365202339785,-0.0378411929578408,-0.0684947554322244,1.19508530082526,0.53023622968649,0.195839291654666
45.8,-0.521349574172982,0.104496901314256,0.832329708475092,-0.260638962770367,-0.302779210136791,-0.231817567450181,-0.889324513443731,0.0837667325853302,-0.258797004651604,1.54857007860307,-0.144731795284403,-0.0272572282701731,-0.829148385232976,-0.0229943212137674,-0.36595854069127,0.402232149273705,-0.0132669224709785,-0.151269291640821,-1.00262000168943,-0.0368992475419312,-0.0495686865191243,1.18900113824724,0.586832271060761,0.179377210672125
45.805,-0.514220864546064,0.105973239796304,0.841453971345585,-0.226409157471172,-0.293946703629009,-0.158484973713359,-0.858512405720113,0.135029481503526,-0.221009555532584,1.31638620814306,-0.141854639559988,-0.0482578462500787,-0.757559613741846,-0.0335322193486382,-0.403971308016654,0.189530283012385,-0.0281638132721502,-0.233241585216044,-0.956475301152266,-0.034328995300936,-0.0298483938762476,1.18411421775818,0.612791608935693,0.162615031227893
45.81,-0.507364302953291,0.0887204467762785,0.869005901712143,-0.210303043709717,-0.283466910034617,-0.0858141039642129,-0.908259216235909,0.292419255953556,-0.224203063360698,0.739370921483742,-0.0851297542594159,-0.0813752630425749,-0.726850179157671,-0.0548484168982451,-0.410876037601452,-0.0117088252066333,-0.0141483558906488,-0.380954558143738,-0.921208260407499,-0.0195744136411449,-0.0111273617917198,1.18107665069494,0.620393832095565,0.153714319673198
45.815,-0.467931790980782,0.128270523924651,0.887398549184482,-0.167949139242515,-0.295904103541376,-0.0122625996226602,-0.977976275040255,0.396150211883208,-0.218477246969714,0.13016338317658,-0.0885191129458402,-0.109052811995472,-0.735671437782186,-0.0726872587604579,-0.385067295840464,-0.256354296078892,0.00854664051719307,-0.554798294636673,-0.90455511927179,-0.00745351712702158,-0.000922613326153108,1.17063350614121,0.637286583885512,0.157707239797068
45.82,-0.41263331882512,0.165104875179939,0.908790555719358,-0.173106950722546,-0.292058401176552,0.0339392498362984,-1.03829203245205,0.406922878493856,-0.15516665668845,-0.706721177470642,-0.152879788018073,-0.138679727604748,-0.796210789746823,-0.108806389390917,-0.323715660772979,-0.483485877826642,0.030646180844642,-0.700410096303284,-0.901053575231873,0.0153737251934946,0.00500947292111242,1.15848400252052,0.639239744558517,0.175724188924773
45.825,-0.446525346801463,0.143066502478567,0.892253432575578,-0.204924125392647,-0.335374518959013,0.0711258704693195,-1.05728001623877,0.336070181272569,-0.147050692800583,-1.27010001298099,-0.159049131001437,-0.153307359614277,-0.914499643110341,-0.140045357675943,-0.217943884612755,-0.790240927765651,0.0628010805786688,-0.812855982402722,-0.917004985726425,0.030747425351638,0.013618805974532,1.16119376322259,0.605097103552459,0.177847515420813
45.83,-0.444752302641069,0.142101873369049,0.902712278445979,-0.253667018982537,-0.322637296027689,0.0695438475703952,-1.05126181619866,0.292017030527794,-0.192196110718004,-1.86365270372083,-0.185031109538655,-0.201941659321187,-0.999935443035051,-0.165840735776933,-0.147146300697238,-0.964036392867974,0.102356879187807,-0.836595024639055,-0.950283886998978,0.0380278259552531,0.0137259991403391,1.14687807479823,0.569141009940217,0.174497667399836
45.835,-0.458568973576571,0.16095928271712,0.896563804620102,-0.28412933860486,-0.302041782417596,0.0755557000400471,-1.05550094706919,0.227098754991327,-0.222512341232011,-1.96694947870762,-0.25164685170727,-0.224902721785682,-1.09332559610792,-0.18544490526848,-0.071310650654295,-1.18686045464808,0.14467518401978,-0.80181020376293,-0.988647502751103,0.0464970547087281,0.0133636196962849,1.11861795829977,0.567012200140015,0.153597745786912
45.84,-0.42503163514522,0.0911304581253781,0.865053792279299,-0.324798856051071,-0.261232492766339,0.0285147450317129,-1.06181420778703,0.153193708647723,-0.245261512378357,-1.95375839104035,-0.317489065462289,-0.205889833831431,-1.14465500360903,-0.196037525775697,-0.0137901366089593,-1.28531985360042,0.134798833878369,-0.741837909584596,-1.00917079467603,0.0542449139771262,0.00553236187253716,1.0886370804057,0.575919590569626,0.118124264864128
45.845,-0.465877719071881,0.304714596480135,0.846867559837925,-0.353736662789287,-0.225327288317909,0.0657108234044436,-1.05977771302139,0.120969006804309,-0.304009003977349,-1.87495888757852,-0.341438786668656,-0.188622346009487,-1.15997457422428,-0.21251716809041,0.0659699595812142,-1.36306032958343,0.0652444062219082,-0.595100698551307,-1.03266029571083,0.0662472105305245,0.00302567488765805,1.04137951903752,0.596961948097069,0.0695673217952079
45.85,-0.442931608097114,0.155895137711349,0.858932305339551,-0.404568234719679,-0.213755416727642,-0.0100042860706671,-1.02485608473586,0.109600095543023,-0.2574210100474,-1.61317868105447,-0.354051518426292,-0.147413551470789,-1.12610614017689,-0.23017241081844,0.114003533785424,-1.40316907756434,-0.029872002139732,-0.468677076206247,-1.03529045284384,0.0781902629539598,0.00161079972213978,1.00694217572056,0.613111869776321,0.0235924700099834
45.855,-0.440552493688082,0.160219522354437,0.885628041423073,-0.394388028002678,-0.215668061756026,-0.0484948578214738,-0.975465536699864,0.0769532754820344,-0.207444175728096,-1.25643317715546,-0.366378221462504,-0.13282455874654,-1.06059621713083,-0.2482414400313,0.183877334290592,-1.45243946900831,-0.183812623835934,-0.350214371964317,-1.02296777044049,0.0962288156839555,0.00815538662049715,0.97783590693554,0.637657132958563,-0.01076443260959
45.86,-0.442234088377357,0.182559522912965,0.852095700778502,-0.350994304408036,-0.20630177293133,-0.0821194302470583,-0.95518833202538,0.0883486334814819,-0.174281668795142,-0.808001025211893,-0.388543315442466,-0.125382875147843,-0.994216041504978,-0.271860623612136,0.249381226070328,-1.52031350869888,-0.353971664030556,-0.289821866902922,-1.00020321080665,0.100282673289416,0.00591124105272207,0.959332744435053,0.658929526783745,-0.0283583438270216
45.865,-0.439653557397461,0.200777564672746,0.839301961287787,-0.304750192245152,-0.1646419172395,-0.0925584825568255,-0.956125018576276,0.0961526267411641,-0.183255712416464,-0.246747070248219,-0.399527349234971,-0.0872295521680748,-0.944343464574076,-0.278930746789459,0.314467514480654,-1.58418408182076,-0.486869492852473,-0.291335822428431,-0.980580709639464,0.119505500952306,0.0141768843303009,0.967436468192737,0.663713148705938,-0.0381725994147228
45.87,-0.456568013515219,0.148496201351281,0.857282894212582,-0.256475949152806,-0.156408063457467,-0.15089012357566,-0.968205875339425,0.15518065436505,-0.231345303834304,0.153948037144208,-0.442160596951952,-0.0707126755359532,-0.899197679785664,-0.245554595034481,0.373178329645161,-1.58647718372881,-0.57034789352149,-0.342536494914392,-0.966424670150235,0.127082974685528,0.0265975177673559,0.99721130805473,0.661959960672953,-0.0246318116825594
45.875,-0.443036481195339,0.150272652386898,0.852667112203256,-0.187512004808058,-0.138119269392854,-0.157319468124657,-0.985674292046595,0.146770585810848,-0.209460486015138,0.506730287365465,-0.459382560301372,-0.0622638797277721,-0.879251944179738,-0.205154142862866,0.407779405000185,-1.55192253196896,-0.593655544121176,-0.383004959624915,-0.959299761915558,0.122838094415286,0.0431515339930414,1.01990636535192,0.647458074471427,0.00134960545581876
45.88,-0.463209278653394,0.0966764729066988,0.873529803756385,-0.122370013074069,-0.140551648021762,-0.167488478945955,-0.999059292096007,0.1337133677947,-0.196049205042296,0.740410579538497,-0.459334837729187,-0.0747234264057776,-0.881887574728263,-0.165530255759041,0.447746864357204,-1.46329231759569,-0.595005378229602,-0.400481304812251,-0.962077737091564,0.119759083000709,0.0624588540036481,1.03266444923416,0.606243552750965,0.0340569404439152
45.885,-0.462804465302913,0.160427738142607,0.861809249940999,-0.0523267583385744,-0.139996631217066,-0.167898112227343,-0.995492242357968,0.183911776138141,-0.149032482996735,0.889257891206017,-0.428246737503585,-0.0974932974354569,-0.906729090645972,-0.131036258474157,0.484809544150072,-1.3318084362924,-0.555009624828092,-0.378810956493687,-0.978028265106908,0.0891719951484807,0.0825553585031568,1.05330374410443,0.529066094433936,0.0647424631456989
45.89,-0.447634392963353,0.172224631770552,0.880356522558624,0.00466212437137416,-0.122526517303478,-0.149796268298749,-0.998053950916034,0.226620879774059,-0.122432695809652,0.991270234798934,-0.414182720237858,-0.119843644133768,-0.954921755309066,-0.0913269549749877,0.512091035947368,-1.17060984696776,-0.48055536198559,-0.322850496796459,-0.996314829716032,0.0632476832213192,0.0961514273667363,1.06133540418056,0.444414461551223,0.0724767960514513
45.895,-0.418367043127115,0.156831974176244,0.880007980850848,0.0263287312831059,-0.105464403001893,-0.150794295836471,-1.00541182805859,0.273504497651028,-0.124653315407895,0.956099874781376,-0.410553398800672,-0.133590593720167,-1.00424415799189,-0.057196185538018,0.513751424202,-1.01365871126815,-0.38503882906772,-0.266013290613223,-1.02958315299169,0.0266561136966459,0.10908184492983,1.06102269021126,0.328869633850905,0.0700233364537952
45.9,-0.395541443870987,0.190648063399727,0.87344898003373,0.0436985127446115,-0.0898105412245429,-0.136660713161032,-1.00822310417981,0.298252931278267,-0.0989128706452999,0.774395442261388,-0.393039249753631,-0.146779816411365,-0.92366980978017,-0.0295576282062692,0.454743193874185,-0.943327092169677,-0.335246753796427,-0.24315388272406,-1.07680470364871,0.00690305704447647,0.102074343945291,1.05095561025283,0.213755386480088,0.0620077164798363
45.905,-0.408027354875178,0.154291012234186,0.875646516201825,0.0457695729735166,-0.0683240314744444,-0.126483453500762,-1.00253403326549,0.302538632415444,-0.096785298438669,0.610632103230239,-0.385260190999661,-0.162291061341655,-1.09497594926153,0.0235446320422921,0.511573201210662,-0.83101645385029,-0.0487632138665835,-0.44967085327291,-1.12078137763798,-0.0139292580445903,0.0903577259133245,1.04909317005143,0.108123674062267,0.0406810540562772
45.91,-0.431762755944391,0.193019887949235,0.871470037532132,-0.00104808561216419,-0.0726050707049518,-0.120235018282676,-0.978689161305517,0.296381318246053,-0.101234551754688,0.273100244051859,-0.365579826288146,-0.185415947933613,-1.06015409491761,0.0155319869763848,0.442535236503832,-0.477991257857214,0.181494931563129,-0.422396781858734,-1.15723677212791,-0.0171087505893787,0.0642225422975785,1.04239686428151,0.0376900622785307,0.0223903932081637
45.915,-0.438289860851808,0.175453263734785,0.871726878939861,-0.0402001418556376,-0.0686089025536211,-0.116031595861887,-0.964318610458017,0.284254355802615,-0.107577821943963,0.0499562029720765,-0.350256622028128,-0.201534081211964,-1.05755590201085,-0.00405577531964169,0.345252690664703,-0.362062073608681,0.167810195359161,-0.353698075876663,-1.17111622516243,-0.0194559667900274,0.0390145617153076,1.04842349330715,-0.0105845647454203,-0.000304949933808667
45.92,-0.431845918580806,0.196191577576283,0.863595269867667,-0.0900057954282669,-0.0693577975034714,-0.111709679378243,-0.959839387483983,0.265814346882468,-0.0956399557044387,-0.113895678271832,-0.339776807360714,-0.210511614050904,-1.04092942846528,-0.0229520993155356,0.290896567500912,-0.36835147277433,0.0812677709051079,-0.227702865737367,-1.11988243880047,-0.00732828306956973,0.00901582401733547,1.06394455857376,-0.0565762236448504,-0.0109006237392062
45.925,-0.438714676716189,0.199471220229937,0.864860224832863,-0.152313002790496,-0.0622271024041658,-0.115609650926701,-0.953920644593773,0.243504597591457,-0.0832670794915696,-0.269563707679318,-0.321717201565733,-0.213011299660792,-1.0198662817327,-0.0138066446545884,0.265083818379697,-0.410286155618687,-0.0205184777708566,-0.116409026901613,-1.05818098420097,0.00131658155211738,-0.00378281340900244,1.07739550487963,-0.0810017316573831,-0.0145278686130174
45.93,-0.432148892601567,0.198907581894546,0.868524879113536,-0.209203323490457,-0.0690524837558014,-0.129725700777914,-0.947128262578377,0.229547448687346,-0.0740369878178156,-0.359128025033368,-0.305881120320793,-0.213651100551748,-0.969511143840983,0.0120213450985441,0.229529956130396,-0.34636121132697,-0.049419601747237,-0.128083835023328,-1.03534463894133,0.0238177726388996,-0.0348739971483973,1.0870764350069,-0.0813157702127615,0.000893748436985024
45.935,-0.429497267203134,0.203243332787108,0.863860090825298,-0.257086260444285,-0.0773898814534755,-0.139772387415286,-0.939390983658482,0.22579750592271,-0.069185106875909,-0.394611001014709,-0.279392064726696,-0.210271285403217,-0.939480027838714,0.0125074646530186,0.189697616915416,-0.325199532550384,-0.100890546953869,-0.195738885691094,-1.03358926244308,0.0424705557831713,-0.0567130821541185,1.06983675376264,-0.0382597850559077,0.0518424394637925
45.94,-0.432605583348036,0.182760515652883,0.865703671646131,-0.293206344452494,-0.0791313499212265,-0.155308524932893,-0.935049649091047,0.198028332299083,-0.0805604122997662,-0.364861435641631,-0.277561737702241,-0.207238021824747,-0.940873657578379,-0.00269986778437346,0.178080849959925,-0.293589877284008,-0.141454385956076,-0.222838985358658,-1.02504568870188,0.0464814076612459,-0.0848211051464955,1.07780337970008,-0.00573228885569996,0.0828253310947683
45.945,-0.437247820862553,0.162952640945592,0.868006390991115,-0.292499268085628,-0.0803169284259887,-0.162088497563111,-0.938159937134155,0.166624002208249,-0.0948293798047167,-0.296756002694166,-0.259417201491307,-0.205202409125577,-0.956613104853536,-0.0151122403298264,0.172973690018937,-0.173864556521312,-0.122022399728213,-0.187423937769291,-1.02768460962733,0.0450028154978787,-0.0951166841302105,1.06441318400197,0.0594096430715354,0.103008142745117
45.95,-0.438671444857029,0.15373732711731,0.860734057622211,-0.276193471921683,-0.0741797341338698,-0.159624723267153,-0.952173507400091,0.146554566341331,-0.0967778721648961,-0.181084513308891,-0.22685128520761,-0.204788221736185,-0.956820707317873,-0.0169807725754909,0.165925812325898,-0.095684271309279,-0.0929158775669229,-0.156595646691436,-1.01589679520255,0.027815461558091,-0.0992731793434984,1.05951762183912,0.11925103179932,0.0976206745369367
45.955,-0.432544296108369,0.153349340588333,0.865004294334768,-0.236943878746254,-0.0675507681720468,-0.155992060899734,-0.96516044403618,0.149704500348784,-0.0923224998977902,-0.0420783650435588,-0.211766425962545,-0.210772321114736,-0.964542382648059,-0.0143476860996976,0.170395021615121,-0.0837330096048138,-0.0716604213805346,-0.115490630191073,-0.997915893735312,0.00885807122290264,-0.0922123487861491,1.04449730632861,0.19604464644382,0.0681411896693569
45.96,-0.419064491622568,0.167701693475494,0.865755637348138,-0.174156730175284,-0.0606743692538538,-0.15412662921303,-0.972614308893787,0.157411071779469,-0.063724697977926,0.0985413997588237,-0.198717583395678,-0.212354731245071,-0.979383703147058,-0.0166051036728711,0.173947327367956,-0.119244663660117,-0.0463213847085658,-0.0594892285548531,-0.995970723621852,0.00537204562681161,-0.0658788618052749,1.01659883463383,0.252137368285057,0.0338729797087115
45.965,-0.381097629905766,0.197510933944594,0.876326993806745,-0.121412388006174,-0.0412227700633804,-0.146203055554687,-0.976436482311213,0.153963681053155,-0.0455550740088038,0.20988167748847,-0.186048662880372,-0.206467496793049,-0.998474720619665,-0.0188826925312463,0.174723857961608,-0.177460242675675,-0.00937589936611924,-0.0165347262404669,-0.999801418426012,0.00612821652102355,-0.0432591570111745,0.977053100830949,0.264250658867003,0.00473018321668916
45.97,-0.37939913488831,0.178573384706126,0.872410923235764,-0.0844508268006793,-0.0291526793727924,-0.142553418874741,-0.977092060460667,0.167217336982454,-0.056328635285913,0.282042343131328,-0.179643801249406,-0.199649785153094,-1.01458691836383,-0.0300129851066744,0.168840938771332,-0.225431154943542,0.0516118628735468,0.0218879927760719,-1.00044951007939,0.0154996925333177,-0.0183001321539141,0.946398554798518,0.244246191350894,-0.00188417346126587
45.975,-0.395848385583347,0.153135988785143,0.866038719900852,-0.0514252875517836,-0.0131973059134741,-0.135885601412549,-0.966567308957573,0.160443954585934,-0.0838689016708353,0.332807773284953,-0.174483043188936,-0.196721754280948,-1.01452751864517,-0.0316589898049378,0.159256777158569,-0.232793906509978,0.11219620737082,0.0348311247764361,-0.996759411231676,0.0219861024028538,0.00992974721011747,0.920958822378761,0.192927005306162,0.00113950136492623
45.98,-0.428576314530839,0.141469300626648,0.853428026099031,-0.00448734356831576,0.00309642575182125,-0.128167313501448,-0.960849471964836,0.150013081712781,-0.102443988957215,0.350557124576182,-0.172899665461794,-0.193105457318248,-0.995743033529922,-0.0323951578313129,0.131347849798906,-0.268600650043341,0.17260844619729,0.0509581863031833,-1.00014241850962,0.0342989316768985,0.0239557913931324,0.916568609560849,0.130902128927193,0.00350831955876339
45.985,-0.438759067740314,0.151094576565459,0.84465782705849,0.0254183285481559,0.0188341196001649,-0.115298423849928,-0.965589330751619,0.137142406584984,-0.116510431626283,0.381756344302125,-0.1448404697226,-0.185026901585649,-0.973251519853566,-0.0309371471497554,0.109486236838092,-0.276306506492372,0.200729650712262,0.0605804857501194,-0.993810627470088,0.0495063215611568,0.0369869256198044,0.919245343953424,0.0736429929162391,0.0165458692405195
45.99,-0.423562837419816,0.130760987015816,0.8532145625682,0.0556303709708999,0.0387319768581277,-0.0832090948581071,-0.97483589760808,0.111786288524565,-0.11782030556552,0.370809103809609,-0.128200516590404,-0.171312106238517,-0.944845545090534,-0.026890117971276,0.0619475941438736,-0.334878884774272,0.227960324145843,0.0610950996369997,-0.996492998816671,0.0503620978913116,0.0429237903750537,0.931836569251777,0.048063764875934,0.0223897349305225
45.995,-0.412207609863443,0.112180333466112,0.855028229836352,0.0731737302392903,0.0545039610713902,-0.0599939676601203,-0.987154517685326,0.101154861776577,-0.096930654252706,0.347338093916473,-0.113143255472184,-0.162839572825947,-0.933970873489539,-0.0144827084528505,0.0329006649997927,-0.370282407194668,0.243536828638861,0.0590908009494466,-0.99081185272626,0.0509443451339798,0.0507522819046602,0.948998030806399,0.0392153822490193,0.0180648141177054
46,-0.394664367308728,0.14703647773916,0.857308544771241,0.0991488837692555,0.077611771066645,-0.0315448194395933,-0.98426086162275,0.106447522015557,-0.0576728010656797,0.299615177234459,-0.0787572992172756,-0.147898991355181,-0.942924055053882,0.00384027779601708,0.0121388177611706,-0.405783794675228,0.261741520058638,0.0392427967045715,-0.993538058984616,0.0432061784165739,0.0481864864053613,0.959310534814266,0.0456822596317599,-0.00640948225046826
46.005,-0.376612859953719,0.199510220753086,0.865171693993721,0.0927190814910794,0.101398802390755,-0.0177147227605806,-0.982162338410964,0.143134370703884,-0.0316120744456408,0.229654821915125,-0.0675150993822081,-0.139643089554059,-0.967776191621654,0.0132317190106785,0.00876066973705555,-0.442777796036601,0.277708290368858,-0.00407440416088147,-0.982736108240955,0.0475904790761801,0.0460258151918974,0.957799167559471,0.0609073635619073,-0.0292471367596695
46.01,-0.382360258359583,0.181537559398718,0.866037827716963,0.0647759003314975,0.134044485440726,-0.0127414761220985,-0.964547063283877,0.154907894868379,-0.0264511901883418,0.200166740544374,-0.0497618016399266,-0.122722882034958,-0.997918823710521,-0.00501676349115039,0.00304953619991468,-0.489180618456591,0.276465825566531,-0.0558703455578635,-0.969108366347716,0.0512644464003877,0.0384066837113846,0.967192558627191,0.0863761453728859,-0.0508291157871022
46.015,-0.411501601177699,0.160156958617561,0.867043067876041,0.0482314884018253,0.14691987973507,-0.0203965454202749,-0.944588775476753,0.148847472543182,-0.0542529115290896,0.18589099366887,-0.0348740948976185,-0.108913661346599,-1.04552833673428,-0.0261653765492916,-0.00143251716116355,-0.598726176303371,0.248610007282478,-0.112895647646729,-0.954830759358817,0.0547679407813735,0.0309578885073036,0.975805249121501,0.118534367675025,-0.0624988987398849
46.02,-0.431517536634153,0.151793501010464,0.868470979529454,0.0362037024048686,0.155214126577044,-0.0188055126964372,-0.945657613796655,0.145791721045168,-0.0907188868267119,0.211535781847667,-0.0123142834110297,-0.102759857304553,-1.08496936927586,-0.0350567515425369,-0.0043021018051958,-0.71409852919379,0.20629274085573,-0.144048132914701,-0.947090067572522,0.0563298734780488,0.0162493878043676,0.980087500807771,0.153102672130089,-0.0612997171710421
46.025,-0.448096703762684,0.150990128259707,0.87718487779006,0.0273983065910794,0.153922967084443,-0.0204350232512324,-0.952366974971496,0.156377908068406,-0.115167549908403,0.24976008619777,0.0131141528413608,-0.105660905093817,-1.10079693018812,-0.0305284660544656,-0.0156981074820818,-0.844409950513749,0.12528854270128,-0.132805198102324,-0.945882434224903,0.0587635629160757,0.00447823974262912,0.993805276834614,0.187195999753649,-0.0595006574362081
46.03,-0.456874559730457,0.156777891480955,0.867972401153354,0.0214284563654133,0.128725238240184,-0.0227908475107483,-0.966607578834786,0.178208394473741,-0.118381897113555,0.258573205898676,0.0345874720014657,-0.108699739384272,-1.08132353007986,-0.0254629529117235,-0.032290188233453,-0.951011872599079,0.0405589903128274,-0.0690302681582114,-0.945738737795042,0.0578281516452031,-0.0116044817212386,1.00688086311135,0.206307365747905,-0.0527578939660461
46.035,-0.456732835003143,0.155036507973033,0.867220437797006,0.026947409228952,0.106926440150526,-0.0204225215477308,-0.977048406910656,0.199922854392198,-0.124594617932778,0.265104055404663,0.0491454048058266,-0.112495672424336,-1.03237781950914,-0.0275604908266574,-0.0384303282279934,-1.07328762574782,-0.0713211844846114,0.0292789903816585,-0.945158594267519,0.0569026979249902,-0.026529588471979,1.02010918438777,0.20322185754776,-0.0506059090769593
46.04,-0.447476248093993,0.156992307804409,0.867380773245794,0.0378131242666099,0.092872338938091,-0.0243329602916863,-0.972446869009488,0.199344642280403,-0.12335650313331,0.265104055404663,0.0621571566589913,-0.121002382821469,-0.977231261462411,-0.0370620174621764,-0.03886607860589,-1.1669146595713,-0.169178141844134,0.108350197407716,-0.939396624341123,0.0540856809384259,-0.0449592797477544,1.04910232834416,0.181720845957709,-0.0574689941352535
46.045,-0.440510932036231,0.163056564917281,0.866173781991721,0.0557648488085873,0.0759411219159063,-0.0290392335008461,-0.96958997590811,0.192398303233267,-0.123513032448321,0.25275542985338,0.0634929483495105,-0.137548081755934,-0.933996182401259,-0.0648356404424003,-0.0346262611592621,-1.24268885848211,-0.246998046464949,0.141688495822167,-0.938780640664906,0.0634897034225598,-0.0459035726768511,1.05216215415508,0.17299166801308,-0.0554919481480945
46.05,-0.450104952544181,0.162487933760666,0.864775081991334,0.0644274869272463,0.0708219158553201,-0.0372503821404655,-0.965905225485678,0.185759156316397,-0.115549859372438,0.23370983225889,0.0728949545364568,-0.141694625923865,-0.901376419905992,-0.104172043993265,-0.0149734547158559,-1.24482418665786,-0.293770761452028,0.123471006025254,-0.931982906144939,0.0651673731126312,-0.0556986651795851,1.05583620071411,0.170842495491953,-0.0564104653894901
46.055,-0.456188154407145,0.152155473114255,0.862670095679883,0.0686801321221224,0.0680138513987394,-0.044863843136686,-0.955480790266513,0.16026653935954,-0.131722751341783,0.236142067991859,0.0754159491875108,-0.136782635746894,-0.891940947315103,-0.131454267576402,0.014244324926899,-1.2174040281693,-0.304669091688136,0.0907209259086713,-0.933482213342512,0.0615329353585213,-0.0549736461491168,1.05950447565388,0.165955485547855,-0.0545763614758104
46.06,-0.449490567223827,0.149514210280656,0.864877335195918,0.0798067946201827,0.0615900110238527,-0.0469716044558339,-0.957141807005897,0.130323388644971,-0.15139035811855,0.257860335298566,0.0769709956995785,-0.127196548499404,-0.905520213643307,-0.153489335336128,0.0539346418936297,-1.14338669816122,-0.291688732095231,0.0578755048607201,-0.940346172436452,0.0589372907522793,-0.0546445924200404,1.06194017426065,0.171430503244858,-0.0478813520606514
46.065,-0.437708307823945,0.154245258616147,0.864085056460532,0.088585153222084,0.0663436864240547,-0.0410905102442648,-0.965598755875853,0.117619283603705,-0.13222286178225,0.309179921126012,0.0890868029154217,-0.127436190843582,-0.921422116888216,-0.174146339929842,0.130009446860184,-1.09068205736026,-0.275336509677495,0.053128687828624,-0.946896404884018,0.0638826421455833,-0.0499331864918241,1.03383019356725,0.188573190653343,-0.0509147870183023
46.07,-0.430623257911504,0.156410093334761,0.863926738907084,0.0857240352057072,0.070233278390007,-0.0387093834578991,-0.984392145505319,0.138542772289161,-0.114410902730056,0.349853779091351,0.102250516661887,-0.123335386751937,-0.943308922087249,-0.189060200319456,0.189448927275519,-1.06486229901721,-0.2692976534698,0.0627084892842463,-0.962781687767451,0.0603401538401839,-0.0478171178666582,1.01312666248247,0.201374402263052,-0.0539571369845329
46.075,-0.442923796552749,0.165335908514525,0.865464752272427,0.0695551789703604,0.0692829052953799,-0.0430357692989325,-0.982788948243658,0.1525485756705,-0.120259100410257,0.362839609384537,0.105326233059286,-0.110264170389033,-0.954876673925393,-0.203176147375468,0.249597694173927,-1.08498186169757,-0.262740985741547,0.0723723990501973,-0.971267611410244,0.0574914029594913,-0.0479933974895247,0.998873385987917,0.196026216849176,-0.0605855046039017
46.08,-0.461082041768435,0.158663297427456,0.864268651783413,0.0504437643431293,0.0721653631259966,-0.0510159443871855,-0.972117425107479,0.171143127409568,-0.151269958891403,0.350461670793938,0.0888491712792573,-0.106667369604111,-0.961015496511379,-0.200567201583073,0.288716891075177,-1.12835457189155,-0.2533306791512,0.0751993797399281,-0.976349421201634,0.0564289162603957,-0.0373582312924025,0.987405608325763,0.173879101367732,-0.0771887389821245
46.085,-0.461512482466871,0.132049604940604,0.869167447284494,0.0385642354281672,0.0663090607602195,-0.0533599214242764,-0.971440833794625,0.162612139145098,-0.168350601624815,0.314196232085655,0.0969969549713634,-0.107011437630193,-0.967229566744398,-0.177397313139262,0.300036979275091,-1.11943335815907,-0.235546719151575,0.0628344510475124,-0.977710401068147,0.0594860045280426,-0.0385530647694336,0.978472953812388,0.158533521500547,-0.0845362561617453
46.09,-0.448472739860905,0.134100254222254,0.865698874538895,0.0372739806771278,0.0677709681793009,-0.0393245263726212,-0.983806399117888,0.149596881503134,-0.163187063039619,0.263537866803508,0.105778331220611,-0.113163775062371,-0.975698370872855,-0.145436894736587,0.309602756549962,-1.10721509256864,-0.206251226636743,0.0279850691165364,-0.970360787797038,0.0609533697304928,-0.0367086197495968,0.965489556922545,0.121002067057363,-0.103939149948144
46.095,-0.429072662617506,0.142869128214015,0.868655762882698,0.0385338212931205,0.0694380425507001,-0.0367433274855586,-0.991972386878228,0.138436571412312,-0.138634957667161,0.229818142056655,0.114135775809104,-0.117161829461549,-0.984246591659831,-0.126211846749947,0.312414070769228,-1.0522206774477,-0.167922704436203,-0.00893484254164117,-0.970999939597376,0.0639435236872964,-0.0422633693716363,0.956289333716355,0.0945334479615739,-0.119601353874209
46.1,-0.42644893198516,0.166524011774764,0.880627216714487,0.0303848307789588,0.0782467313187569,-0.026068133011974,-0.999055789847367,0.141245908348514,-0.133167117133722,0.203561878061417,0.117312665099999,-0.116639524068862,-1.01040555504216,-0.124939859182101,0.309909753290261,-0.973364702792052,-0.121345188780988,-0.0533485084194357,-0.974626933007985,0.0736153441478432,-0.0495997756341031,0.94955018279502,0.0505211152334159,-0.141923720897187
46.105,-0.435946202830667,0.19790283801973,0.873769480072883,0.0248060100473175,0.0724842759955544,-0.0253424622233007,-0.98804409550602,0.161235531130816,-0.117999375015192,0.194050367351578,0.117330089153147,-0.124425128723343,-1.01459192376629,-0.138839890778458,0.306113462238634,-0.902880872352993,-0.0915120814528302,-0.0766975234397846,-0.981793896434964,0.0817328684008806,-0.0615139479936226,0.937032261013515,0.0100109222310551,-0.156566145725348
