Header,foot_Accel_X,foot_Accel_Y,foot_Accel_Z,foot_Gyro_X,foot_Gyro_Y,foot_Gyro_Z,shank_Accel_X,shank_Accel_Y,shank_Accel_Z,shank_Gyro_X,shank_Gyro_Y,shank_Gyro_Z,thigh_Accel_X,thigh_Accel_Y,thigh_Accel_Z,thigh_Gyro_X,thigh_Gyro_Y,thigh_Gyro_Z,trunk_Accel_X,trunk_Accel_Y,trunk_Accel_Z,trunk_Gyro_X,trunk_Gyro_Y,trunk_Gyro_Z
72.045,-0.353703691284459,0.0771529471802224,1.08789836238404,-0.120436574368119,2.12300371840349,0.118749708632187,-1.25944858625449,-0.0806650617331743,-0.374957368615926,0.379663630152046,2.34323167835028,-1.00913491708195,-1.30508845420976,0.115220202189413,0.107815453313232,0.513749785676527,0.737194771543606,0.827653946115481,-1.13213055683737,-0.183423186556861,0.246043249739564,0.0224971838054949,-0.116311992682993,-0.725250895709343
72.05,-0.348399796329081,0.0878300681586955,1.11347561468056,-0.153117364578822,2.36600037227928,0.0850647332671355,-1.37203747078781,-0.0586829444432494,-0.355949606821112,0.449156974408242,2.4889278060761,-1.09870795477342,-1.37868865103615,0.139461862652104,0.0949427648176069,0.615712546300445,0.722472517841687,0.937155181939466,-1.19921126716297,-0.174431292581572,0.214632653354763,0.0362362730541764,-0.25160120755864,-0.700692773665081
72.055,-0.330209042793262,0.0883318595777243,1.12319418982992,-0.178381581374626,2.63225111716728,-0.0159862018097382,-1.56394142898409,-0.0573763669834045,-0.36164606603251,0.462036888309468,2.52662586601802,-1.11862863572016,-1.46056762304931,0.160089937517788,0.0878519819739424,0.670453429320542,0.676534444060049,0.954439341602145,-1.3231870376694,-0.157049224016106,0.161698946651763,0.0540819628250255,-0.316418152736358,-0.675913892212123
72.06,-0.297016807446344,0.111394368414685,1.1290151859162,-0.155221357632242,2.88066438644359,-0.14915120268385,-1.70164891885491,-0.104969865998983,-0.351551521711929,0.464839948819776,2.53640824267203,-1.11396316656577,-1.53548377886957,0.172681437728471,0.0556851804221912,0.714051737446145,0.659333488136768,1.01141520133836,-1.40479793283076,-0.130930287455531,0.123252478608057,0.070164249280623,-0.330479331018333,-0.658470392113993
72.065,-0.325666537006394,0.0724176612435423,1.1416546119495,-0.183994106789695,3.29392865601656,-0.298780992756115,-1.85006261955314,-0.200748746679011,-0.33283118449572,0.517724003681855,2.60741403907213,-1.13313381039777,-1.58990432696932,0.204224195364297,0.0117756161172156,0.762213854198538,0.674160326701055,1.05787394850324,-1.4910480660849,-0.108214636969833,0.0767975004564813,0.0774396586142112,-0.294445879656659,-0.64258816898166
72.07,-0.353003476436403,0.0782082848944447,1.17320837446012,-0.269166740617216,3.65765863278395,-0.415163659383752,-1.95931953207843,-0.289431174460569,-0.320852322662821,0.586692055052689,2.70573096522996,-1.15360899471733,-1.61034034147412,0.253978224499944,0.00552263907744341,0.85969405711964,0.734399315161673,1.1634510684871,-1.54450754516322,-0.0375147292606286,0.00256711406535813,0.062249496931439,-0.257542362732536,-0.614146558736561
72.075,-0.402374029591584,0.0793822113497509,1.24420862110629,-0.374620752491256,4.10796412494812,-0.474189162196012,-2.01810934296769,-0.363743114732095,-0.268637799133872,0.798429630973172,2.84630129681777,-1.12543630666027,-1.61210045064888,0.294331779011937,0.0297095804697953,1.03749652805122,0.817709204533584,1.34286841522961,-1.59448019490593,0.0372693252920531,-0.0641338976505686,0.0417817815697697,-0.282002852247454,-0.492856487181887
72.08,-0.440899945521946,0.11662125175373,1.24744695014589,-0.56331310074225,4.58864111497015,-0.421761510462167,-2.02277555289603,-0.349047428392404,-0.204436242531622,1.01747718080416,2.9890314243688,-1.19312719127569,-1.61768490246483,0.312532870554094,0.113653830267688,1.37678091208578,0.940653930979987,1.60662938055298,-1.58509626319831,0.116478990575106,-0.140403182127043,0.0556777685884608,-0.374410234612199,-0.286498224919574
72.085,-0.426469984871132,0.18328131211561,1.1908585047177,-0.724601267985443,5.09717609257783,-0.288166470279447,-2.04106260940725,-0.272045753891375,-0.162672950155826,1.17606291885041,3.12449630915376,-1.31468329144684,-1.62118245644586,0.316883585926449,0.202253798895976,1.60357134541903,1.05435650283397,1.90500678422851,-1.52216559081269,0.130402908161854,-0.22581056387725,0.141967258543467,-0.500760237661483,-0.13345772397026
72.09,-0.405589165831063,0.243734491925322,1.20046570453302,-0.859644741643951,5.60128581505424,-0.15449046351787,-2.08538479301773,-0.187411970622946,-0.194252234154973,1.16395021670914,3.20149880194284,-1.46625566673978,-1.62780758452321,0.314233662994675,0.286591362443593,1.97250510863571,1.05827159051681,2.1838467818187,-1.47926973575854,0.106976927250456,-0.285425271509183,0.221414508375225,-0.586041421845743,-0.108136978324147
72.095,-0.456596252944988,0.280655329493244,1.16308499028878,-1.04621672635166,5.98591087821794,-0.15071390006934,-2.11266190599968,-0.0785237062265444,-0.286550498079825,1.08368348120713,3.1701043830803,-1.61011292043992,-1.62388807385921,0.285177064597896,0.351955732844717,1.99252800112161,0.96672030468757,2.48105529133895,-1.43779850281828,-0.0148855539797369,-0.336010359878287,0.269938937459309,-0.536430660508274,-0.0157479813491809
72.1,-0.548231925587007,0.283178429146098,1.10309539412355,-1.28897574934381,6.4623419115218,-0.24235843255454,-2.03675044445494,0.051966643054155,-0.276039151467131,1.03095241182172,3.12678559925387,-1.7529864138743,-1.58983488396238,0.154313185771168,0.358211994074201,1.75867790767156,0.867234390463277,2.59911633655001,-1.41046100093813,-0.0767514435360936,-0.362332561614705,0.275729566628426,-0.432905017625876,0.0273797616189847
72.105,-0.68688436671352,0.364089864635643,1.11034232419272,-1.54146730155074,6.93241140267723,-0.295222864503331,-2.03900834419655,0.166919040084768,-0.104924188142071,0.953771181270198,3.11320412118892,-1.85686847568833,-1.56108541130669,-0.0413039682032395,0.280254040959751,1.55269869452434,0.76358123336525,2.61202298707933,-1.39177456326509,-0.151704977827334,-0.369064852587874,0.28920000444793,-0.307292942099413,0.0441008126284167
72.11,-0.737834573610228,0.539878393318565,1.12835458799253,-1.85649170713143,7.38043607279301,-0.294047260474896,-1.97611337383247,0.238036809054513,0.137424255937668,0.704936997195825,3.11581614456566,-1.84836491138177,-1.53067454073512,-0.179532069814585,0.155230128815228,1.58831216394876,0.678980690604465,2.61592586787699,-1.33197695626473,-0.19966355696302,-0.359820884934719,0.31144671189369,-0.257102250214512,0.0746085292083866
72.115,-0.581991966373895,0.718246849762881,1.19387361233122,-2.09309368743464,7.74018891022115,-0.291470946857699,-1.86350023665531,0.224413478353684,0.127558997643834,0.387134960763662,3.03989904256816,-1.73742412765684,-1.50882724997782,-0.311915008430083,0.0106087385204262,1.62809003067665,0.572556472862085,2.58354567565355,-1.26010153871791,-0.242046319743442,-0.340389586268203,0.304762775933811,-0.271238017491415,0.100321948202771
72.12,-0.443824616751476,0.815900998179409,1.26769765328622,-2.64580094277145,8.05085423004044,-0.401267189859098,-1.69573445256405,0.265763573177594,0.0492746330212251,0.207700731743155,2.92147325736494,-1.64939180945226,-1.46208564620435,-0.448753796779529,-0.12440963216675,1.51203069054702,0.464917357633382,2.51157715663877,-1.20531295151239,-0.274295213899586,-0.321305976249018,0.26122072474053,-0.331822117107401,0.129010331112691
72.125,-0.400371825441643,0.70672108585084,1.18683001201613,-3.34842231778208,8.14611789911836,-0.643489124291919,-1.56225191696372,0.359097414371033,0.00473854601073012,0.268436978404374,2.87550964756303,-1.65893375021141,-1.4076469703089,-0.578705971708982,-0.270874000157029,1.18786373882387,0.386068374492938,2.52257625584781,-1.15337523808308,-0.30257128620769,-0.282592079732628,0.208314340384465,-0.424800538604151,0.216591890651357
72.13,-0.542242033011015,0.325398774443388,0.871524782204697,-4.30997027983264,8.1723013604756,-1.224046059684,-1.42753354514982,0.384265848645819,-0.264858995448762,0.241912897414211,2.86010915888955,-1.68978867768304,-1.38615654136375,-0.614921455633861,-0.389258648652136,0.840510499686515,0.305360374420028,2.55461506787565,-1.08841771607736,-0.321328029029142,-0.257315273586505,0.14798623039283,-0.508511716331081,0.289298736742913
72.135,-0.855769027952107,0.0790866876189163,0.910468279907671,-4.7523889808012,8.25503677472004,-1.72744153063353,-1.2921429836868,0.460670917805213,-0.306095552862671,0.273937075587891,2.82677278226032,-1.75089103918007,-1.33240490731277,-0.580101084301082,-0.431339518260951,0.742374100243988,0.23365062694408,2.6263617511381,-1.03250651569996,-0.344296840433074,-0.222527287172258,0.0802772644383483,-0.580984397463656,0.338136039044786
72.14,-1.04272180546854,0.0931044409343409,1.26448560877619,-5.14311111645436,8.29293758522493,-1.86263825589276,-1.12470555986844,0.60216899641487,-0.229802590829168,0.138859748631454,2.86019412778589,-1.81502339071284,-1.25524533468709,-0.477019007272948,-0.446619391139343,0.731913926124036,0.0904568166557289,2.70225416658515,-0.979771878155586,-0.34987769747124,-0.199210052676509,0.0379024586761225,-0.589716655110041,0.333830932666297
72.145,-1.13004060031989,0.216415650040105,1.83187635972544,-5.16077559518683,7.90472377940889,-1.78963481680809,-1.00210789507213,0.663392161973827,-0.377571259217033,-0.141781901822649,2.8935400321196,-1.83488488331085,-1.19641126705611,-0.405899762917476,-0.408210500038293,0.708232192140471,-0.105902027984515,2.65659868553295,-0.929014274461747,-0.350930900322486,-0.176168426689638,-0.00256789677565918,-0.554795915756391,0.292547993413327
72.15,-1.29653264259232,0.348743925723793,2.4509328069732,-5.19736895309733,7.08756286705562,-1.9302669217194,-0.940915785708948,0.727078012235843,-0.542788306437595,-0.52841988346567,2.80783112331314,-1.8617143520901,-1.15378166455301,-0.380343085716282,-0.347924293724369,0.555427205858528,-0.30822073018385,2.58329837787621,-0.901070965119545,-0.329825797761005,-0.157191384273217,-0.0300594680638132,-0.467302266144768,0.2386010829798
72.155,-1.41619318364492,0.345831197178071,2.89441896345678,-5.34364113581916,5.76284373090153,-2.25741028022378,-0.840812651630003,0.847838914402941,-0.709042814465924,-1.09737870087406,2.62114718339555,-1.83512056308824,-1.13716648515297,-0.401571141184848,-0.268118291948868,0.199267875503982,-0.500343038969538,2.4310406837756,-0.875352637736106,-0.302308734210868,-0.132082798069356,-0.0263946003657403,-0.387506817836496,0.15007697189571
72.16,-1.49812893621217,0.0396353214000558,2.67325399367331,-6.47592273352713,3.93443112228182,-2.45289589387295,-0.746835204879115,0.821685379776564,-0.895932949279561,-1.97603450152512,2.3061434644993,-1.73163420340487,-1.13446633475801,-0.439103478534817,-0.216648994012599,-0.182080736014169,-0.631375742979157,2.24890245951646,-0.86493906524736,-0.282354489736506,-0.11016463940853,-0.018503721120307,-0.281028897987092,0.0799567968466916
72.165,-1.35831659701948,-0.589535040163917,3.13974313559399,-5.43733270420019,2.728520050628,-2.54427531697516,-0.777986569879701,0.593398344270293,-0.887575040154629,-2.95978579457183,1.91129182007504,-1.57365381782708,-1.14405174073534,-0.546287545007911,-0.177166154776127,-0.69377192362404,-0.76046765312666,1.91413957631017,-0.872158925597877,-0.248455336444668,-0.0732874167317507,0.0131315253652777,-0.206518323360462,0.0304566186828059
72.17,-0.863224411865171,-0.673842783249796,3.07956382772752,-4.25056901534538,1.04836928163353,-1.87440860401352,-0.734511970588491,0.252911305666114,-0.857376019095381,-4.13751824668712,1.32423737765887,-1.3293452155463,-1.17296076705829,-0.636041328058215,-0.150051885595262,-0.986922859430674,-0.843448558433435,1.62324796054861,-0.877925091190884,-0.216268482917954,-0.0511846783151535,0.0408764864316102,-0.201275184586665,0.02213447783742
72.175,-0.471485042444773,0.204811354582633,2.28898795952205,-3.63913053623709,0.300616412650731,-0.713279641677714,-0.713685364652591,-0.108448793568502,-0.79248505033894,-4.61927979056297,0.866805620051278,-1.24106764847891,-1.22968901565596,-0.714386968097993,-0.064495711170232,-1.09440447510604,-0.928841121650499,1.31282391917569,-0.886642622338879,-0.181495508286483,-0.0261689232544594,0.0796847788408701,-0.231314687605129,0.0111958164232799
72.18,0.030440375012573,0.58898998685388,1.92947880060678,-2.28411791066964,-0.00535412875545959,0.183964989273305,-0.765454622478464,-0.399271698499666,-0.50607007961321,-4.81022289546744,0.389966791596055,-1.28480029556518,-1.28972502247896,-0.782043395308015,0.0258945005539424,-1.06738735293289,-1.00618029196718,1.09585531032093,-0.886593818230097,-0.139423306405292,1.96298697229058e-05,0.111064382364213,-0.304554802215682,0.0014730921616091
72.185,0.333345921959009,0.628070261250144,1.99388752340128,-1.91433524960159,-0.350117000100683,0.301789035480064,-0.833466753007662,-0.529067732262411,-0.241382929186617,-4.73831609404769,0.117248649114796,-1.41133464850302,-1.29542148038316,-0.818684979035373,0.116453580719575,-0.921252786527234,-1.08703499658388,0.984047903384637,-0.882661750883178,-0.10369211412748,0.00482085781613719,0.131264682681848,-0.389783300929974,0.00274276322436402
72.19,0.317082243977932,0.528282019167405,1.66394117543857,-2.53072137243671,-0.95723204509984,0.174620404630186,-0.859548452094014,-0.488394565298582,-0.0768237939731599,-4.39351838287472,0.0493804533636189,-1.5229374577313,-1.27200314805166,-0.838520538110517,0.210135221768678,-0.628711842888909,-1.13309074635772,0.938620868218083,-0.880040673768315,-0.0687305815226369,-0.00414290281312108,0.126529771661962,-0.440141639433627,0.00126680609613064
72.195,0.216114578874239,0.489551966822084,1.00218544951741,-2.81349565550493,-1.26419648053287,0.161176662351491,-0.90913630460351,-0.452315077003551,-0.066368157199927,-3.74488643942386,0.0306137264322476,-1.49704624034532,-1.23484669157379,-0.837403639119344,0.278681682903531,-0.331488422478278,-1.10750473297422,0.910012142709353,-0.881629796587024,-0.049914562695616,-0.0156468300623964,0.1105864389287,-0.456173771341942,-0.00295294985256128
72.2,0.0606827500527339,0.655406572340762,0.699073837700108,-2.4487778963658,-1.25069565464609,0.309699297632324,-0.870094396256654,-0.344646900984315,-0.111054136037386,-2.92017512207476,-0.038199172043551,-1.34549326959693,-1.18993878296415,-0.810061759809365,0.313854175088946,0.0667423074590412,-0.978563956695093,0.820569643202103,-0.885515288993249,-0.0390460890746059,-0.0285741610476498,0.0828535974712566,-0.443655001971724,-0.0100287911905362
72.205,-0.0501546272419839,0.67215200638366,1.00870757022931,-1.86168558601422,-1.23916367722575,0.48866133463903,-0.75343439064956,-0.235245747656933,-0.145858882164413,-2.0296136350148,-0.0976500566586092,-1.14471779063933,-1.15151448741884,-0.739019528645322,0.312570583502136,0.435698579729192,-0.792429711888919,0.7513803387093,-0.88987332554302,-0.031248068728435,-0.039563400788088,0.035494664355442,-0.404498695078367,-0.0186316570992313
72.21,-0.0781727548811845,0.454742497769878,1.30877627154262,-1.66824602585616,-1.53678930668849,0.567358495563577,-0.629713889603391,-0.144990617080092,-0.16162392725878,-1.15520428214547,-0.177218825524947,-1.03098106318398,-1.10422598047138,-0.644859570634512,0.262996816646267,0.753745250033834,-0.629403419628151,0.645316890601765,-0.894003469298637,-0.0315919165989565,-0.0573445289623387,-0.0344154119158144,-0.356079968215665,-0.0279158777971697
72.215,-0.0089252023783099,0.20302663716622,1.16460846372809,-1.60113705718058,-2.06946915823101,0.594648457764945,-0.501215750744885,0.00752112336575237,-0.147015576300379,-0.322088607448156,-0.294573817344857,-1.02736880820735,-1.00928359947946,-0.625887666173582,0.193029156043518,0.927572031984105,-0.59919173038872,0.589040479466116,-0.889818640635526,-0.0365061276181145,-0.0660739303562406,-0.101547043747964,-0.297659248559119,-0.0366907721986424
72.22,0.122347763138848,0.120940627172371,0.857202732302015,-1.27225218177648,-2.30109434743769,0.641471184277425,-0.402826597861853,-0.0774211253176895,-0.0858392035621544,0.523157480053931,-0.39759549315011,-1.10229364256871,-0.901106726456286,-0.564462754509192,0.129987038440202,1.27678913673899,-0.724964933796286,0.646203771425656,-0.889658604709086,-0.0511344268930579,-0.0737931548901273,-0.181084543500067,-0.238627298477934,-0.040055927350008
72.225,0.252233212754636,0.165111810238304,0.683083380743204,-0.651731475527888,-2.24436781000157,0.786182166609768,-0.383696335462933,-0.019253673024532,-0.130229914419353,0.872198786615881,-0.489605007687043,-1.20785271559861,-0.909806134636167,-0.607299396287392,0.0687694047293022,1.63632779439308,-0.8632359739183,0.669145087412068,-0.8973554194913,-0.0803040985796196,-0.0708913934572748,-0.296506088471255,-0.16748434216032,-0.0467737296754253
72.23,0.271309860910858,0.214582175518577,0.640010903677312,-0.277745734555662,-2.15672446823121,0.857689709186566,-0.433238854005254,0.00310861676320818,-0.0843801714268681,0.986754902209894,-0.697763167691769,-1.14891200294291,-0.927130519318513,-0.634337459578683,0.0690191160403854,2.04833923687485,-0.942425774355571,0.717975026065158,-0.901537343214179,-0.100740630558263,-0.0706191926861771,-0.390792291398202,-0.111898005896086,-0.0466508220089336
72.235,0.220873870947719,0.248266774052068,0.634344569322623,0.0205642934716235,-2.17410586112627,0.868162047615074,-0.475589191562155,0.113801395218267,-0.0637858511359541,1.14271024698378,-0.875224702091342,-1.11603533142586,-0.893789652852703,-0.634095292680002,0.0779193383717973,2.26030588266458,-0.932393573226527,0.8267926873232,-0.925728513038269,-0.139608369898514,-0.0555491984288352,-0.508894852863202,-0.0475092192138336,-0.0584546585638321
72.24,0.153619309392026,0.249694762256381,0.663850017213981,0.229697538238499,-2.26453876484611,0.837911555522646,-0.473827635578245,0.190028535397503,-0.0688777242070672,1.12297546249384,-1.06581054094885,-1.02674861432911,-0.831014571890912,-0.538724089491432,0.0782897908951022,2.43018741243567,-0.945908277844458,0.829750910195713,-0.946366543795111,-0.171730829731672,-0.0456552193204822,-0.606408940668237,0.00689935976081789,-0.0697063230327883
72.245,0.101310327391564,0.243681326733406,0.693660322089608,0.302346939991631,-2.39182290225152,0.782036738727611,-0.439207917251419,0.211839751842085,-0.0764731582253543,0.982659865891702,-1.25396558780808,-0.886247626048468,-0.793575256766214,-0.520899329280428,0.0877762758767179,2.39073129721317,-0.966179125275513,0.752627294069003,-0.96275916463956,-0.201863500827222,-0.0326113848846941,-0.697596565157747,0.0455382520838649,-0.0735020411192924
72.25,0.04435699482857,0.232688512463167,0.733136518384982,0.350382842849829,-2.55719958464203,0.736163727906365,-0.421541348613034,0.262372064537722,-0.134003121850489,0.688030058093083,-1.46671001155323,-0.889971304114815,-0.758136873553362,-0.482613818993647,0.0810931502893772,2.67978068103869,-0.97523594993617,0.597612394259314,-0.978145681990263,-0.224167150922884,-0.0228910324348805,-0.767656788662072,0.0570341903782763,-0.081883540868944
72.255,-0.0154545022625477,0.239619540785076,0.777594104913063,0.413519905235046,-2.75298521119675,0.727042350558077,-0.381893242050134,0.291640352295176,-0.151660684009676,0.25864634174078,-1.74974334985305,-0.98952994541943,-0.817826323743692,-0.505558939105214,0.133371029252049,2.71526968101012,-0.904130228528109,0.382167105209098,-0.988804390586731,-0.252003242757668,-0.0160974163112639,-0.821197035441706,0.0527459491046969,-0.0896596666578927
72.26,-0.0468909600339899,0.250849318799122,0.839079266593431,0.434964451006127,-2.96528369497257,0.709080498809678,-0.367603327791654,0.356377840190555,-0.158285155876026,-0.149152232524973,-1.96608825236125,-0.996941449941529,-0.845235293362706,-0.562025325016055,0.133105668391796,2.42029723090972,-0.781463507570509,0.407491030425888,-0.993751227101796,-0.273031151518585,-0.00873271554399615,-0.86469290900946,0.0305408939712711,-0.0982252136812189
72.265,-0.0846266425636584,0.306814663664545,0.868146019846122,0.395137067485498,-3.21809044470224,0.706396133435136,-0.38394013449352,0.396491738438604,-0.161017172311372,-0.611211560371825,-2.21264178366454,-0.837220129909962,-0.835362707754824,-0.607206372213987,0.114628410694545,2.2139526248477,-0.683766532852288,0.547905140380242,-0.986653801263949,-0.289750952384739,0.000526751521006342,-0.880356732197346,-0.00354068596294376,-0.102757738213141
72.27,-0.108033837034343,0.348531532627012,0.844653937680306,0.362864785890675,-3.40786157427795,0.720823586700803,-0.434899343237964,0.359626295811592,-0.146639369469173,-0.821827580829438,-2.37445416260572,-0.682044173669278,-0.844378477604159,-0.639249078671117,0.0855865636581279,2.1390168987289,-0.603976115655147,0.76835058437802,-0.976276652782706,-0.302737640161034,-0.00486641477057182,-0.882964303676405,-0.042460622204596,-0.0991482666275397
72.275,-0.117124078353884,0.417570406239684,0.821430020197778,0.309304400654802,-3.63997193698699,0.776353791966445,-0.485106332532489,0.252301271536893,-0.146951244068295,-0.961541154812321,-2.53822348413041,-0.462441368312415,-0.852591688275362,-0.651249580838238,0.0727578427531451,2.03580629497132,-0.511353320420533,1.01451263221468,-0.96034002657427,-0.302297837035987,0.00395172662315624,-0.875005554884039,-0.0679307268206317,-0.0934376198247824
72.28,-0.106424141552144,0.453246812551407,0.801726343001419,0.246019256239402,-3.80395339386702,0.828296803231311,-0.536737156890544,0.302426387672116,-0.18822632439442,-1.47991737139314,-2.83023591154546,-0.521449488033064,-0.82283552127143,-0.655549175945417,0.0652866788919704,2.01145186522025,-0.445396602406224,1.16312619890839,-0.956521338464129,-0.301560241506734,0.00883777915853239,-0.852231322443747,-0.0842173149886206,-0.0847407697919797
72.285,-0.0882817951841648,0.480847281002038,0.762574398858778,0.170919920939994,-3.96709533862887,0.908299053375496,-0.577016491046063,0.246101575665946,-0.146757882164019,-1.66711749887625,-2.99766041060761,-0.555385174401584,-0.789996435832602,-0.653816914647604,0.0550003082154563,2.04692637111993,-0.37300512433663,1.27133125630258,-0.947342265822787,-0.300871028373953,0.0155768249393351,-0.818533002471981,-0.0938803892504225,-0.0742650194426026
72.29,-0.0701432731667559,0.509996416604162,0.725476773910059,0.151757835539643,-4.12380328802417,1.03334089140691,-0.624508363603074,0.177372351208463,-0.145044103325387,-1.69717524081081,-3.14514043461496,-0.629627115471614,-0.759021764956762,-0.639565880792805,0.0498586586776941,2.09954052144792,-0.287248972844426,1.33902721578386,-0.941974052351267,-0.297327709876951,0.0144560511224463,-0.786694008862044,-0.105022696876896,-0.0698491036891937
72.295,-0.0618497356716056,0.523134561919392,0.704744707602125,0.167295930175826,-4.18560737449793,1.14952324835589,-0.678469357598362,0.104855443559202,-0.207787294677252,-1.74544207708253,-3.38062183107001,-0.681362320614105,-0.726290962668384,-0.620064496686914,0.0485263572971433,2.16303753385124,-0.225132950435504,1.33996024360126,-0.928027189120573,-0.2874850766917,0.0165133664258252,-0.743209021131789,-0.118830905428273,-0.0614325721205078
72.3,-0.0861580165510272,0.534543894307693,0.740496887778773,0.204454987068363,-4.22973663124793,1.33921118857336,-0.645005487788155,0.102250531011116,-0.238669093917645,-1.65719084412208,-3.57262699341668,-0.664116744301856,-0.711560619320218,-0.607942368493625,0.046717667523059,2.26271545714613,-0.157130813442796,1.25797681541517,-0.915462323774032,-0.282431036265175,0.0201329949556198,-0.709975159028015,-0.137349201283023,-0.0528661153509383
72.305,-0.144911574798346,0.529777005493257,0.801246010360171,0.312621514589037,-4.25719651751213,1.51987286364224,-0.668152518338735,0.0877906059306267,-0.278837635732467,-1.57508296616604,-3.70557727141227,-0.664424597083504,-0.693428795658878,-0.601134526784925,0.0482887891852049,2.32385544789728,-0.0845997758772091,1.15656471803873,-0.900290726066335,-0.275390048986301,0.0261974552522834,-0.681228495663822,-0.167064662959063,-0.0316274147767659
72.31,-0.256922248786816,0.538805426218179,0.879518622655821,0.474754700254663,-4.31907719447957,1.77565626799641,-0.684107667093819,0.0848076409861498,-0.33662223360082,-1.4412593898918,-3.87074260682115,-0.671509501387585,-0.667287998416319,-0.596334775733476,0.0490658793679284,2.35761681289865,0.00231013595280072,1.03549253117634,-0.884425048222062,-0.269261850746051,0.0262047379730064,-0.660577525463627,-0.196135410601472,-0.00890121963308891
72.315,-0.353266866961352,0.571825435309177,0.957942474538338,0.510841478550074,-4.402844840541,1.9553777114887,-0.689558003935146,0.0842052136702855,-0.363043897316494,-1.39147593143197,-4.00716934711759,-0.680602416207609,-0.643326954449803,-0.59165768828991,0.0416378935698257,2.38130860153526,0.0683505995125826,0.932807747501248,-0.874505337961751,-0.259773430524535,0.0284309872560208,-0.649990177277716,-0.215535699481478,0.011086290307189
72.32,-0.471695948833609,0.623377733975745,0.978451193813546,0.504225361258473,-4.53015857393153,2.19161358919276,-0.707043580082314,0.0917900043016563,-0.391259591946522,-1.38417797532304,-4.10767889386762,-0.703456205133283,-0.621899234040122,-0.586123852437892,0.033258706615608,2.42242529986498,0.113058749618765,0.833461873710492,-0.865866476871563,-0.247887705267714,0.0355236763692113,-0.647901372275358,-0.238207252531548,0.0371042058209643
72.325,-0.571224383012204,0.656157936017588,0.979748745752131,0.468882778937944,-4.66804917666773,2.44583324106612,-0.719820179792313,0.111510222202922,-0.415951934465658,-1.4280063258384,-4.0465242213301,-0.735592589783819,-0.603894108205825,-0.581115593270744,0.0295272771600825,2.4886157357959,0.11266412288913,0.771724355955178,-0.844885193434907,-0.241063249418554,0.0450768585775058,-0.65890328527313,-0.241228739605862,0.0624131275448992
72.33,-0.619968937278388,0.673382225608016,0.958805653679331,0.386104178957419,-4.78560719759309,2.67407819722461,-0.737144213195632,0.150986613567401,-0.429145421730105,-1.53626848392442,-4.40082004774628,-0.753672141531801,-0.584116214563933,-0.575690455800093,0.0383901578994684,2.51295245311604,0.0898790245139343,0.716358739581289,-0.838556372618139,-0.231141738394518,0.0541732700363538,-0.676498469231864,-0.226898899008818,0.0864716004845224
72.335,-0.639918338530835,0.677491819867808,0.908068455034165,0.259549101212537,-4.8946635885734,2.88596870826719,-0.76609712267466,0.189197007067301,-0.440054062714475,-1.69540082923167,-4.56034157550684,-0.77312729182163,-0.558108527029908,-0.570037979005335,0.0607453229587366,2.55286083685267,0.0577653760742704,0.654935439174461,-0.829291540043619,-0.225204816508809,0.0537007871255095,-0.692976231056522,-0.18541509931021,0.108586909902089
72.34,-0.641363368770826,0.673348203904474,0.869986029256937,0.154252764737699,-4.96248350019864,3.0694327963791,-0.789302257750942,0.211824223342681,-0.466383327769176,-1.88666533558403,-4.70606244376091,-0.794279114137934,-0.529582399020381,-0.566882031250668,0.0899622134720353,2.58897010316139,0.0482853776124702,0.566496897342652,-0.818723689491965,-0.22197895824996,0.0462179850004373,-0.718165330801496,-0.122864213085813,0.136425590112113
72.345,-0.660154904292196,0.665365196844379,0.83612714816243,0.0592387049836582,-4.98878402016192,3.22456818833596,-0.810322701049907,0.22229523862894,-0.479846985898681,-2.07344843580382,-4.83905704001021,-0.802463137209236,-0.506372263731893,-0.570082994880938,0.107976463112079,2.59623249229796,0.0497973809539553,0.472101996323602,-0.817491122585343,-0.228016123714441,0.0387239107976566,-0.73416981291152,-0.0546122697177379,0.161759653498021
72.35,-0.702049317757986,0.669137646818387,0.833839679033498,-0.0122369771102581,-4.97494231552234,3.40087645548299,-0.837655037808747,0.242659764742572,-0.495990306282373,-2.28455612466422,-4.98624176203081,-0.804799117097463,-0.489110929216344,-0.567817674086139,0.114553563534937,2.61970877779519,0.0678003896543707,0.332114235234994,-0.808283413088289,-0.230937150894898,0.0347185410453256,-0.763483184263449,0.0274540297372633,0.196932909586524
72.355,-0.778252776111787,0.695653452955874,0.858451307508459,-0.0632977126193856,-4.93303939224144,3.58293495704829,-0.873318825055854,0.251256047282423,-0.533865328183845,-2.47298233194515,-5.0901505857481,-0.808272495150827,-0.476273864042525,-0.574602230446629,0.124141783800881,2.63695508896249,0.0865998325399944,0.15703887071427,-0.799570048108389,-0.23803526696379,0.0273300245357393,-0.785801014879054,0.0884961291264764,0.223128051175089
72.36,-0.845603209330899,0.737973790673587,0.908970654721988,-0.118219297046765,-4.87811767953751,3.80852282856324,-0.919802949594816,0.24847351497737,-0.583587271821535,-2.7097158333032,-5.21150468675413,-0.823005314877797,-0.468280341663961,-0.580085860738574,0.130307337709599,2.64269757270813,0.107220580036129,-0.00392488877814727,-0.792440200616228,-0.243814119683176,0.0161541438817573,-0.816368671887001,0.149822927734296,0.253912934018754
72.365,-0.960440646327204,0.766008048292503,0.954964248658073,-0.18625072376491,-4.84386734493561,4.03350666122873,-0.961296116197436,0.239460114622538,-0.619738937230199,-2.92392862045293,-5.30800047020545,-0.8499430697666,-0.461451713882369,-0.593213385505544,0.129355848093271,2.64583487135719,0.136018050504095,-0.166463367733043,-0.795982991904601,-0.254678207696289,0.00817515749206839,-0.842297613609776,0.194079715757373,0.284484010302251
72.37,-1.05871730139155,0.79607425910884,0.953585663536827,-0.295986232610093,-4.81258782225379,4.27932561327186,-1.01498100148946,0.233691282155181,-0.65630043691294,-3.16257187791796,-5.39398678686001,-0.913923593647178,-0.453875104223425,-0.614267628861101,0.129900795437384,2.65700160888503,0.166833518909826,-0.31156086770376,-0.800849430849092,-0.263216159335725,0.00696552251359486,-0.868306486278874,0.226213639935653,0.307572298315344
72.375,-1.10098586373034,0.824219261476072,0.892705257197301,-0.392569915645502,-4.74942198091624,4.51217300158706,-1.088560793476,0.223905544957846,-0.706983629900608,-3.36457299647532,-5.45680111182681,-0.97966891106113,-0.437734278538743,-0.644869079003585,0.121501014942212,2.6683432877888,0.217762026719285,-0.449903951194733,-0.812890503245462,-0.271000581590539,-0.000904174025421865,-0.899494657726066,0.256400545702727,0.331617206493506
72.38,-1.1314368032183,0.836845257213629,0.820644812482569,-0.479357779127113,-4.61165514247635,4.7645229133913,-1.15770353033105,0.217680609595321,-0.733259200502808,-3.58204851060743,-5.51104435327312,-1.04691494215571,-0.425135042557125,-0.677802526792036,0.113363340873046,2.7249913760369,0.281215328931219,-0.581126306400022,-0.814727374993962,-0.293915390907856,0.00841093463612138,-0.913842013169617,0.278794555592125,0.343826281712048
72.385,-1.18807443865362,0.876909136848471,0.781285912793969,-0.518291573574771,-4.4078897491482,5.02668307463385,-1.21209051350346,0.212728807334242,-0.778812844716369,-3.73173443227453,-5.548003995379,-1.10995008937459,-0.415080918912053,-0.722065354493041,0.0925920067959338,2.79439095214063,0.367991055956651,-0.730302431099371,-0.819212966690949,-0.302186323246997,0.0160679071421531,-0.918141762192215,0.288740485906601,0.347970426082611
72.39,-1.26435206014774,0.852811990422123,0.798302958433654,-0.535528591992204,-4.16455757758387,5.29140323149064,-1.26986271298727,0.203637616435686,-0.832869963868465,-3.85720730318674,-5.58273364250916,-1.16778251014969,-0.411274878548789,-0.765088082910154,0.0609632415850901,2.86239589454252,0.446299622880258,-0.862877426749176,-0.828919903281184,-0.307142932089348,0.0252561626714389,-0.914090236162449,0.2991077886607,0.346933675574962
72.395,-1.40432308126306,0.802367471395577,0.868583892358363,-0.542788592371947,-3.89143700921785,5.55543649804852,-1.31736522236222,0.202558833391756,-0.920076350546689,-3.94725949074166,-5.59529350033953,-1.24118011582804,-0.41422004439671,-0.816997668848298,0.0148753260711685,2.96325239817205,0.546033000139299,-1.0540252799031,-0.838683569365857,-0.314350397339927,0.0260769459282582,-0.900207412108714,0.299069517917963,0.338585334100786
72.4,-1.60157667478423,0.794635112107786,0.957471914233301,-0.510930706925242,-3.61813606189725,5.80637632615989,-1.34995630784974,0.213385749583692,-1.02194363907815,-3.98338941801608,-5.57758939848003,-1.30137002820341,-0.41372351889143,-0.868626925016397,-0.0386539047850142,3.07721284879169,0.64850337145701,-1.25059038552362,-0.849408892125259,-0.316312335139822,0.0313851279464841,-0.88737443515705,0.298867293434881,0.319729260274141
72.405,-1.78690355011525,0.80162647685162,1.02652052811727,-0.510476534421928,-3.43656470146515,5.97656833687453,-1.37763687352097,0.231749419446569,-1.12582025818752,-4.00414195118631,-5.55694657409607,-1.32886919104954,-0.428500077913202,-0.917506682094179,-0.0958740842766809,3.24398263629621,0.779882903288242,-1.448234294252,-0.859484663389473,-0.317615888760226,0.0362783401484879,-0.875930890472625,0.298216071864189,0.287332361784711
72.41,-1.94748651167261,0.776513169220508,1.00411542204654,-0.661022742765298,-3.29441116974851,6.06667621652815,-1.40872375665051,0.24771185847342,-1.20580382661992,-4.01813600194893,-5.51901008617218,-1.34405151685029,-0.470175364137183,-0.952131880402502,-0.185141253455448,3.34802060619098,0.92018366084341,-1.68768536515714,-0.875066207020128,-0.320797926229393,0.0506668784168068,-0.870961235855632,0.29271427657515,0.256418312817632
72.415,-2.01253986392503,0.739011130703707,0.90789191944027,-0.813464951681462,-3.19838239999675,6.06345975071099,-1.42013042696209,0.28072350179123,-1.22258663765912,-4.05644737857528,-5.44678307089766,-1.36359691313414,-0.486249364017092,-0.948509588159026,-0.282274918026881,3.55051901315678,0.97423912503715,-1.87202150207758,-0.886298658411344,-0.325756923361552,0.0543643027107,-0.876956830458856,0.280489231155721,0.23187890572651
72.42,-2.06063337074911,0.69006477018001,0.741626759783702,-0.980637405819478,-3.01541016380157,6.03989071349946,-1.50891297108772,0.322695583746763,-1.23418377932354,-4.1502432304894,-5.35266950243525,-1.36032977262576,-0.547094031072708,-0.987218042057292,-0.343166489290786,3.61153906480664,1.05500546788499,-2.1535102268922,-0.897535028433095,-0.322118721894062,0.0609377639356273,-0.882635218772922,0.259332088853081,0.206240378657442
72.425,-2.10554027888331,0.70138769395097,0.582876412828617,-1.0591172859148,-2.76708054119014,6.00196696335295,-1.52125507053788,0.355931653227918,-1.25147232195168,-4.27953504688744,-5.22934667730037,-1.33861487337786,-0.565359224765506,-1.01802402976958,-0.385002838209834,3.58168131522865,1.08590606851254,-2.28728765243257,-0.919728918595542,-0.312871402587201,0.072758374319746,-0.892922911182873,0.23018512423016,0.18410695703844
72.43,-2.15602318712618,0.769163214097131,0.421266531606583,-1.15342200645153,-2.41200577581765,5.92089564598037,-1.51720127112851,0.382194170435362,-1.28499344301865,-4.39579354495873,-5.07213175059937,-1.28573496323177,-0.606199626454546,-1.01185437558791,-0.44194298845254,3.49999095934452,1.13874096186913,-2.32922821726962,-0.941502004968609,-0.304818995330145,0.0817077938914141,-0.908881056130838,0.198529581008911,0.166739735092931
72.435,-2.17094992548468,0.842312300072709,0.245211591775913,-1.36881996815029,-2.05044880427774,5.77084468447293,-1.48895504608358,0.410721364856784,-1.31068903001731,-4.50746982446386,-4.87946930598534,-1.20184259151782,-0.648430928843061,-0.965092250845816,-0.494329935806721,3.36482973732601,1.16950662921234,-2.29411395775066,-0.968344544119066,-0.299710284277967,0.0908523385908547,-0.921731965220936,0.163987250435266,0.152854535439806
72.44,-2.17669139887098,0.851289998454649,0.0859030574147284,-1.60547039892522,-1.7339006670561,5.61050266963759,-1.45048694123217,0.453976030642541,-1.30948864829905,-4.62110379064296,-4.68300385498054,-1.13720921144605,-0.685027889179506,-0.898034075480127,-0.535570213439942,3.18587871500819,1.16970093755762,-2.22836449444001,-0.999129416377332,-0.291306806773973,0.0991394765443109,-0.943052732394576,0.123337133125332,0.147873070976517
72.445,-2.21692552490642,0.79285453021086,-0.0702499490735483,-1.8677813753544,-1.28267936150794,5.41854061768973,-1.36458410029067,0.480352442519191,-1.30613028072453,-4.79690287088702,-4.39793167812462,-0.997795985577124,-0.765606296226883,-0.770256743811507,-0.547162537613389,2.89822450698189,1.17652112218294,-2.13781053471172,-1.03239888432623,-0.285440619533135,0.104726202881392,-0.968589310044716,0.0834414346037075,0.144320959354712
72.45,-2.25268316281324,0.757561927635572,-0.126211884873125,-2.02247685155137,-0.86874199072984,5.28833970836477,-1.27190599959187,0.46409414441101,-1.45835030703228,-5.06865744203163,-4.1717707747434,-0.872531984968175,-0.835401465711307,-0.640647221898514,-0.586355309853795,2.73501864872345,1.19521428966513,-2.06971133804376,-1.0627721054232,-0.27100125852205,0.0979700234077588,-0.998481249487327,0.0283685564613509,0.151128200458506
72.455,-2.27948820919016,0.690413525223486,-0.158177201101065,-2.21110036095452,-0.545126553063599,5.13826989192897,-1.15222389516827,0.433283928205348,-1.6415671944789,-5.15472874516894,-4.06471104284221,-0.727952052620776,-0.966208585401339,-0.491708096023681,-0.585185676431261,2.48940447950986,1.22079545359187,-1.93734160190272,-1.09726825481341,-0.250276189654731,0.0968266550834275,-1.04283907155702,-0.0410797489782567,0.183344758761789
72.46,-2.34923821680858,0.547722733061204,-0.249591982104193,-2.44960221699524,-0.188320830882358,4.78570042953209,-1.04077860656639,0.394639449406324,-1.6224180992046,-5.03389964407784,-3.9107511226203,-0.635713616091992,-1.09981787438676,-0.356674943292269,-0.587050340127667,2.21287990998098,1.27316498218807,-1.78702490412115,-1.11844223552946,-0.254633085818216,0.0941806212298313,-1.07824423841791,-0.100188005223208,0.209357772543652
72.465,-2.46289927502941,0.321992518570334,-0.246676884811556,-2.5306829599361,0.157952814233209,4.29010101822569,-0.919219453250221,0.255929102276603,-1.54420689623426,-4.85385044161773,-3.60826994806273,-0.442864122342139,-1.32206657433647,-0.169707938027536,-0.558819921446355,1.83937978653138,1.31897030486027,-1.51509636368999,-1.15533305334778,-0.26805710715369,0.0944731626418118,-1.12033014874076,-0.171728441170507,0.233046787485304
72.47,-2.5218010863018,0.0356357766529136,-0.168827342327782,-2.34798789772026,0.333389527739944,3.80284962337804,-0.836827141590906,0.0781394092812649,-1.53993426237779,-4.69515216513322,-3.36302485093294,-0.198928623241397,-1.53069830639544,0.014242609073903,-0.516526586256319,1.60164665800126,1.33539852424139,-1.16349348083878,-1.15988855095643,-0.268555032357219,0.088550449114069,-1.15947526950599,-0.221164847529997,0.266575627692193
72.475,-2.4814293809307,-0.27888173321673,-0.181328479154186,-1.994556243957,0.346106969928823,3.34670755014955,-0.714242592036408,-0.00578013306306127,-1.60979607885507,-4.36940375911312,-3.10966916885674,-0.00277321332922075,-1.70042943317308,0.254257577451159,-0.443024996650094,1.41379775683743,1.34788426627429,-0.602835473377435,-1.15632092815463,-0.267739304751052,0.0899362987008254,-1.19621116579432,-0.263976002890513,0.296118317149173
72.48,-2.36230624822366,-0.532193567989206,-0.342582967859917,-1.53557766442387,0.343008305608895,2.95425473049345,-0.556691841300867,0.00323218284236831,-1.60770791428619,-3.77973486727704,-2.78304100501111,0.101604677262008,-1.84455947650809,0.529240557313137,-0.364192451388862,1.28985538976626,1.3501158541655,0.155931825624797,-1.14737084955314,-0.272993088161655,0.0891679525865606,-1.23364303277626,-0.288263209950267,0.327325915789018
72.485,-2.17491440929837,-0.713147674183833,-0.597644601619564,-0.862185010978119,0.445161197307137,2.61449161734692,-0.412729250068473,0.0090043448544714,-1.56114012746551,-2.9895876272778,-2.42002893427928,0.176172567036536,-1.92430432094768,0.789146525608667,-0.334039542633254,1.26302205674811,1.32107601025593,0.93219119538562,-1.12731377810253,-0.276868668376985,0.0911779308607125,-1.26194367723781,-0.311387831554737,0.36416508796237
72.49,-2.00933233752517,-0.795398510023174,-0.803445668900474,-0.0979327521231695,0.65626933522396,2.34989105395181,-0.329281333927052,-0.0322017288448432,-1.51749582590388,-2.20422577013018,-2.05950283182911,0.292266080830621,-1.93177803455087,1.09308776043321,-0.358604569984949,1.34655480166054,1.22647334085719,1.81797413217839,-1.09746858139015,-0.275919805917526,0.0897853670877513,-1.28674481892412,-0.322486839141406,0.400801830165489
72.495,-1.88675060686664,-0.808679596662322,-0.932915497872807,0.806523836740912,1.00727206425851,2.14423512307861,-0.259930152272673,-0.0365200783843718,-1.48951430603162,-1.4734256776551,-1.72890863266907,0.363078311503588,-1.85285365772993,1.27117496582278,-0.423885742265705,1.67969886981376,1.14858093261584,2.40524525985899,-1.0620976022083,-0.279991629850258,0.0902001931501537,-1.30121741222477,-0.33472583854017,0.444873810021837
72.5,-1.83785559682849,-0.762550338190051,-0.99449028741734,1.61857276560266,1.45582647572592,1.87026489324661,-0.248803965956791,-0.00921444029438946,-1.46565945857176,-0.564651155288847,-1.35866000201667,0.392334439074666,-1.59883018070639,1.38182397774432,-0.62587207859006,2.03375169145537,1.11319714210371,2.53687090063828,-1.03809509944548,-0.287877710997982,0.0899238425902592,-1.30049284269629,-0.337368454134357,0.481549830491797
72.505,-1.82787781909505,-0.618506762777106,-1.10533761850444,2.27293024795546,1.98954725924847,1.466293002961,-0.238091490444016,0.00813705638641709,-1.43160208288597,0.365789070673166,-1.02830830000968,0.492366289862046,-1.25390632838305,1.62175333198779,-0.849707604545781,2.54121675445925,0.976786060931363,2.16777761089909,-1.01417837984082,-0.289342028078612,0.0778728164299852,-1.29300826325563,-0.329087459593822,0.52357223622371
72.51,-1.86866265878574,-0.570337749024895,-1.17097797758001,2.57544679589469,2.38124491999647,1.16258593587525,-0.231662951241845,0.00535784125497598,-1.42108504468733,1.10113025101172,-0.760141858457692,0.529623759008394,-1.02160684300315,1.29003086413767,-0.832746025617719,2.77575668575911,0.775226405915008,1.37607025198592,-0.997568980439889,-0.292029887941364,0.0769810426883997,-1.26992127912988,-0.312577678599528,0.566653466767217
72.515,-1.99678446193517,-0.646173718045157,-1.22926754029061,2.95033666003745,2.99211499650068,0.735787497855058,-0.236809606376132,-0.00558337349388781,-1.45588414809561,1.68773332950651,-0.506253487252848,0.556085398766877,-0.814277116754542,1.03602682100027,-0.807659072523403,2.93135919073279,0.63931507808031,0.727919620855525,-0.993656129248804,-0.289190567129418,0.0723150737317214,-1.24231444004963,-0.305578059796356,0.597436114245224
72.52,-2.30649623808438,-0.797504747625539,-1.249041855507,3.13495016701759,3.7232267741028,0.328045081633512,-0.210707835209319,0.0230347005586805,-1.5651932691077,2.26374220245076,-0.161776401674232,0.549259243000298,-0.641547016775499,0.758332692947941,-0.774262053569483,2.9245290624307,0.505840700381663,0.170769121285175,-0.98599417598955,-0.298016235632835,0.0623250846535648,-1.21010101330697,-0.315795135065945,0.633208837533667
72.525,-2.77643118332551,-0.756193652394274,-0.834242008904359,2.43900954277958,4.42533258408814,-0.210906669793449,-0.158656630068303,0.128827403251012,-1.7468448360857,2.61375660563234,0.229928103352662,0.501386449021631,-0.590807975983848,0.555822674784952,-0.786697923431998,2.69207468185328,0.381742999097998,-0.0853594586984643,-0.964149931838071,-0.295601794210596,0.0662368336168732,-1.16599613369263,-0.34968925058343,0.668532518741982
72.53,-3.63570847307598,-0.88886669536034,0.21358839900056,0.727134092408513,4.48288327982892,-0.977099761360634,-0.0903960174550374,0.389947087594085,-2.03304683261222,3.04491516090846,0.875435763225897,0.431832547721073,-0.596565348891162,0.443277935941852,-0.801890741250385,2.40486425535805,0.264214731484522,-0.205239704012066,-0.942913697555898,-0.293852140267168,0.0704529662311472,-1.12426373296615,-0.399868689701739,0.708852869924904
72.535,-4.17516706833994,-0.0586990750455669,2.30963592018877,-0.121899326125221,2.12975759829202,-1.23254301690177,0.00646310166443598,0.682403238979975,-2.02315035123309,3.51763092163354,1.55904537650632,0.464306983247148,-0.651072618813847,0.382974065858531,-0.801730328275879,1.98811902494024,0.152888374522545,-0.284150642978266,-0.913686711961664,-0.288839725438908,0.0793635562026894,-1.07958817763487,-0.4542627922315,0.779506653123114
72.54,-4.29521226862819,2.32444130458418,3.07430048259055,-0.222167314079736,-2.06254554890031,0.309783770185676,-0.0550700426839887,0.711316368269121,-1.79144087957651,3.62279352177314,2.01861757285955,0.66018001515629,-0.741571196783233,0.32726100278442,-0.817273972701236,1.48108024595717,0.0590410026050649,-0.363348413938216,-0.870343943836632,-0.271581457019431,0.0945159159895485,-1.0361353938818,-0.493760986619028,0.867215028078703
72.545,-3.53668981719063,3.24132751310944,1.21572976339342,0.453189521676746,-3.76922777379979,1.12127806661739,-0.529287345837903,0.687870976005876,-1.21547895128782,3.24468228024051,2.39779857639176,1.05514543974443,-0.800483496083305,0.208886222230354,-0.852794220521891,1.01100302164332,0.0190736219882408,-0.406101265452184,-0.832548097385098,-0.253841201675828,0.11289647470247,-0.990937030437114,-0.504619164867896,0.962572661860183
72.55,-1.55776247155091,1.65212557414672,0.5921835231172,-0.16662449824799,-3.3778671273183,0.202762303888187,-1.11015134758671,1.00147540720816,-0.0142623232560899,2.75030830348477,2.8199016406572,1.31950764265068,-0.698016190329208,-0.0337144077924255,-0.845851416538203,0.616413010094014,-0.0140006974143127,-0.59752184054768,-0.812241392688817,-0.240481784556795,0.126850451599676,-0.953607656402682,-0.485037107692711,1.03054095643602
72.555,0.895763891386077,1.34112465458893,0.0823159476402961,-2.10450515775895,-2.79608323585935,-0.210952502215535,-1.95400951159946,1.63763212685842,1.44766538771346,2.10629011271871,2.3732236778526,1.27585897712437,-0.564665183539996,-0.279552578988541,-0.826719758984138,0.302774954451814,-0.10295401419713,-0.89432699786957,-0.803344570810891,-0.225819970104283,0.14279215243026,-0.906010288559483,-0.450492637728182,1.06675404321432
72.56,3.42824327043151,1.72747603900332,0.7465275679374,-2.92491097585532,-1.23746221543835,0.218711751601428,-2.55611048204943,1.89202520575439,1.63909498819508,0.807269036096604,1.16229340706017,1.18012772061264,-0.354482974013435,-0.660098106822726,-0.733984911092635,-0.343206964362706,-0.378354837710226,-1.44715590426791,-0.814783228849804,-0.207573628616484,0.153290476754306,-0.857481629596308,-0.407554013603062,1.06546447887202
72.565,2.48632633560395,-0.74248294366787,2.95905212545236,-1.40084652119576,-1.24013019253065,-0.561367950140207,-2.86234577117479,1.96189363726446,0.87303236188267,-1.50683347348297,0.418540080730824,1.1756713404547,-0.202855776040996,-1.11455007108225,-0.626568487856454,-0.785326840537103,-0.765136996948033,-2.36051430756134,-0.846018046728689,-0.192562012114859,0.15414180059448,-0.786345000591396,-0.343017173073727,1.01587050404481
72.57,0.157196798984004,-2.26872770710216,2.36306683578173,-2.34754995352242,-1.78800149014631,-2.17460529341861,-2.88284996620919,1.05471378295101,0.107230333117482,-2.79558993769107,0.357021302729517,0.983897409079838,-0.320344721221564,-1.61700290971686,-0.372669688745327,-1.58023730996876,-1.19685928004899,-3.39937190020044,-0.884195619479736,-0.171941071310663,0.139329725227951,-0.77115123513236,-0.269155763847884,0.933188936207835
72.575,-1.65589725623303,-1.15081755580091,0.594496527878436,-3.05308054238973,-1.30001311701011,-2.8589798471936,-2.16387546715284,0.0513316668841904,-0.489548627585858,-3.58746131560927,0.146408843088449,0.808004601380124,-0.696399267870616,-1.91102598607663,-0.245237205193038,-2.6447660819182,-1.74063892838345,-4.21761321989933,-0.920575271729572,-0.146125162251599,0.119980630257583,-0.803148845713676,-0.190300011382206,0.843420080792891
72.58,-2.15846579026047,-0.129176075232383,0.476794072246582,-1.9548431430788,-0.376979575622519,-1.38212683952611,-1.54910128074595,-0.597484151766896,-0.899036815069219,-4.39498369723095,0.0275024751437451,0.6511720801903,-1.34444758239672,-1.94361706852297,-0.0982373724057813,-3.69378489465724,-2.68615904683108,-4.43983852311806,-0.987737061931695,-0.116864080697385,0.0783292820345457,-0.889718857435174,-0.0950353027590956,0.735134412667118
72.585,-1.627525779657,-0.0474355331767878,0.920113049018167,-1.7509017084348,0.0227391091629465,-0.0820390031523159,-1.14566951871028,-1.57443077071849,-0.950145014738347,-5.35145889508247,0.195733694719467,0.60543152351723,-1.87298950261595,-1.89355947817739,0.193507887078223,-4.11368874981895,-3.91526433879009,-3.57797707647392,-1.07972463815245,-0.0863632999496169,0.0347623344864819,-1.02404929548512,-0.0282114793051665,0.638541813539078
72.59,-0.303236002528775,-0.73118273374199,1.12283452217075,-1.89480222468676,-0.0984288706107117,-0.0488402444593736,-1.04231622088361,-2.82856979693528,-0.67752576404944,-5.1533446750041,0.855698439275103,0.35028636033244,-1.90618546285429,-1.82595550007499,0.580122709982329,-4.35303638169192,-4.80716233030036,-2.26654368218149,-1.19043445552521,-0.0519745590911743,-0.0357135277022338,-1.17798561995163,0.0259337017773202,0.544434513345652
72.595,0.0627575069200821,-1.03864674998666,0.991905268670171,-1.55962891840918,-0.586879829083052,-0.575499750983275,-1.01934503868162,-2.61450758168124,-0.232028830937784,-4.34706255111747,1.55561882853975,-0.406572737224365,-1.49933210606287,-1.91063792558672,1.46736000079477,-4.04886967676769,-6.0020372759134,0.440640606949833,-1.31574703716021,-0.0246673893185209,-0.111821723078734,-1.31200809067114,0.0566715804285278,0.456931588043056
72.6,-0.160104139354568,-0.408954826642424,0.740037214059782,-1.19381887681439,-0.847912541031116,-0.162026855453765,-1.08338257013627,-1.59846772327382,-0.0280915687332516,-3.93099102882431,1.66774391530274,-0.519704474777161,-1.283764018474,-1.86443266411327,1.85153650530605,-3.57093708894473,-6.10921005349897,1.70145502353303,-1.47386715201953,0.0139969190176011,-0.184357479610901,-1.46246225345605,0.0668577220338668,0.351284986528631
72.605,-0.489003482662423,0.380651137130439,0.788632342039847,-0.624414326270929,-0.504635540008341,0.332290961774716,-1.06320392294613,-0.482639312825824,-0.171263244464572,-3.14677151089803,1.49159611750897,-0.205676926732326,-0.75385093290255,-1.31154789876553,1.97155418634318,-3.13944079352211,-5.13325929190978,3.3846519605865,-1.57844826207364,0.0522957649483261,-0.207810590436338,-1.59048870576817,0.0668629662433966,0.258306504939309
72.61,-0.546753096964676,-0.0366552325445205,0.966443184947678,-0.613767502636436,-0.387112385263316,0.261987571951344,-0.916060645089475,-0.0889139661469812,-0.343161755791237,-1.99336066762055,1.36258832546305,0.148701909771522,-0.568468991643425,-0.301823960932761,1.70657985567162,-2.86649079018557,-3.42086358271869,3.45906214220739,-1.6667921950545,0.0774339894286556,-0.196371278187902,-1.72753073132614,-0.013583726074887,0.141485457927697
72.615,-0.433858651884263,-0.197799634824139,0.853133714479481,-0.415616616150784,-0.178589726325826,0.208973802992332,-0.56848848334178,-0.0905188899785384,-0.419250471064894,-0.429794612980193,1.2004349978481,0.38349709870579,-0.661127970374156,0.962750355066334,1.04455978969817,-1.35873615960793,-1.51991728305606,2.8961610823337,-1.66055698118686,0.0645085251941681,-0.154171349418115,-1.84407111536377,-0.148768384827562,0.051110551810139
72.62,-0.399504307577273,0.0527877896041971,0.802878506117603,0.0685511889748854,0.126150296287327,0.334054201623656,-0.293937812576017,-0.0648353057873909,-0.458223479524632,0.723082336481678,1.08594880464469,0.357387059819762,-0.803609500183008,1.66545152844186,0.497211119785146,0.594319013330169,-0.591336325599123,1.88596788891019,-1.56403806472986,0.0395888319964146,-0.0895532602531808,-1.90863142171056,-0.359315622767525,0.0159986376792598
72.625,-0.401109946787929,0.104187060534781,0.885548203358501,0.261342638034663,0.180261745934957,0.352675941016003,-0.309535053917509,0.185902544865923,-0.478785770453102,1.43766901541599,1.01583683337511,0.259651580080989,-0.779227255546951,1.64854649554657,0.172819910952571,2.12012805947081,-0.316393740762979,0.104678965786974,-1.4420040050695,0.0151869491360587,-0.0287136693231018,-1.9018862175219,-0.593322970650413,0.0253320036060882
72.63,-0.327811535712469,0.0545216589447193,0.891785126933308,0.341916887603794,0.156979767202878,0.215174162960608,-0.499660267427318,0.324477591589759,-0.410840371135321,1.94965867296921,1.04268786391507,0.325005903944721,-0.803859949379618,1.20131241564377,0.170326239547274,3.01551606204605,-0.0847605612598252,-2.07910442609574,-1.30301476388104,0.0165401205743665,0.0360687150289936,-1.76051761306685,-0.854946437549727,0.071812787356954
72.635,-0.328316309108011,0.0655277279777112,0.86130492328048,0.452268470421948,0.108325078806565,0.123163393534935,-0.695057774705896,0.3681556063668,-0.254474829577082,2.14253979565618,0.923254811480697,0.2297305886412,-0.935093348141253,0.522274605251187,0.338612981169014,3.11372469194911,0.416731865224372,-3.98989690945463,-1.21918735625411,0.0240609176275475,0.070858186250628,-1.56585387376948,-0.971548093437355,0.097460645579483
72.64,-0.320154824243854,0.113759281617096,0.85481608968136,0.653098653298491,-0.0141401446526132,0.105447968029224,-0.986315377486304,0.359902351946022,-0.208019808917946,2.23308219476951,0.769458697209418,0.232249762199191,-0.957207507198312,-0.3373432610672,0.412621768544306,2.56639095727827,1.08103592381902,-5.13391612795706,-1.14700008361097,0.0397865613220827,0.109152800075122,-1.27402219502619,-0.946615340013371,0.0669603341167629
72.645,-0.40845295495248,0.101342622664555,0.902803367221802,0.739568961939448,-0.139831720492419,0.120918584977822,-1.15437992298084,0.288828237877742,-0.23160682532883,2.23301127004362,0.637659050623393,0.298637016589772,-0.832901952930326,-1.05116453904832,0.374658609094782,2.20975824664074,1.40590373863162,-5.28209348734541,-1.09563728079636,0.0303671112285906,0.138901066925496,-0.984743031477329,-0.77149899634842,0.0195976621699059
72.65,-0.401635477065263,0.100278017180584,0.930926358521393,0.555846537245643,-0.185216915650018,0.0891895731167191,-1.33066361274923,0.174050329317046,-0.223533098232082,1.86383476018567,0.551301562381453,0.306951773354169,-0.648763866447355,-1.8855125987865,0.283205914925326,2.29566484356594,1.1988713708836,-4.37905856922604,-1.0830808208403,0.0101817960682425,0.15475733759043,-0.695319955780714,-0.54812238564619,0.0297238675551408
72.655,-0.364174734531308,0.0798571086330268,0.936492981828937,0.264113465706919,-0.167032594950009,0.0387717902606199,-1.38929558460963,0.0559685157650618,-0.246344913258217,1.02795956602884,0.462986750561847,0.424634967969239,-0.508665129156936,-1.95978719195194,0.194409387575372,1.48826841935024,0.503597275575258,-2.92728611277402,-1.1100894492304,-0.0223094612248591,0.133023481171355,-0.520164482207879,-0.400232053032339,0.0888412341986806
72.66,-0.388709512589648,0.0354614649075855,0.915751056172079,-0.0509006345427434,-0.0967116772939323,0.00973690589318834,-1.34925772806141,0.0330347548474491,-0.254041421402159,0.286983162487304,0.444571363012245,0.58292940471496,-0.491888123517659,-1.92167438606927,0.228526982682646,-0.0831841267603334,-0.0681988574302973,-1.02361558735213,-1.14135907752551,-0.0710425308137221,0.105814503550948,-0.331584352273992,-0.268233382656342,0.124816052997595
72.665,-0.42224922846915,0.0158606552084724,0.910313850802832,-0.309614334091536,-0.00444059828222489,0.00229148384738135,-1.33147268805382,0.0792727403567427,-0.255697964294186,-0.119813299318701,0.516545890944015,0.730040991866572,-0.525357264069855,-1.46541887069029,0.304873770063536,-0.944863545371288,0.131846964361452,0.452655008141854,-1.15316899016189,-0.130280127357256,0.0611008341192299,-0.158486826330176,-0.233343984019038,0.111187495532126
72.67,-0.387651188729728,-0.00138972198755625,0.905136833256001,-0.451558834083131,0.0316821301758056,0.010566881413332,-1.29267415592062,0.141725112669011,-0.27972017361766,-0.71708122934517,0.491778550523224,0.63457628669566,-0.52605745853131,-0.888007345216887,0.239144587145975,-0.299528220666642,0.416341892657647,1.19908067449011,-1.14559996458584,-0.182073303102409,0.0251512146720441,-0.0113009283146703,-0.263747084719927,0.0430841051168859
72.675,-0.361979001035315,-0.025913666651049,0.886825145825031,-0.473950628800894,0.0227401099641621,0.0477942740467269,-1.15316618899143,0.183722034678942,-0.258103304991403,-1.31928231126943,0.341716032142934,0.474197007323368,-0.509311373057109,-0.57519993151614,0.170452670707022,0.737419637762145,0.4217269806621,1.16901985646994,-1.0977915344513,-0.212127778153607,-0.00343504397354593,0.113768152895601,-0.335855089519149,-0.0840487037581693
72.68,-0.363607419961929,-0.0243731210037538,0.87426521273068,-0.419168417108015,-0.00536365955978888,0.0864564530367145,-1.0231287379491,0.207462028266067,-0.270845183731536,-1.82215878933298,0.285504067297278,0.278364389285787,-0.568547773676897,-0.431641419864123,0.158954126162413,1.4553435482116,0.444539979809551,0.617376956683321,-1.07365548943902,-0.226551362730425,0.00471972525776664,0.211830224906387,-0.453484448961027,-0.167417910564384
72.685,-0.366448744533855,0.00376823788260385,0.878559983194617,-0.336262816680699,-0.00456300260538114,0.106491168890085,-0.955691416942197,0.179450254603016,-0.307864900955652,-2.09791382551963,0.181775392454099,0.00694283180385666,-0.650603914473239,-0.425341421465714,0.168357661456807,1.73398262044703,0.551450052222594,0.22066285122153,-1.05337418343724,-0.229218836951202,0.0141236108774839,0.29335399201271,-0.58695104871374,-0.185916676333998
72.69,-0.372485286532861,0.00813876488760204,0.871139595174174,-0.2863080400822,0.010039166917352,0.0983788494914132,-0.921284816862437,0.100525451192945,-0.301271659392963,-1.95415285559355,0.06859578858207,-0.0630782411250423,-0.807876088741797,-0.439739651818484,0.109886120976634,1.86969925337036,0.796309168958518,-0.207118786144293,-1.04761772305043,-0.217743244681248,0.0349523388909848,0.304592299550563,-0.709965743852481,-0.0974644365507718
72.695,-0.388097000099013,0.00557994318007938,0.85899439830169,-0.220162707235504,0.0349501120207017,0.0949122235178947,-0.902871036887975,0.009937859689938,-0.310419350467216,-1.71899764414732,-0.00254742515048097,-0.132515842739561,-0.945025293966797,-0.417544737433519,0.0839780658287726,2.10473516578977,0.851782570340018,-0.427487570198421,-1.00520140823655,-0.181947698287351,0.0580905636073188,0.283389757706945,-0.784221368191549,0.0206983597377367
72.7,-0.377670609749798,0.00893758618687033,0.865767392831953,-0.148399342896799,0.0654876265953937,0.0946850580287669,-0.886968701058766,-0.0908088254410428,-0.31522801361166,-1.3537592376442,0.0420128116343457,-0.191565272064606,-1.06236794563971,-0.357672831008323,0.086790209767372,2.02841219411749,0.814144255328232,-0.566326252028469,-0.9342351255751,-0.146130665607956,0.0901642342006293,0.230310736567498,-0.787627514006319,0.161436716763152
72.705,-0.369675053264588,0.0150175728051778,0.874249568101235,-0.0907144420622731,0.0729657355613832,0.0893535065060681,-0.887157815678447,-0.185678003472568,-0.302814506403782,-0.8631693348282,0.103580921626243,-0.145740713178981,-1.08706439688887,-0.34051131317774,0.102160256126093,1.57038199619082,0.894905538722018,-0.630927027231593,-0.879932619060397,-0.107993962141416,0.107184632491628,0.164777259530488,-0.752015855981885,0.332091338576757
72.71,-0.381313557939804,0.0166430217543913,0.873448427597622,-0.045347389584489,0.0660202445904472,0.0801125577164354,-0.897245637579595,-0.241581559548348,-0.277765883357982,-0.29451281904393,0.159517229616224,-0.0212110539644991,-1.05274954638333,-0.355092048673012,0.0787943005810569,1.19538622225407,1.00067206069788,-0.722987296679108,-0.841036385622816,-0.072910387377438,0.118145051351118,0.102637133730547,-0.697578229042475,0.471283209095124
72.715,-0.393957333851938,0.00700902389861214,0.877185482667037,-0.0196225898425997,0.0557713207359498,0.0733197247631389,-0.929059033305473,-0.255151131369065,-0.282124575847914,0.0944452616687766,0.187378380425488,0.0449068347458722,-0.971899680188211,-0.372986039232702,0.00520335883202674,1.12534560250266,1.00202243228729,-0.80356213660495,-0.80474786519037,-0.0223087063000428,0.113494842875251,0.0337802511404269,-0.606202999752106,0.583855222737224
72.72,-0.393954648505804,-0.00146948457386247,0.879015953060974,-0.0117063114084046,0.0542695233553281,0.0696103377132506,-0.936322475917634,-0.219685454886143,-0.268255990214722,0.224254124230253,0.199243170002164,0.032878128595207,-0.947403960319205,-0.448484733258562,-0.100695760808002,1.19941136326403,0.945497296650951,-0.802852212300254,-0.789367743563933,0.0162346838254681,0.0947349852767198,-0.0343914005668112,-0.477729874900013,0.657733770018572
72.725,-0.379506202165029,-0.0269186858155197,0.892343780723229,-0.0051398368812545,0.0541516244411469,0.0669130021940278,-0.950673237412003,-0.184398074548278,-0.260497940884696,0.245687186587808,0.186827586711417,0.0205703766655968,-0.906440785901652,-0.508595250677709,-0.140809181888113,1.2422207737197,0.875020177268927,-0.584974416137795,-0.795435676557575,0.0520079089073611,0.0832048012911916,-0.0894782851750059,-0.336921093894786,0.696316870486869
72.73,-0.379883151640802,-0.0280730912593531,0.889013340370443,-0.000602108106526792,0.0494914858529486,0.0686582003753557,-0.969504568530707,-0.130345962391742,-0.258046606521526,0.235375035315546,0.155950935648882,0.046851941255606,-0.868997643063273,-0.516592232859565,-0.174047820441502,1.09056240202778,0.816270739039845,-0.363615068285256,-0.802768081304869,0.083315075438769,0.0725312774301393,-0.137043405262984,-0.241428840613676,0.70663629717885
72.735,-0.385495932748686,-0.0160936271584999,0.886618461701073,0.0122132785618305,0.0542912410136509,0.0816131989168657,-0.988434829341668,-0.0805661440886536,-0.264437648113061,0.249145793103443,0.112611718870515,0.129110984404573,-0.84200504648361,-0.529150539406817,-0.205137920138184,0.958462717386951,0.765611948820819,-0.0523365610890198,-0.798757270812759,0.109557017963542,0.0514769404531746,-0.181322758962738,-0.188632782375612,0.692890352462391
72.74,-0.391297901809574,-0.0209369117912183,0.888466649462097,0.00906738136762493,0.0576203896185498,0.0804482118705173,-1.00299668579907,-0.0277214664512002,-0.270843520287545,0.286924428259283,0.084393673011609,0.238852592009624,-0.859611178283561,-0.52835428991527,-0.214379960618041,0.938008590416302,0.749057312416921,0.0740922380483248,-0.789731448850524,0.125727292087962,0.0425625254284325,-0.199088322573007,-0.181611934551163,0.642643302118939
72.745,-0.382245526484515,-0.0359844214621126,0.888312975955757,0.00855354728392528,0.0628795472854697,0.0765868052840233,-1.01513316903039,-0.00161372473772018,-0.269004892452312,0.321849161632666,0.0691363102049697,0.307183683728527,-0.898080908917847,-0.525869601625043,-0.228486681398705,0.86600700973772,0.719863202730832,0.13015845411318,-0.76680922553121,0.141453232766245,0.0328097559575438,-0.216522125696135,-0.182800462173797,0.554048078357802
72.75,-0.38076151731809,-0.0107758042357034,0.881999041366577,0.019209842000405,0.0689227274457614,0.0805848397930463,-1.02131572210263,0.0245261818575398,-0.249805033188407,0.330731954200754,0.0372040632815449,0.346592223545416,-0.93138466437926,-0.516732786065226,-0.244815988653688,0.753442059278319,0.698940031733509,0.105772373202753,-0.751542796776756,0.149207200029322,0.0266435768529272,-0.234352875981154,-0.199094131138344,0.464907662400516
72.755,-0.381480204856105,-0.00435298410953513,0.880613889280023,0.0214538702519983,0.0726738225176847,0.0813751915715677,-1.02629590001665,0.0266545261768104,-0.232951901956114,0.237055204978296,-0.00886131265476981,0.317726052627913,-0.9655173702221,-0.487527998476511,-0.251864161602499,0.548197102041224,0.700711543217999,0.00335903886744369,-0.735808746013408,0.157357619114188,0.0119970582636457,-0.25634115867376,-0.211777081936951,0.361589315577204
72.76,-0.380141641398459,0.00500185364197887,0.876830274043048,0.0308441349613668,0.0712553101037855,0.0784193271028457,-1.01659057291431,0.0215650500189225,-0.215677936130815,0.124595439705419,-0.059825199593353,0.249445826767065,-0.984440623803857,-0.465638158516722,-0.239008233645191,0.442508372761926,0.7448738555163,-0.0738212284307906,-0.717707727357056,0.157875873450564,-0.00117917138477446,-0.296837534482389,-0.194928301861473,0.287727164740839
72.765,-0.384101994856353,0.00133962420733785,0.877370990715263,0.0361359817663452,0.0588390802962093,0.0679481574619218,-0.988282147792737,0.00105145677152499,-0.217200395820696,0.0598595998307368,-0.0973954863096749,0.202333772387964,-0.996464266059767,-0.43373745738107,-0.217767793439109,0.265468309646621,0.866871294769025,-0.0920488217498376,-0.713763082991786,0.154883897585985,-0.00887444825311015,-0.328570643643464,-0.147460448786153,0.222119001659748
72.77,-0.385039617368188,0.00411148571171658,0.871975814567993,0.0463851390065818,0.0568429099967029,0.0643698573112488,-0.957310214941512,-0.00904583484837766,-0.206432055153794,0.0489460177151375,-0.123912330732578,0.177952266811684,-0.98173791718923,-0.409992343343538,-0.190543701503927,0.124559104256064,1.01326147491988,-0.0124182126281307,-0.713792005784633,0.146933014571349,-0.0192215961817421,-0.360132133629539,-0.0923793043433495,0.177248468827324
72.775,-0.395951112937261,-0.00912490544678983,0.873066342118724,0.0558863639971574,0.0403024354464764,0.0627376094647195,-0.933670098239257,-0.0165863446764175,-0.19136103177917,0.0365728558611921,-0.13182445233003,0.162890138244245,-0.938911206765488,-0.401757396148711,-0.171234237062275,-0.0149450247103204,1.17112510830731,0.198090300857964,-0.728525865943608,0.144450839852153,-0.0241905608590362,-0.405350337019982,-0.00373436717243047,0.147368319699539
72.78,-0.393266296457861,0.00142061986908444,0.87028361509057,0.054714433927003,0.0320800862842204,0.057324857426356,-0.917241341544444,-0.00547096015058184,-0.181165271399782,0.00635381600225087,-0.134107619524002,0.139559868317809,-0.883961601419508,-0.407162265092055,-0.162987840832321,-0.336704977137983,1.28004437612279,0.580747269223211,-0.763380973961181,0.127993768982063,-0.0239265221991813,-0.446759893326855,0.058169400284116,0.14236873639518
72.785,-0.385164236016112,0.0121700253894936,0.874875401267708,0.0606570923452129,0.0156543005859309,0.0503566329894565,-0.915984237074633,0.0080180084440154,-0.168559806855452,-0.00542508004056953,-0.134901994135429,0.119286394885758,-0.830081742303297,-0.418677050719149,-0.189646876956504,-0.666809566913758,1.29425939227456,0.955492202914571,-0.79708998625644,0.114739064136465,-0.0204729088633092,-0.485514917901758,0.0896776834648336,0.159299377660031
72.79,-0.383641764074382,0.0163502594847132,0.880150927180331,0.0558474166245242,0.00377936390770024,0.0413763701529394,-0.925975973802163,0.00880408496086931,-0.165705905214937,-0.00172964262191086,-0.134150312201029,0.128273225883066,-0.79372048156752,-0.418292860060541,-0.216236374247349,-1.10790247712156,1.18601415898563,1.40201925765667,-0.831086904992429,0.0903163479518562,-0.0159882667674942,-0.539061933103731,0.109650772394854,0.186949364530676
72.795,-0.38450369337073,0.0271073792307937,0.879673872796166,0.0467558168504671,-0.00770521590103451,0.0319439892888333,-0.929553775383357,0.0183014583560861,-0.164129949114731,0.0346316945765632,-0.127246227884215,0.155582644996482,-0.796297282156815,-0.390734827694667,-0.232282864593747,-1.49301321779551,0.947707339566344,1.78641527546775,-0.850498914141066,0.071346828955671,0.0032088868366652,-0.570510610358176,0.115164822397927,0.223717212539865
72.8,-0.381869343962059,0.025753935689003,0.880698393654186,0.0255552129731521,0.00396061195251793,0.0303928936941962,-0.934480828091017,0.033996827118949,-0.162886738422264,0.0705853551997692,-0.107349959602841,0.175972128560861,-0.840566290537176,-0.316907578071456,-0.198209294788116,-1.7930971736072,0.585855062942812,2.08137894040092,-0.871661914295763,0.0471806290303821,0.0274033546661483,-0.591863023742037,0.122847832815607,0.269591540403204
72.805,-0.369277789402501,0.0118043843910853,0.88318608883284,0.0229621113396814,-0.02912895058084,0.000307839923190305,-0.947000243736097,0.0399294061063959,-0.157671498587903,0.0935778849713076,-0.101121857762337,0.176326514563419,-0.869645987015458,-0.134745759224495,-0.20903820041615,-2.04939843170462,0.228494804475993,2.09110282968343,-0.886168452709246,0.0403807529235922,0.0556763833372229,-0.598036051652476,0.131759436650366,0.324294935506563
72.81,-0.363869821700924,0.0182214739383962,0.886335988556198,0.0151833371879565,-0.0365958780739798,-0.0169515988972246,-0.957196207591427,0.0364430342176544,-0.154686606284303,0.100802093744278,-0.101421580363346,0.176031929010982,-0.902061085686223,-0.113060219979579,-0.169355296957211,-1.87010996928569,-0.193241236570745,1.51314071070324,-0.886547045464781,0.0235831457066083,0.0902590865109233,-0.589382456254244,0.142046177542944,0.369607295752365
72.815,-0.371501110743073,0.0253394949096973,0.884155635865567,0.0109915835782886,-0.0481959834109105,-0.031129504016097,-0.963466363086476,0.0251320485131756,-0.168582600866563,0.104075573439001,-0.102474085081267,0.16444067393015,-0.90499900320565,-0.0901237749643962,-0.0388073952428053,-1.87685322385106,-0.624344192345668,0.815030784457531,-0.900551943199247,0.0195648019571067,0.124660850198564,-0.581634032549258,0.159591302605452,0.420158471826783
72.82,-0.37687714518373,0.0260960048218423,0.882754949801907,0.00964431563134282,-0.0587066633060774,-0.0462961836974585,-0.977424869873347,0.0199124741117225,-0.179180888410737,0.132904596637434,-0.095578075313256,0.159800594337677,-0.922470682043513,-0.104753467124646,0.0216673217378503,-1.67282549417309,-0.840821862437375,0.233980373928934,-0.935353840668648,0.013525636374694,0.163525370928214,-0.559626002963114,0.173776332810664,0.451697131326559
72.825,-0.377763305646614,0.0257240491469053,0.881485121527499,0.00285667657606363,-0.0631310492753983,-0.0601196837600398,-0.981376745781688,0.0190459660977795,-0.178590209071268,0.194276846077775,-0.0870702050486347,0.162349717366723,-0.997603166875961,-0.088084463944464,0.0580340780667605,-1.53312682487158,-1.01841488208669,-0.469090018140309,-0.954556007484907,0.0149641417580943,0.200400956810792,-0.511342590167832,0.190438639978065,0.479424066334209
72.83,-0.378648052126448,0.0158446960629922,0.87716576017983,-0.00244705635122955,-0.0685521796685535,-0.0717385829216262,-0.984939209273325,0.0120387764062672,-0.184609037629982,0.254050660570031,-0.0833022183149989,0.181141067472707,-1.03354539383087,-0.12204172177225,0.0732536889162348,-1.38135208087829,-1.16363245400279,-1.03506014027816,-0.976506937233194,0.0137961530596897,0.222489071605063,-0.434157236493149,0.204561908790065,0.495322533383706
72.835,-0.37706353947123,0.00506513836988724,0.879428632968865,0.00102425715731972,-0.0734320365248642,-0.0832614051901264,-0.990346007930978,-0.0114542979772556,-0.194070387576233,0.3001537079738,-0.0879314517304901,0.202833264694535,-1.02121849153263,-0.184879752330309,0.136827790524025,-1.14295608618785,-1.23069469924299,-1.46488766040176,-0.993443961678492,0.0123180641803677,0.228095650266857,-0.344961680880947,0.205817019836386,0.484511850157344
72.84,-0.377255147112581,0.00432534145492461,0.885073091934716,0.00607108228177125,-0.0704949364149466,-0.0883082285440072,-0.988163295748222,-0.0298119114973494,-0.191787604784355,0.344598366312679,-0.0916757007429743,0.21361449758008,-0.996366213357619,-0.237790576304659,0.197362387996224,-0.928282735833472,-1.21025346882958,-1.80330070754958,-1.00408531779143,0.0148409992523516,0.234065603375329,-0.2434652585467,0.193854160807664,0.44887739949465
72.845,-0.385995523017189,0.00807505759886209,0.881067814639116,0.0152698942971897,-0.0754177182100395,-0.083385452131502,-0.985550018680618,-0.0316535625387017,-0.180901285340614,0.382973726144364,-0.0899952862148351,0.214544837764092,-0.97290327534119,-0.278230220935122,0.220111015693726,-0.77843885639314,-1.11748952432219,-2.04477600632596,-1.01205415934691,0.0086328151697681,0.223873262567479,-0.128140695588325,0.186190370657906,0.38161046723006
72.85,-0.386843802024687,0.0367900828866574,0.877372354481657,0.0183217506855726,-0.074150752810346,-0.0676627936677378,-0.986545905376491,-0.0108669628597322,-0.17217179921604,0.401084894016664,-0.0865340977230198,0.205883553549368,-0.949052406584835,-0.33274139570225,0.230730611340705,-0.617211542275562,-1.01300711338087,-2.22918212757823,-1.01170145710235,-0.00483803357850608,0.206686539548217,-0.00763392328139336,0.177312394409658,0.292461387820466
72.855,-0.389311424961356,0.04729460833662,0.874071079163983,0.00153489465368898,-0.0799179062200755,-0.0661878724514432,-0.98956351038637,0.00602386185200608,-0.162392193663342,0.385306593399905,-0.080879315350971,0.196419831041656,-0.924405984662919,-0.394465841490297,0.261010415704863,-0.412272013259918,-0.918180329966917,-2.28853872494351,-1.00806365225463,-0.0162960676381213,0.182945004433567,0.0965006490582375,0.158312828701413,0.175049713624534
72.86,-0.384393272161032,0.0328047765383723,0.869953477821308,-0.0140114223075194,-0.0952652400019466,-0.0639358838597421,-0.977449669948011,0.0199670001174169,-0.171264298579477,0.348452420898185,-0.0853741970107102,0.189759851446114,-0.91325165384271,-0.427743040384953,0.275100808933488,-0.240879746606814,-0.851360871473734,-2.22643918220038,-1.01095214934789,-0.0272564347455259,0.160600169821318,0.153978121797437,0.147889046042327,0.0743539111106929
72.865,-0.386285136640966,0.0199686850731738,0.873334478627426,-0.0241549952799294,-0.102507836473563,-0.0518517583388919,-0.964249760542724,0.0315128661691192,-0.17120098673411,0.295722094304063,-0.0843965785493177,0.177908991636765,-0.894085772665947,-0.447497344944146,0.304320586890063,-0.044441005547025,-0.7519875876898,-2.01722538936651,-1.03503505930216,-0.0498049584652243,0.125392791985854,0.190571270634958,0.117552599563076,-0.0770220144884681
72.87,-0.382123189842952,0.0124977764125067,0.88146298539542,-0.0276782390935494,-0.100579178826339,-0.0286076970084737,-0.957848285856994,0.0385048499850874,-0.153384242420593,0.214528648509324,-0.0788567552030459,0.161444271121358,-0.87038384831023,-0.463066575951224,0.337210102214502,0.0812239669342134,-0.663390535800533,-1.80415578397188,-1.05635450402644,-0.0590772871731988,0.108204791287679,0.182654357355815,0.0803691140014959,-0.143800836036501
72.875,-0.365714207245161,0.0158638915774434,0.88558050102881,-0.0287684865900499,-0.0994460328340076,-0.00903595771088389,-0.961834692903753,0.0656810168825911,-0.149571313805689,0.0908438190362501,-0.0927198682167563,0.136200325299626,-0.825008773361533,-0.474970627163019,0.37709686340136,0.206582480832567,-0.514058986605472,-1.57047825503471,-1.08503407295283,-0.0751724669085446,0.090561070342803,0.156889691295177,0.0141211011503347,-0.164941316132286
72.88,-0.363318670389204,0.0223235825699178,0.886665189844571,-0.0409754142156319,-0.0741573611345385,0.0049206046623721,-0.983020504155313,0.0998470558992808,-0.163102195077398,-0.0347479787470784,-0.111268728013315,0.103254377603804,-0.795792562729817,-0.478836593984218,0.411611793351053,0.28408404914293,-0.335731229818506,-1.47511096584628,-1.11875638987238,-0.0855197540176161,0.0727147502833482,0.141293267163905,-0.0786050075523017,-0.137279431448619
72.885,-0.369653237470245,0.02133729900682,0.883690225812744,-0.0418992718393829,-0.0694028760509378,0.00294278069720307,-0.993661078430828,0.123733572245622,-0.18042573926125,-0.130878740910234,-0.128420655919083,0.0688062658972271,-0.793820985471704,-0.476842978845834,0.429041468940912,0.322161580296229,-0.15739801597627,-1.45301379935461,-1.14181273251424,-0.0896731023348943,0.0623143718073899,0.139469924645088,-0.166760936794231,-0.0965544620086598
72.89,-0.371367160013345,0.0364407849378135,0.879296118815957,-0.0563013769680612,-0.0706108043977147,-0.00030515440362066,-1.00200674601588,0.134940365251498,-0.171862522345659,-0.224970412713872,-0.150826046232776,0.0423077528452503,-0.822711342012352,-0.466718551132891,0.419408482658147,0.360058741292664,0.0750669535981454,-1.4994249032223,-1.16434237204125,-0.0879971191088181,0.0572880155681438,0.145059010094557,-0.239145429771961,-0.0596383195187379
72.895,-0.353386184798247,0.0556855739542369,0.885730496015931,-0.0765229250919313,-0.0705357965916774,-0.00167622814297046,-0.998335500459266,0.110477482546381,-0.158555900603942,-0.308354090706088,-0.170091862408814,0.0368892473290981,-0.858876319277155,-0.467268803196235,0.38900673854013,0.384097967453215,0.238920890468805,-1.57319344594715,-1.169148487754,-0.0833814360268545,0.053159102742724,0.166086907366375,-0.27001274397541,-0.0443713875216944
72.9,-0.35200692332107,0.0397500192395601,0.888860644555981,-0.104387806565982,-0.0743963527710009,-0.00155020288061335,-1.00181066094074,0.0877647875013577,-0.172791578343776,-0.398170543831788,-0.199914521169643,0.0332901191836359,-0.880862201935583,-0.491992483156145,0.35135597601148,0.426531559389301,0.356556307459449,-1.64226945749476,-1.16917330217362,-0.07403112102638,0.0607716773558909,0.176547675736159,-0.258112220649571,-0.0474655991070065
72.905,-0.36562256960106,0.0343691365531139,0.886241764466556,-0.123256898345438,-0.0814150941139125,-0.0100707591394252,-1.01281833911189,0.0850500729796177,-0.192528000628987,-0.485050740875069,-0.222771488821425,0.0202289927202162,-0.893509857820913,-0.536498348158469,0.316387026420852,0.503618226931326,0.446852763408827,-1.64795300661954,-1.16475814620619,-0.0670616853912688,0.067081188454228,0.184105453084062,-0.210949137025315,-0.0701721332521084
72.91,-0.373002290906797,0.0324695356219422,0.890466539977775,-0.132880232915642,-0.0697764695761795,-0.00751553847266,-1.01348479727931,0.0836953959991858,-0.202027154714406,-0.531270209063323,-0.241723177938491,-0.00394431852098664,-0.911496624631616,-0.58369715994372,0.257489554032844,0.585516201869712,0.498470643222971,-1.56037445717494,-1.16201008818836,-0.0538147709911439,0.0741420472441029,0.177569376806244,-0.173881827593039,-0.0976412867693348
72.915,-0.373833313059722,0.0302880862575976,0.886942682357016,-0.153089973914142,-0.0702726496004129,-0.016166373698663,-1.01760216895909,0.0685099913311116,-0.21674657918217,-0.549599436649828,-0.259144734207308,-0.012292162309069,-0.935435286328292,-0.615655552889499,0.196631442777141,0.693907802792557,0.516193180975751,-1.36638254395386,-1.15433744630444,-0.0432157635511402,0.0829868253497254,0.15830134214934,-0.126817332594465,-0.143665789726471
72.92,-0.373510095941739,0.01801220799042,0.879580389532246,-0.154082216686076,-0.072832088735667,-0.0279713316199879,-1.01393060104614,0.0408991216082546,-0.221700431864437,-0.539231659037874,-0.273712707186562,-0.00978416589194601,-0.944252463973548,-0.624613062845998,0.130536404521791,0.745957702459059,0.480184384065552,-1.03385621905756,-1.13796981856966,-0.0317074908271364,0.0905879690354625,0.142937364554948,-0.103716842962993,-0.165434358143263
72.925,-0.372436357683804,0.00597438207793849,0.8848339203083,-0.149050399661064,-0.076627740629242,-0.0364906169943378,-1.00009591238545,-0.0054119311961182,-0.217781319335243,-0.501400357308781,-0.292185277274954,0.00054827859963909,-0.928538720691873,-0.616133221431467,0.0912333693894906,0.792382144125541,0.433609441291682,-0.73546236962152,-1.12270611869594,-0.0227977418260466,0.101215767729488,0.116590444636647,-0.0826546624302864,-0.174667478620097
72.93,-0.144182959630202,-0.00962049068080679,0.887347864848365,-0.247415024404322,0.127769794563012,-0.0337472306631868,-0.992700439238867,-0.0363155358098798,-0.214819635128036,-0.44352786330655,-0.316311943782656,0.0230419261594698,-0.888224398952955,-0.578645026267454,0.0449082703525756,0.821038895675044,0.399497744694153,-0.490400562816478,-1.10523429913554,-0.0157512356742005,0.110949475988591,0.0945376704429834,-0.0845877783511184,-0.164940119470699
72.935,-0.419141498856106,-0.0106277688416915,0.887636858336572,-0.14180811650464,-0.0169924797434759,-0.0274128517134373,-0.988154076193834,-0.0531098958629529,-0.211885430037105,-0.405301294328455,-0.322248548269272,0.0433625419786709,-0.851064320956625,-0.542212275418444,0.0163155405992153,0.83686513883825,0.379958901468119,-0.317956595079826,-1.08811237241802,-0.0236464836753586,0.11909959804956,0.0786899727846514,-0.0977907141947535,-0.148962408641775
72.94,-0.383666184979547,-0.00917419411140524,0.880188020321786,-0.120465225613068,-0.0513767334831327,-0.0293210838654369,-0.982411884539556,-0.0713054112236348,-0.205665843241695,-0.335599281042854,-0.324762096596112,0.0542337532408619,-0.814004552765046,-0.517129086981062,-0.00680513682977134,0.85171786763016,0.380007943324988,-0.262009389208039,-1.06098661745151,-0.0218394447475421,0.129617046781936,0.0621513794960667,-0.0995075012204509,-0.120124015458663
72.945,-0.378225062268695,0.00122880034929557,0.881138477262164,-0.105748291350169,-0.0403386489855846,-0.0188660642352249,-0.985204891487818,-0.0697637467717251,-0.201432183784677,-0.274171881368397,-0.32017970688543,0.0617519481371686,-0.782333868997726,-0.495774404742312,-0.0343208647075622,0.838138472337876,0.414348205182282,-0.274629853650063,-1.02080953668582,-0.0214860549698958,0.132663594108381,0.0354394451399651,-0.0726387992671973,-0.0878728454511936
72.95,-0.368515785411593,0.00355878707262132,0.877669690027096,-0.0848488822654625,-0.0301452968269587,-0.00724667723929672,-0.989545616001487,-0.06076557961764,-0.188547593327597,-0.222824130827529,-0.323975888982422,0.0595318053653459,-0.774783919732444,-0.486014975472997,-0.0552023171319628,0.827355246726369,0.466100093550017,-0.320816172393177,-0.989420044215261,-0.0243937750491419,0.138276525436292,0.00422206557511882,-0.0377444349469978,-0.0678642958093264
72.955,-0.358689429486842,0.000574345875022291,0.879241133471721,-0.0807421966486731,-0.0301452968269587,-0.00110950677239899,-0.992381776706773,-0.0596201249597035,-0.175187123633725,-0.182651005725651,-0.328962883914634,0.0608570547749291,-0.781233844572294,-0.483518105571071,-0.0792943671714101,0.815382953660173,0.54162826084016,-0.375374989214978,-0.955355007123984,-0.023196429519357,0.142538888897502,-0.0435546625944007,0.0265276034062456,-0.0511890552379852
72.96,-0.3572574792618,-0.00111925610286975,0.878840838436255,-0.0761437851014028,-0.0290026144499042,0.0134112556182401,-0.988557658754581,-0.0472897020852337,-0.151601756894822,-0.16075289107694,-0.325205048424081,0.0693030909698456,-0.798150753750749,-0.489215546073635,-0.100597338863675,0.808536726166606,0.605190410510591,-0.400117569510856,-0.937053038068075,-0.0275002625057119,0.145979266992306,-0.0806245355828711,0.0909336449179713,-0.0340464720826018
72.965,-0.357621918284996,-0.0181896205987757,0.884520840451406,-0.0667574939700165,-0.0334192208660707,0.0142803844064474,-0.991116395342621,-0.0398093639292885,-0.138687267998869,-0.172677107422441,-0.33463563781963,0.0733359925954158,-0.81181455082802,-0.499022126211686,-0.112109008761417,0.802402586461717,0.692224972370589,-0.358844171861928,-0.919563637861391,-0.0283409063612814,0.150129027208928,-0.120777560709103,0.143432649177298,-0.0161908786131998
72.97,-0.361097528579993,-0.0228740790292425,0.882762373615683,-0.0478272863497603,-0.0258376526819972,0.0248571407677951,-0.981434182268597,-0.0201773869170614,-0.139838977225126,-0.188432447851,-0.343124973192509,0.0681541157862975,-0.819856595534047,-0.506332132498297,-0.11256511020748,0.797994951284033,0.753564198588996,-0.270765175885221,-0.893616120196169,-0.0313147311931062,0.155026081552755,-0.176232654306134,0.202570718382316,0.000827464146056573
72.975,-0.36442144825923,-0.0151067782086418,0.883094148430786,-0.0327604134025256,-0.0137295698923843,0.0374159196306864,-0.973324822551427,0.00507144840891743,-0.139611907307602,-0.212875897225738,-0.344463101403846,0.0527426667113933,-0.831649611325149,-0.498897551232289,-0.110892072706904,0.803759568367291,0.831395993556779,-0.160980250065442,-0.882554043865107,-0.028094315336686,0.15985002075032,-0.232144206466739,0.226908435941483,0.0184135139404257
72.98,-0.364147877217268,-0.00286696410787185,0.881415338551688,-0.0290308682765989,0.00136485756960479,0.045389900647522,-0.969562689394556,0.0181162363249288,-0.136131143126586,-0.244590540353973,-0.342087265393641,0.0428525549388733,-0.858020775242873,-0.47644650237123,-0.100580237929626,0.799750327781231,0.8972330627081,-0.0508146689645438,-0.871950114661624,-0.0234146133250958,0.163878361932229,-0.283578154109552,0.253803997106596,0.0331100373888561
72.985,-0.358863203288488,-0.00197989078814726,0.888025227909607,-0.0191123183297229,0.00193355169249944,0.0518718487461889,-0.962329643191793,0.0252933666706755,-0.141461544043682,-0.288798446686766,-0.354042330929299,0.0313146304005661,-0.885243299475854,-0.452847967362953,-0.091087785627454,0.784123068283584,0.959852624744448,0.0415648674168712,-0.868837743459598,-0.0183735553677139,0.166967726718419,-0.33787475198203,0.266185606362001,0.0457404418681326
72.99,-0.362517810226632,-0.00672377334915931,0.886988150099562,-0.0215967433322294,-0.00515208662680651,0.0475457964731915,-0.968319995128063,0.0304315059409101,-0.1404980926362,-0.326782580560862,-0.354886159691511,0.0291822287894214,-0.909880461969951,-0.421440934121208,-0.0782521937994392,0.758245642973824,1.01486231127269,0.108052685592192,-0.864428226316553,-0.0172416529217272,0.177458521015008,-0.378947388849712,0.265740103638238,0.057793346158153
72.995,-0.361062681550338,-0.00692365360286542,0.888866081949279,-0.0211430147236634,-0.000316769693587795,0.0509312227368355,-0.971170759413871,0.0310220056173574,-0.144810054905379,-0.361367683047616,-0.35519565452934,0.0320909162286392,-0.927582060165305,-0.392942836398518,-0.0731073053414698,0.707073630906754,1.07276934833426,0.167269996260741,-0.862214513814277,-0.0153657564554335,0.180638638180848,-0.417696405392647,0.258093538365489,0.0731937306247885
73,-0.36371353300606,-0.00658468301412317,0.881988157036257,-0.0186311838064334,0.00328695459447689,0.0494074299593265,-0.977109943615325,0.0217631324092914,-0.146054603491254,-0.379049457807795,-0.359846689005152,0.0329220015824185,-0.932810201217879,-0.370232151989913,-0.0721684126340928,0.618664814999581,1.10988553490354,0.220257263318074,-0.866804261120257,-0.011651441328437,0.182634683651832,-0.446872400458447,0.25395242933724,0.0798992243127373
73.005,-0.361977883283284,0.00621232795172873,0.873363540549507,-0.0227176736233467,0.00333864424236905,0.0474321974680645,-0.987387896670145,0.00983184512854735,-0.14319867482331,-0.374369093873171,-0.361342787742615,0.0319566156736384,-0.931130967095647,-0.356340466605302,-0.0778866896238666,0.524935760853021,1.11159116177433,0.27277005887969,-0.875262483506946,0.000672446119787606,0.185154325926898,-0.472007542967392,0.246212784771035,0.0834899613926668
73.01,-0.354084809099639,0.0215188412597595,0.882819020748141,-0.0232419004941836,0.00424867001262695,0.056843074224801,-0.998373896546269,-0.00129916651808155,-0.12828495754274,-0.350185411852652,-0.354436262742416,0.0319912884829688,-0.919376196139547,-0.349458913224977,-0.0913569232435468,0.418445244919156,1.07089258631154,0.330515225382984,-0.882790325163286,-0.000421150769211774,0.184472932188788,-0.489019602002466,0.235573617929426,0.0880211969059647
73.015,-0.351919467324933,0.00780777111972909,0.884273889640443,-0.0435803564904505,0.0193592708222055,0.0668907421379328,-0.995395462030216,-0.0125087217434108,-0.12001569231081,-0.320738178259444,-0.347220425737687,0.0420682117633134,-0.906192212510049,-0.342487310068609,-0.11198239754249,0.281285663473802,0.970177919223602,0.423538436382167,-0.894622053370525,0.00655957610753087,0.189394805773,-0.496657249791636,0.224573474579158,0.0897333368243359
73.02,-0.353449291927976,-0.000445016601677594,0.883949201424416,-0.0321761940976239,-0.000928604441366651,0.0553092693456946,-0.994080391250979,-0.00619744197911499,-0.120058770416072,-0.280486679895656,-0.344009145615243,0.0446197903740788,-0.892530285060626,-0.343226057308936,-0.133738756500354,0.104485648081932,0.790293169651883,0.555024475952697,-0.912758164919856,0.00587117300213945,0.18827495852525,-0.494423844583371,0.206034934349371,0.0853763264305938
73.025,-0.354944474442995,-0.00237294556260021,0.883405306306207,-0.0240878016786152,0.00555830189090063,0.0508559253966169,-0.986122345566431,0.0145538733859409,-0.116594533706913,-0.236009814300192,-0.336734027227697,0.0388055911324311,-0.891769961672402,-0.342451857974255,-0.145923666972255,-0.0433365619722708,0.599373717279921,0.66160699711439,-0.928309644870658,0.00611793312433605,0.185419480447583,-0.492050677537918,0.182799903338766,0.0870657387529492
73.03,-0.356632825356589,0.000708813857753442,0.882122803375692,-0.0207724738866091,0.0133725099947222,0.0450543424756502,-0.977637687977469,0.0278617115361831,-0.112759487999045,-0.178999693102067,-0.325431717137799,0.0358139835298061,-0.897456140383276,-0.339052568096991,-0.14795737329495,-0.139457730497626,0.433942590076407,0.727715372979072,-0.933561527352988,0.00781700321680081,0.185626178415228,-0.488904090067292,0.164807009346336,0.0865277945995331
73.035,-0.36048883174732,-0.000396631527395233,0.88417255709816,-0.0126259645069038,0.0129180267457351,0.0370496898527753,-0.965532883194305,0.0152227395717509,-0.113032255610029,-0.127852017977576,-0.320158615137971,0.0281354925945594,-0.907674301828087,-0.330001481227817,-0.135394214220776,-0.205158324319457,0.255132752433935,0.727808905769071,-0.938175397823152,-0.00311393949140219,0.180056938764486,-0.484476125416323,0.153864951170424,0.0901932051942614
73.04,-0.360839565684457,0.000142550141245547,0.886358031886053,0.00376638859703777,0.00606052592956105,0.0292723852507885,-0.961683221322976,-0.00548774862742045,-0.11445677336789,-0.072997462747391,-0.315669205847294,0.0310161815736682,-0.921059361032052,-0.318968190284609,-0.109186030267117,-0.238956620756299,0.0813032336753638,0.603679216818954,-0.939192030493733,-0.00936841185432123,0.181157667629675,-0.478969936096101,0.148317880205232,0.0963736322677459
73.045,-0.358593409581403,-0.00819802118269213,0.881878993369193,0.0168097324045323,0.00887634672259906,0.0266062020505127,-0.958926948649236,-0.0102727831542769,-0.114211359808644,-0.0149858406058375,-0.308022288465404,0.0333705954253674,-0.92566328238985,-0.330710654216655,-0.0862679924315107,-0.230835150908563,-0.034879745182988,0.379450041701868,-0.938096590863678,-0.016536265003665,0.181624516999864,-0.473888645246959,0.155817168947212,0.102814597558467
73.05,-0.354047625967299,-0.00551432492515099,0.88545738375644,0.0250435708901543,0.00405714942688574,0.0228322464972734,-0.961368503120784,-0.00961885631920351,-0.103476683508335,0.0369770318440188,-0.298404040896296,0.0399350347944583,-0.934949922178795,-0.339582819287883,-0.0689562074576153,-0.217418974508793,-0.125892189576025,0.0917920941398024,-0.938758463017945,-0.0239132772698318,0.177831289410535,-0.4586338384824,0.185574969949662,0.109436499724218
73.055,-0.336628235497968,0.00382760833909425,0.890578331293547,0.033160200597276,0.00496912936569978,0.0228322464972734,-0.977601597927736,-0.0158021226789337,-0.0851834285029255,0.0850692574687738,-0.287496221557275,0.0515814036367457,-0.941648694936307,-0.360066209609894,-0.0576561818092854,-0.198452823980294,-0.200179580579528,-0.235200418740495,-0.947421958579821,-0.0324541628522485,0.172448362245089,-0.441624888913967,0.216159061240777,0.117980857262061
73.06,-0.333345135845072,-0.00354884598938773,0.897535864580096,0.0387875931539847,0.0139822735839084,0.0213075855502311,-0.991079798779786,-0.012823274908975,-0.0843679740676196,0.100091555986326,-0.283880940433398,0.0612300415615546,-0.94316974121554,-0.387630962380352,-0.0454809853142913,-0.179326941557497,-0.266716843284104,-0.539011390788535,-0.957282247028011,-0.0456089003312882,0.167169450222229,-0.422437489819666,0.255470944474985,0.123842879702969
73.065,-0.345087788562808,-0.000170946753905601,0.885153966796403,0.0387800501204551,0.0117231665746361,0.0158329287102266,-1.00228788880949,-0.00325819997728904,-0.0924701250185478,0.127359929351949,-0.279265339729963,0.057356645426244,-0.938683151888398,-0.424357908341294,-0.0342318483153682,-0.14903625178634,-0.306400121462921,-0.775784044755702,-0.967468530557557,-0.056251689275337,0.16535462099381,-0.394061607342194,0.284818395182601,0.122752612555386
73.07,-0.354429773944399,0.0218984682707405,0.879578654261494,0.0454578594132083,0.0175991423145191,0.0121579500885666,-1.01204395986308,0.0187912669302652,-0.0916396801836127,0.161980076219854,-0.266856945477199,0.0532864393457222,-0.927188879545794,-0.456936821968256,-0.0316186101025387,-0.113522059432726,-0.333322552452851,-0.921956485989615,-0.975785486617689,-0.0647054362504643,0.158431864483587,-0.370391740247599,0.310078818700394,0.114995636961972
73.075,-0.355916349567898,0.0326275264111493,0.880549649471745,0.043557911551267,0.00164343167095022,0.00590122614118993,-1.01508667739166,0.02772905307752,-0.0846937867523529,0.177818671066029,-0.262390047410073,0.0614922159328806,-0.920395337896246,-0.470868216863619,-0.0289937693502775,-0.127528454162844,-0.352251446382297,-0.973091395573993,-0.987508654594429,-0.0845228572686637,0.145714296897245,-0.342349429043053,0.330361410724678,0.0962993467705429
73.08,-0.347110806875751,0.0216004533902054,0.883323696013827,0.023242434946874,0.00311170338045446,0.0142464782166688,-0.998224230449396,0.0383097347362313,-0.0795797643148232,0.191112327831142,-0.263577184580871,0.0675780400633812,-0.900173586516337,-0.481766045124373,-0.0208637531486755,-0.14078768055782,-0.366555354848457,-0.96952592435082,-0.995658088887869,-0.0897280305940134,0.141832648299632,-0.321557207676932,0.339324702719088,0.0727227590183517
73.085,-0.355980802331821,-0.000838579219029058,0.887291547970603,0.0229142559472077,0.0126140099018812,0.0124523033320286,-0.987221321437233,0.0492441431019177,-0.073090283592916,0.1628805994253,-0.254856309185949,0.0670097412252939,-0.897361947136279,-0.476829277320974,-0.00441434175572946,-0.148863409250302,-0.359083511830815,-0.938726798551429,-1.01214209707897,-0.106838203297277,0.128918514535816,-0.303973664156368,0.34950319817458,0.0451819559555573
73.09,-0.365697088486112,0.00272871907541036,0.883063395210032,0.0215755136927422,0.00976696711558219,0.0098018599454029,-0.980310069082102,0.056327406901352,-0.076649665637798,0.141131951756429,-0.247169919746511,0.0613863108269225,-0.901308340912242,-0.464361468725784,0.01645914204722,-0.168566887406555,-0.339729112534907,-0.901694243236078,-1.03357608011299,-0.120556298370587,0.11709277486669,-0.296633590432691,0.338354176795362,0.0234536796866168
73.095,-0.371711185657755,0.0111031390434539,0.88188918978952,0.028095306828618,0.00705322091692318,0.00877012653905405,-0.976006817225495,0.0608131146333758,-0.0899548712523927,0.121732953745446,-0.240395039319992,0.0473245001777949,-0.90549252051842,-0.445607473172797,0.0399132455540062,-0.185610379207735,-0.300643401693815,-0.836076353404184,-1.049071841724,-0.12592438843883,0.108583590913129,-0.292444862495484,0.3168462659716,0.0122868809851302
73.1,-0.370134723271168,0.00656989808328172,0.882997482733045,0.0234187621762628,0.0117294696187802,0.00627590950390723,-0.966652327492191,0.053150887767026,-0.0881926775295355,0.120485560370382,-0.237498968418142,0.0378046903543897,-0.904164942316861,-0.432339158491402,0.0644451328965023,-0.185001049871012,-0.246080457541791,-0.754749951970892,-1.06747731599546,-0.136397166840285,0.09741320017411,-0.295674043538824,0.272741333163541,0.0167545986972949
73.105,-0.364822526758175,0.0065282745041924,0.883351726980359,0.0226991850713017,0.00971294327391357,0.000638737951749836,-0.9557120587863,0.0425218556690241,-0.0824962963493435,0.127380457949072,-0.226280491555928,0.0367367595598028,-0.910610728761658,-0.420097226327643,0.0837653696228845,-0.177570437897793,-0.186431638292197,-0.672576748421254,-1.08313326163827,-0.141923125841955,0.0874061791821497,-0.29575574303505,0.211249250191727,0.0340300995439303
73.11,-0.365290455730621,0.00394040126042445,0.886859471400578,0.0197812849575936,0.0135185838221966,0.003047293991381,-0.94996640828274,0.040292203019723,-0.0727325058779616,0.118738914139971,-0.213233308227018,0.0292127804038793,-0.915980013819776,-0.409384998105289,0.0985043001918711,-0.180031568411842,-0.126516097871883,-0.586190941151157,-1.0943585648465,-0.145762729554477,0.0746699735110955,-0.288881148248157,0.131097559869601,0.0674295618720326
73.115,-0.364479734682338,0.0116549745577463,0.885678980907226,0.0267108649048169,0.00788998131645372,0.0013299873625806,-0.961784444496222,0.0402712322398608,-0.0669072117913621,0.117511460859804,-0.205004525605577,0.0194061527438965,-0.923343387570038,-0.402533700103072,0.109648981566811,-0.167564906760827,-0.0896972085390359,-0.522415462498433,-1.09766002098341,-0.144515239235879,0.0770293699269031,-0.279993966388818,0.0834950119135279,0.0856395747341714
73.12,-0.355775870137571,0.0231599336604989,0.885643513279043,0.0253834934024031,0.00854629255652647,0.00464103999296751,-0.97318905414379,0.0549461226994737,-0.0566133864419993,0.113010657613569,-0.194297735237057,0.0151570015703045,-0.937069135802339,-0.398667162037932,0.118447953983172,-0.16100532097743,-0.0459197124061998,-0.446760074825252,-1.10588486193072,-0.139767231556809,0.0665613941762558,-0.262679199247836,0.0318621902873272,0.0997251723912937
73.125,-0.356834694303163,0.018336512036898,0.888587362336037,0.0215495110360556,0.00673548554116714,0.00510639074927539,-0.979779932051941,0.0510580195940974,-0.047176480408659,0.0981984843262208,-0.185418784618378,0.0153370107170134,-0.947892381349777,-0.404683957826767,0.123002233709656,-0.158070791108733,-0.00502790364717377,-0.345637652598837,-1.10503300727944,-0.139598253994219,0.0748405892535096,-0.25042914753706,0.0144515347858391,0.101817498255132
73.13,-0.360771177851672,0.0106329295980288,0.882804914150994,0.0125929104983286,0.0146777664977692,0.000940689668687703,-0.981746057480879,0.0546088178320409,-0.0544179993830896,0.0836983695626259,-0.182596424904179,0.00733603896343851,-0.949725013585072,-0.406356847695981,0.125947617847416,-0.153208055489172,0.0223625214236024,-0.245248266029541,-1.10333158518149,-0.139548027819205,0.0695118705461923,-0.239718122994981,0.0235809929452911,0.095358744584007
73.135,-0.371337793947443,0.0150586920078409,0.880355719605662,0.0106681529173223,0.0157042611908976,-0.00327247159411008,-0.979174211805876,0.0605682517945568,-0.0593087238690937,0.0858310435685697,-0.167714789378996,-0.00498638120052635,-0.950201390001897,-0.419772689777511,0.124922932661391,-0.147792091068522,0.04771672709177,-0.137343146137288,-1.10113318244673,-0.131322868101047,0.0796766993770401,-0.222738924752774,0.0564747805786756,0.083716103695973
73.14,-0.366587470542954,0.0195802810336034,0.881726070573374,0.00860604133143026,0.0162212476822555,-0.00332358671132841,-0.963682230587632,0.0652674235632684,-0.0510826925372085,0.0905044320530454,-0.154880067090484,-0.00677184289793155,-0.948048036454132,-0.435278800554291,0.12442388770034,-0.140812209852946,0.0642815036544132,-0.0566544508997736,-1.09545137749973,-0.120346288260132,0.087478507569411,-0.209883706691362,0.0887823460498812,0.0622494325508095
73.145,-0.363296258455705,0.0178287315513643,0.886422107162992,0.00610480550676584,0.00482113768249489,-0.0083838774097318,-0.957703384635366,0.0626658712042009,-0.0490064970610946,0.0937447834156783,-0.145778837175601,-0.00572363054379821,-0.949620271317561,-0.455521346982312,0.126013402793269,-0.132320275714325,0.0818519734578516,0.00538029226121115,-1.08746912142445,-0.109366117965863,0.0928742758201503,-0.208209592838118,0.114432703436452,0.0380814239880099
73.15,-0.362668210493387,0.0100007913902757,0.891048109004652,0.000439782991437916,0.00379607773846841,-0.00902050192314235,-0.960576644686321,0.0539724955752952,-0.0398479745723992,0.0957922603141023,-0.135092071290643,-0.00352635454350567,-0.950831526385294,-0.468674229897818,0.123392987168755,-0.115723800623985,0.0996467351541629,0.0545084846622883,-1.07856199238062,-0.106036782332091,0.100250081959944,-0.208617568016052,0.124348605485469,0.0194021507598309
73.155,-0.360925845810419,0.00984290131075497,0.885104999761678,0.00137047278018102,0.00520762271615297,-0.0102297287654719,-0.963390449231411,0.0479540363443811,-0.0450866499954713,0.0848882994483052,-0.11324350578491,-0.0144025488714449,-0.963369752558857,-0.467195640063826,0.108741346201135,-0.0868404934609927,0.116261675023042,0.0981139143824857,-1.07490571240349,-0.0927096142424073,0.104752016293879,-0.208617568016052,0.112349595077217,0.000748174216807162
73.16,-0.368362459936326,0.0121035743163337,0.884758253002651,0.00557833256118569,0.00305104316984564,-0.0129127795531556,-0.968101818238956,0.0420920400142225,-0.0572737330379971,0.0822407031993744,-0.104986086810378,-0.0245209922425987,-0.969950056134558,-0.455491561294939,0.103677310323833,-0.0663834331165592,0.120202877249137,0.109983588106244,-1.05866485082175,-0.0891715345442772,0.102652122462792,-0.209822853528765,0.0923103157824787,-0.0194969745820476
73.165,-0.376046297494158,0.00990957514494267,0.885783702177325,-0.00258697851113462,0.00306957850780709,-0.015892933749002,-0.971185305212425,0.0346927249602373,-0.0630797667514324,0.0822738358587808,-0.086664363448219,-0.0324178875373612,-0.970379589985622,-0.428288671886659,0.101973796419896,-0.0342333291092268,0.1288605454107,0.132843110121885,-1.04728715934804,-0.0855084341564829,0.109021646356254,-0.210053071351469,0.0672166364040536,-0.0298692075592721
73.17,-0.372981457897311,0.0104841079617107,0.883328848165397,-0.0066527173204428,0.00080789512962469,-0.0131374725446699,-0.967305163056133,0.0305563744471258,-0.0646279488851247,0.099650172964408,-0.0729181912061403,-0.0368593787218422,-0.963611271912164,-0.407799104077363,0.101186146525735,0.0148073427197229,0.152852502287539,0.156044458621935,-1.03294204991019,-0.0803099231130513,0.111985488382299,-0.211436156066098,0.0435644041766008,-0.0455981369804504
73.175,-0.375347420383405,0.0132743296936547,0.886152061920843,-0.0136139168158068,0.013364291446917,-0.00331620437021599,-0.967033078417245,0.0327154353978576,-0.061044730748091,0.120221025345305,-0.0525104348482901,-0.0417251643829285,-0.946326961814406,-0.38304754627555,0.0920115864641877,0.0806905110302618,0.185490392490647,0.17758624989635,-1.02111343963604,-0.0774048767635978,0.121277676568573,-0.208710203097356,0.0242200142121302,-0.060199644169677
73.18,-0.374631760554819,0.0136185498091398,0.884511749871702,-0.0109431413988631,0.00352383380193861,-0.00438531763372611,-0.968488591886957,0.0443639619442708,-0.0562588786090647,0.125714209787497,-0.0303719973199541,-0.0473135171242084,-0.929326371336495,-0.366653066157087,0.0820211769253158,0.143016956984977,0.21285748725054,0.182581535063828,-1.01185401781676,-0.0724334305693415,0.128756406745229,-0.204387328779905,-0.000401778875845006,-0.0788578294896624
73.185,-0.372426116153734,0.0164149794941252,0.88240782094725,-0.0125334954264233,0.00587152949817092,-0.0020370103471615,-0.972011303767757,0.0564989929240581,-0.0483484026557085,0.122376005277648,-0.0089018760289095,-0.0487513045467841,-0.917650260865845,-0.355483332064571,0.0686151471652647,0.188076587016881,0.229042579983388,0.1788267756841,-1.00203992808136,-0.0678294844488998,0.135647020760547,-0.2058223118523,-0.0192729220170484,-0.0958171625327018
73.19,-0.359837247424485,0.0262193134940953,0.881165015246141,-0.0113850533713915,-0.00525984806236884,-0.00803082883276162,-0.971519533177089,0.0635315627509141,-0.0451883714429606,0.106619129903804,0.00179991763425875,-0.0548908406374312,-0.916851968466299,-0.344961616945583,0.0592182725606469,0.225885487717296,0.247934851547743,0.157242633335122,-0.996910913727023,-0.0646316794918936,0.135972072185614,-0.209175606653175,-0.0307954185442893,-0.109395733165293
73.195,-0.358017158553531,0.0233375411016933,0.880747175272603,-0.0212067388138751,-0.00589752006365079,-0.00905588756542693,-0.969294609961342,0.0729760470548975,-0.0409782659026663,0.0852171777162682,0.0114281375672457,-0.0645190675522921,-0.919761049034451,-0.341285663672169,0.0518579688331631,0.251988503645553,0.259705875146665,0.110601050997075,-0.994595011857972,-0.0633096978218095,0.13793634675083,-0.219551460402414,-0.0374212793793307,-0.123526969777874
73.2,-0.360650128085966,0.0161961150332167,0.886988569872048,-0.0291416142556505,-0.00919377062950891,-0.0122887995776653,-0.980863437506008,0.0683164818687758,-0.0546489315838832,0.0546170546213879,0.0172628355451696,-0.0699405084986399,-0.933674190747798,-0.339002165601742,0.042918822186508,0.260582696061726,0.281064687132335,0.100649759633164,-0.988618871173214,-0.0643048344573863,0.136848075024148,-0.229691048779644,-0.044553626323622,-0.129788303438265
73.205,-0.366042847881702,0.00755912471681338,0.885605558910872,-0.0311565458259733,-0.00777305836150709,-0.0163384579023618,-0.971794692850773,0.0584980873281528,-0.0621274450913515,0.0326031310296254,0.0273715596552557,-0.0778752953581776,-0.948893833254324,-0.344637679514411,0.0290726626462414,0.256474033244379,0.29137990119069,0.0670134821733755,-0.982089606044241,-0.0635108966192912,0.142600773835707,-0.235760272346869,-0.041414464042348,-0.12914930566691
73.21,-0.366840538874399,0.0100322946977124,0.885577889652125,-0.0349041064245333,-0.00455542874679518,-0.0138185899704695,-0.978231704204349,0.0455451548794204,-0.0712048999008232,0.0202504159264475,0.0342457567653793,-0.0844828488919845,-0.958015515674243,-0.352095759851627,0.0133668080977497,0.226814390075697,0.28234829732098,0.0579818783036653,-0.974224029237126,-0.0638662521270583,0.140222723200679,-0.243872802894994,-0.0428374781938222,-0.118117541981387
73.215,-0.361184005938881,0.0101746827522403,0.885267360871671,-0.031767725944519,-0.000349111910122875,-0.0155158005103884,-0.97825358125856,0.0353655851988769,-0.0766920730215404,0.0164764883339886,0.0422714421124555,-0.0851337760686874,-0.957843699062488,-0.364523061722097,0.00105673905849371,0.201400432369323,0.266220415703819,0.0543155294599154,-0.962444219960139,-0.0658191015313482,0.136158640429695,-0.251197444465329,-0.0533708695368659,-0.0958267019390972
73.22,-0.367430807231542,0.0143410419662081,0.885068349520113,-0.0393646292186267,-0.011540930168866,-0.0216883408657144,-0.987368493812493,0.0198600032028079,-0.0849333547611258,0.0174050118481575,0.0527459287346584,-0.0914983770773695,-0.9487247124396,-0.373080241158869,-0.0207399620456161,0.164187448639271,0.243527183912297,0.0661049957165621,-0.955108976155928,-0.0678217164916534,0.137444790389955,-0.251611198110549,-0.0643792981526998,-0.0672054728154045
73.225,-0.367876774040483,0.0126499865983834,0.879021546875985,-0.0393075588208044,-0.0177606177674595,-0.0223704520612955,-0.996289020940641,0.0181821465449769,-0.0887649258363157,0.0267186876626367,0.054096197743272,-0.0888198086483794,-0.935004747651195,-0.382427775948229,-0.042162577936637,0.124098146510843,0.2181546696699,0.0739808487640714,-0.946417172024654,-0.0643305359674731,0.141370967982542,-0.238430842478336,-0.0820277131446659,-0.0366268646227662
73.23,-0.346774110974427,0.0353112331363538,0.879730379215408,-0.0450673605269909,-0.0137365933060413,-0.0227874632129908,-0.997782458801689,0.023842473491294,-0.0789868682825376,0.0531566956702377,0.0580040248347032,-0.0894093611122794,-0.916182194799167,-0.386428818628199,-0.0613225946099212,0.0556319573334971,0.178684023206158,0.116437133538692,-0.944401886690944,-0.0716264025935296,0.138660282217675,-0.234277507226533,-0.0850951560207529,-0.00757597159818326
73.235,-0.335698755836713,0.0424336503791962,0.893927924516593,-0.048253284230098,-0.0196243372008914,-0.0253240989064991,-1.00036910578341,0.0265012527823377,-0.0674081292470724,0.0673505672413713,0.0604186147600611,-0.0817454856387518,-0.894500684940357,-0.395558484997193,-0.0755039349212239,-0.0104209851934036,0.136332802091191,0.14288074325799,-0.937340713665363,-0.0665615665843895,0.142113667509198,-0.221144281351627,-0.0812049787551317,0.016157682704109
73.24,-0.345660132105161,0.0183319741104638,0.891717886491032,-0.0669841279835557,-0.0192392103298737,-0.0260699504106071,-1.00070105076026,0.0313776032599699,-0.0738859894879347,0.0705456221135657,0.0552550405263901,-0.0784535204604201,-0.880744653712688,-0.404527889320386,-0.0867629047544042,-0.0691574663267398,0.101328136513278,0.155442292081091,-0.937152851929374,-0.067940169019814,0.14551091625867,-0.209817321349262,-0.0749553870626119,0.03591093428977
73.245,-0.366288781632262,0.0096126328831982,0.879405184976845,-0.0623083655179228,-0.0088519227666223,-0.0363327984916944,-0.992549719484149,0.0425946612951504,-0.0974238723155828,0.0748436369975202,0.054251141938712,-0.0859198791918242,-0.867150069069357,-0.417190942110713,-0.0891752126497982,-0.126725265943818,0.0785552238286756,0.158054363338938,-0.937167142479965,-0.069488726913029,0.148820898318051,-0.192198512954077,-0.0503535697882976,0.0530042535638939
73.25,-0.372375676612423,0.0100878344007843,0.881937707922618,-0.0552497743658722,-0.00598126148212941,-0.0370307862758636,-0.986938101804643,0.0430629028721071,-0.104368969441347,0.0920419279352357,0.0547539779779306,-0.0875039745213594,-0.858964351823283,-0.434004712947477,-0.0870866231579335,-0.165863418907239,0.0584636638534567,0.136488679864351,-0.94704930209651,-0.0723031003645632,0.149500598357177,-0.175778550688471,-0.0253211343779287,0.0642438331686568
73.255,-0.36767275786452,0.0108479735464152,0.88177997044698,-0.0592910530936096,-0.00815479643642902,-0.0332952970720582,-0.973007791845053,0.0280984434855329,-0.103049601678636,0.104700168224902,0.0564767345786095,-0.0818258579350239,-0.859268033356718,-0.45260183737051,-0.0781056482080466,-0.198232352801716,0.0390184782682028,0.0958716592516922,-0.954058046104822,-0.0720609020579128,0.154362843052457,-0.162659058856652,0.00480086834309487,0.0759036872066013
73.26,-0.366658783514214,-0.0026388857407592,0.887670084935628,-0.0530228339591762,-0.0138580170396428,-0.041269160249612,-0.971710061737064,0.0177371193755433,-0.107238943478355,0.104681538402328,0.0531331849981683,-0.075788933752555,-0.862399075239681,-0.464387018142796,-0.0694697655095478,-0.22541595198314,0.024000606879676,0.0604451859909373,-0.966985204842142,-0.071974266500032,0.152138116393922,-0.142633654276244,0.0211955798001466,0.0802456764561857
73.265,-0.371232109849852,-0.00337819379108826,0.887268315825594,-0.0520682343169861,-0.0163944583380414,-0.040227570942669,-0.986723202441034,0.0111789437945053,-0.105675713321539,0.0975523256421269,0.0532269664764584,-0.0786221158087343,-0.864198705964597,-0.479259983001491,-0.0544343476932495,-0.243500689312591,0.00399937686624299,0.0146589205685779,-0.980322637968677,-0.0775440016570721,0.150816234401115,-0.122207951034803,0.0561393245125772,0.0889711827039719
73.27,-0.367569578137462,-0.000215463904324078,0.880690722918471,-0.0485863310024349,-0.0119823445032066,-0.0367456708774178,-0.991363887560102,0.00667716634113122,-0.108820306176325,0.0902506705265386,0.0456660232026024,-0.0748416441718063,-0.861900365784855,-0.483811385680411,-0.0401635964147337,-0.234160168475656,-0.0112693315392469,-0.0139860338513293,-0.987802714838091,-0.0791955090384064,0.143414819890322,-0.105068304152707,0.0672392856534276,0.0900946225357194
73.275,-0.373623238116523,0.00425230170008712,0.883625206126713,-0.0483956541645192,-0.00635446468230834,-0.0358090922236443,-0.991070133404549,0.00343872244848645,-0.11126894368342,0.0870547329725982,0.0433600090991703,-0.0741517180642483,-0.863071115433799,-0.482017468357252,-0.0252639959520026,-0.223606715253813,-0.0147718481856611,-0.0422365830567144,-0.995948199254771,-0.0850585198050864,0.142926186696267,-0.0836203084591014,0.0659244597547242,0.0970554292791077
73.28,-0.373939507831435,-0.00588388780688217,0.886214460710004,-0.050489207994648,-0.008617864855725,-0.0346209007748717,-0.980607135916838,-0.0028457176657161,-0.116235577299362,0.0866695615318925,0.048452672627321,-0.0767480189268765,-0.860851527321375,-0.474226727064246,-0.0139090460338347,-0.202400142574985,-0.0174334126987142,-0.0627097097336136,-1.00622956809308,-0.0923606727301726,0.145503027096979,-0.0657802947138066,0.0707264121682857,0.101690068096422
73.285,-0.375785643819752,-0.00568648341151065,0.882369701974976,-0.0508742782634275,-0.00669251292473341,-0.0299412082159866,-0.972515299022616,-0.00283668632761553,-0.104088050486715,0.0844525784601019,0.0520212922060858,-0.0745698634350668,-0.855424404936069,-0.458374759510555,-0.00422691051370697,-0.166003180914894,-0.0197373469560804,-0.0854569631017755,-1.0192478374824,-0.0969077016147667,0.142757084084018,-0.0480436000831126,0.072861165023655,0.106043364197407
73.29,-0.373368714584395,0.00400350815549633,0.883379402301713,-0.0507045695959386,-0.0112096099584159,-0.0284812377525549,-0.971631898899796,0.00393630173219394,-0.0989569394722814,0.0673052113165769,0.0512899839404486,-0.0732721150598443,-0.8545467220369,-0.441377525012292,0.00393924098010053,-0.135069287250649,-0.0143038298583702,-0.109364702797429,-1.02414976671628,-0.0993369992667436,0.140202306391636,-0.0314024475497025,0.0663920715451241,0.110726600321583
73.295,-0.370803934223748,0.00827836487609181,0.884577669863291,-0.0520736025100033,-0.00650852748049014,-0.0294047832796481,-0.971296672597771,0.00949839184698597,-0.104508678467689,0.0568210929632187,0.0523588681901436,-0.0680300518870354,-0.861851832423103,-0.423600664315373,0.0104856422447672,-0.113313562225979,-0.00612247656035462,-0.126974653305053,-1.02950444323045,-0.10413281839657,0.136728870664392,-0.0159914977077144,0.0593440281866228,0.111542650017467
73.3,-0.370574109934516,0.00864722903697562,0.883253173661507,-0.051686186334183,-0.010921134495668,-0.0267782304250999,-0.968652112080052,0.0200109250018035,-0.107799415667296,0.0648376116168419,0.0556750827132471,-0.0712366642374107,-0.867682003383764,-0.414456506816979,0.0158441213052594,-0.0942572758875106,0.0058009405877156,-0.135593155689144,-1.03568048641103,-0.111627652641799,0.137601650153611,-0.00598418789752682,0.0544385744120155,0.110961690545082
73.305,-0.365777011018242,0.00678743219459823,0.881005267315144,-0.0570273573466439,-0.0142632685601711,-0.0260355342179537,-0.971418878990272,0.0314631112746187,-0.0929918474761871,0.0644296218027126,0.0617068225031097,-0.0664650535697739,-0.873545411603267,-0.40773857673134,0.0220163262983197,-0.0798757951390371,0.0245344231071807,-0.136055126786232,-1.0389589692654,-0.114715506514818,0.136994931379735,-0.00129550808752944,0.0579638957520209,0.109250298912833
73.31,-0.372360870698587,0.00674491620307558,0.882513372756386,-0.0565480144611939,-0.0163602566429034,-0.0218415580524891,-0.979161635041508,0.0285583454193029,-0.078396680258403,0.0449159567950893,0.0578023667973157,-0.0623634555314515,-0.881699040208782,-0.400193737257415,0.0272808338195767,-0.069940496872839,0.0443570675677725,-0.127242874296454,-1.0381400354998,-0.12034426134505,0.140893344520717,1.75787838076572e-05,0.0590619072318077,0.0999945685557417
73.315,-0.367484960147261,0.0111738334093454,0.884524827964053,-0.0587507337226417,-0.0182455461962218,-0.01891682869798,-0.97415946384294,0.0364194382765387,-0.0787391993229755,-0.00504531037799652,0.0505709207940963,-0.0656445655826037,-0.893457156584244,-0.400550601885464,0.0301726711086851,-0.04852535489237,0.0537945928203262,-0.113461486969686,-1.04083848025902,-0.12274927374307,0.14412081459882,0.00029219314455986,0.0545850706697347,0.0975230485200882
73.32,-0.366645034286177,0.00701542474651935,0.885454647835245,-0.0650606894171337,-0.0256196366251148,-0.0243143818528727,-0.979848018257768,0.0360880970013249,-0.0939319563398442,-0.0456580539472849,0.0585837815669657,-0.0680300518870354,-0.895516635673007,-0.398650735829658,0.0360832523298129,-0.0477498764696653,0.0719162664801097,-0.096567437336671,-1.03914798004119,-0.126824742461977,0.146505522195123,0.00425087864749656,0.053247036591699,0.0878440481954039
73.325,-0.367061886807322,0.00749083344345514,0.883710777362112,-0.0759544580151015,-0.0250527874659127,-0.026749246888825,-0.979613230418697,0.0431555713521288,-0.0914983137218886,-0.0836838301244414,0.0563165092902888,-0.0694119712275755,-0.903639904434249,-0.400316809159111,0.0395439725083842,-0.0205263640470274,0.0880744282020474,-0.0780915430108851,-1.03720624250678,-0.127398761286023,0.153279603914702,0.00577204761673355,0.0535820490343437,0.0721162212017097
73.33,-0.369391685644043,0.0131005706155837,0.887574324085656,-0.0813848875227252,-0.0293341874893208,-0.0299059110093208,-0.980260782118286,0.0422906858726566,-0.0790309662435728,-0.126036586102971,0.0543937305197962,-0.071334749998068,-0.905170258576682,-0.407689394261162,0.0424430683399309,0.00384062835676274,0.102575279241453,-0.0623375360463843,-1.03508135941409,-0.130674972059932,0.153082981238332,0.00942688135154567,0.0499272129925832,0.0565066051646374
73.335,-0.36431801768753,0.0174086566448951,0.883828409259771,-0.0883297837477863,-0.0303168138798162,-0.0330226702749921,-0.982480198683369,0.0493093109429934,-0.0721691855036926,-0.175658027186736,0.0540333464741707,-0.0675831371312751,-0.905992445644604,-0.411842180490097,0.0418047237959408,0.016825847610311,0.113500699765882,-0.0355548040779389,-1.03195836520643,-0.129987742206365,0.152954924259307,0.00205532513672575,0.0582219817704606,0.0375489619456825
73.34,-0.357948446797381,0.0235000778188719,0.883668213030052,-0.0961153459925374,-0.0359186129557096,-0.0345203669928663,-0.98232105027489,0.0489062471901806,-0.0585971814241488,-0.254769530714327,0.0529235239383331,-0.0634788902273033,-0.908256654989109,-0.418136232741812,0.0403155154912661,0.0356864768183128,0.124768835588748,-0.00634932251961231,-1.03446654060808,-0.130414855026053,0.158950566531052,-0.0121347323336223,0.0686358928054739,0.0215680062494656
73.345,-0.349064802228045,0.0305230250437359,0.891379528745954,-0.109986354945991,-0.0392423001654953,-0.0408876412737989,-0.985050761258866,0.0603441261949024,-0.0798532913901594,-0.33218565514271,0.0446246692054232,-0.0575108087263071,-0.909590105710521,-0.424385614750175,0.0384409023440151,0.0457212376720608,0.136226711669073,0.0302586451043121,-1.02733969722366,-0.135243515832977,0.148045341554912,-0.0216763605498019,0.0749292963037914,0.00350012476563518
73.35,-0.34520169167177,0.0403693544289723,0.886042127019119,-0.136347081071129,-0.0553467851126345,-0.0538317766091387,-0.98584483389222,0.077490110954266,-0.0812440999116608,-0.370300216111666,0.0341868621638858,-0.0628439033496739,-0.900617495213861,-0.423176266233635,0.0345155412167062,0.0568644340128977,0.14522309782467,0.0742274181999638,-1.02174880876076,-0.138153385883943,0.158067805793368,-0.0392812372751752,0.100976035779628,-0.0103968174698377
73.355,-0.343203990463985,0.034529358360864,0.88951757565309,-0.160323609794511,-0.0484938049081863,-0.0512626451536232,-0.995260463401939,0.0734532806918407,-0.0889201075254016,-0.408338850374512,0.0300437974866795,-0.0594781897962093,-0.893559833667053,-0.422512207383223,0.0342767572271995,0.0700037794596473,0.161477644164652,0.107276851458751,-1.01042176951818,-0.134076524715939,0.149889820606794,-0.0575667183523005,0.115315817232257,-0.0257963023842897
73.36,-0.350980515353169,0.02286642446195,0.886371457578802,-0.167852970645349,-0.0368542515540342,-0.0518720683803032,-0.98732153788676,0.0617323545882909,-0.10402522084353,-0.420927556731973,0.025505113189941,-0.0599074524288124,-0.8851625029911,-0.420063419107349,0.0273699052912465,0.0895231453470616,0.171547256953755,0.137585104476786,-0.999803039799707,-0.13178461248922,0.144846024978085,-0.0729512857965886,0.12638437316373,-0.0360294911620438
