Header,foot_Accel_X,foot_Accel_Y,foot_Accel_Z,foot_Gyro_X,foot_Gyro_Y,foot_Gyro_Z,shank_Accel_X,shank_Accel_Y,shank_Accel_Z,shank_Gyro_X,shank_Gyro_Y,shank_Gyro_Z,thigh_Accel_X,thigh_Accel_Y,thigh_Accel_Z,thigh_Gyro_X,thigh_Gyro_Y,thigh_Gyro_Z,trunk_Accel_X,trunk_Accel_Y,trunk_Accel_Z,trunk_Gyro_X,trunk_Gyro_Y,trunk_Gyro_Z
37.355,-0.607150780929985,0.175005836193227,0.77538735866704,0.1934793847379,0.272052772526484,-0.148223877145201,-0.971012608511829,0.0455351734109815,-0.26936504068051,0.495546830132567,0.763027535250729,-0.214221992669302,-0.849528846386669,-0.219950229654596,-0.169271405877855,-1.19649373149103,0.249875730475068,-0.667035539606623,-0.965584247931954,-0.0759460916761571,0.368302793770694,1.4579751016329,1.14248566216377,-0.291688006990998
37.36,-0.597803817277504,0.160372267677466,0.776639145212256,0.238288388312505,0.289039181034767,-0.151838482371841,-0.978159688555389,0.0308835083602991,-0.266803948943011,0.60960429433381,0.760062760665105,-0.196492631444546,-0.886487510925206,-0.212879995328817,-0.132359719420029,-1.63251169399071,0.134050102020366,-0.688616656910099,-1.05125640262628,-0.12766292352083,0.36346390282499,1.497646637505,1.04226787296943,-0.744026665080561
37.365,-0.598703010515732,0.186880777640779,0.775446885499092,0.251836095337684,0.319045788429653,-0.131991424237157,-0.983186327108983,0.023588416125104,-0.260309054686993,0.709382460114213,0.787338293305021,-0.183722869966021,-1.09601258046941,-0.131621921569142,-0.0634352519021218,-1.80791376688047,0.0453740575388555,-0.00746697068851737,-0.925756096712802,-0.0401943512393453,0.429605751642961,1.77012064141307,0.914980545868123,-0.845633866383057
37.37,-0.59529004362416,0.197266368419888,0.778845558346023,0.278717966366515,0.332839082747984,-0.121181194061223,-0.976660249491326,0.0530323075813041,-0.239297994247153,0.80912936297491,0.811114618323946,-0.173724885611416,-0.951780809721356,-0.146430277591472,0.000845134306263191,-1.48271123201692,0.268585005709893,0.187424213188425,-0.937202809089567,-0.00612492209822907,0.472879963448124,1.77379118247872,0.61953881762527,-0.79993858548201
37.375,-0.590128220217068,0.185053901658701,0.779119704165744,0.282120946311857,0.361659735261569,-0.113194849767195,-0.971218455922165,0.0889561674801456,-0.226976609706005,0.866848815919787,0.83243631729313,-0.168693255234334,-0.838179474892234,-0.338756099080568,0.0298784069636158,-1.28344876796881,0.497925364732572,-0.366894825185257,-1.0223639303481,0.0268535613640009,0.451846445351972,1.66979535619086,0.171476479476495,-0.715362766249128
37.38,-0.591447075061208,0.200554462133521,0.770979155122348,0.287516006251584,0.385108090445487,-0.0932179598487519,-0.954125221643897,0.127622634318694,-0.232457361202971,0.895315064199926,0.846951721979634,-0.167124488234421,-0.842779234880838,-0.39973091997211,0.0905377713441381,-1.58214861559366,0.565688541673089,-0.67177680233333,-1.08091742413522,0.0646941277620065,0.415904403756085,1.33813816685205,-0.16097290009731,-0.574948275679714
37.385,-0.60120882438065,0.234719709516712,0.756315705919066,0.280345793438468,0.414295314438713,-0.0826702894656029,-0.95360233482642,0.131823566539071,-0.23129350337745,0.891481288420958,0.88597887329869,-0.173081551609156,-0.923417851752636,-0.395586686666742,0.149905830015478,-1.76760104723662,0.531509829711425,-0.674457626585275,-0.958302584677089,0.0262457239088266,0.384829536662644,0.902472522389281,-0.299156302808693,-0.528467499749395
37.39,-0.603510747093685,0.238939536846961,0.747357355104703,0.252729105352276,0.433444439305679,-0.0826832398402226,-0.958725262886573,0.16921685342804,-0.203004042499749,0.851812120732199,0.918983155211022,-0.183159276014323,-0.943743002695091,-0.417074219340643,0.234556061260345,-1.74022711670583,0.535951936027331,-0.479733662062895,-0.845357869020286,0.00467319743884946,0.347518004000682,0.806676152944348,-0.0728905444836058,-0.614460486309211
37.395,-0.598068918680124,0.296322602470115,0.740697566964598,0.202916079408387,0.429572380567299,-0.0964133265290868,-0.967840767060705,0.219708897231908,-0.188363924184419,0.797065892994743,0.958302426950085,-0.179871632554277,-0.873294512977375,-0.475600169120659,0.287626617107457,-1.83424017501632,0.428870097465402,-0.135571352639904,-0.87362410917379,0.0278679862716628,0.345561507464293,0.742004743956372,0.285691840998347,-0.664826064172049
37.4,-0.602294869633344,0.301288828636268,0.732087136346983,0.125279110548299,0.429859100744638,-0.108288220943723,-0.969846663083934,0.244755903858017,-0.20468284805845,0.740851349730463,0.975994265876992,-0.171056422013944,-0.807655101408374,-0.480665201945021,0.385253936417999,-1.88488262820582,0.237341602050104,-0.207614476456049,-0.998711245282536,-0.00665385500805385,0.352754590149753,0.491873150550797,0.444274431290984,-0.778927644509569
37.405,-0.607273338482779,0.304409248785178,0.730526876189312,0.0582454436723543,0.445108752664502,-0.129904516084707,-0.974425310664764,0.282466897394259,-0.237741514209578,0.643180343974505,1.02933481011027,-0.189085936087227,-0.916080994033461,-0.423563075409218,0.43048895226986,-1.76208313947232,0.188329766654244,-0.345455357173082,-0.79477473635645,0.145840316753848,0.341427991852864,0.977548291754522,0.613927161809368,-0.73660474969956
37.41,-0.614651092509842,0.2772267525716,0.737731450952241,0.000235997251554891,0.461110328886007,-0.151440445202031,-0.976722472420144,0.304949956724961,-0.248552276957273,0.517456608188921,1.04541849053268,-0.201322480932326,-0.948420200951612,-0.382411799211007,0.425468945187247,-1.60639884838884,0.175921342670966,-0.364274517670466,-0.707359169204016,0.155993598660821,0.390039556338899,0.643484438605798,0.611778568769995,-0.472113763624315
37.415,-0.620231520454999,0.281418909386664,0.729663793955005,-0.00172228648310089,0.489985977827034,-0.157455737419658,-0.981544868022639,0.310208955134,-0.271495573789954,0.384460446724103,1.07072669995951,-0.2047043117721,-0.961214613779697,-0.333376538113776,0.428472648616971,-1.33944354403146,0.278169878861268,-0.280242695659545,-0.746193458964763,0.118644464151826,0.383259698183575,0.738107207832482,0.474631019376139,-0.384097373103727
37.42,-0.624356245397331,0.26091362969339,0.736854135800145,-0.00447683995486766,0.523627440228393,-0.165439426898956,-0.971021586676485,0.298731909778567,-0.288099456473522,0.289113852160399,1.07961347867886,-0.231357340114757,-0.911683850623092,-0.352057945488881,0.383709409565028,-1.03688831028244,0.384538846911906,-0.213420113737088,-0.887834768740266,0.122577499947091,0.353359290836825,0.837647650241284,0.321282071836471,-0.488849883075517
37.425,-0.61901337605306,0.272202777544578,0.742326437325256,0.00421059915277956,0.548631228413765,-0.169209466488128,-0.937006796039839,0.246897217651753,-0.263717777512349,0.169810555496861,1.12562111013035,-0.258309645095236,-0.882024624226653,-0.363831471691097,0.356742958893686,-0.976103037863378,0.372686562182135,-0.319966922943812,-0.938119651700857,0.156345066834408,0.315931877693865,0.853323695621027,0.240894461124955,-0.529561674418147
37.43,-0.60877672858715,0.259934433347554,0.749711697159061,0.00502546858805469,0.571380653152044,-0.186791719232763,-0.930144343521715,0.197372615235527,-0.253718833261766,0.115715202632874,1.14698653766629,-0.262869277732728,-0.878706425371233,-0.328288726562897,0.342622266794534,-0.890408572339426,0.278864124477752,-0.448343733349384,-0.861666402864204,0.15915864328548,0.320732491198005,0.864046304721951,0.256369595535948,-0.451986229821031
37.435,-0.609281143538232,0.276583510839969,0.741108676760977,0.00745837569306173,0.596916081001698,-0.196789118328848,-0.930961184334999,0.168804552326462,-0.269398051213352,0.1272662585056,1.19244672463423,-0.280793164326561,-0.886624459153508,-0.31035856797117,0.292441192244202,-0.755212080431141,0.202733422552761,-0.456821234283023,-0.822153221074613,0.157771038323574,0.331444754220818,0.918607559575696,0.256320253056025,-0.355475691235371
37.44,-0.627518444444942,0.249976543946824,0.739537567070948,0.00600160255147904,0.614615943607973,-0.208613938128456,-0.920182133287145,0.139658226633187,-0.270355390237499,0.195784899325968,1.20879644008454,-0.276947757788009,-0.875195840551386,-0.326888351579496,0.197048967725206,-0.694400220013058,0.141074692205153,-0.399627659658167,-0.864157084217567,0.135409229822108,0.343252154364637,1.02430878425986,0.140501675675143,-0.300215331898848
37.445,-0.646302363448861,0.248723172541479,0.711443930739104,0.0466269539071753,0.640628306145761,-0.233211588706876,-0.90973403038747,0.148289514679826,-0.290025167980425,0.2792324854862,1.22855331597702,-0.264871645941599,-0.862086657218803,-0.33319623240139,0.159811822292818,-0.763461547303035,0.11441740969693,-0.327001412438748,-0.887195636764238,0.112580607781451,0.344090216646136,1.10383108503542,-0.0281929999865508,-0.344020794501073
37.45,-0.62259689736002,0.25399084426296,0.74167486747914,0.0515933928900809,0.648077906662348,-0.243066783343653,-0.897673882695021,0.170662395345061,-0.275705862488648,0.382058120723008,1.24988114840031,-0.261057794094086,-0.854850583023788,-0.313037746608703,0.139506706153038,-0.835110754693803,0.116950570700524,-0.25363850821536,-0.870962155296024,0.102901346995485,0.344160028669002,1.20574513206497,-0.165669598784947,-0.401301316192724
37.455,-0.613449624663948,0.244996566238958,0.741050892340062,0.0650970991602138,0.655848338040528,-0.260007763114998,-0.901922239422299,0.184589849113017,-0.236728923592983,0.418140865166189,1.28276205035119,-0.257849752363241,-0.857751000572927,-0.303593012865592,0.140732623536795,-0.853616393419518,0.138383779697329,-0.233087724121298,-0.846087198986666,0.103570995290018,0.337843393848256,1.25193892729087,-0.197077529595634,-0.403746785575145
37.46,-0.631195347318638,0.255957144391087,0.72279723508016,0.0911351426924148,0.688084562187768,-0.251306558938275,-0.915584429182343,0.204801944224859,-0.279214823643486,0.48652830820759,1.32480628445539,-0.260356966962747,-0.833612359513706,-0.319146385778971,0.142868054997671,-0.930737178371741,0.163208012264437,-0.178233357532731,-0.85078793727435,0.104670379494246,0.339342374370649,1.25854683834441,-0.140095745457044,-0.373497792199179
37.465,-0.624675964352372,0.248151430150292,0.74068421030178,0.0853328924784616,0.704763052737117,-0.256306857882897,-0.935300113828364,0.207849011085162,-0.298984010227837,0.528724854304619,1.34480210803987,-0.267829911025087,-0.835763881284583,-0.338261601822803,0.141786668176413,-1.08918941206991,0.151770096578105,-0.152566751519061,-0.873635077110729,0.107224379819803,0.346877526172548,1.23270292912698,-0.0217699058236228,-0.313893580164401
37.47,-0.647883584611458,0.217220533373625,0.736644716934303,0.139788731691365,0.747744034318952,-0.288504831379305,-0.942844932594809,0.214559923520223,-0.326109827430576,0.54861076428396,1.36183495571018,-0.26569506293179,-0.865429606501074,-0.337775417354825,0.140965341395938,-1.17417278276096,0.132264070569736,-0.119156187953708,-0.892264492380929,0.0937473614294766,0.360760011900682,1.20144726864552,0.0790957047435336,-0.299451221129609
37.475,-0.62234646223014,0.272020598620608,0.738594127402879,0.213646849615913,0.762965812313605,-0.292918157991167,-0.952129885962303,0.209605715532605,-0.301445318553055,0.569301743310197,1.36475716694051,-0.264259700725849,-0.877386905507696,-0.315432501920476,0.127221075040027,-1.16922249590186,0.1152072303828,-0.106557265385862,-0.934316555997478,0.0796890227266867,0.371129495796504,1.22488684938852,0.168808910178634,-0.316437300689297
37.48,-0.624260243640598,0.296255735689467,0.728722966079181,0.206974527755945,0.798051663026769,-0.313002213482017,-0.963804867367145,0.216346617929965,-0.290351107499721,0.602864451238863,1.37059027023706,-0.254828602719499,-0.91651769428287,-0.261579024013084,0.105688425943994,-1.16187157959848,0.0828813131714755,-0.0980806007092915,-0.937569809958295,0.0647257524674699,0.380116126532374,1.24395739048967,0.228434883393917,-0.342095454475368
37.485,-0.642284725350142,0.285997994679259,0.728152811963223,0.227659451734596,0.816138093799414,-0.35084899681952,-0.964677874110119,0.233586218346689,-0.275703294896734,0.657179842712456,1.39047079523128,-0.244400155570869,-0.928022779082268,-0.170310331978274,0.0938511926302317,-1.19365933557585,0.0600240775976514,-0.0699417403778556,-0.96883658110997,0.0491455348104317,0.385700982714518,1.25120854041338,0.326057281672296,-0.354901750165528
37.49,-0.646171484295847,0.329474637013802,0.717810253860783,0.237643895157033,0.855930335511894,-0.378484529488556,-0.964628994623292,0.238853155978452,-0.280443479262764,0.714517953944109,1.41102642213176,-0.23988861115967,-0.969696471401377,-0.066680210285917,0.0869331552792492,-1.21471215839346,0.055556193685708,-0.00689387488846771,-0.988868913000287,0.0337077791403684,0.391622467700475,1.23707070360907,0.386362941018559,-0.35901639123805
37.495,-0.653584720449827,0.312511667704706,0.71196934864921,0.191496214408123,0.910067496199227,-0.41179105077886,-0.989981629258717,0.223087178812595,-0.26636703704736,0.754695384848634,1.45568220852025,-0.231360011014213,-0.981366624780189,-0.039341330075845,0.0786660014004471,-1.19759300382448,0.0775285564436398,0.0722704153206305,-1.00196005113054,0.0200111885209795,0.386634881498796,1.22299931240816,0.407528252847408,-0.377135546665883
37.5,-0.666488007046797,0.300034833468564,0.733055683669323,0.212264183618252,0.946106079623925,-0.468238249472575,-1.01074035640535,0.206729973786037,-0.256021700175115,0.749921343636102,1.50209440817554,-0.219699784764965,-1.01791496299427,-0.0720896466192849,0.0580205871788137,-1.19896909402992,0.0919764041900635,0.124759786752519,-1.0087159329997,0.0112294409737716,0.381946018847289,1.18260850850714,0.384382626672843,-0.410206696439481
37.505,-0.61571191453644,0.344682387274607,0.738519347747487,0.229317530908407,0.995970409519172,-0.487940363922162,-1.02459346254234,0.169441063675185,-0.23995625834265,0.75409867162134,1.53543822930776,-0.200283043829396,-1.03302954479272,-0.111564733435119,0.0501225156784095,-1.25645255939253,0.0906824258484745,0.206310870996172,-1.00585009453713,-0.00273816290583439,0.377573287008802,1.15310948929714,0.364433345891177,-0.46615784898737
37.51,-0.631149501144207,0.266340654041698,0.756310176206181,0.1757668876178,1.08457745061912,-0.51602948010242,-1.04102597631572,0.127993968951543,-0.23607174041812,0.754869635473064,1.58348149002818,-0.1888619454889,-1.06027697158743,-0.14549502733908,0.0423709210307429,-1.30449590918011,0.0831499235537678,0.258725234277649,-1.02610524356571,0.00293683104336457,0.372133146691783,1.09053354183599,0.328060799208729,-0.502407482504046
37.515,-0.647061716263193,0.222433091247129,0.743000456293161,0.183666062759765,1.16410769374094,-0.536003198710514,-1.0718503728458,0.0585986500746349,-0.251374982630273,0.756529170267967,1.6665963763734,-0.162724331882947,-1.08155411616672,-0.138558301358871,0.0259419583357381,-1.337062921668,0.0569572618980093,0.312302629239821,-1.04451472426199,0.00135057692308287,0.369360352885374,1.01528032044334,0.267103642256369,-0.531752520954494
37.52,-0.644926739684214,0.219718917017743,0.767865927006646,0.219177630018685,1.26841209092481,-0.530058267645118,-1.0807055371749,0.000472004074397071,-0.250297722946932,0.79290087184465,1.71136588201258,-0.158530617909461,-1.09950130137872,-0.144606214735399,0.00678130763809103,-1.384042285431,0.0066657640563473,0.373434786144091,-1.05631525149253,-0.00822662654916968,0.36106985229394,0.949219931472157,0.152507377742583,-0.568002593687409
37.525,-0.62254356985317,0.287293129584296,0.775258316552003,0.203839148540874,1.39573783295552,-0.52036835864171,-1.09732736839778,-0.0550188616501225,-0.240861670312927,0.840577255361876,1.78615826774956,-0.149365073198602,-1.11150332981859,-0.177556544197071,-0.0246993572391306,-1.47993435954623,-0.0478193814122555,0.475386017863401,-1.04663768752023,-0.00340134181287097,0.346344458374322,0.882601905427094,0.00726786600413613,-0.595848546968243
37.53,-0.620872981071474,0.227405319586758,0.779365595059515,0.155213464566476,1.52184237512128,-0.508745236356834,-1.11866080144956,-0.0973950489453852,-0.259871602291205,0.907847428233737,1.8468491081073,-0.13935319647039,-1.09693166329412,-0.179897756337783,-0.0602573956469947,-1.58379852681225,-0.0850045844743848,0.562125900835209,-1.03729683788471,0.0101312962499212,0.336083735410959,0.84317536812079,-0.105194546896755,-0.613939092921401
37.535,-0.648759397016868,0.133963337921614,0.768091172084928,0.126549713902593,1.65256598282921,-0.517850907668657,-1.1081155786119,-0.126332558287488,-0.294410508789168,0.969665579385142,1.90966123080503,-0.12990799492584,-1.0819825126413,-0.166643352926352,-0.0945423145154841,-1.6721916876085,-0.0975068935021052,0.63531164283975,-1.01741872071416,0.0233902135664224,0.327821360297039,0.819565313431777,-0.187454442870167,-0.624544433256807
37.54,-0.638436151564446,0.242746719948554,0.776181492084628,0.116745258456457,1.79379996581878,-0.438633642185444,-1.08213602536488,-0.155512035361822,-0.330118450395665,1.04245580969924,1.95430387050333,-0.119747901204723,-1.04686657861696,-0.138907459432345,-0.122244626743412,-1.67511615051123,-0.0696253431055085,0.672593956414795,-0.984074455035958,0.0322109344612869,0.317528042687347,0.827638590754137,-0.205128410381631,-0.640791803491599
37.545,-0.647283764176977,0.140569571888672,0.745102366796635,0.0444774523886009,1.89759363415101,-0.420131847622679,-1.06507297646348,-0.186464937344395,-0.373319073092133,1.04280193768438,2.01861278384008,-0.123913411293186,-1.02997407441926,-0.102773318244383,-0.177447756945628,-1.54909825415199,-0.0255615339752467,0.691864324062036,-0.970927361683565,0.0363149723301705,0.318146270569224,0.852332798192408,-0.151651001516797,-0.643978118151069
37.55,-0.683165124879516,0.128049669872854,0.739467625880358,0.0441106618146841,2.01277286419036,-0.363986491370773,-1.04930760893283,-0.201233539799836,-0.436320404876425,1.01618440910844,2.08184758704361,-0.138268778260067,-1.00831540240553,-0.0521599371883183,-0.216790337466886,-1.3639889554659,0.0175841871465083,0.727339528944375,-0.954443075839833,0.0414581303972495,0.312157612886346,0.880944792440761,-0.0363217390736533,-0.63844910360544
37.555,-0.682277304307116,0.147513708393514,0.723369955950093,0.0778373189492013,2.10501537678086,-0.280999756835241,-0.995442645770518,-0.188692036955638,-0.469436176631035,0.976629540374766,2.14106555036862,-0.177910714102698,-0.971717054938552,0.000587202667828812,-0.247381845833169,-1.10767188846822,0.0733200804595204,0.784105461404652,-0.927727349440057,0.0331545891034392,0.311976497216176,0.936663154036064,0.0917047467718324,-0.644748533383224
37.56,-0.691241154643869,0.0840932429564197,0.703072586985074,0.0227391154233834,2.18772993882502,-0.2376419763476,-0.968156353819022,-0.203795597314364,-0.473136903996738,0.928414712089495,2.17840600498601,-0.201995321686343,-0.929590873079935,0.0385956771878776,-0.247400333611239,-0.934980673290288,0.141620484024461,0.851406419170598,-0.919869597487073,0.0320456539218852,0.31746688043939,1.00793818723396,0.215230652712318,-0.64566169473571
37.565,-0.697733480111202,0.130878216159553,0.680496392491481,0.02059526086191,2.274727648142,-0.156622699072418,-0.927604967648416,-0.17483331139422,-0.474572646158321,0.868439570937827,2.19292755897586,-0.217471802469546,-0.904061636849208,0.0350148476698807,-0.228086808506553,-0.858732775237314,0.244577986269619,0.911360298002283,-0.921169302496986,0.0402841608551535,0.32039636895079,1.07625676361431,0.355237030341414,-0.649745225648867
37.57,-0.730859924173017,0.14367878876412,0.658453864477447,0.00349445990560905,2.33306870626173,-0.120808373140914,-0.892792033081704,-0.122216646529732,-0.468540951406414,0.86449460594791,2.20755235734739,-0.246633528184522,-0.871866682410353,0.0168900667554352,-0.177424999988406,-0.860448268964594,0.41233056290237,0.959106216026445,-0.915335098963703,0.0550355621674294,0.314742813058809,1.14265533015106,0.468149815816605,-0.646091686977532
37.575,-0.72021433950306,0.168133503502767,0.667594474747015,-0.0159798579649636,2.40431033222586,-0.0575250209710797,-0.873880405127086,-0.0773365088854167,-0.437781990574028,0.855085289097913,2.20499731258688,-0.264537793796742,-0.842241126994456,0.0232143512362905,-0.135123513356766,-0.920005844352667,0.594905041489848,0.98465221531945,-0.881375495416771,0.0758993926788175,0.306353713012141,1.18567669359787,0.551157156447824,-0.626600971536788
37.58,-0.726731523358036,0.172738299891772,0.631574316014819,-0.00272468165255916,2.46019750357177,-0.0443652226181194,-0.867135873764004,4.66129090651367e-05,-0.380871575034192,0.833117486304219,2.20268315993632,-0.2813061792936,-0.834127547505005,0.0684659226041454,-0.0414827814104437,-0.992403341836239,0.786621832415049,0.962141680513672,-0.803482184377807,0.0919867904225171,0.296285669639051,1.21584731037246,0.701695392957991,-0.627369623119466
37.585,-0.711788563638044,0.260096763134369,0.623431993967181,0.0121879541920344,2.52715367499116,-0.026119601244047,-0.871850581090573,0.0633137308421383,-0.352590135887272,0.847375281067602,2.21931645160996,-0.2751413742897,-0.841682607309488,0.0847645937822685,0.0795947644750358,-1.10355525267327,0.936116932184378,0.946548522343854,-0.780288101548781,0.0869556153730608,0.289198176255467,1.24573949657738,0.879798442649892,-0.620473411278078
37.59,-0.670526138261142,0.338156160351185,0.6263613271394,-0.0313277042812701,2.62004845357732,-0.0420482791960239,-0.89308885162102,0.140001768558171,-0.294878719535542,0.852405249163436,2.25642830800891,-0.263086094770526,-0.830264801761935,0.0989055764207997,0.161068789722105,-1.14950147781781,0.989140697310905,0.920930901571452,-0.783599046376424,0.0804102722322207,0.305324401882516,1.299086935355,1.10047946785224,-0.641383968051416
37.595,-0.686720136977387,0.302317802934921,0.672852296837461,-0.104436074567837,2.77868832756705,-0.113817857158927,-0.971026930648124,0.195731901375368,-0.250000452257319,0.828957572447457,2.29027223046358,-0.245764629252795,-0.77633870533455,0.106218216206553,0.279549194543689,-1.21237245365403,0.960410185470418,1.00388801076758,-0.78328737128086,0.0607607958695238,0.298045269857051,1.35886428485102,1.25327572927834,-0.679259633399771
37.6,-0.708141998327487,0.480802148740608,0.71887779521503,-0.119220007262691,2.97855140560664,-0.168870999400916,-1.1846235612969,0.371374384405368,-0.210301033628589,0.882180140060165,2.36512822448869,-0.293298680907695,-0.84572230459302,0.106944152684788,0.322572849887174,-1.2497624974555,0.883448751143927,1.1330971262506,-0.814874272822617,0.0205266680435702,0.249471493649804,1.47781550558571,1.38421170925425,-0.666374383605503
37.605,-0.705102139588281,0.541024708171758,0.698465440752727,-0.286276000831563,3.29164304925977,-0.319771625123507,-1.40317281297459,0.506527898124699,-0.118131821403881,0.968603042330229,2.47972961041374,-0.362691960514711,-1.07393096522977,0.106276252087245,0.391343215987211,-1.35623892067931,0.705705779339049,1.20536541938782,-0.835723156185131,-0.0338848481340778,0.247288291383759,1.59781175859222,1.37026090802265,-0.602166197610894
37.61,-0.802143285402809,0.588891740819093,0.58894911113917,-0.328865657194667,3.55632626167268,-0.560027916689885,-1.66248683196547,0.593328831779166,-0.212718845570844,0.805485112775296,2.59000536741341,-0.332325117602571,-1.28835984969097,0.0918470507974533,0.460805265363719,-1.47229801734273,0.477169783559227,1.08374032524617,-0.92244916614149,-0.0702996582415683,0.275552228173596,1.80910638540736,1.06835099830314,-0.473420590214346
37.615,-0.866587196657592,0.825276418869493,0.498354474283484,-0.31967086214497,3.88439327879064,-1.02095542945334,-1.80979875440395,0.639400182930215,-0.317891147280707,0.594260796944736,2.60865349202848,-0.286244707176142,-1.48684845633722,0.105778703266367,0.552061916690045,-1.48613641910573,0.101207521987669,0.866684871758129,-1.00899246763614,-0.0806001129996534,0.312294022064509,1.87783154847392,0.514913354509363,-0.346057213050032
37.62,-0.690822050191881,0.763206109490856,0.721821223350034,-0.337234185949978,4.18655971946843,-1.29796822986868,-1.80884873580064,0.7084355028514,-0.205731206807014,1.0588395260498,2.65912355517678,-0.193888995717507,-1.51003637363163,0.0863534400911343,0.567618843368829,-1.30885287894037,-0.114072605105111,0.710205924916696,-1.0175890554033,-0.129233882456321,0.335252380671647,1.8437182579854,-0.166612729004028,-0.272351862833042
37.625,-0.660167019234644,0.76615338751487,0.693573526759974,-0.344663175875726,4.51800597232321,-1.67812291046847,-1.80929664822691,0.744646334153028,-0.0710570929492625,0.530492150664038,2.75618028646438,0.0133149460535131,-1.49083012524216,0.0564523987236851,0.48807169452106,-0.903822398678048,-0.396140571334149,0.506105329255325,-1.09432597538752,-0.17882390777046,0.303613572332952,1.77945912312794,-0.887571096750976,-0.1606352916719
37.63,-0.678668735906364,0.990692403303826,0.689066801013438,-0.453265102855108,4.97407934948039,-2.12931645673211,-1.92205987402435,0.745797624661073,-0.0868470203782518,0.675905570892532,2.83258226380495,0.0993844576642093,-1.56365239676693,0.0889145111356596,0.426530400669144,-0.633547514546167,-0.559130411248691,0.618808029023012,-1.31503745249336,-0.226155557100311,0.231044053573304,1.60418444190233,-1.58705368501889,0.0628704687320979
37.635,-0.592398481497926,0.919021518321828,0.915980289860947,-0.656686526049216,5.37821896436375,-2.4924810015346,-2.11909793751627,0.766786725813773,0.000819049715920872,0.929198439806959,2.88567473375665,0.151085466007428,-1.68875402141119,0.136774221786168,0.357069180075761,-0.236912089479153,-0.665241798388774,1.14217509353734,-1.43756605537484,-0.290399443871331,0.145139841287385,1.49395265794337,-2.14221795029241,0.265677136701777
37.64,-0.518580504056798,1.02168163865601,0.904272574592354,-1.11560596136843,5.96007670243663,-3.08546280191826,-2.36037458441406,0.744391513678367,0.122077624146479,0.993872229433506,2.87653986059765,0.238513181617,-1.79765907559848,0.147489742867462,0.327346096335153,0.060897511228369,-0.821926364667882,1.70819038235922,-1.57652889718565,-0.309438515386652,0.0434556783995875,1.66924387748734,-2.64355384487172,0.487884609484517
37.645,-0.598371015498927,0.810493147355868,0.913246058495792,-1.44900992962387,6.43088749898868,-3.57614428408278,-2.47669736870949,0.648860448577162,0.137015331269456,1.006639692524,2.81304131184284,0.32491273456832,-1.82310577695404,0.0447820227337413,0.204410552504484,0.30554449722883,-1.07210890477839,2.17455393076734,-1.63844329982435,-0.293438831738759,-0.0318487857287777,1.84173934452248,-2.72099703122937,0.609306277780078
37.65,-0.648181254739198,0.726835345599228,0.939973150794197,-1.9472527680329,6.97152804930093,-4.11448579675379,-2.39384838083963,0.499290027421891,0.14100358703828,1.00113163499574,2.64323234787525,0.447568727419601,-1.79902678168596,-0.116032053331213,0.0460671519211434,0.530184384324111,-1.36743162375742,2.59510724536397,-1.62059044236628,-0.349044191958247,-0.0944449430085486,2.07070368846622,-2.35137945244268,0.625151572403683
37.655,-0.720082075817646,0.550775285991951,0.9348160863171,-2.41696297839418,7.5040252408898,-4.56195710412569,-2.14334744912041,0.334035388386769,0.0900645140437706,1.0719071230058,2.49823177333525,0.56722885556786,-1.75131039869851,-0.163217148197215,-0.0657390600352637,0.700574783367141,-1.56321740163689,2.7508873562692,-1.56720068693463,-0.433531472099663,-0.138312880800338,2.23395063014748,-1.82594463595789,0.58681684252438
37.66,-0.985629017460151,0.164133884523601,0.896082500734108,-2.69135433722455,7.91731811990928,-4.79904234525919,-1.85135749739233,0.25720032101112,0.0164808418110889,1.19275762361723,2.4275512829277,0.622722911848155,-1.72563883452345,-0.29855796355245,-0.173730001826568,1.14766131591182,-1.5576918456537,2.64211102912113,-1.4884518163039,-0.561958675653856,-0.164475214306943,2.22170462291996,-0.926948039260375,0.555092511673862
37.665,-1.71045250504925,-0.929192904173958,0.605070771653246,-1.95442114176751,8.54410271674768,-4.71193346481297,-1.52859389321482,0.267616181165018,-0.251932223064346,1.36923147103816,2.34662139502859,0.674964948690925,-1.71712923818451,-0.454867197899471,-0.258714506449704,1.10320345965703,-1.48767003070891,2.51375020215563,-1.55396516414523,-0.61988960219357,-0.21489165381714,1.9875761321055,-0.421743372647569,0.562666772162535
37.67,-2.1132472262063,-0.304400589923897,-0.0650575637251972,-0.700149570206999,9.25536468762072,-4.11229270377704,-1.27894513975059,0.28738340523014,-0.669656673524805,1.71785593277747,2.32710642382876,0.670228853822086,-1.69604731784574,-0.63324715190068,-0.345561188491153,0.836707530748162,-1.34285280768258,2.39591928127108,-1.70674983862226,-0.657310813162706,-0.328489902480521,1.89003793366501,0.129561786127976,0.342220686182653
37.675,-3.30190754816307,0.525216012303432,1.68370982179718,0.0319007638614312,8.97656432668781,-4.04350084289203,-1.03409251944814,0.404972534057672,-1.28069534447966,2.15869469648624,2.37939224306124,0.617176912163779,-1.67438716249857,-0.813980257154929,-0.380853360153665,0.53159830384717,-1.19969880435445,2.36649893532294,-1.7741889309366,-0.593556459531435,-0.38505199940137,1.95470048211497,0.626949074922846,-0.0836480915071265
37.68,-3.34535496190388,0.610835806722498,2.60413590847786,-0.528767825113826,7.57246976229488,-4.18156281678456,-0.85939308160225,0.499474045924648,-1.6633387801715,2.28908228398321,2.41745532702726,0.651978221579648,-1.68495802752871,-0.944608651005659,-0.362375777869336,0.149392118736678,-1.045748987853,2.44192379701785,-1.66303782789408,-0.461957529324775,-0.333882924375127,2.0022158025454,0.966279177981723,-0.517400945562723
37.685,-2.77130536183373,0.551095024749139,2.18937552008856,-0.768593949372808,5.90642395612788,-4.61180647434554,-0.673209521689949,0.695489799424617,-1.87194961499801,1.94447758476675,2.3780898610564,0.737156334994284,-1.67608758990736,-1.0621678440926,-0.330856348295329,-0.348287000142971,-0.777045233770837,2.68118968345832,-1.4248708096982,-0.362898857156067,-0.245385786192233,1.78593787937959,1.07810657884564,-0.815400272556785
37.69,-2.24861126251513,-0.481010490302466,1.38767207243017,-1.2840252867645,4.91646636128796,-4.95582954776765,-0.69668636328663,0.952304300281673,-1.60611681191779,1.18080781169481,2.40823289072386,0.778245004715653,-1.54050731159756,-1.11082518153419,-0.315809734983264,-0.98005265389594,-0.367943582935055,2.91035180050301,-1.28566424216191,-0.327509247675158,-0.190123866608417,1.46587534775262,0.996332497786195,-0.801475268151049
37.695,-1.68893472476359,-0.899861282537305,1.08801150022126,-0.897357937549451,4.38638013992979,-5.25830803720125,-1.00737392216961,0.992122494668728,-1.04825163424087,0.455795939045938,2.32840766259873,0.874535553211176,-1.58753403824194,-1.03737787993066,-0.125643927608487,-0.879484384277896,-0.323393270721172,2.9611855907715,-1.21642457552236,-0.312199712614519,-0.162146654221857,1.12186512820406,0.894952524440963,-0.688953845270951
37.7,-1.90365429460212,-2.21272548251821,3.71997035836229,1.76573139717736,3.50836619057669,-5.54241094169563,-1.19263691780107,0.590403075494463,-0.724128318021888,0.25781713412868,2.14725202078293,0.995165284169692,-1.72437268992044,-1.15427195991074,-0.150730011691008,-0.399050416164033,-0.371255701150472,3.08120997653941,-1.2397101608182,-0.319218858714586,-0.143616230111424,0.819464976057687,1.00357321347473,-0.649240127654464
37.705,-1.58919640095031,-2.40537392505745,2.73348435046993,4.12110516982957,1.66294815169603,-6.29523285018616,-1.14461605082071,0.0945281882060488,-0.715928483803976,0.0760815546306293,1.7437144299282,1.05156533316247,-1.66687830110083,-1.19729911182017,-0.18548479186156,-0.437165119032363,-0.106309973955521,3.06472447653113,-1.28032236561859,-0.345993115185677,-0.115666883165702,0.706455231008675,1.3360329277644,-0.818962113494974
37.71,-1.37509416251563,-0.367263092192949,1.78646517749627,4.93235448687789,0.666506307004985,-6.35277570168837,-0.971617042716675,-0.226796566516287,-0.668676932752756,0.251830111883006,1.37878115490594,1.12910738820068,-1.6438174929321,-1.07855719099945,-0.163357066319,-0.406270580328241,0.107462762230995,2.70257946845983,-1.32111161142727,-0.306039448267309,-0.0314501868622995,0.608648716650555,1.75674794607953,-0.933879869819389
37.715,-1.48791125660914,0.447972592884164,1.63975040756134,4.52333800029542,0.25115821362167,-6.24995713521355,-0.796951947554721,-0.517651928335338,-0.552965728725699,0.706914570561707,0.822467864446891,1.21769163916326,-1.66401512599958,-0.999146144424493,-0.128192653071243,-0.0906445686427603,0.348342358135703,2.3450022124485,-1.33263725370089,-0.206815914956667,0.039146659972113,0.372548814076522,1.96355755773095,-0.872280290339825
37.72,-1.29869436417956,0.649762809512399,1.02347802395333,3.68274707936315,-0.369179213999135,-6.58117262168531,-0.54386652391235,-0.750549430706281,-0.354379680685603,1.30149628732066,-0.0127131301847651,1.38095485304304,-1.66633480773328,-0.993703366051856,-0.149190877807873,0.214274463434526,0.55934673979742,2.26266141524061,-1.44288168794505,-0.149770682575539,0.186845760820249,0.0998747740040665,1.77665321862118,-0.792353696369525
37.725,-0.821278766287348,0.991555081201679,0.561342701774907,3.1230468366711,-0.641483507298313,-6.44382175901031,-0.413535810496807,-0.823097616163023,-0.254880589249585,1.8576285808397,-0.430849933907969,1.48333274484983,-1.61473333160584,-1.00923211308387,-0.318941206179113,0.218417959491313,0.714045470279373,2.44618322016832,-1.44501304495271,-0.0955470114916406,0.261639912204903,0.0644243579005294,1.13509532281688,-0.757994650164274
37.73,-0.490836548405899,1.22109823167639,0.270756963275483,2.62599553499733,-0.630942731316345,-5.79415546174952,-0.356530015078772,-0.878341891047607,-0.278875472949847,2.57251470676454,-0.626677767627027,1.45688045744609,-1.52157840516432,-0.975896997383939,-0.484069894265034,-0.0479523386000683,0.791783689265605,2.77866366705299,-1.3952782161081,-0.0492924151900077,0.292008156176748,0.223210297555741,0.499399547721048,-0.738203458210426
37.735,-0.420966530760032,1.25734265180369,0.209759831384477,2.34784215858426,-0.574588117439047,-4.76339622514517,-0.377491611713455,-0.876186297163397,-0.391071511706923,3.05308289895533,-0.584327590240866,1.38122641277165,-1.38878587061255,-0.879617782552223,-0.568417148953545,-0.260181571456108,0.704729623631045,3.02315152282969,-1.3306188112928,-0.0219798341646313,0.292170269260643,0.515969222251207,-0.191669532495491,-0.749071134452725
37.74,-0.426904395584652,1.17503558938812,0.267769082532382,2.30437779388969,-0.642945497713585,-4.10162633952504,-0.348255582082265,-0.785782721706607,-0.523872185301127,3.46743487365205,-0.465595251190732,1.27499878765732,-1.20496008030442,-0.724304462737371,-0.600885143106552,-0.272404265339938,0.375108301429658,3.09575953582688,-1.25620617393848,0.0400599849297169,0.25484099928656,0.825566953723816,-0.683601992562377,-0.773116456088634
37.745,-0.405804677788243,1.10972108473243,0.340945198647532,2.45366157810761,-0.859522706127236,-2.99928358111332,-0.280145721827234,-0.717391146428108,-0.530016708208743,3.68042203764281,-0.470647726351293,1.18551534856479,-1.06370257306866,-0.640865383878394,-0.628000394195135,-0.192487609093771,0.0402753281238427,2.93711502930728,-1.26388215085922,0.123516433638751,0.22119457840354,1.17315770833812,-1.01860993208205,-0.759356031450633
37.75,-0.337659911042001,1.07339039638195,0.408672551705563,2.59143920736644,-1.00427836282242,-2.21595589450848,-0.226363726038194,-0.643639751287732,-0.499538076460857,3.90924957394422,-0.484302138206571,1.11320560667845,-0.947239508640529,-0.610627097820756,-0.674801188971303,-0.361199892201106,-0.199153775389667,2.70149559992623,-1.2936589629055,0.152773439387035,0.190170481468708,1.54375082603684,-1.12462080327611,-0.626930031995829
37.755,-0.189465822868114,0.935653271979774,0.424080611479464,2.60362705085693,-1.14350962322737,-1.45178064501598,-0.241282017633973,-0.501450917288473,-0.430962636962342,4.02369821668708,-0.562128720257347,1.14416373035866,-0.88069395357013,-0.570290509050617,-0.683114833613943,-0.849067234893961,-0.301658350676293,2.49504125282021,-1.29393307939474,0.151186309741833,0.156765143106946,1.78722222148602,-1.13862196556615,-0.50611369381939
37.76,-0.004344466904367,0.680684266022792,0.365099262829531,2.4947133881546,-1.21593974322496,-0.800656346024221,-0.293991107226223,-0.337067579764544,-0.349131155874293,4.04066896079204,-0.703522533774458,1.23250764728306,-0.820071915815507,-0.497615399861338,-0.599648775378443,-1.26799771428619,-0.404330995897202,2.34153417220241,-1.22718760515626,0.145267522875257,0.0921893038851596,1.9570525844799,-1.12368943721227,-0.378501040889022
37.765,0.107670304734599,0.467834830397365,0.345327626743959,2.39956451750916,-1.19767696768383,-0.451674811404448,-0.296089581435305,-0.134563980095511,-0.212195590370366,3.85398764244416,-0.925607387480228,1.38572250340484,-0.766705135407554,-0.409126520230965,-0.521957740038173,-1.25620205561317,-0.682626811663336,2.2420953909556,-1.12334773867795,0.104435307263135,0.0624292338041922,2.01632105560514,-1.02407547981985,-0.316961858970315
37.77,0.229785847008583,0.108055637883172,0.405502013442542,2.35993616824737,-1.16548196080944,-0.183403986801512,-0.249286750243699,-0.0122032096047393,-0.11447049000155,3.62030850516574,-1.09131045096294,1.51072985513729,-0.750480586128584,-0.413000346548737,-0.505936059405481,-1.10592301775938,-0.831890688412442,2.20787973156183,-0.976533546690268,0.0653926542416108,0.0480199008640744,1.99757387969187,-0.85879230302205,-0.267246244412291
37.775,0.238919268122785,-0.150622363696629,0.519489857189358,2.45012995886123,-1.17984476847087,-0.0276525719961679,-0.180956962357791,0.0919534454974334,-0.0416415467499629,3.26382761120163,-1.27200784156267,1.64542925566878,-0.713493474886796,-0.452275234182445,-0.503130727854817,-1.30099601383891,-0.774652842121989,2.21777907189407,-0.845347026927376,0.0438182865999179,0.042679361333035,1.91238304235512,-0.656384126266629,-0.252070314169203
37.78,0.134128881994402,-0.478084378805514,0.765042703670427,2.68798088775666,-1.31329943487166,0.0274347609124077,-0.120672805061292,0.172727877887177,-0.064248059001169,2.91842053868902,-1.38762684742994,1.73082082639567,-0.696807997994691,-0.453402196938908,-0.472582593847055,-1.59981102769369,-0.715192766768797,2.23230870611827,-0.747864758232452,0.0252718018300958,0.0414019451247495,1.80933957019901,-0.448889294279733,-0.247551668033462
37.785,0.0482725376480797,-0.657677668014379,0.946124053067623,3.13532851988483,-1.63878672925632,-0.0353143251474784,-0.0600640119207963,0.145370427623847,-0.0894077559824758,2.47766364609542,-1.4928064875174,1.82056738644757,-0.660257058252506,-0.436365553957328,-0.404964467029646,-1.74965019643824,-0.751385794473153,2.15925861869083,-0.668272915741361,0.00837728850166827,0.0497278131732494,1.63636796582857,-0.218861118230567,-0.243764237382291
37.79,0.0642273967129786,-0.695738589193007,0.991872539208931,3.45432325924908,-1.95363105430693,-0.176304691633673,0.0287343568973394,0.079845601136202,-0.0621367894790885,1.78811602666554,-1.60972528367365,1.9457692101395,-0.619115149012718,-0.454877725361261,-0.356621249343063,-1.85205668490438,-0.760990982151996,1.98597436272016,-0.620056822476081,-0.00393957283042156,0.0680941615707676,1.50739764254745,-0.0789291491907028,-0.262870545827496
37.795,0.182006185772164,-0.667090633693441,0.938169932605027,3.70079610352456,-2.30756704871958,-0.409294298899702,0.0675925193495864,-0.0167303070903419,0.0285331464959453,1.20656197551743,-1.69996974032337,2.01463046449264,-0.593564024636502,-0.501641974658017,-0.333340535939218,-2.06447080145372,-0.693217256624866,1.78555802830166,-0.623971841926347,0.00131742866733366,0.0860474649465536,1.37739598069095,0.0180784963986106,-0.289622465234373
37.8,0.277776876628752,-0.655059118133688,0.871481316734119,3.81771188418676,-2.52464571561747,-0.593570379800348,0.0284647227208781,-0.102694115858108,0.108555541749683,0.815813974832159,-1.7970452799536,2.04412041853391,-0.569733559659045,-0.533440630440993,-0.301712119515772,-2.37906602962029,-0.581235023033048,1.58360826036084,-0.648975454216419,-0.00430400591755854,0.106396529558336,1.21211631457594,0.0799265518927334,-0.343102105126266
37.805,0.301624551407559,-0.643263566266277,0.83925693989861,3.99617983805209,-2.71634043379177,-0.747251145550838,-0.0635023984243623,-0.212795533269806,0.145674371490616,0.487749351843554,-2.00442699854759,2.05780342047516,-0.549439220532551,-0.542820154793409,-0.248628483774818,-2.48211816998977,-0.493580512320043,1.49252882862154,-0.66774092103096,-0.0134638001851706,0.128511339375109,1.11935767868891,0.0768799477430494,-0.394733077136009
37.81,0.278451971899194,-0.610446907494388,0.814372332139787,4.20085693606683,-2.88673765468275,-0.824632153332459,-0.142485244595344,-0.356985459534015,0.134794069527006,0.16838381804966,-2.25740224984798,2.06175990457225,-0.54030025825886,-0.548078478381844,-0.218217544803989,-2.413101171605,-0.395103239242764,1.42713654785577,-0.699113857075538,-0.019765828215439,0.152319905831793,1.02620482634677,0.0595342817693102,-0.436931371388811
37.815,0.231290627026568,-0.507398580795878,0.787125498991545,4.3821328316648,-3.04692549698225,-0.823340648859516,-0.198821286296733,-0.504904916885023,0.113126856021234,-0.121674667260095,-2.51217338287171,2.01204825231598,-0.535850839774439,-0.560226679415706,-0.20031462469384,-2.23664478174472,-0.292283300149795,1.39202296265278,-0.722756599990133,-0.0293196176102296,0.173003123364108,0.980153549321855,0.0292325853645712,-0.469201214671444
37.82,0.173841105641344,-0.294195712171174,0.762793867057354,4.49909359267639,-3.23314893759821,-0.743910010423741,-0.229504089513431,-0.578752439806925,0.0750595920099433,-0.263500702780099,-2.69823802311577,1.94363924613432,-0.509088025867428,-0.567448370733207,-0.169281022480818,-1.94106717376983,-0.183658042548485,1.32674504632148,-0.748251382919253,-0.0457842170778393,0.181409134239882,0.95979211770956,-0.0184684613190284,-0.500825182113197
37.825,0.142533029300242,-0.156556169833571,0.732819000160773,4.49126239739209,-3.37979302509165,-0.605240833338486,-0.298344430685934,-0.6491790011413,0.00394168543251872,-0.30510547818297,-2.87592327079521,1.86024803180821,-0.521046226955736,-0.569160396723,-0.155023950869377,-1.70094996423845,-0.106174032056547,1.24417695438156,-0.753250719357428,-0.0717875314366425,0.185762720723847,1.00375166911032,-0.0732349899193669,-0.537970425980494
37.83,0.115242626249038,-0.069103423949947,0.703576319612168,4.40795405720353,-3.50789515154645,-0.380022490523547,-0.363784353513869,-0.684472707295137,-0.0226752145968341,-0.29142484789743,-3.01312348564378,1.79088840003699,-0.542364138881414,-0.578928155003292,-0.138154899090934,-1.4677781471469,-0.0197266430123964,1.12881586390949,-0.761727343448567,-0.0927239352820815,0.177213880907082,1.07581048483318,-0.120399734165781,-0.580759688838142
37.835,0.0860685624456854,-0.0510801140284034,0.683960780037248,4.34956150276973,-3.59023588146506,-0.114642207319947,-0.44030846064455,-0.703535363354349,-0.0433135154197315,-0.19086064674109,-3.13874302607838,1.76081551012824,-0.559839595877929,-0.588321347380537,-0.119120779091954,-1.26922105443838,0.0627085709259841,1.01052021629443,-0.757750942285388,-0.118236405682529,0.153446000644028,1.15421825807761,-0.17093189222055,-0.630047608657136
37.84,0.0447313004505588,-0.0732227324202806,0.680156704185107,4.34515609895888,-3.62763460430899,0.183202587841578,-0.490137528672686,-0.710837921587898,-0.095182082265352,-0.0507361282787119,-3.27232229677514,1.74537988888503,-0.570915987987255,-0.584073079963313,-0.0952283930020478,-1.1103111205447,0.142085766975464,0.88924640585004,-0.747963672901519,-0.132622730936975,0.13338790776517,1.26204127245342,-0.185364253984743,-0.677293142727478
37.845,0.0209431207386574,-0.132516545033777,0.688063998232587,4.38626170396448,-3.63751762926846,0.544797821597421,-0.529047679993471,-0.708444453859265,-0.140129090988176,0.0984386852525027,-3.4282616001541,1.72237937912766,-0.583904759241807,-0.584500625570759,-0.0783857153881376,-0.908519241913653,0.25204028031378,0.705529777524316,-0.754496777416643,-0.133582395363826,0.110285145758561,1.3777607969742,-0.180746336739809,-0.692880463090622
37.85,-0.0144123671028179,-0.223730479737082,0.722714547087388,4.45235685866779,-3.62154056651458,0.826441032943257,-0.552697509893764,-0.678628407304257,-0.171665697359583,0.270844761859287,-3.61162024024091,1.69939770446536,-0.608057453282141,-0.580755938783617,-0.0769858465206887,-0.767489643032913,0.334391366389644,0.548758385025075,-0.771516415111937,-0.146146231143244,0.0989650887221118,1.45223746919129,-0.149891400300865,-0.668969004039753
37.855,-0.0791740448902402,-0.331660649336293,0.803992117420513,4.52881232603421,-3.60615454190109,1.12843124802001,-0.558816010784785,-0.639808094822829,-0.190351871155987,0.469140440263425,-3.76445952855492,1.66469618699089,-0.636651018874764,-0.565733782813426,-0.0858379126962172,-0.670556026693647,0.403183391979611,0.372408494252546,-0.806379311927967,-0.151809142732344,0.090959726770928,1.50377304895608,-0.0712878683103599,-0.617800836092211
37.86,-0.167266830409085,-0.435730045035293,0.902058105050956,4.59091807914526,-3.61087009690237,1.32413079031883,-0.586068877221951,-0.572061286882745,-0.249163550820005,0.710785876968225,-3.95019775966235,1.61920826594854,-0.632745605849986,-0.534457764192609,-0.101884063858117,-0.660657748577341,0.440808824675545,0.256177140853683,-0.826334214292458,-0.143342212654636,0.0825965282338275,1.52543823129431,-0.0188219540205329,-0.573176329343197
37.865,-0.258174692409153,-0.583030034218337,0.986017460964764,4.64531683931282,-3.66588935266656,1.4341177690905,-0.623933882210255,-0.538931881199955,-0.292000837615783,0.840031806428039,-4.07455743086094,1.59689843220032,-0.635039825899928,-0.507173658108792,-0.0948420948655044,-0.670926468543463,0.474831575506105,0.117605647731352,-0.866756904427682,-0.142906845446094,0.0950858443525073,1.52779255593196,0.099583837271123,-0.515664625704927
37.87,-0.295551457466926,-0.735588704289799,1.02308091692486,4.7317855804122,-3.72461994710813,1.49126564380463,-0.678030619301663,-0.49976715349053,-0.30605652807252,0.916922429036376,-4.22262640371959,1.58621286931391,-0.631634142168342,-0.484006844588911,-0.0894410845798941,-0.726923513097217,0.482422734271156,-0.0296408764390887,-0.895190956432207,-0.136464795051309,0.106978169598919,1.49968847195793,0.19707953659141,-0.459352074542488
37.875,-0.30108926068314,-0.819538481295291,1.03998273665778,4.88091450032175,-3.77169796129008,1.49850857257843,-0.742194180719199,-0.4919908800133,-0.33408121897244,1.02428887865226,-4.35432190260864,1.57821838080589,-0.626105138736114,-0.473220570991028,-0.0611874942151425,-0.794738215795039,0.486403650585106,-0.189408370903684,-0.921006462010567,-0.118799538771626,0.12703808165215,1.44446662569671,0.295660082334593,-0.380069831138737
37.88,-0.348877040350816,-0.808623993559579,1.04833631623245,4.98099713816498,-3.78489948618492,1.46597790186459,-0.811965698872209,-0.496732300556466,-0.342926608667904,1.14093469459694,-4.46913371788818,1.56417477889441,-0.652566428342624,-0.434259051214737,-0.0789285759770404,-0.620288508500706,0.48275340481116,-0.370772781953073,-0.933889434302772,-0.104975167189906,0.145015785294267,1.37807981209573,0.351556424856816,-0.320319585486309
37.885,-0.451087456894338,-0.748566483134294,1.12131038492216,5.01604922137281,-3.78398296618128,1.40743442927137,-0.874675057738085,-0.492489491850446,-0.374589481760365,1.29868339983865,-4.57096082557264,1.55044426992934,-0.638286408138842,-0.440731100801871,-0.0291723717513083,-1.01751888666268,0.480502822854029,-0.439415970858492,-0.934104604513676,-0.0953945480969773,0.168954961696625,1.30857685869391,0.360524566401328,-0.277721029371712
37.89,-0.653877710235401,-0.657522857312461,1.25254992553953,4.9500840451152,-3.8853171861084,1.30648577002458,-0.951368573363314,-0.486023578647174,-0.418873558860869,1.5606978503227,-4.67792723564435,1.5175314778745,-0.651872690249705,-0.430930216196444,-0.0387379085283018,-1.13460641431078,0.478555614331984,-0.500293998815205,-0.921687845822432,-0.0675853193475089,0.187061423495065,1.17517667807197,0.322305002378583,-0.2744893548909
37.895,-0.0830922040355912,-0.594350723443962,0.815643188461223,0.580207594474874,-0.463572129656865,0.150318404568219,-1.01481376651789,-0.459142262953,-0.463369671584045,1.77243614294568,-4.74819782341347,1.50842965955236,-0.642843099611118,-0.435016671929035,-0.00957107480961677,-1.27884814289374,0.470169159654368,-0.564274812463288,-0.939529619201686,-0.0864609541973735,0.210898081916433,1.09378794762699,0.269824297635948,-0.258003457338045
37.9,-0.921157827238435,-0.589927766725713,1.40501655092664,4.67656834159014,-4.17963496814935,1.16890157565162,-1.07520179546469,-0.403969788224651,-0.541750004590009,1.96441100713112,-4.80068271264173,1.50449936730706,-0.633637183173582,-0.442020419975556,0.00448652314195104,-1.40427996418569,0.447388666504662,-0.639556087967519,-0.941341279395118,-0.0904581569230618,0.220388203737612,1.16385309435021,0.227898657665355,-0.192018553614616
37.905,-1.0045584714378,-0.620099961159446,1.36261533772096,4.53351477480764,-4.30572144091604,1.15351640709084,-1.13886046398546,-0.339759770229081,-0.599446188051839,2.05732897118493,-4.82194737684935,1.5041920254722,-0.632328264255421,-0.464416029894646,0.0293735414539793,-1.51639103615206,0.424263088313345,-0.712240371231325,-0.942502652754746,-0.0722758935828436,0.200664234780357,1.066967544408,0.0426502346026506,-0.202276275843131
37.91,-1.06183698292684,-0.610653583303251,1.28817755129798,4.34438991139948,-4.37948248105965,1.16756989045257,-1.2196089866712,-0.295780156327396,-0.646928628557576,2.07778920743444,-4.83336884436622,1.44531893458437,-0.615068797300688,-0.484015947558053,0.0525547911228311,-1.61864416110516,0.377903429802571,-0.788181633721843,-0.925777294212567,-0.0590188884003646,0.18591499146053,0.912288342469305,-0.0818707825224386,-0.253550525953081
37.915,-1.11839835257484,-0.621610189803662,1.19197290287904,4.19971703430527,-4.4178033306533,1.17489630416913,-1.29901115931193,-0.256233475446879,-0.70749617333143,2.03858391743342,-4.85020762640104,1.37401056793201,-0.598767292692407,-0.486424807407959,0.0835923003737162,-1.68574172904793,0.314520320654112,-0.837234429765663,-0.892656543902744,-0.0670081325237621,0.154748889795595,0.706422872297151,-0.104172282190958,-0.336128751279043
37.92,-1.19979860268225,-0.639735256704307,1.03459251356132,4.05394211773579,-4.39621891377738,1.18140064533595,-1.32247686669428,-0.244190839567414,-0.775577228884568,1.94730019835578,-4.86917877216813,1.30063487623693,-0.576164789014124,-0.479508945167677,0.142023557006027,-1.68213061516484,0.213454155839868,-0.89031898708753,-0.881166300308455,-0.0742480816961395,0.127690174520386,0.623371723136328,-0.0743811059025314,-0.376030526228471
37.925,-1.2714682431489,-0.667197114492815,0.900935084641404,3.90845886739221,-4.30186656355217,1.22058886017845,-1.30502575396811,-0.24801763044643,-0.867751350682861,1.76174332375882,-4.87857298385077,1.20916337662515,-0.586501404438775,-0.475767288707394,0.186248831026678,-1.60203002813212,0.117069767439883,-0.914085000004902,-0.880344888936225,-0.0816591395477709,0.0979827600685658,0.562591041018327,-0.0393012414994155,-0.38211644693287
37.93,-1.36101876527778,-0.71434872023552,0.78113067144395,3.73693930179661,-4.12743816112796,1.31053155493027,-1.26003364636525,-0.259050535626315,-0.962355990298733,1.56874637988636,-4.88007770795822,1.11219911432607,-0.580028091633058,-0.477016913803754,0.245632518012772,-1.50588668907088,0.0232711131181258,-0.92520761611921,-0.878985277358792,-0.0923198064153748,0.0663121561926029,0.506841223128346,0.0130987537197491,-0.378937810659409
37.935,-1.46379545232536,-0.754348272104622,0.69275289520199,3.55855574404714,-3.92565676009943,1.41405521472058,-1.20530904029363,-0.25915685186584,-1.04050152685636,1.40367649313436,-4.83836928456928,1.01101783693661,-0.582305762336312,-0.494948281690214,0.331494935546923,-1.36986771817276,-0.0738842176259178,-0.879761285763065,-0.89077673249272,-0.110397267723586,0.0341396305535255,0.438852618639511,0.0639119819264872,-0.3840551432
37.94,-1.5467580127106,-0.778675397197627,0.610316904364466,3.36405806962476,-3.72906559333935,1.52065365900406,-1.14435578889853,-0.250596251551988,-1.09406154191273,1.17731822584085,-4.68862644005012,0.88521475639377,-0.593581573170768,-0.513058099913449,0.405291981309388,-1.20084384673163,-0.16487323053285,-0.805221784978159,-0.898764164521765,-0.132304457654981,0.0174887196116191,0.358252786610326,0.10253235729126,-0.397466169791719
37.945,-1.60633254668481,-0.811786623391151,0.507151445136937,3.03060481459298,-3.45303045088448,1.62391761964163,-1.07632020543463,-0.226208832362103,-1.13980151074992,0.970353313362133,-4.52562775252274,0.783114860937858,-0.624926777479613,-0.513647395967631,0.493157440090302,-0.940437402776736,-0.251815668403331,-0.719512329559696,-0.912031356550645,-0.169623240764375,0.0132471074463187,0.244658191601291,0.145312981101273,-0.418661797174164
37.95,-1.61079770006686,-0.851778327107003,0.411380193890311,2.76342394671948,-3.2213471023595,1.67166678370345,-1.04510081218842,-0.211783688011651,-1.15989625430812,0.733699415405206,-4.32624719288727,0.680316897669843,-0.670380975150955,-0.518155278934759,0.588297044400822,-0.765463880289883,-0.322481461428102,-0.684805087861764,-0.924845878788475,-0.189414569022986,0.0150338893746727,0.145102073769786,0.190094805754681,-0.427581823125409
37.955,-1.59606582616511,-0.875812194562928,0.306091668860455,2.49238069494968,-2.89234029679761,1.70098526110113,-1.0505520093876,-0.217428664461367,-1.16959116376948,0.490667979629839,-4.11548605169209,0.581932982615219,-0.736570215622655,-0.501959482748413,0.694088792830647,-0.621647789201732,-0.426186910110244,-0.653319063180068,-0.93964107753061,-0.214121052152639,0.0230985309954227,0.0446625287350196,0.24165947541592,-0.415177853422867
37.96,-1.60335714292074,-0.780930452601834,0.227198591216151,2.28230919464981,-2.52263800768737,1.73844055131401,-1.11959267214626,-0.264353691743909,-1.15197026492688,0.225082197291393,-3.86731975862646,0.449214426623104,-0.79552830713641,-0.487803208736589,0.748569233456911,-0.578923498493015,-0.533197976557937,-0.680067690605553,-0.96012328370606,-0.250131131383656,0.0326780911860479,-0.0209319329501899,0.27411454887282,-0.381312375588781
37.965,-1.63060486511544,-0.666386677640405,0.219277327662147,2.13427076705876,-2.24488835480277,1.79500407957427,-1.17484787784535,-0.31293220233745,-1.17562737918993,0.0555397759045806,-3.67125822398661,0.352088921863235,-0.833857040323455,-0.419876357259609,0.777165141812029,-0.660695246890848,-0.662017651483407,-0.58826189696155,-0.985604055427489,-0.270752118181272,0.0464455154889296,-0.0688880160577304,0.290829299635174,-0.347047387157527
37.97,-1.70193066254236,-0.465108304174236,0.228955420711078,1.87912216695133,-1.87611935970637,1.94434832308365,-1.19278975516947,-0.358807448855955,-1.23379974605826,-0.126365394593357,-3.47321051545863,0.267632181452575,-0.889009175590179,-0.345130531675728,0.7102895447688,-0.843373636081108,-0.780474565530243,-0.620384019229547,-1.00892868334791,-0.29048959650384,0.068776964891523,-0.0910959233474923,0.293384439321032,-0.316897191476516
37.975,-1.73679350712776,-0.321164061483733,0.207855520627704,1.68593468438783,-1.6619572834899,2.12481077192002,-1.16647018663668,-0.387053595908904,-1.27561801809937,-0.267051341082284,-3.3097033557161,0.208100800447648,-0.900910462071872,-0.283159412917558,0.61436307864491,-1.0077698019863,-0.877657202628907,-0.77825257183581,-1.03214240081276,-0.306359862874139,0.0979964689740664,-0.0149036798828504,0.296563609026535,-0.228347599492112
37.98,-1.72322033228879,-0.240440518547311,0.142838932284366,1.43485518512652,-1.33829957078949,2.39440531959366,-1.12274557055987,-0.396807568592793,-1.29199733559897,-0.344962979619495,-3.15274809246226,0.161546083142181,-0.951634510032367,-0.209367453539127,0.535484662550511,-1.07136039491005,-0.957932883222567,-0.910993174079569,-1.05306747980264,-0.298608728813202,0.127360374769157,0.0478766674177545,0.262776310709963,-0.149518328287127
37.985,-1.63360034582636,-0.206480111623135,-0.0167680981564295,1.38480239679986,-0.968909027549546,2.8031531740143,-1.06674962951953,-0.409607328990967,-1.27126536785076,-0.396769882964845,-2.95202979836983,0.106644645177508,-0.970096918718434,-0.1125120368006,0.399062961413117,-1.23484949898824,-1.01444839621434,-1.16999697804406,-1.0541936722645,-0.283637733662199,0.161566172881668,0.111081106733477,0.205627617449437,-0.102402537895162
37.99,-1.5090068106989,-0.145077079520137,-0.200251207409792,1.40173542435908,-0.596656740870646,3.16270236663006,-1.03917677719463,-0.386732172871826,-1.21264432435184,-0.444163599642269,-2.78367957027282,0.0569526751791993,-1.01038276464439,-0.013220524173276,0.292738404101291,-1.43039828462274,-1.00405152664846,-1.37388336203833,-1.05189892492727,-0.259205055176554,0.196977182673124,0.145404911167525,0.17177858730097,-0.067169927641975
37.995,-1.38688432029148,-0.00400197200486769,-0.406614770416435,1.38511426836862,-0.0471096326918462,3.5882195428475,-1.01110138766683,-0.338794600423841,-1.13792329465515,-0.488933883671474,-2.59326400967913,-0.0181690521106898,-1.04376016709087,0.0674071489018941,0.202096019173907,-1.61841415132785,-0.960173130359923,-1.55692282861979,-1.04463272598182,-0.235003303715551,0.225293685662238,0.205998833454218,0.155482902203668,-0.0184498490143323
38,-1.39462803242938,0.150833442647711,-0.565268542841385,1.27099892996547,0.453673936972158,3.92424744557534,-0.99262411656884,-0.276851367605274,-1.10550624952924,-0.594120465775373,-2.40322984881751,-0.0966404906099651,-1.05190532290058,0.0821184447611783,0.168665587159782,-1.75950766669476,-0.859306405956487,-1.77996336439093,-1.05133271523956,-0.211235155188965,0.242566198015686,0.275637541880666,0.152673733927963,0.0370525631151197
38.005,-1.43852502543069,0.252914011022484,-0.71241793642388,1.00037150449989,1.03249312306512,4.29734022341109,-0.96876922497694,-0.178783179293138,-1.02360629634925,-0.774484864858555,-2.19813393006934,-0.180113682171036,-1.06680711331521,0.120948539596665,0.144735646767353,-1.77543614941261,-0.757296952828473,-1.94489842256356,-1.06191240114116,-0.185258823647014,0.26637838091411,0.374670378578568,0.144125320227764,0.0954394189601901
38.01,-1.41514150876773,0.258158405776366,-0.895325922809174,0.674410705531691,1.6576642070354,4.65398872996222,-0.952778584707261,-0.127039417851119,-0.988724111831616,-1.01485462419822,-2.03760903298379,-0.243524360954355,-1.04089324071184,0.149297717700507,0.10882176580878,-1.60824270045044,-0.605557704197248,-1.9976745565382,-1.06963677956359,-0.152728488572101,0.26452844467698,0.443624968906376,0.140915438532829,0.138791190875341
38.015,-1.36990711065543,0.244493211938092,-1.0161500929833,0.361521992310952,2.24921562703272,4.91497681502559,-0.942628828629901,-0.0998547683450688,-0.959573925127973,-1.33452094269161,-1.87522485598445,-0.303736339751962,-1.01397333878093,0.165271305263763,0.0894377467149064,-1.38184663430726,-0.444656698744193,-1.96376874917802,-1.07734185974385,-0.127962147293194,0.264380004025691,0.499848014579295,0.136806875257614,0.184340674868704
38.02,-1.36942655307931,0.154057353401395,-1.07997837122636,-0.0277563666124769,3.01792429198819,5.1567716252894,-0.943488402454689,-0.0692219363920688,-0.939002223400648,-1.40165793618898,-1.56768716881011,-0.301684165741212,-0.992598125058333,0.186848359578326,0.0516949945369381,-1.06296073505655,-0.258216137634271,-1.8506987861807,-1.06816609336271,-0.095431658208332,0.245684325908562,0.522787566623562,0.122642085955957,0.247979745327759
38.025,-1.44236078242676,0.0209668245454709,-1.07122399556212,-0.299282938386776,3.60925237103059,5.26532596273033,-0.931378393778292,-0.0486897597022206,-0.906229734224749,-0.574851837804199,-0.742671836419721,-0.0808404225952295,-0.944264054011595,0.192258086721024,0.00435886116005165,-0.757859853507529,-0.116910903207216,-1.80820439586507,-1.04907535828783,-0.0767660971898771,0.230797047130181,0.508012415805354,0.102573311366291,0.287789812837202
38.03,-1.52277441032978,-0.127217336975532,-1.12913044669745,-0.558570274000695,4.21619615142644,5.26659863459235,-0.872145194976579,-0.0534081087576255,-0.912185336209574,-2.16057327539602,-1.42932183435791,-0.448653681010655,-0.884063600356292,0.178389653784669,-0.0860298052140957,-0.451058115197044,0.0148223643716145,-1.86641081663879,-1.00881839923061,-0.0621797640928904,0.206717997243213,0.437531920662611,0.0794154346614688,0.330449329489405
38.035,-2.04180957372582,0.931924840594181,-0.951456228519532,-0.797395651879196,4.70145637985498,4.78566591740948,-0.836696444526725,-0.140470263580022,-0.989543456516394,-2.35294486745569,-1.25684290559967,-0.528459554609073,-0.786420454593741,0.118202743618664,-0.183850794616659,0.00187869685737486,0.193877189560333,-1.9939435029886,-0.969183711042398,-0.0535595183380971,0.194134244419431,0.353687805134959,0.0652433533509645,0.35918962946391
38.04,-3.98121434294494,2.26129101045689,0.78186161198717,-5.81530186369331,4.03505012093639,1.48701872725023,-0.627565999030384,0.108614666362245,-1.34004644668807,-2.23536563944389,-0.953098335495698,-0.584671880022343,-0.722552498652809,0.0399962714776122,-0.369244230713114,0.432177255707152,0.355745125285237,-2.04250889274651,-0.920269268704283,-0.0449762164247777,0.182839274445634,0.221108523036309,0.0385826395143909,0.389265345634829
38.045,-5.07885597804287,-5.45472006040596,2.97453723163315,-0.186562040255767,1.11505100237532,1.11349136950469,-0.415940028140915,0.471378437747604,-1.77869557842181,-0.432051042864082,-0.850615935545023,0.0606287446148475,-0.673969454800681,0.0249855543584047,-0.506648083863572,-0.519957193577549,0.0477793087723972,-1.04709647932262,-0.884797196409599,-0.0302231779494651,0.170309194210549,-0.260896086528133,0.166316744571251,0.227877300368771
38.05,-3.80533091894745,-7.99124994106094,2.09539260278491,-10.2565686368857,-1.68945496067145,-2.31184216741006,-0.19114399564798,0.323440511576553,-1.86221594079867,-2.01967334752467,-0.601793553382254,0.298806089577685,-0.660442336191331,0.0638965778783737,-0.620335371855822,1.57088139183542,0.763116439184897,-2.01782031756621,-0.853637892827926,-0.0157830272912352,0.160717756047805,-0.139250474343733,-0.0219950142034509,0.422759877473331
38.055,-1.6195101325392,-5.98133963097028,1.11566724478358,3.26268138696834,-1.29519317508747,-0.51676406434642,0.0237926614696495,-0.238943334636305,-1.97929193463728,-2.01804678434979,-0.630330884431061,0.487982630850419,-0.669822383625525,0.11563311923041,-0.67184066617325,2.01325649720483,0.912372401444413,-1.75904812326395,-0.833047045608139,0.000761415342391752,0.152679217482718,-0.301660225559993,-0.0330071030268145,0.448810831882483
38.06,-1.35682776149001,-1.90643890704834,0.885860259701419,7.52299258631149,-1.43572020460867,-0.0580478565575368,-0.127988096590125,-0.487973079448812,-1.4045436321825,-1.94399353155884,0.359273889286983,-0.056182711296119,-0.709194496096857,0.108136062744062,-0.651516590311502,2.16826222503156,1.00386422535072,-1.5732126990892,-0.822799017815322,0.0123916122597427,0.153768108692525,-0.522229000880912,-0.0348088693139839,0.481933940840607
38.065,-0.799874536989687,1.38914951420142,0.831939735922954,6.29752470830528,-1.64605652368276,-0.39238150329343,-0.997733525164944,-0.703451020932187,-0.122992444590532,-2.46693734224556,0.655443681595693,-0.103499837144747,-0.795729617667483,0.0423606077492667,-0.564270777896537,1.85314721839804,0.989480294877565,-1.37879739121825,-0.817956510421558,0.00996880900836591,0.158104458132767,-0.672114279030158,-0.032157478924863,0.492947204923362
38.07,-0.20466566733161,5.37234234818582,0.870894844509741,4.55723684366309,-1.59688572890588,-0.718325124140872,-1.69614886349599,-0.741881478220126,0.579029121401809,-2.36841459658754,0.0831743256675274,-0.126373385568015,-0.878060395158176,-0.0573325928422405,-0.460868010618805,1.23761522487975,0.864191268432053,-1.31815217330033,-0.821607134130308,0.018116964599812,0.156372865161166,-0.864844230332235,-0.0219709206270177,0.500621973399019
38.075,1.01515025649135,6.81868576691762,0.120870925899423,1.58623960373966,-1.62665246363734,-0.625249330169182,-2.14386761561346,-0.164789021146989,1.30159282967471,-0.0309889086268343,-0.419967987888051,-0.349678347372781,-1.01831540294867,-0.211626345236562,-0.407239378118175,0.233924762391701,0.661214673425761,-1.38859740078157,-0.826073156119134,0.0243140027217057,0.148073298222849,-1.00063324285907,-4.68647517278039e-05,0.505180924068398
38.08,0.6213845763024,3.60168019972032,0.0531604770570903,-2.03494876808831,-0.88509922835989,-0.96365434156474,-2.33960799904056,0.725727829438056,1.78655957401625,1.27899707729018,-0.638899193687139,-0.0368224056852504,-1.18461172026378,-0.297202391126119,-0.385439057999783,-0.642142481738172,0.496263007537977,-1.59393026603231,-0.858503273173238,0.039316952468569,0.149568857451627,-1.15009375302985,0.0328489691482474,0.517129362634078
38.085,-0.81904363592093,-0.468012168000667,1.18779655909748,-1.89155415777582,-0.491373436366747,-1.27658749538238,-2.12983531158354,1.11261890147021,0.869194752982494,2.163199659384,-0.937945718959516,0.755508148435304,-1.44436356801604,-0.368888964890334,-0.47164057919602,-1.31538759638996,0.307795787342472,-1.90606848209465,-0.882439787761278,0.0470761088860095,0.155915995345989,-1.23413964783969,0.0601526666008951,0.546726350441676
38.09,-1.32536771877414,-2.15269402701555,1.32370925711693,-0.162830202877055,-0.822540308363916,-1.5170258223043,-1.65586689096864,0.784754201517847,-0.338029317038523,2.79573151544756,-0.923655098070654,1.04124935618723,-1.74805504553294,-0.474578228144765,-0.756387651871825,-1.53164304996666,0.0721799718476652,-2.27795023346509,-0.927389703255484,0.0537269880191928,0.173957432865134,-1.28540416109587,0.063956536883284,0.580319448128526
38.095,-1.18662704152764,-0.579234026805716,0.498381567996803,0.795269729491513,-0.510930940763455,-1.15219815999314,-1.2277974247737,-0.0437965623072479,-0.916786209996959,2.92205012127437,-0.996840888765564,1.01939295435992,-1.85663577254143,-0.622676586441653,-0.763491063299868,-1.63856394199161,-0.0558995599278901,-2.43054546166876,-0.96918738299756,0.0575862062994441,0.180001000533568,-1.27724169369963,0.0508443489480504,0.586978838264506
38.1,-1.14312343595962,1.20829089644262,0.175102894714121,0.554034907426003,-0.138650034621534,-0.488243713397615,-0.989559971022502,-0.855256520027996,-0.981374300525971,2.43290403404272,-1.455584498266,1.00076238305273,-1.98476319106999,-0.741529784503304,-0.555541840415066,-1.98325476361782,-0.225032945528547,-1.8782767686011,-1.01200228650012,0.0609717380397365,0.169397847285721,-1.2023111786531,0.0374813252559616,0.549005334275053
38.105,-0.731274554176087,0.666818284213637,0.531438043894607,-0.546602144640787,-0.113330226122502,-0.356887575645479,-0.831164969434884,-0.830062390232719,-0.703008396664521,1.5548710982586,-1.67244690914542,0.78212905915377,-1.82256905831226,-0.614213426640564,-0.0819930400804074,-2.75923071121129,-0.365015609068713,-0.970581365104015,-1.05921817113204,0.0876393877908511,0.134574270740829,-1.06805887028258,0.0398163884402957,0.458416775871632
38.11,-0.521743213772907,-0.356763175881914,1.03957586623249,-0.710036906412422,-0.288393468950776,-0.384332472310261,-0.961309128793493,-0.155471482145521,0.1702416890167,1.06904244932731,-1.3209941411026,0.256442043284397,-1.47901666977777,-0.266213923793029,0.51362698945348,-3.73320795616307,-0.597003046892253,0.104856854661471,-1.11939511085654,0.1244367130286,0.0890205510035709,-0.939971794798656,0.0585480804093094,0.36535741189322
38.115,-0.335162344134574,-0.347806901614881,1.08375562370718,-0.14585780290869,-0.385771969806473,-0.263426618410437,-1.18936359515862,0.0782909911121866,0.422685046838684,0.880074253044946,-0.724576725933351,-0.124241661542655,-1.23089078397881,0.165713751694831,0.951251433723379,-4.03296038070892,-0.890556633677771,0.631902908502066,-1.19273054644158,0.164176650329826,0.0506100601597423,-0.857146027679381,0.129742967871585,0.311776742660229
38.12,-0.526612359378122,0.0203996715116447,0.862021460797278,0.0994605872603108,-0.354902980074207,-0.115652203535965,-1.02975180502495,-0.0685442168582699,0.339269885336017,0.277336856346859,-0.128882479969051,0.00502498114643734,-1.04617306845764,0.301474041909014,1.24431208783974,-2.91901348607564,-1.17444338663732,-0.0856106262797547,-1.30975005610408,0.205698442711044,0.0127126696819396,-0.826350125213467,0.259211709458501,0.327708417188097
38.125,-0.6485431226948,0.129253182351976,0.795964718688151,0.0598761794970033,-0.327829895768489,-0.0340893861963205,-0.947125395669383,-0.224185925606528,0.136316162235751,-0.0646974810397339,-0.0226576812494301,0.147743878008938,-0.861777933431685,0.12304288190576,1.06158484699121,-0.681245652812815,-1.34112091650672,-1.12845690581956,-1.40399125520965,0.220991380321,0.00709668590903461,-0.874034165904588,0.345495887628705,0.382020907581806
38.13,-0.60304221521711,0.152472976402302,0.816157407226051,0.0392813000349665,-0.23324601041907,0.0391368467222319,-0.784320765637544,-0.396826807648151,-0.00252205997921626,-0.27344262890782,-0.207657751890146,0.165995828594283,-0.816111906857543,-0.0968400477102932,0.662261940307782,0.632648941200309,-1.39575598051248,-1.45776828453164,-1.46080090036492,0.186280871201076,0.0272032691232665,-0.968127401924832,0.386109751343654,0.439814153894552
38.135,-0.584464180842284,0.0687152098745937,0.842877710559903,0.0204236070433489,-0.101859434969962,0.108680840827994,-0.823985810116987,-0.239257540975798,-0.0989433520992773,-0.457356941366963,-0.300757551274928,0.22023806429869,-0.902469576723235,-0.325705637814552,0.21306428927252,1.09211741039694,-1.30370896429037,-1.36331677840314,-1.43004892558457,0.134223857907123,0.0563110838577731,-1.0810117958759,0.34628496736238,0.47036202781184
38.14,-0.558561014477341,0.00898913642673183,0.851514296517215,-0.00137016743263516,0.0595902754673393,0.176939618657996,-1.07004332654544,0.064359765130881,0.0920907571099265,-0.915510999974409,-0.332948654095202,0.317935755668357,-0.972914146923956,-0.398467895575375,-0.0514571202507761,0.967964957336147,-1.11518981700668,-1.23639284544653,-1.35606989459243,0.100106898783045,0.0781890901121905,-1.1594342043772,0.249242147448831,0.464031398296356
38.145,-0.516917111031435,0.102656576738176,0.846987881572089,0.0474069401030328,0.213833746633345,0.284560828210517,-1.16603605139142,0.127159800538351,0.175568032952707,-1.37062128232313,-0.437899350329341,0.365101680238634,-1.01719242157187,-0.411747789725173,-0.418214640392036,0.382855532746181,-0.620165158973539,-1.11209437698806,-1.24345303847784,0.106022697714133,0.0819060598281682,-1.18397834463854,0.128222194388668,0.461174880365326
38.15,-0.499674849790697,0.226603836955175,0.863651754187437,0.0724899893404991,0.283960401630753,0.334928843337475,-1.10180765453597,0.0781608509858715,0.269770244005763,-1.90217106681274,-0.422280977652186,0.358250693782086,-0.993158433789019,-0.343006676269659,-0.641003622682559,-0.0460606408471821,-0.267166503385334,-0.994841245775498,-1.15273121790891,0.146631654638317,0.0750450964343438,-1.25845813774708,0.0417267895380215,0.456892290894735
38.155,-0.499625537086126,0.244277918247639,0.846718854180359,0.0368372350116944,0.312482164724896,0.340171915776099,-1.10152864680018,0.0128742216546121,0.23347032296785,-2.15712000215483,-0.180504673065225,0.351667045603316,-1.00096079728613,-0.177683966339812,-0.725414226238627,-0.258933836222673,0.0293552954164224,-0.710106041281574,-1.12472902480428,0.134182895298795,0.054920269178768,-1.06446627984324,0.06808714016265,0.557856695405107
38.16,-0.548792709144565,0.19452714794351,0.829477096860937,0.0526959682119154,0.274958526544659,0.336338622452994,-1.04985526955568,-0.133676532953523,0.0763242313188744,-1.95670606635667,0.0173829562334313,0.34729093877946,-1.05082569169846,-0.0511250735400576,-0.615432498114554,-0.0671906991852508,0.280891283751388,-0.408094053535013,-1.09372158366372,0.177300951804244,0.032646485234011,-0.838827624704875,0.0331317178274427,0.618419998215674
38.165,-0.596211473198349,0.189319378140309,0.775502634574328,0.0812869692423599,0.248844143101546,0.32894993304711,-0.958174502856483,-0.264551898404795,-0.0940835043275754,-1.36242052374794,0.153001400742202,0.29926756023737,-1.06225971762723,-0.0221258117660453,-0.315556329509322,0.228742543421031,0.394301371082843,-0.298187260628483,-1.09491334438324,0.216394576787946,0.0309178001582617,-0.660483426745548,-0.101531665365466,0.636569958311149
38.17,-0.597543510333081,0.248248765777123,0.756035819362139,0.0946538337008011,0.231896275058408,0.323324301615377,-0.913291145539682,-0.247728438872361,-0.070592057100717,-0.74469213554652,0.176032293350123,0.24017761461317,-1.05331597089767,-0.0938669388369056,0.0271602766961652,0.748971956688519,0.521446038384282,-0.26091432984459,-1.0876431227915,0.21042309017098,0.0359426031299658,-0.566633692021327,-0.155446995375963,0.571333533161551
38.175,-0.567391754990795,0.33352299808748,0.776358827139727,0.0787520809130902,0.226785494103503,0.290039815105045,-0.902952923967032,-0.0873693960565969,0.059760747173421,-0.222569440987803,0.185547395818211,0.209102098676283,-1.04998837120339,-0.219203932627545,0.210627447220292,1.04959729795981,0.602412012575343,-0.313483785977171,-1.06792588535594,0.171310998464269,0.0515104006307409,-0.442833304325041,-0.205497517629467,0.467459127819186
38.18,-0.537402517717012,0.367360534501194,0.771790890240708,0.0473222702815146,0.228624251794666,0.247215423017541,-0.909825838379914,0.150621169067454,0.177918773591303,0.182350462765457,0.170003882116031,0.225142806055067,-1.06141232010949,-0.370676196657397,0.377370372101644,1.20812972401374,0.747411007974523,-0.447039139634342,-1.04996664232554,0.188153283432507,0.061059283762799,-0.397270300261481,-0.222444319248896,0.351373569855605
38.185,-0.551327241282228,0.311814727340127,0.767803206112384,0.0091243726865307,0.239871604944086,0.194776013266089,-0.88306341077141,0.263754223222896,0.162100471021767,0.258765532814797,0.199677223804252,0.27354714632228,-1.02392343436802,-0.420517498371872,0.486506069046147,1.07127419672461,0.867032095262753,-0.538344065127562,-1.01511386934172,0.0820180465548498,0.0652211630595071,-0.371915245858681,-0.186208825675943,0.148000136948512
38.19,-0.570251307881229,0.221786715214827,0.7786320683841,-0.0255063614963157,0.252579182386398,0.163514472904115,-0.903938656103441,0.328160080720002,0.109007449009768,0.153254625499523,0.233198758545954,0.299406736569017,-0.97655679806683,-0.359605623939384,0.599163364361115,0.769268041944746,0.937175180442088,-0.608583023045542,-0.975660103923468,0.0438190312982452,0.0748158683651036,-0.325456937310197,-0.146709669232025,-0.0596329540990393
38.195,-0.570951305618133,0.203464584766095,0.790308794542959,0.00568583656732484,0.251493532511443,0.16115831406741,-0.961903197010877,0.371501460091847,0.108330685156553,0.00417592117885358,0.205523007923783,0.295701639415002,-0.988099188211397,-0.249884648921416,0.703425149811536,0.503542840905506,0.920155817589703,-0.654862659190937,-0.928592193763675,0.0316119315586379,0.0935434833626643,-0.311971240221994,-0.123269718064132,-0.22817111041853
38.2,-0.553582764825508,0.254239790175903,0.780722932943881,0.0255675745303715,0.225188877225859,0.144003622227412,-0.988680190538318,0.403670593780748,0.138045507262301,-0.130470062114297,0.126742160707714,0.269194075059789,-0.985129058619093,-0.15013558570293,0.717737217421371,0.355019877742767,0.845218797914609,-0.626507432082843,-0.896235686006844,0.027972092498103,0.105017298187297,-0.405224510979449,-0.0913131821557536,-0.319856007783864
38.205,-0.545186057168789,0.307816468076725,0.782614804994157,0.0374630271532555,0.183845825004581,0.115979183130457,-0.973482797313411,0.422866564377057,0.171353312501827,-0.291379454538171,0.0911816075582555,0.202051599164132,-0.985821766717894,-0.0924367784614104,0.669373744446455,0.377367994749449,0.725385231199218,-0.495440627216317,-0.876845648109833,0.0223368062789384,0.122078109804246,-0.608316210446493,-0.0558662244306313,-0.334825080193334
38.21,-0.53216655390826,0.307706842435119,0.779677381920347,0.0142105412730467,0.145807313830809,0.0717378658232799,-0.955841512358632,0.386771701944125,0.180868119938083,-0.392036922794547,0.117185524794744,0.130350639512113,-1.00883747578008,-0.111367445089828,0.611977406284432,0.555644963104087,0.608188371762191,-0.343140990948023,-0.864377881492282,0.00756090360394262,0.157052614680896,-0.819385719672791,-0.0193844469338068,-0.303215375866933
38.215,-0.519280443545718,0.293310314077316,0.782820812262085,0.00162552323570477,0.109413253744862,0.0365842206722734,-0.933670558314187,0.296618140942653,0.156271016560908,-0.50310791658998,0.161789430824509,0.0663844076180886,-1.04127090223048,-0.16370034834555,0.532755252387334,0.954415219546373,0.463238569292217,-0.147322963288686,-0.857266266790239,-0.00889343306544028,0.196179977346968,-0.963085484160723,-0.0178349747672807,-0.256379686006174
38.22,-0.523596614126048,0.281739655598655,0.787139153215348,-0.00749329248078067,0.0903189155441695,-0.00655246111925859,-0.927443344994261,0.256902829798172,0.129014887877929,-0.553708463788261,0.200146800236305,0.0221990516748169,-1.05257964762927,-0.21050575121749,0.454986303799065,1.39066017384436,0.374179271647196,0.00214164298884802,-0.840042122039004,-0.0275905854542726,0.233329439918032,-1.05388677175956,-0.0175779197250936,-0.213896236970812
38.225,-0.52944069156139,0.273757076110104,0.785632399896839,0.00161236318780985,0.070696685733632,-0.0315010408467352,-0.947176952648111,0.204792505511383,0.103633919304202,-0.569226561852454,0.25857463588428,-0.000865165173622252,-1.04531139034391,-0.258779264734552,0.33301706590558,1.78422688726713,0.339885479390876,0.113123369501534,-0.820420820500144,-0.0477107364035084,0.267556547556872,-1.13186735984083,-0.0374708387025536,-0.162734592165549
38.23,-0.534137952461573,0.269465125867887,0.783280930205069,-0.000964473669520874,0.0476511129299266,-0.0581656862395118,-0.96173580106717,0.174010248767479,0.0534378495879038,-0.554792054007972,0.275324434435596,0.0014794777128493,-1.04213968394844,-0.301330781315974,0.215302582603614,1.9868756179954,0.339025001965215,0.15896079757364,-0.799901458112589,-0.0678415642034775,0.282274596941069,-1.1539327164388,-0.0615560660566278,-0.138147825906999
38.235,-0.546197297851205,0.252907585099854,0.779540054518304,-0.0036737860478271,0.020351606465955,-0.0880282042613715,-0.97106594457447,0.138501663070453,0.0132855462769299,-0.499499406480875,0.281891786716667,0.0161420816343146,-1.04442231300431,-0.335681940176309,0.118332755225665,1.93074586994382,0.352583762705253,0.173762863025388,-0.774647626009622,-0.0924286297270219,0.291597869363735,-1.13886671219278,-0.0583041451114289,-0.119732461527053
38.24,-0.540534217681955,0.264956440144134,0.783314186912692,-0.00499670131281047,-0.0219360461627633,-0.112540506273275,-0.975307875670798,0.0973976531651478,0.0127634091887438,-0.394898879452159,0.262256633780802,0.0476424927735134,-1.02836845073328,-0.32499895800471,0.0417813516657327,1.69738520670322,0.343488386737345,0.213399386571466,-0.761924901164867,-0.0977658234080431,0.291972297927619,-1.0950852417027,-0.0205937692202975,-0.114446425766492
38.245,-0.536014050337718,0.26966387991565,0.782924143555684,-0.0184215017786436,-0.0394818142698702,-0.131489177557169,-0.989607378031413,0.0625700961015512,-0.0068287715246417,-0.26384896584992,0.245549850152569,0.0704345470509012,-1.00148642358945,-0.284046239464704,0.00205355239296249,1.51405680695522,0.307020490592545,0.25671934475284,-0.758060144303563,-0.120043116094143,0.283548277693344,-1.04321702060859,0.0431713130715345,-0.103932832634083
38.25,-0.542041795850688,0.272274949678543,0.787329487171685,-0.0382465428143164,-0.0501045023224501,-0.142078940614594,-0.996831308748415,0.0451326365402543,-0.0127331786420483,-0.137570972802539,0.243205618272434,0.0917210773060921,-0.957183825956944,-0.216045250185332,-0.0465377758226041,1.37672048168485,0.248375796163728,0.288748033644505,-0.766347064067841,-0.135079816535798,0.283585410591056,-0.952781968857663,0.0821153662579128,-0.0960116970816967
38.255,-0.547322204908499,0.263013411256284,0.783759587309388,-0.0689051200389976,-0.0560732686276413,-0.160669219378512,-0.990884817797912,0.0556492485511483,-0.01088154039238,-0.0392273453368733,0.242493384843379,0.0990230075454319,-0.916342659395643,-0.184473575076373,-0.0635387120630544,1.5620233986591,0.182639563573709,0.278987215146632,-0.777271841218922,-0.138992959685245,0.282117714477797,-0.858443984060108,0.0891738573779826,-0.0914091978826858
38.26,-0.553731826589356,0.236608942654731,0.782267872044674,-0.0866306509740974,-0.073801625284408,-0.168039487877085,-0.990079147354392,0.0695354347554444,-0.025390425967098,-0.000669349472614145,0.241670661895999,0.103223603132125,-0.884504863852548,-0.176253267437494,-0.0723357693595371,1.20401805977903,0.128082405419774,0.224556042669276,-0.803176844054481,-0.139239830777347,0.276720641085004,-0.752668340569753,0.0542257139624103,-0.0964529739874381
38.265,-0.552312464812684,0.239542350181111,0.789033873346757,-0.0844168732390112,-0.0880708267177239,-0.165825716637105,-0.988852503380475,0.0770877937422569,-0.0335818229791427,-0.0217653297456367,0.24706107378006,0.092942638346726,-0.846951893538089,-0.195472645191002,-0.0779205452060612,1.07602422682127,0.0979800464395445,0.113024100526592,-0.833304139322676,-0.124948912203447,0.267692059035177,-0.62694727787784,-0.0198815653801272,-0.111373678660191
38.27,-0.553583732927121,0.244399245094821,0.789374052353255,-0.0875572330117629,-0.104782053687087,-0.160552650690079,-1.00244253583365,0.0636022858908538,-0.0288157969488063,-0.0619390676321604,0.231292640365759,0.0838415738242477,-0.829033418683784,-0.207335108602994,-0.0756591715717842,0.886228845598749,0.103378261347899,0.00301847136621222,-0.8609179269617,-0.0993916243394421,0.267263944979552,-0.517379677492452,-0.0795065676168482,-0.127912657136368
38.275,-0.550031862020795,0.213204767682171,0.793001342121176,-0.112035920332483,-0.111344862199548,-0.144341423745323,-1.01461290185688,0.0332203182238255,-0.0196022457077517,-0.139181231582211,0.196849428785578,0.0799490199501871,-0.832296509809812,-0.209438459740265,-0.076019868597973,0.610784374509601,0.13537139930408,-0.152708654519418,-0.898241127064441,-0.0607296041239421,0.259729210115991,-0.363828522210986,-0.129334548301438,-0.151024436375115
38.28,-0.56459273144788,0.184927098740802,0.798441613822822,-0.115207258121883,-0.100637400681107,-0.118915113484975,-1.02035388147014,0.0209468441434793,-0.0254944584750846,-0.217091005349974,0.176897382583798,0.0710152692333918,-0.845280371177113,-0.20956140517235,-0.0672488045157621,0.51242418720551,0.165508446294518,-0.24172152567257,-0.920430459636334,-0.0387035780783296,0.248011045054248,-0.256366959914743,-0.1475937387908,-0.170045255710934
38.285,-0.557087985771056,0.202604805352955,0.803267355207814,-0.115622854562086,-0.0960542608059105,-0.103583494306732,-1.02745834985761,0.00508018299604584,-0.0207080282472928,-0.279302746878665,0.167955166665058,0.0535271194817549,-0.867469284220042,-0.21870400971302,-0.0592396976329201,0.396052032696937,0.196857940993602,-0.372912593400508,-0.960605100771507,0.00343872634493563,0.2378421892481,-0.0697259055609663,-0.144338745839247,-0.209519405404955
38.29,-0.55345525629457,0.198543750394333,0.805321317560949,-0.12778803126542,-0.0785026882320916,-0.0875863255649392,-1.03671465466884,0.00322008989662252,-0.00505830343743701,-0.343447880347796,0.158793105108338,0.0405466717604774,-0.887168620906349,-0.243756409541719,-0.0480773246494472,0.32227623572626,0.204632029430683,-0.452377925029347,-0.983051692548481,0.0347439185622061,0.216891070938204,0.0799477911825974,-0.131054069375567,-0.243956091711345
38.295,-0.557059103495331,0.173971302217629,0.81524588434075,-0.134793312241407,-0.0627674587324953,-0.0684017516449443,-1.03471692567463,0.0329054683973586,0.0169085453192307,-0.376161822337498,0.14500813278574,0.0425471258479315,-0.908808810480878,-0.295140337345867,-0.036051139957283,0.186724135157456,0.201397904505972,-0.525162881123365,-1.00207849533862,0.0735546102250236,0.194751028316404,0.243228974271705,-0.115747658047842,-0.279962271809626
38.3,-0.544655374585853,0.168445702761902,0.813922136705671,-0.110045432963387,-0.0503402306270037,-0.0540440593947375,-1.01849082819314,0.0485345302810054,0.0338813841607655,-0.409145953636434,0.13266352604915,0.0419224575161934,-0.939268443923076,-0.340099959976853,-0.0245824443230644,0.0431287384631274,0.198735375438697,-0.611533448960723,-1.01219741196066,0.107109226730914,0.165708661042114,0.361634581579763,-0.105978776188454,-0.307417453435184
38.305,-0.54357853726605,0.173975926401503,0.818541217579309,-0.089608026698579,-0.0380552143407876,-0.0425946653163937,-1.00222771029967,0.0450104214755442,0.0305793282118016,-0.43941539963136,0.143280872274999,0.0405360831951927,-0.967996288492859,-0.377785169840694,-0.0029851101332428,-0.187675858719956,0.186870404241044,-0.675875111693312,-1.01040879301701,0.129841512053171,0.145083314939639,0.451472239752075,-0.108784022033109,-0.315933407000657
38.31,-0.543253536782083,0.175557339794483,0.825215972459889,-0.0768074397029808,-0.0281817112715429,-0.0302594146355317,-0.988448407423996,0.039193530079667,0.0300609775962548,-0.458444999647386,0.162330671455066,0.0351921852920704,-0.982796021557321,-0.405803028539183,0.0270953582212998,-0.373809607215059,0.167821586044167,-0.719180845586586,-1.01804647023282,0.154597411001616,0.121868702342334,0.52213196696377,-0.135765433289139,-0.315029959161509
38.315,-0.534747223303717,0.16828948982399,0.822331879891983,-0.0646350110640729,-0.0172922137372239,-0.0260289257601867,-0.983236166514977,0.0298770114814868,0.0276847816580988,-0.455815937543324,0.183585884677226,0.0312260162697665,-0.982963108159102,-0.41113947413167,0.0558275123708368,-0.456696498481387,0.144810114533179,-0.712309697821928,-1.03384933229476,0.172273220730597,0.117537495543071,0.568788452426814,-0.180019655428363,-0.30025314465998
38.32,-0.540437129360242,0.161120605016832,0.834871890277818,-0.0485550677746886,-0.00229375035582256,-0.0162313248728063,-0.993186860631758,0.0239000422704047,0.0190257447016999,-0.419664009779852,0.207043363950035,0.0204370354724656,-0.987758602312307,-0.416349317220023,0.0807008304724116,-0.463722095451771,0.126976853634804,-0.689466233347406,-1.06026543321437,0.198587679908277,0.123059029708335,0.58179851230349,-0.241142009850335,-0.287063205696193
38.325,-0.544640760156984,0.178186944257208,0.820747330529181,-0.0194211241843179,0.0296074987068424,-0.00662741461885167,-1.01064704246345,0.0476566375709907,0.00465904353709573,-0.331005466717692,0.212428425534185,-0.00137494922680723,-0.992678274724581,-0.405756123997943,0.096623678675626,-0.435671482795289,0.10569407502611,-0.651108233961643,-1.09545878710643,0.218476289241872,0.147924235389411,0.554619813440922,-0.299516254346448,-0.249650488693425
38.33,-0.558545899926665,0.196079025723489,0.81075294618093,-0.003381636370344,0.054451863508943,0.00448250805759269,-1.02504039910443,0.079549051817784,-0.0120911097659097,-0.218144101938388,0.225407646969886,-0.0296099594845221,-0.976241072476924,-0.392024610386062,0.112531207752424,-0.421941558162338,0.0812853329126176,-0.611100454060513,-1.13711306363752,0.23008088788188,0.179873513873143,0.497782401500815,-0.34461784493228,-0.215531277392462
38.335,-0.544746738906117,0.235879360915662,0.795375387545625,0.00257325189296843,0.0549375936630749,0.00749532273156638,-1.02423936074302,0.116275943578856,-0.00266124801135581,-0.114392722919788,0.219225509626371,-0.0526607883797456,-0.977572954344456,-0.374515077661393,0.143403689567856,-0.405032844225562,0.0578829816447325,-0.521487265004034,-1.17003541809199,0.239734856777025,0.215729853881499,0.419190018606536,-0.377007228283679,-0.171148559660297
38.34,-0.548025929599455,0.248132393080451,0.801367243812057,-0.0249715041558102,0.073729401356484,0.00048562355064303,-1.00932579584755,0.159305676016131,0.0146452381995253,-0.00730569328526122,0.229327120163544,-0.0707691723001521,-0.993739179751611,-0.36284020606501,0.182386323926082,-0.379696844112123,0.0381439821162531,-0.437279757387122,-1.20790358136192,0.250373796384784,0.262387308893026,0.289175076403544,-0.402842354604546,-0.0986847937554265
38.345,-0.539869915035346,0.243099860976632,0.796402469197256,-0.0344482742378606,0.0696195141938044,-0.013698353185866,-0.993781592047841,0.175723329229131,0.0244909010338073,0.0494967408015222,0.232722046966154,-0.0747176349266406,-0.983869953178594,-0.364775393289741,0.225590387466199,-0.33596649089316,0.00981436582628736,-0.35808269728346,-1.22573106113998,0.231752570689903,0.289442449700882,0.165095689288589,-0.404795428256749,-0.0385174253538637
38.35,-0.539297950365311,0.241623504720417,0.796434828762542,-0.0397257316959753,0.0619210958889542,-0.0382805160572042,-0.975304192575569,0.175637826823139,0.0216288518607234,0.12765116520025,0.23041951565585,-0.0770440734915265,-0.970524093648208,-0.380972225485536,0.265208702763316,-0.254944374002069,-0.0131486448652874,-0.267587716209261,-1.23535923087131,0.197486440657662,0.306496246655076,0.00860931390497406,-0.420049287064303,0.0249905201536996
38.355,-0.543570108202376,0.24256002453962,0.790653664494375,-0.0594458920956598,0.049648471812378,-0.0492419107131945,-0.956201701630682,0.157730478012928,0.0112901519139061,0.177418099830044,0.241759919173743,-0.0765819177031517,-0.957542795059678,-0.396011542036895,0.291764580981801,-0.14422522583931,-0.0246224634377254,-0.206250380761326,-1.25147267334765,0.157942550621767,0.30833226379109,-0.152519630809296,-0.442969804243829,0.0835808623507476
38.36,-0.546372178745085,0.243894278512436,0.79308019861002,-0.0669268667697906,0.0470618351081929,-0.072327548926858,-0.94916986240882,0.141062868047247,0.0140469396625227,0.242434774832923,0.224722085692325,-0.0866493524741799,-0.932865572669589,-0.417792874296235,0.308628629776933,-0.0193444550679816,-0.027250641844805,-0.1343816032083,-1.27375622594516,0.123087415351764,0.295044841831509,-0.30729595468584,-0.464722613043184,0.123854622959186
38.365,-0.55611180861318,0.233332190183506,0.798885090952549,-0.0659794275582577,0.0275879131787184,-0.0872260446192661,-0.968208276021546,0.135434264475228,0.0254777823908605,0.30034077611331,0.188153796955187,-0.089721599638655,-0.907947217042636,-0.431327365605096,0.288939294995876,0.0747231073962924,-0.0149783131398901,-0.0876698295130798,-1.30233974918831,0.076009034345136,0.277002242872776,-0.47038776452984,-0.494738932047322,0.151650817009056
38.37,-0.556920339756911,0.246270810532883,0.79839134298834,-0.0675987608254614,0.0230075207197145,-0.0975743301688966,-0.975692195703608,0.120678978050055,0.0122473288770344,0.336177861025929,0.144683527786331,-0.0912422463297844,-0.884646327941003,-0.449817511939942,0.250431977383004,0.171861768130055,0.0125175926295222,-0.042081973064482,-1.31432490000511,0.0257333383325452,0.254949543058482,-0.629983264749412,-0.515093445643223,0.166931707932938
38.375,-0.544595579827325,0.235377148616185,0.800525183756682,-0.0856377910104306,0.0238479061451111,-0.110985870288177,-0.981418050330135,0.0971635662256096,-0.00810878822141064,0.339629460146159,0.131447799497582,-0.0976770231412502,-0.883016162899192,-0.470915951575587,0.209131173766836,0.252013262614144,0.049486339986471,0.0108420181689293,-1.31309396688027,-0.00587122029211853,0.232099983266777,-0.720187000673454,-0.517577886581421,0.155662176126045
38.38,-0.54523563218604,0.214940322237204,0.797321963249634,-0.090095290709012,0.0230587792099067,-0.116773595910849,-0.988758296417324,0.083690665863372,-0.0229253115281774,0.308977719981164,0.132143593083204,-0.0973507240414619,-0.885548539752846,-0.483217513668736,0.173256334859067,0.290197948812867,0.0799783965772984,0.0613176005731342,-1.27595716792056,-0.035789436820684,0.208387055375567,-0.763427232296321,-0.509508479505549,0.115397276523459
38.385,-0.546863753202302,0.224110594305466,0.799303023732476,-0.089115450973403,0.0212991948305604,-0.127756746839961,-1.00031476787673,0.0767776450681721,-0.022196888554881,0.27108353871215,0.124279784209997,-0.096892839487267,-0.889752408050172,-0.487277096083133,0.142956768687255,0.290641275133859,0.1103524081248,0.126026715004159,-1.19221809837081,-0.0696367570875988,0.197625272543188,-0.74153555499329,-0.516375523082599,0.07088561777062
38.39,-0.549059317282604,0.218792081977768,0.805302457742134,-0.109650522651588,0.015243721093711,-0.127687678959578,-1.00362530733266,0.0706811710926812,-0.0272070166203311,0.20254121821326,0.131137072919008,-0.0938477949341233,-0.889500656838856,-0.478344360903001,0.118300739677863,0.277669756487522,0.130942532745293,0.177011666391408,-1.12001373809292,-0.100567626744958,0.188561269512908,-0.701266096742535,-0.533979021163761,0.0231322501729315
38.395,-0.553731815118726,0.200446682556167,0.808419777752146,-0.111321437507972,0.00351035686681797,-0.137183576325229,-1.00422075036944,0.0692212199872522,-0.0408576391921734,0.148533507371919,0.108794898911173,-0.0881772300821976,-0.88352126053499,-0.447058221883212,0.0852818536493605,0.247572981351973,0.152934422116346,0.232665542792509,-1.0427895309957,-0.140342822179324,0.188297310600794,-0.619868618631199,-0.569366979091676,-0.0544913076758289
38.4,-0.546506693193577,0.195229307340178,0.803124177158615,-0.0971628490016596,-0.00397668220102787,-0.125889443068694,-1.00986700554234,0.0613770845770878,-0.0572421494008447,0.0731323324103906,0.112397646326577,-0.0883833027165464,-0.880448371345159,-0.412919001671528,0.0589641761393155,0.224296437306728,0.16887368541225,0.264060859944536,-1.00130727385538,-0.165129903158907,0.178385590344873,-0.541432287315995,-0.608189492344799,-0.125505532143714
38.405,-0.551587418685371,0.202415258633014,0.802092495235548,-0.100201182472293,-0.00727008320577308,-0.128409064618422,-1.00637300243565,0.0573324383385574,-0.0678023155634703,0.01320325275185,0.109774858236573,-0.0892417117751847,-0.883106454508649,-0.382621594871565,0.0481812612415053,0.171934301896121,0.184695358688423,0.27830481766934,-0.965068709499687,-0.188962916223446,0.175551322926493,-0.461125855648069,-0.633224759203274,-0.184668915349611
38.41,-0.549560643793268,0.214185222977169,0.801995463366469,-0.114645517074201,-0.0117559145883802,-0.125447073629283,-1.00113054803114,0.0523350590059469,-0.0671268276678372,-0.0477482492973402,0.100656120448257,-0.0991666593447074,-0.883436688950084,-0.352630299968416,0.0501046386960208,0.0874583904759556,0.198530371452348,0.263156570656107,-0.939391403595113,-0.204163897733117,0.177675339795219,-0.398462119098641,-0.64707750082016,-0.235299719718572
38.415,-0.548038614829594,0.215241592170939,0.795865309780897,-0.126838398445705,-0.0188321628031975,-0.123120069775868,-0.99139190417788,0.0587126846478874,-0.0583277232387644,-0.107245904836769,0.101943040820342,-0.104201843307605,-0.872827305408238,-0.331968350542927,0.0525623462459885,0.00274330880724956,0.205043921308587,0.24279377704574,-0.922323917952832,-0.211812488723833,0.179316542353809,-0.36784889972511,-0.61830495412277,-0.262853985003058
38.42,-0.546126308439869,0.210147688840819,0.799402609760355,-0.130603991210303,-0.037915774211754,-0.130188944715171,-0.986882110517839,0.0644128049946839,-0.0446231914289739,-0.140390750923712,0.0991111938139307,-0.102920575032512,-0.856942131781562,-0.312187130755502,0.0577040635077199,-0.0405901584728856,0.207258625331135,0.187272467022339,-0.897309164244346,-0.217746071440061,0.185432416725191,-0.356442600488663,-0.565722092243903,-0.268788447697529
38.425,-0.548340650557557,0.207820034848201,0.799840285705077,-0.130738624752965,-0.0361003507383887,-0.127370362990714,-0.992174432523305,0.0601201200218355,-0.0445768534112955,-0.170235293552728,0.0813988662998798,-0.0962917733933306,-0.836528590568589,-0.298715004686196,0.0714917940803753,-0.0237219055604086,0.211269522552078,0.0835295995729477,-0.865322820555122,-0.215726571948004,0.198060845157204,-0.352765958645493,-0.471465751592381,-0.262048261332642
38.43,-0.547577704754903,0.205543058194815,0.800085160360691,-0.133126359090746,-0.0511796903859811,-0.131782598395651,-0.992067784335507,0.0565918286547964,-0.0435975864497514,-0.184018095460704,0.0699153766036034,-0.0901656714533958,-0.825604483883951,-0.307530823635927,0.0812363433425743,0.019610260600618,0.207506527833037,-0.00692264084661507,-0.826700195513276,-0.193963787113018,0.215898542170635,-0.331783872421926,-0.365985322602936,-0.240878093960449
38.435,-0.541421802689439,0.213897285466799,0.798999598892618,-0.139681586811805,-0.0570475498709386,-0.132180188690555,-0.985076024720507,0.052708626258476,-0.0395318292460781,-0.189515180230484,0.0666963232029759,-0.0855798048247181,-0.805517290463099,-0.337598331916282,0.0793393762789064,0.0777919982798705,0.200341564538174,-0.102935926986104,-0.78626991092213,-0.156193584792963,0.23335350504716,-0.264241344104688,-0.253546627162971,-0.211622400356726
38.44,-0.5324586818034,0.217754883017923,0.804595129980601,-0.150956714775999,-0.0618736409511976,-0.126612269186354,-0.98281314357212,0.0461162568637605,-0.0185418545305851,-0.171590076998145,0.0653214359091624,-0.0831799932303766,-0.793076606601475,-0.372477672114954,0.0735113142704013,0.120883679735381,0.191787982959775,-0.174551312910621,-0.763622481634203,-0.127246167570673,0.240451738806195,-0.204590956301028,-0.195200669275404,-0.186325150941411
38.445,-0.540247723154803,0.20005372807401,0.8108586872239,-0.155453740484933,-0.0674095691572023,-0.122115254326023,-0.98061824690254,0.0426578723792468,-0.0212065444735046,-0.141869284719007,0.0670143452858216,-0.075973038901999,-0.800848179831695,-0.402353098494043,0.0657846109062787,0.156459775395846,0.186309639585712,-0.243206577808282,-0.741118833780486,-0.0792695779318719,0.251643908961661,-0.0989141313130762,-0.120651716936617,-0.145851210561249
38.45,-0.542972093512168,0.194380476552272,0.807576983198281,-0.14628167885017,-0.0727108333570968,-0.127434931039255,-0.982055140614388,0.0504814455768907,-0.0201910302621998,-0.0947944250023678,0.0602019503431733,-0.077453090166242,-0.815217160602521,-0.41717546978922,0.0624771074623924,0.170958877640189,0.183114017679782,-0.294612936652871,-0.732665755042987,-0.043070257939879,0.259893067748517,0.00528622051545035,-0.0671288417630114,-0.125041996418738
38.455,-0.545065251446798,0.196164766747353,0.807659434657854,-0.13508497360225,-0.0790325354538669,-0.127704732275931,-0.987196083332911,0.0583249874861765,-0.0157694557749776,-0.0529222572268544,0.050048115755181,-0.0791755633892385,-0.843328089326672,-0.41828017362465,0.0603007487401681,0.175923699445479,0.179407072077561,-0.311116181868717,-0.740831916020417,-0.00999599564725837,0.268030429031856,0.13294512989678,-0.00840781224740868,-0.11278794901672
38.46,-0.546328665692566,0.205521804728397,0.801395779178354,-0.127853782085603,-0.0804699935135732,-0.126777809215728,-0.993332642564088,0.0719000637870744,-0.0142050075057734,-0.0136604694198046,0.0369888385039326,-0.08082824206241,-0.874126982839659,-0.405573644028159,0.0636655133546457,0.210312089440302,0.163441356208265,-0.307084016375423,-0.748087077237545,0.0194128112714256,0.272232687165803,0.254103911511176,0.030499811334249,-0.114050135771915
38.465,-0.543313195374855,0.212288387058056,0.801408563841314,-0.127264270039384,-0.0796502034974832,-0.123830270555566,-0.736648994147767,0.084664712345562,-0.00331829455966039,0.0290700570426956,0.0117994572554914,0.0624799434605518,-0.893854513766216,-0.394042589265945,0.0656361724858397,0.227896230602397,0.151790478310495,-0.285981336326415,-0.765469832864122,0.0388883226665863,0.278612824326155,0.363932883513331,0.0650165270146376,-0.116273507475853
38.47,-0.540696683055089,0.203804117450613,0.805292192588458,-0.128789298274203,-0.08183142331755,-0.129900005173285,-0.735294360660247,0.0864936478014043,-0.00263763973610473,0.0386319804104028,0.00282302107597319,0.0629205029390301,-0.920177107570723,-0.379323224637653,0.0590861393273214,0.235907592434673,0.137870730060343,-0.246440594911557,-0.785920587832705,0.0641857766036163,0.285071585141321,0.457045988166523,0.10738502194775,-0.111891396867456
38.475,-0.541717706706337,0.196637658337734,0.810394619008038,-0.118385325003825,-0.0885370107967478,-0.131231978535652,-0.986828115469527,0.0830639497106536,-0.0146895233739448,0.0237173090149145,0.016935935594585,-0.0836143657419062,-0.943754113726975,-0.368988489034754,0.0595319084006534,0.221957286758955,0.131754250340456,-0.219959553821006,-0.809294044595022,0.085342419384203,0.284868458463813,0.529077356825636,0.124967995668122,-0.105829866916059
38.48,-0.544245397687189,0.210932551575558,0.804764905071477,-0.127110325458429,-0.0803626043851814,-0.126665630104921,-0.983171332015958,0.0719231545599768,-0.0124335996754464,0.0232443879179032,0.0273436005362612,-0.0980894121776917,-0.963224879093445,-0.345984712899237,0.0606853872246939,0.177082294662295,0.136083235530479,-0.164170062900887,-0.832264548118299,0.0972133020160081,0.286027702951925,0.569191956795493,0.143810727003747,-0.0935841225130484
38.485,-0.533745276837724,0.215021049382329,0.806102874910731,-0.130656473783445,-0.0803389668278534,-0.125467825184826,-0.986296938901122,0.0613845127110009,-0.00100771580614824,0.0115482868797001,0.0272261799675307,-0.104384228250733,-0.977931365913293,-0.328551495511832,0.06522392363825,0.130325602717029,0.139383393930998,-0.11651907418048,-0.856646962049405,0.114256121312623,0.283534704658562,0.585293234705131,0.144818317412678,-0.063597198320267
38.49,-0.536081041433431,0.189209896041313,0.806473282494891,-0.127440447339455,-0.0681553525748398,-0.120236732065678,-0.991750161893645,0.0576346933255916,0.00432155727813059,0.000936003266690415,0.0324675241753901,-0.10360075274271,-0.99019594928071,-0.312883803831015,0.0647419032575646,0.0733986498437041,0.144032841805524,-0.06306960705671,-0.87174026142588,0.122005778015598,0.276699884737368,0.556173734432416,0.12748208272753,-0.0239225470589186
38.495,-0.533570236314318,0.17632443672029,0.81250906051139,-0.110239948909057,-0.0585506892649848,-0.113726008578988,-0.989613483446474,0.0374221698287693,-0.00434370817676015,0.0190132367140702,0.0251586904441286,-0.0990184267674852,-0.995853172899926,-0.301565952653469,0.0547411899277049,0.00627969401803771,0.138201756371758,-0.0363589181196641,-0.894000569214749,0.131376749784443,0.265333017151777,0.481286064330043,0.100420447051007,0.0386268091624184
38.5,-0.535586607566626,0.183704275118484,0.813774084709302,-0.0930072905396844,-0.0565623765514569,-0.111472225208657,-0.987885280586053,0.0260959025506041,-0.00813953730678233,0.0377575961624911,0.0268633692771333,-0.105558991040196,-0.997258971175486,-0.291503100388888,0.0384976422701676,-0.046300350643323,0.133015675520914,-0.009947301212195,-0.901320297273704,0.142381291015734,0.253986649518411,0.40010601508898,0.0864908613830161,0.101751577831012
38.505,-0.538769800310589,0.186809658429675,0.814889949651994,-0.0853252416666573,-0.0415756956767867,-0.105703999512128,-0.995171815720501,0.0184136168719846,-0.0104194275110713,0.0749784886011954,0.0288722705075834,-0.112011060118675,-1.00075045474027,-0.288032574588453,0.0116475225366067,-0.0700043984066093,0.124663206090958,0.00718207980930304,-0.920595788918493,0.139368242561534,0.246572972823015,0.30322341057231,0.0654767578989681,0.16061610005945
38.51,-0.539538089138035,0.178108388409835,0.814965104162833,-0.0776945817264515,-0.0383997712093073,-0.105456684377606,-1.0005714222907,0.0145314726839614,-0.00746765333911658,0.113832266006193,0.0357079282402992,-0.111244574997922,-1.00221524797699,-0.29015597547759,-0.00402949282644218,-0.0708984528813539,0.114657414059851,0.0194188051274798,-0.940149714490293,0.143810413893889,0.23708562683862,0.182312630293969,0.0680808908350173,0.226663382287298
38.515,-0.535633560349956,0.168738010256529,0.818793981605375,-0.0722217245418901,-0.0313980714840806,-0.0975686397528812,-1.00026902951883,0.013805537663731,0.00203232006097855,0.137675071420413,0.0421496007039211,-0.111862976149384,-1.00227501844216,-0.302110345429791,-0.0134039646089808,-0.0915499307464182,0.107486729633918,0.0311787348298516,-0.959762297945189,0.138897791470838,0.226433562671002,0.0536479735816339,0.0652285662090151,0.287633603745511
38.52,-0.536129679974854,0.158804663379641,0.82800533100916,-0.0360308338313464,-0.0273078191206591,-0.0978925607376865,-0.999583966229022,0.0144869738279655,0.00973935021661346,0.163762746057691,0.0306768494220952,-0.111145243582678,-1.00083664815474,-0.31399865338505,-0.0108476682029085,-0.128610830281088,0.112135654035012,0.0280218049259619,-0.98068430571163,0.118720806748165,0.228016277207223,-0.0723885736480868,0.0710627156823539,0.333892543453447
38.525,-0.532717359845934,0.16414685114166,0.820304176354057,-0.0166613566312299,-0.0184806224235371,-0.0886290662607893,-0.994877632738202,0.00988059897021765,0.00842609960827809,0.183977099165884,0.0309297977730453,-0.107341570646852,-0.992902316558254,-0.331481168188799,-0.00902237377436829,-0.216197933074335,0.123937118066526,0.0460953487837215,-1.01055138446658,0.0872437434319916,0.223601569971011,-0.198769757476572,0.0692328645361544,0.366266344995896
38.53,-0.535791210646137,0.172325460142274,0.822372787227434,0.00324929923622747,-0.00611610844520964,-0.0831641200763612,-0.997441120963263,0.0160937997101693,0.0105423995165214,0.202492222041387,0.0317406103311979,-0.112773025021006,-0.987562605890065,-0.338619180532191,-0.00513065652497665,-0.275668441432982,0.144829083159172,0.0614399019946667,-1.04904364677087,0.0621952711699545,0.226075823608672,-0.301682101656318,0.0656951431588261,0.365831210491123
38.535,-0.536319175486163,0.183703690963023,0.822666717185962,0.022435608649729,0.00504200303698712,-0.0765576720119049,-0.997285031383782,0.0280331888319713,0.0078629369048393,0.222948780683854,0.0371648627576055,-0.114290038217273,-0.973863519790741,-0.343028297540174,2.27300158995285e-05,-0.334475118743994,0.156833840731921,0.0895385733002934,-1.08335106768824,0.0265851264773478,0.228984617140767,-0.404634858694346,0.0524881386683232,0.351565827939782
38.54,-0.532684385207602,0.18974077670933,0.822382702173275,0.0279128986509511,0.0143640133083029,-0.0762557238340378,-0.995996079273123,0.0398953975933427,0.00416476248119034,0.238074724110652,0.03498636927731,-0.116564413612533,-0.967493172977455,-0.340418018777803,0.0122838431560049,-0.35117982067653,0.163102145981905,0.10599363217049,-1.12196755324443,0.00264857664681443,0.226664831307404,-0.468442179339545,0.041309475232294,0.314434405744693
38.545,-0.540542543175715,0.186554324179456,0.814860808464639,0.0282064345361433,0.0262620161450403,-0.0612846863419568,-0.995778566993033,0.0458091502428688,0.00788448899068001,0.247872364800508,0.033426576114165,-0.114831828931304,-0.956353697368601,-0.328340368094965,0.0284573682365938,-0.320349546887718,0.170083753676127,0.12033855132531,-1.14967351035407,-0.0174952608548446,0.239917790777614,-0.524230060257615,0.0336663348990303,0.271394062698394
38.55,-0.538152222331907,0.189926622435368,0.811625005842106,0.0402174303413649,0.0273522619273516,-0.0631819040268604,-0.994672478402503,0.0553161236974687,0.00407373827246507,0.239400263677691,0.0473781824788109,-0.116855067466322,-0.946802765692233,-0.313004451085723,0.042930963752822,-0.326052858575034,0.170164838433266,0.119297724247072,-1.17985931550654,-0.05349638953937,0.239186382060703,-0.562584612144129,-0.00151820612155052,0.19134500931752
38.555,-0.539903568056656,0.198213466667211,0.811888286670963,0.0568663281423256,0.0323339290944336,-0.0654615004499367,-0.990932796623396,0.064234621485012,0.00769115039659984,0.233491604354887,0.0491465702652931,-0.117746276246057,-0.937804162823213,-0.291457672969523,0.0609622034758563,-0.307112182399234,0.167340453969442,0.101211759118522,-1.19699623952482,-0.0777849310394211,0.235381528708163,-0.565261080097659,-0.0372771972116654,0.134913842046487
38.56,-0.536847906963718,0.200782391774734,0.813781266811942,0.0418672926456657,0.0375428329638282,-0.0555276410846997,-0.992406137737931,0.0673757857531903,0.0133190386688215,0.224317814442482,0.0575738445682265,-0.119323426708763,-0.933279115443148,-0.272664396899689,0.0721050782897066,-0.279223427784687,0.152324764773716,0.100832279934968,-1.19649651770913,-0.10465967545407,0.233741063166024,-0.539494094415548,-0.111361727792649,0.0426895435270008
38.565,-0.542316704498524,0.204774808477745,0.808380860788983,0.0457452147153289,0.0316490238238467,-0.0569847992506893,-0.985533353872362,0.0741717051862285,0.00421687792055855,0.212583345662648,0.0602973792768314,-0.125146166736338,-0.927846884931673,-0.265791201887969,0.0801858275175744,-0.238843943536944,0.136399223134011,0.0729465681867757,-1.19781908265107,-0.119298464212586,0.228740030054478,-0.496328419801437,-0.154932366673935,-0.0154324949289539
38.57,-0.539608985373454,0.210402157797025,0.807782405879956,0.0434867632472981,0.223277776905439,-0.0562474872087966,-0.98357295829216,0.0682727312895694,0.00514929077541118,0.20355350057071,0.0655749128272852,-0.127418809321337,-0.930813273052578,-0.270004382152371,0.0786359846614169,-0.227176166588358,0.113125467514163,0.0519698660009602,-1.18188695398537,-0.126348370285453,0.230147342879224,-0.399023879419987,-0.232461444102547,-0.0826429816559883
38.575,-0.541845418200468,0.211486681308631,0.811363155092397,0.0484295154984896,0.064661688417337,-0.0523855129121433,-0.983438105016159,0.0753452528478175,0.00743759586912894,0.186948293596386,0.071742336035521,-0.130028262136621,-0.933569751968088,-0.283956418897347,0.0715971318578357,-0.211372414296857,0.0822475065461753,0.0226331738128887,-1.16187998413784,-0.130826812821675,0.226786640824796,-0.288091521515677,-0.311010159556236,-0.14791114948873
38.58,-0.546284868999523,0.192155852505704,0.812096670529089,0.0508256636765047,0.017857199279585,-0.0664821714162827,-0.991135546004964,0.0619430943838587,0.0086158836343365,0.168359494804692,0.0733591742849145,-0.132208202098469,-0.933681740648692,-0.294779881810689,0.0645925455673569,-0.208618081346,0.0608645958473798,0.000829873429821735,-1.13635590896552,-0.133355547049595,0.233314385279261,-0.1733635358886,-0.373330405239299,-0.216257828280441
38.585,-0.540377070426331,0.197897175970206,0.813590727715069,0.0554079496833723,0.010781531580429,-0.0697186428132167,-0.989847876885431,0.0657781090166751,0.00647320530941228,0.159637353931005,0.0786611657481739,-0.130592432917258,-0.93949203653349,-0.30473867296215,0.0599711557341608,-0.21221346478105,0.0409138148787088,-0.0267676483802136,-1.11664963298885,-0.135281834860101,0.236981390464342,-0.0970513761935691,-0.397444823250683,-0.258386832594322
38.59,-0.545508140353159,0.205007925748012,0.812868330671777,0.0561932789004881,0.00314913585933666,-0.0742876828772932,-0.991752893935469,0.0665599761096972,0.00923262012375566,0.14771679032031,0.0660077336232851,-0.136688991589813,-0.942680162227174,-0.309847324634029,0.0618065776259555,-0.215273745204073,0.0295861692801275,-0.0441987109663897,-1.08447064400417,-0.134331037398202,0.242500646085535,-0.0120338749175375,-0.387638505694999,-0.314537527248398
38.595,-0.542402012094071,0.207170205484761,0.804196009532434,0.0447240035251844,-0.00173596943037447,-0.070656762802688,-0.987701746917999,0.0636182339457698,0.00661782810962036,0.144416466635901,0.0611802042933497,-0.137666642665863,-0.942739549980733,-0.315360731125019,0.0734869786221199,-0.217269382906553,0.0178868879830937,-0.0655508307206432,-1.054924097707,-0.130520920540668,0.249841102459122,0.0548359494314494,-0.364912284717147,-0.35359180975813
38.6,-0.544618786805082,0.208312249419529,0.81156563211192,0.0443181906422586,-0.0111629957481751,-0.0804962248338394,-0.983649714838487,0.062777938055055,0.00100078835715825,0.137067405393484,0.0727442887428642,-0.129628808896176,-0.944889373261232,-0.31437840581143,0.0790421139796935,-0.224407161032498,0.00380204971525287,-0.0504303331469159,-1.01756080552118,-0.120237894719894,0.256032402391498,0.113316992555069,-0.308536790940846,-0.392522601738509
38.605,-0.540152852119811,0.213947210547364,0.810872651054435,0.0344088987029991,-0.0117393206016998,-0.0857265695689535,-0.976190124450403,0.0635148821778005,0.000303662028106273,0.132973718588792,0.0784662168846557,-0.134164378653418,-0.943063669086947,-0.316829097966628,0.0900350650970916,-0.220597306401867,-0.00101248657988553,-0.0467313183917689,-0.993570067605403,-0.108684312873858,0.259318790850313,0.14239875734617,-0.267200532017604,-0.413340284232148
38.61,-0.540381619243099,0.222227851719362,0.810582316199031,0.0289492041061288,-0.0187589287899283,-0.0896263505744655,-0.979735809690676,0.0625402590867822,0.001261816342576,0.129045119778682,0.0902520324820612,-0.134950104165563,-0.93793611094741,-0.320081811144925,0.0991144207172513,-0.211858720776611,-0.0153120201699366,-0.0324317860129206,-0.963983357462295,-0.0834476723774543,0.260929687393305,0.166732304375023,-0.225833513940525,-0.425507057746575
38.615,-0.535687206517616,0.216608718429646,0.808163580169331,0.000870839287948907,-0.028989725122098,-0.101911313831806,-0.976660464838188,0.066542841382244,0.00603290948908305,0.113757090546355,0.113641965810515,-0.140848080116786,-0.930540540972331,-0.33280796741145,0.106886173179876,-0.204532556334484,-0.0290944712201933,-0.0240854041247926,-0.919754539673136,-0.0660378196809802,0.27094196784417,0.169578107816835,-0.163279985033644,-0.42637920390464
38.62,-0.532552089979976,0.217764480313838,0.808266904792442,-0.0103538162430626,-0.0350361179196371,-0.106845412963552,-0.976786472556087,0.0692521342727369,0.00667510420946314,0.102133696348484,0.124326013105392,-0.138888329267502,-0.927656121647295,-0.341304339984896,0.111171196208729,-0.1913687849054,-0.0325332624958943,-0.016535415103636,-0.893605111749531,-0.0373972303568584,0.278311997146481,0.166044084421342,-0.118834795317623,-0.415340305055854
38.625,-0.53194587352164,0.223711686039513,0.80412494804153,-0.0317997440654602,-0.040123671451267,-0.110211246178719,-0.974192559751072,0.0731959889624448,0.00437322629323564,0.0865812909923546,0.133112847512801,-0.140888203194423,-0.924662020420903,-0.347113703461148,0.112426659735505,-0.18708423046723,-0.0365878502902556,-0.0120658594451237,-0.868196326464927,-0.0180823307989303,0.279280652728103,0.165220946073532,-0.0891673826532418,-0.403008415311154
38.63,-0.531182427416736,0.219523518695498,0.809276588568249,-0.0501408336429515,-0.0546672736796459,-0.118023043857565,-0.97532993383993,0.0760860056714784,-0.0066638377229103,0.068701133686729,0.136539844943497,-0.141331732273102,-0.920666555752828,-0.348725629153519,0.112403956744819,-0.162991728961633,-0.0366886416042161,-0.00726940183058965,-0.849343732003928,0.00728913284755179,0.283529033656192,0.151642666227456,-0.066165637256863,-0.375854469686222
38.635,-0.533062679232612,0.220219588224484,0.804179138401422,-0.0737885216015041,-0.0575344033192993,-0.13131331461835,-0.974484732919295,0.0767547277592762,-0.011580411867455,0.0378019675662382,0.141500131357177,-0.14396665495033,-0.914677895941508,-0.352011091647516,0.11185172160354,-0.0934123463032825,-0.0378575013210799,0.0094479882479489,-0.831389117429654,0.0257917731852138,0.286377910537818,0.140422175382694,-0.0547104300001335,-0.341474144373986
38.64,-0.534998997409407,0.220539736283906,0.807537036009687,-0.0817863238196115,-0.0596633462777009,-0.134641413393518,-0.979555774827908,0.0763163715108082,-0.024084628650332,0.00926404155757763,0.154822022768169,-0.144167885907404,-0.908357624322449,-0.353140371497122,0.101235254100821,0.0143225698571748,-0.0307630844343836,0.0294883179824114,-0.814236619153727,0.0376025719696204,0.287122414959423,0.137077921845742,-0.0590738672015558,-0.302355887865942
38.645,-0.536253242333853,0.205247366829473,0.804910886052477,-0.0909607033427274,-0.0610803911016168,-0.133991302279959,-0.983197865940461,0.0649321861832452,-0.0412727381476228,-0.00889395110003868,0.150010587538592,-0.145361302122992,-0.90570598805731,-0.356951492667886,0.0839327754641772,0.126107976933705,-0.016866840911763,0.0458649333854482,-0.79772156437058,0.0447178230960916,0.288979317619053,0.129220627888376,-0.0685871355592727,-0.257512671139369
38.65,-0.53740017884085,0.198433436926947,0.806187111466361,-0.106314437607688,-0.0630643691486391,-0.137011443747336,-0.987823480454351,0.0547847445079287,-0.0502127505786006,-0.0235552122067321,0.149563834729058,-0.148414969733734,-0.90694971821378,-0.364065771886705,0.0698304620717653,0.183717842265581,-0.00406260754729617,0.0639358304736788,-0.783896151810513,0.0443017492595845,0.287841658838272,0.112500082769611,-0.0757612249572291,-0.212510876474235
38.655,-0.537591897716186,0.202166896695757,0.806100932554931,-0.120034239991528,-0.0606778425233523,-0.139352615508534,-0.994142174801972,0.0457853868896463,-0.0557598005217695,-0.0351369998138282,0.154947272016395,-0.151840253752266,-0.904153686223156,-0.371876725401929,0.0600875680333444,0.204780909855073,0.0148077596706189,0.0700477530997872,-0.775514441398213,0.038320718825355,0.289169718273372,0.0983260884910037,-0.0778064571083923,-0.168633992977958
38.66,-0.536810146952096,0.2028447770975,0.805682755828991,-0.128255836341211,-0.062427896727147,-0.139783844351768,-1.00087713765177,0.0373979398810766,-0.0605269789724668,-0.0349513365064855,0.156994360433815,-0.155580718324607,-0.900325519468937,-0.377686688666514,0.0520241630660311,0.21216806082761,0.0344800236615959,0.0686368475672969,-0.772292512450127,0.0277959525451029,0.296398675988076,0.0856797144522563,-0.0618746203168671,-0.122719707987581
38.665,-0.535761793015338,0.200131525028314,0.806139203462693,-0.134373347384378,-0.0678656810969267,-0.139783844351768,-1.00808458235431,0.0315567835997296,-0.0634924460975277,-0.0254836942705624,0.157670624423152,-0.15963827751534,-0.901676335215275,-0.379573262147716,0.0440710664794837,0.2023240066524,0.0456366208615888,0.0758558216963989,-0.778871248594862,0.0193153648508063,0.299534760202628,0.0621767964106328,-0.0233559494690745,-0.0737552942395948
38.67,-0.537266934395334,0.192884553144225,0.809735496329827,-0.138552187405441,-0.0639108557816062,-0.140318911740112,-1.01169455569911,0.0241577750291244,-0.0652479435352165,-0.013818322174881,0.158315919330465,-0.159563225268353,-0.903529164587233,-0.374557579545955,0.0381696138630185,0.179072275115396,0.0554614961762142,0.0857796353359753,-0.790249529538001,0.00918734777365326,0.304284700063065,0.0443198563946595,0.0219088558516176,-0.0280831359117995
38.675,-0.539253356001664,0.18478307031417,0.813923584065228,-0.142366411842825,-0.0581895152486486,-0.140954611936127,-1.01371848262399,0.0160719434652526,-0.0664699918081869,-0.00118510653979971,0.15894757597108,-0.157668239937618,-0.905761818927949,-0.364319629923365,0.0338204410395277,0.145688086424585,0.0642799619106868,0.097747551746536,-0.807590287876415,-0.00298727181855823,0.311039533764898,0.0334715061147418,0.0755479213287395,0.0135022074404715
38.68,-0.535828987503382,0.182244671164824,0.816019884487862,-0.144699288905699,-0.0557038798917944,-0.137964489309432,-1.01202829022404,0.00764229802885406,-0.0655286536267833,0.0138823629378271,0.150271557711056,-0.15480624354495,-0.908269440414204,-0.359592813573423,0.0282090323317754,0.119692366398106,0.0783312879727555,0.101857988020831,-0.829281141894255,-0.0140569045937156,0.316365101488406,0.0258939230425114,0.127116747764822,0.0506280765535247
