Header,foot_Accel_X,foot_Accel_Y,foot_Accel_Z,foot_Gyro_X,foot_Gyro_Y,foot_Gyro_Z,shank_Accel_X,shank_Accel_Y,shank_Accel_Z,shank_Gyro_X,shank_Gyro_Y,shank_Gyro_Z,thigh_Accel_X,thigh_Accel_Y,thigh_Accel_Z,thigh_Gyro_X,thigh_Gyro_Y,thigh_Gyro_Z,trunk_Accel_X,trunk_Accel_Y,trunk_Accel_Z,trunk_Gyro_X,trunk_Gyro_Y,trunk_Gyro_Z
50.05,3.85274308490224,-1.61600850031293,-3.04269857276336,-2.7100634269451,6.31693301253311,-1.85915883957424,-1.85229677343442,0.349429110941262,2.60719316670883,4.54550149624179,1.39207854372158,-0.878283174538831,-0.597351261525041,0.0364597191051992,-0.775086206946718,1.07177311309475,-0.597370531305766,0.866755344901431,-0.840956350310141,-0.121492657674294,0.212835343055478,-0.489869163611831,-0.173150293813738,0.388947156899173
50.055,1.86801589789493,-0.20715340075313,0.0840916967938783,-0.0297403241285494,9.52824218521701,-2.75512453743419,-2.33841843025985,-0.18228533264611,3.30129997449148,5.61773179548486,0.996137107366223,-1.41610958959043,-0.600205289678788,0.019425262984319,-0.818121616352095,0.632784105748315,-0.683503716511346,0.9242699063042,-0.850537215353219,-0.0956880847225873,0.238221991845009,-0.289074694582098,-0.220146845951049,0.341073362194137
50.06,-4.43855784039617,2.15956668420305,5.71332185160447,3.98231477393623,9.15325471052843,-2.26654527145645,-2.63751731736618,-0.230493839112398,0.356230393919524,0.234715454959872,2.35961132893098,-1.30670953153916,-0.665960674253771,0.0995853668571383,-0.83118127748731,0.0546967975456064,-0.778069493579373,1.01401729700118,-0.867501134748692,-0.0496445098547862,0.249120188542145,-0.099126838851536,-0.258997143968586,0.287251940819832
50.065,-7.47558211360208,7.0312627492873,7.56494066597581,-4.37515530172042,3.97972879766744,-4.63042760693892,-3.14126879458791,0.488967911569666,-0.553768872827446,-4.00029907607376,3.16449103209736,-0.129303628886599,-0.864399730395061,0.144477927642161,-0.879910071901283,-0.590591579333508,-0.865849023138524,1.23907345392804,-0.925463495605888,-0.000242822064966597,0.225157297170641,0.0405710349852364,-0.288324226030407,0.254505041111705
50.07,-6.56515173595292,-6.49444279998069,-0.985205851854498,-15.7612824465106,-1.67884181542939,-3.92349328862177,-2.19714972389724,0.90216091021785,-0.557423186365336,-2.62291226124351,2.93677580581254,1.22391699384315,-1.06476520939851,0.0825297866125219,-0.952669225979468,-1.32674332706673,-0.922937473249549,1.49074351529789,-1.0791224994472,0.0725347185113139,0.151822218291761,0.189337449959312,-0.327412606820911,0.19274896880218
50.075,-4.00931078126453,-0.55116645881137,0.115216360111498,0.0332836670990604,-2.33088774690515,-3.0703768681293,-1.95646666944803,1.17805882405958,-2.26519738409958,-4.35189444934017,3.11973196290767,1.22919045165137,-1.18069435733918,0.00356315431672664,-1.00786564357873,-2.64763209314115,-0.912278723355433,1.8507681246961,-1.243575654426,0.137675372818737,0.075671629190832,0.203951503431588,-0.295951355979001,0.123041661030967
50.08,-1.50777568462892,0.806505626607079,1.10929840637835,-3.03575213131279,-0.614169196741084,-1.25231863121826,-2.06807861796504,-0.459480437585115,-1.46987583104558,-2.22605178471967,1.88745815563749,-0.104873311975189,-1.37465404787565,-0.0323471734683288,-1.09358768611337,-3.51155044540623,-0.755093948984649,1.95393535668692,-1.41954692008371,0.183586019405601,-0.0488931148857943,0.0970273893346065,-0.1510189894083,0.050666263840149
50.085,-1.51816875489918,0.901152834165176,0.262135345873111,-2.27888100641978,-0.111833305810383,-0.661662020573,-1.75790929292677,-1.42779541213306,-1.3610538706161,0.645545404962779,1.18224459177705,-0.943960014792756,-1.61667739689368,-0.104185326696099,-1.17729218675667,-3.74851096766427,-0.482069252987399,1.63943514595377,-1.52921096970378,0.221006138590193,-0.180150265297073,-0.0284199978119453,0.066283008696002,-0.0408745557871332
50.09,-0.601260356723978,0.752726433687918,1.01494101121794,-1.64221308282568,-0.164268839697202,-0.112192212134785,-1.35798928741159,-2.42471578228848,-1.56683433449537,2.82406498619321,2.13478031422048,-1.41023545598627,-1.73552689390209,-0.0960839149210205,-0.943627125093177,-3.12220810572003,-0.151544709338229,0.817362629179693,-1.56686813117416,0.253729061249477,-0.28565941308314,-0.0842003359300119,0.22206240318556,-0.117619124494939
50.095,-0.183597006172969,-1.3723134392889,1.22718538061162,-1.48762401133703,-0.54976036040252,-0.144570484519837,-1.13166635642647,-2.40670386353759,-1.45487564675833,1.84744252438328,4.1481080862365,-1.95562578194134,-1.6663851146013,-0.108738215307919,-0.287822584682827,-1.62249282558996,-0.0888793590656604,-0.0538917137756666,-1.58578314180066,0.292477472023956,-0.396305502491428,-0.0944883365661913,0.330894242457268,-0.1865575430746
50.1,-0.26741188507963,-0.96846111346069,1.39692309659225,0.142486365811977,-0.783986781315977,-0.199208556629203,-1.29640331577965,-1.42331038538417,-1.00698553848611,-3.97266532930313,6.17262159907914,-2.0376099665589,-1.51162164162672,-0.125951433147794,0.521620340952862,-0.921177158129365,-0.279642460003984,-0.349355184091138,-1.63237902040907,0.315127581244218,-0.504908214638706,-0.0671240361810901,0.451980063823786,-0.295703812072182
50.105,-0.60986161875982,-0.193958659990904,0.779841877221881,-0.00722218905688878,-0.986810318957699,-0.165204856774194,-1.81746226191432,-0.896005119236989,0.0744712706775779,-4.12414389470185,5.9063485835781,-1.51068470573285,-1.44884767356397,-0.0606509153181114,1.22938861866802,-1.20115073950428,-0.589398334901466,-0.385179974485322,-1.70047628760758,0.314335619073197,-0.563631152720283,0.0271398223439257,0.611234685690575,-0.417704378723327
50.11,-0.775535871135393,0.314770489503396,0.644104315205632,0.155127178131936,-0.772260703347382,-0.0171577581451164,-1.85583507967076,-0.690550170782094,0.77351665874077,-0.699396759260811,4.00218953880389,-1.06705855852904,-1.391066511389,-0.129420620383481,1.46812830570039,-2.56981811332883,-0.834113922982537,-0.0844954293586806,-1.74047755150565,0.275064008887446,-0.550182769039536,0.118693293829895,0.676789306742433,-0.44552685333119
50.115,-0.558621938269734,-0.115407770008865,0.977279756685799,-0.12400115234293,-0.412684711763061,0.140527259568615,-1.11970877131969,-0.197845493123636,0.0226696660696812,1.16701226454363,2.39020473882018,-0.615692513547368,-1.18578259323265,-0.454350911312936,1.40917888890667,-4.06963086247658,-1.05286947611334,0.336591344048581,-1.7432096965197,0.225435393252162,-0.485968125697759,0.21880111441425,0.623337291925666,-0.35018815925608
50.12,-0.272658534251645,-0.117619404700422,1.0134837009356,0.0571802623288512,-0.187344674976004,0.21776697558186,-0.387291299894169,-0.216366390138368,-0.472995762963084,0.70651107227685,1.87267358065945,-0.0612948855349795,-0.82708429471858,-1.05161920860225,1.05272365968611,-4.04216681144203,-1.07069294591399,0.514976921150125,-1.71909781703871,0.19903308034131,-0.397859738442085,0.358982108761018,0.463609126837148,-0.146937436240398
50.125,-0.15179012590247,0.30831398342676,0.975694786148673,0.0014210782513681,0.0697828511011878,0.267979214084227,-0.267256928186746,-0.580865939008457,-0.427339737187033,-0.300232956536358,1.58516997603256,0.378134725508831,-0.59773155297073,-1.47092443673273,0.730921329184456,-3.01473292824983,-0.875569228671291,0.294850877581351,-1.69149142744256,0.206636349997884,-0.303153886418087,0.511446866904007,0.261150173219748,0.133913942969612
50.13,-0.509844308484358,0.226702338175344,0.859339223532848,-0.0509561462115495,0.13752603722888,0.246028203927364,-0.257555895332278,-0.426411002679984,-0.449186893137663,-0.000200518701281238,1.40813961972355,0.617774181364327,-0.415742400832774,-1.57375850076248,0.306844239606226,-1.17807562568992,-0.614624547536048,-0.338177394682307,-1.68945302499818,0.250777547194766,-0.222643011272719,0.626862942790003,0.0675436966643744,0.40497991814468
50.135,-0.420584431056624,0.361691160184918,0.860124162833152,0.125738117565235,0.0302147907497353,0.227991178384371,-0.278496302557264,0.072588906596839,-0.639853326161531,0.183321963273596,1.3594476668675,0.800035262256319,-0.427470362630485,-1.24936501972233,0.0522319966135892,1.28638085506445,-0.360781310688528,-1.08445663725705,-1.69501325421886,0.295437686794279,-0.194903871277963,0.604234198692439,-0.0736341373285624,0.590155047393625
50.14,-0.611400770998309,0.381030382995911,0.763869150361203,0.139088247235896,-0.0409840326938365,0.154313864252455,-0.364787660202676,0.402622951898628,-0.822781079551262,-0.515512983411024,1.67529599644392,0.791570637485297,-0.569766018189854,-0.819999884748721,-0.139142143792225,3.61494041447926,-0.125610706071639,-1.7250653600276,-1.69911728616895,0.324542419572238,-0.202553721283713,0.459286532172633,-0.136796276842717,0.657712309163122
50.145,-0.72316714658455,0.42057145893941,0.672065836713637,0.127265118603605,-0.0707179703139124,0.0991589270798646,-0.489230760800406,0.441327239850915,-0.854849907953122,-1.04666188300094,1.95224043719633,0.722800839799887,-0.713077450585839,-0.529452812194278,-0.21992020674898,4.45998657804875,0.0600450918225457,-1.88993869198361,-1.69752041427453,0.320382989344703,-0.23332826034929,0.151061131987625,-0.0493286260955206,0.7045370686817
50.15,-0.489625102023927,0.165432307668363,0.88410511232983,-0.00384635236205536,-0.0855313217804593,0.064300808446582,-0.645218141465871,0.208137842425294,-0.639833050363879,-0.598894001339767,1.81442325159612,0.571206440389563,-0.823229437218635,-0.256585170132199,-0.218256512599722,4.23002958603653,0.276276748706697,-1.63405643574746,-1.67677927124504,0.298054162927853,-0.263488287362985,-0.226203714528989,0.0818141955359224,0.744025539674503
50.155,-0.434334046146844,0.0559658810760862,0.886468336120343,0.0126382097968831,-0.0763241509539739,0.0478253385982488,-0.84116238438639,-0.0452773949912331,-0.469033760257893,0.0661029713855958,1.52230612081942,0.332404481265676,-0.910023917935731,-0.0276318877291037,-0.165218815133479,3.65842767362594,0.467024444266416,-1.18994860544665,-1.63263138237925,0.284551983083806,-0.274124321740291,-0.548944935570152,0.171574865458301,0.765288167579831
50.16,-0.461317646665506,0.356572593336513,0.843001124248155,0.0966558227203016,-0.0233102616457668,0.0588171923703122,-1.05729716990205,-0.166323356216684,-0.507662192507564,0.327084353332604,1.19866259376005,-0.00719076972591067,-0.989697961322967,0.0556291919706388,-0.127686809428028,2.75377329928999,0.680755688018453,-0.674067089605226,-1.54940633138363,0.273430036612475,-0.237841371428237,-0.82103076852941,0.206201504396939,0.766941729262187
50.165,-0.407272817252798,0.268803275682391,0.875030007162436,-0.00278728356575971,0.00390281067033814,0.0316204384703017,-1.21583109415011,-0.132098976265548,-0.549596482464597,0.211406603237809,1.06863955031978,-0.205494521376314,-1.0097439671876,-0.00444697860006813,-0.0834265936994593,1.62426052856128,0.818730737438141,-0.497478203792757,-1.430267478828,0.293192987135104,-0.190397096803743,-1.05459229172948,0.202767659666042,0.743298744307137
50.17,-0.401624586005633,0.191135986457188,0.883263663591543,0.00967053607808168,0.0248405062546966,0.0179422732038034,-1.44884421018582,-0.0178952586943607,-0.496608888160784,-0.394144359727819,1.06609982168591,-0.276094542907011,-1.01211012149151,-0.138166052316621,0.026273574119369,0.450658006384553,0.89429697634499,-0.641808007013431,-1.32869829469351,0.300997412554446,-0.152473544849746,-1.14430639777157,0.195342222772453,0.705164080539584
50.175,-0.486640135694356,0.204957913729212,0.874085265868293,0.0495699740685662,0.0281007517869947,0.0238914108423532,-1.66181114923186,0.0930030648514398,-0.428958710118115,-1.134952886863,1.09482669322999,-0.228667908642993,-1.01976379831557,-0.275952547909214,0.153725687954061,-0.135751812532461,0.852091394076776,-1.04684973683562,-1.23710632032117,0.31061511980115,-0.107830643807114,-1.1640233720913,0.152522437410358,0.659801941937772
50.18,-0.457097497036608,0.229266246445788,0.88298845125582,0.0596485058859553,0.0171732871108347,0.0400046429169838,-1.80508719967273,0.12218305507094,-0.433762449073914,-1.75803626992566,0.916745416472434,-0.0100630749724297,-1.0631937148289,-0.435903807538963,0.299375023738971,-0.184135661920704,0.637693870293534,-1.77933228897631,-1.14131725893868,0.292561548235939,-0.0601377523562477,-1.1054713884363,0.0577321491003,0.501290355215058
50.185,-0.406476759724841,0.238761942993363,0.891392466684413,0.0208970461011945,0.0421325412908515,0.046358970330237,-1.72903799918714,0.0407713811827147,-0.405666969395927,-1.80140909648944,0.647235763672941,0.128312861614543,-1.12382537015695,-0.514667140598582,0.399107192096923,0.000297929929231635,0.445058901605873,-2.1629092303277,-0.966536442119839,0.290520588047956,-0.00337157629313756,-0.972816261935815,-0.109193520602249,0.370996489491495
50.19,-0.411070640913093,0.19903464502228,0.896909501058851,-0.0367772691247995,0.0843780897853906,0.0289649370116289,-1.38004644444172,-0.0982203175324497,-0.298704198117638,-1.45095795856245,0.255746893886281,0.21906815469265,-1.19903815279241,-0.514757081972307,0.494805855184088,0.0539481959353941,0.250434727882255,-2.09336317616067,-0.873766144201569,0.284656613973139,0.012265607299343,-0.98241860555907,-0.222994385267503,0.286002656822026
50.195,-0.408512980722677,0.240929471707311,0.887244501631241,-0.0300957116787378,0.0908481491262633,0.0314431616599653,-1.09646695542509,-0.134202040315332,-0.258229939093484,-1.03469547909057,0.150844955329945,0.186529005298607,-1.24884791183577,-0.476358937077054,0.568481862628954,0.0412833380817231,0.0636929922104609,-1.80078750200872,-0.803824976483476,0.28324907223931,0.0344634386929909,-0.987410096675447,-0.193218302928344,0.0746978425352731
50.2,-0.447607758422528,0.280249694885532,0.866007622960413,-0.0545319834430322,0.102596245015827,0.0307945947007145,-0.94723190668013,-0.0797694736714524,-0.308206950424269,-0.61251538692495,0.228286477675764,0.132715483911414,-1.28517315388673,-0.417372905610548,0.61337866634282,0.0486340948782415,-0.167867263166568,-1.33346763933355,-0.766646361354657,0.26500238203133,0.0484261493429614,-1.09609090126314,-0.0975353742870945,-0.0832392667626394
50.205,-0.448135810244358,0.271681442780402,0.853060076619935,-0.0217694637405136,0.0869039857726435,-0.00829314980136723,-0.930209754055582,-0.00401858853859726,-0.32113384195184,-0.206026930354054,0.360756577396577,0.127039247076098,-1.27910017002552,-0.376984988410342,0.590653479246054,0.142950410364083,-0.281947943562717,-1.11564817854399,-0.748385560590439,0.226998763681694,0.0396587951540494,-1.13999942089118,0.0208179536820812,-0.267788688305017
50.21,-0.442600585605748,0.263352687500552,0.862358865529674,-0.0108569430515692,0.0620153794089853,-0.0277956958658204,-0.95219813225716,0.0178602242742053,-0.292605907598076,0.0824482487065672,0.430951436776344,0.175239088892215,-1.26176811791925,-0.333421427235445,0.517909200024117,0.210995234758744,-0.429289519429936,-1.02609566165236,-0.723716007449618,0.190739236730144,0.0279335512870017,-1.17307560854158,0.11258603212327,-0.45522813882566
50.215,-0.40626996079778,0.238984497090314,0.879188602378966,0.0224993534872639,0.0228566946625039,-0.0494592853972819,-0.985648761655936,0.00379908840023598,-0.255126997010769,0.308443341675698,0.426892817306879,0.250649163172267,-1.23824359833854,-0.281118872708045,0.431901383844195,0.413410524012214,-0.483329324501952,-1.08020155863805,-0.708981296763246,0.179511421520363,-0.00633754765829184,-1.27210207899373,0.157894682806583,-0.491910966220563
50.22,-0.402150600252923,0.196251332656751,0.879928620763448,0.0513582658819629,0.00515155072455622,-0.0562053182088636,-1.00818019112636,-0.0403225165194014,-0.224505567511777,0.27227174306744,0.380357885296194,0.282574250156777,-1.20950064876488,-0.215993885101564,0.302622426770174,0.888633270321319,-0.395892786984651,-1.21004022874195,-0.731234964926402,0.188562983903293,-0.039376620454549,-1.35249391927093,0.137635547310889,-0.424968754437184
50.225,-0.43090878690269,0.22079907938409,0.877765241526745,0.0691086609780903,0.0113126773812078,-0.0577287098088276,-1.02786235796002,-0.128792799731719,-0.196509763877038,0.110739633806229,0.294590026702349,0.280294622261584,-1.18952381619622,-0.167811403054214,0.122906477330929,1.42980736256263,-0.209050396195068,-1.38106666359725,-0.761154990120663,0.187184438213907,-0.0680994910914025,-1.4031316420554,0.0700489820223195,-0.33433677239124
50.23,-0.425540304044983,0.202872082860202,0.869116814618783,0.0491820675275828,0.0228298138406312,-0.0530435293912888,-0.991966197597991,-0.229181283354909,-0.159073567812507,-0.0269791260331503,0.153059030623754,0.251428924951314,-1.17311054014092,-0.117070168798921,-0.0837800280333003,1.62854393050015,0.0792976286403731,-1.4815244657675,-0.790438582228165,0.16245373821194,-0.0850721374484318,-1.38850150588648,-0.00853539715791861,-0.25392086400601
50.235,-0.436764261307372,0.197105297688836,0.879659112127764,0.0489398014523602,0.0555307863201716,-0.0513443229707276,-0.945747519482353,-0.237013269763099,-0.181808281290002,-0.0585557944863642,0.0107044175503093,0.212910964456293,-1.13181625708205,-0.0679572249176612,-0.183273412309984,1.43366690119098,0.257078808938478,-1.45775105127778,-0.818245081905409,0.126281439832411,-0.106570683213198,-1.350533497372,-0.117448914814578,-0.160370666740743
50.24,-0.410240621389322,0.19379640640481,0.882080345905425,0.0427970793321675,0.0748974430314964,-0.0437796883743382,-0.875380279849675,-0.212922333011934,-0.185522922359956,-0.0277637096930602,-0.122985121105104,0.172024566140107,-1.08490779214871,-0.00111228157669317,-0.222240929385126,1.17287110593847,0.39147705966269,-1.37406020137962,-0.836360576013324,0.0932785964205076,-0.127777136014885,-1.32754505839875,-0.191987635790057,-0.087931355560494
50.245,-0.401646937399405,0.185104362247067,0.886426137355223,0.0366030872878835,0.0848579010305978,-0.041489777023039,-0.841338244282605,-0.150145669611034,-0.190181481866054,0.0528172144340169,-0.213595965556182,0.151014879778,-1.02369961623561,0.0871866159722087,-0.214074584320118,1.06794098471297,0.506258157513011,-1.31098366898167,-0.859995683562872,0.0599403501880738,-0.148185998614433,-1.31125300437022,-0.256565744534568,0.00741169664991488
50.25,-0.430558172654256,0.180381508212197,0.867448085781879,0.0284204729022685,0.085717760024578,-0.0323850579970622,-0.844365331258268,-0.072411482824527,-0.210986292532803,0.13294306024909,-0.28963972596412,0.158015919888907,-0.968137598563118,0.152006526845336,-0.200854896140982,1.27280447796024,0.551791298299084,-1.32143412797392,-0.886559599320063,0.0469190705137317,-0.160515308288639,-1.31671939551236,-0.297772274850793,0.111715987433357
50.255,-0.454813884548654,0.205654486572087,0.86936402593984,0.0724468517841966,0.0628296163832026,-0.0328931948206406,-0.879765461531868,-0.00635266746766624,-0.219408467944186,0.192820331055275,-0.303080460138961,0.200529112870015,-0.925673690700537,0.171751769479988,-0.208373742474772,1.58521564960342,0.514171455572896,-1.36890364895411,-0.923661786829269,0.0387079256338839,-0.173816685921108,-1.32636527358758,-0.324310200695566,0.224515507343686
50.26,-0.450778657422238,0.200770386056315,0.869191202245126,0.0803555012498938,0.0393013971989857,-0.0253677208342534,-0.921338778647807,0.0607032119725748,-0.218320406937347,0.238167654539745,-0.289367326661202,0.278199654580211,-0.894503966739281,0.150203253994831,-0.241694613627689,1.7562086079563,0.407470493559524,-1.45288150515105,-0.95062328896746,0.0374479711223218,-0.173054814210463,-1.31161014897914,-0.322855131817314,0.277309677113719
50.265,-0.43424436245315,0.199104740006892,0.869758398277158,0.100252303429147,0.0181074811880444,-0.0280250358752446,-0.959524593192375,0.0848244415689011,-0.199170809047949,0.242446914661106,-0.279777072024461,0.32018011476137,-0.87257969665428,0.110634142889662,-0.271938938661508,1.71590219562765,0.271175432857757,-1.56615480735193,-0.970011793867131,0.0480756798817694,-0.177257986081035,-1.28377872157201,-0.294789588632295,0.291640490292179
50.27,-0.445269236564281,0.192368349322291,0.873766291842434,0.109321166777663,-0.00425026079631566,-0.0280864216581459,-1.00790559874611,0.0952627169933237,-0.169532639182993,0.244097364146581,-0.285447067615602,0.356923587973978,-0.854381953722328,0.0677125968764316,-0.288932944604688,1.50309557583326,0.114374948124227,-1.70690271063594,-0.986218512793982,0.0681635396801792,-0.165515767212022,-1.22898825996001,-0.23175363024943,0.247385510887007
50.275,-0.433048511681223,0.206501081266624,0.870303033450812,0.114077530391596,-0.00526179689114857,-0.0278385702979763,-1.0439842726882,0.0973488479880334,-0.168761752997855,0.182430294782402,-0.32191042070674,0.331802187240948,-0.840769774727995,0.0415492013770308,-0.30034428240573,1.25145787984434,-0.0131218926875248,-1.82761333552944,-0.993962509929104,0.0849122997940257,-0.157606154001552,-1.16679805817529,-0.155758119587369,0.15819997460092
50.28,-0.427793304681141,0.222767518270293,0.87373170267702,0.113995516376986,-0.00619689586548893,-0.0208388996706219,-1.06331334039184,0.0751927888703266,-0.148743985335117,0.0736514556444765,-0.338320117596914,0.274571257700408,-0.837976658951849,0.0305767508208849,-0.327544939017139,0.899745879332707,-0.127931718020467,-1.93491979966599,-0.983870976667017,0.101245167706728,-0.149589089545731,-1.09561550324628,-0.0573653111267393,0.0270742089097777
50.285,-0.421959600869617,0.218322843502972,0.870992623788942,0.104183572095068,-0.00781257858045297,-0.0312482391724337,-1.08339115720759,0.0568529525692153,-0.129294664999345,0.0152868417235835,-0.344238701882916,0.217850098923076,-0.848398506290528,0.0389995756781184,-0.348875861717035,0.596127315127312,-0.189951218603512,-1.97745919570557,-0.969868188412689,0.120854703834938,-0.134039340897066,-1.03907838001479,0.0253206377036806,-0.0873611464191153
50.29,-0.428959184223053,0.231352576552039,0.867414862628031,0.106546652341479,-0.0158864270956798,-0.0395977840071852,-1.07536497531161,0.0416730124938846,-0.117987411862869,-0.062877255833848,-0.329878431755845,0.136961114755879,-0.860590679405204,0.0701524234362023,-0.356789754440518,0.132718956088166,-0.180990401490698,-1.92903865766204,-0.949560441338523,0.131665447828985,-0.11756014706188,-0.966729358645797,0.087553863267193,-0.211522936825255
50.295,-0.435095848484054,0.249342203642731,0.864608099957826,0.104668007311866,-0.0179374904847498,-0.0436502551544868,-1.0627316702437,0.0459688653222118,-0.127711910224122,-0.120718070489596,-0.293783563810874,0.0810395970883387,-0.874633086620921,0.107660239870489,-0.340432120273839,-0.23391904952369,-0.143161896619855,-1.83138971996304,-0.927099808875364,0.138956990902114,-0.101902383783503,-0.912989368105441,0.11343213947876,-0.28915776244971
50.3,-0.423698381390709,0.251410264826041,0.868371419809376,0.108632265783756,-0.0245445849251076,-0.0518218353390694,-1.03511999240299,0.046971008758391,-0.130194178269114,-0.168246934705976,-0.264054000874753,0.032732862088682,-0.887364619685248,0.138739132984851,-0.300141785200344,-0.538813935941984,-0.0885227709585254,-1.71031357254342,-0.908458416184769,0.148507527539016,-0.0887106559395821,-0.872698656099618,0.127459637673334,-0.339125499992288
50.305,-0.405230647022498,0.238730128788777,0.873583624382269,0.102787435535445,-0.034620285892615,-0.0583243139329303,-1.01610153633371,0.0632873756019638,-0.119957401679944,-0.162245241271083,-0.247779911266718,-0.00608825983093428,-0.89835199041917,0.158114521992429,-0.241596433332688,-0.764916417938389,-0.0370942485559553,-1.59137615405419,-0.891070345315106,0.150455921820017,-0.0723952993214976,-0.857364148930275,0.140392272699255,-0.359337208597732
50.31,-0.399969076560106,0.247470711462776,0.868585141122706,0.109945621208302,-0.0411848096787151,-0.0688184373255029,-0.998087158994908,0.0743935404048807,-0.0793271191697822,-0.0757793551529364,-0.218592341730674,-0.0014946347131687,-0.9040633852491,0.168609240770496,-0.175124249279331,-0.867811595887448,0.0111864858039794,-1.52523516870194,-0.879848131020543,0.152816784732785,-0.0651763972845657,-0.858014053250761,0.15434486759191,-0.350443889592816
50.315,-0.415688917617512,0.248268231480154,0.86521163572941,0.0931995172508903,-0.0438832673159051,-0.075274575639007,-0.976411414526718,0.0754622783722516,-0.0703846623134199,0.0445456065744651,-0.188495506326785,0.0360788949226058,-0.920448157455527,0.17411788250879,-0.103593105463007,-0.866781435585178,0.036146545303019,-1.5209418688776,-0.867660576480151,0.154709187400136,-0.0581781676184561,-0.881921852360292,0.168091034965549,-0.330842795097162
50.32,-0.445288455392677,0.231670576511151,0.855285644600282,0.0854776457062215,-0.0494866862782985,-0.0841929804639298,-0.942948155316329,0.0546936423409539,-0.106372821594038,0.116629435834471,-0.171671798100186,0.0860360975752544,-0.944605248517789,0.17712143802795,-0.02588237272271,-0.770273213913279,0.0526631426556054,-1.58185026904492,-0.854396790573907,0.161399410218519,-0.0472463332421478,-0.91651307272121,0.174902138057984,-0.292157360904731
50.325,-0.45057650876436,0.209526638231723,0.860439969351805,0.0840170497023948,-0.0514934878897889,-0.081817988487471,-0.923312658192427,0.0132680093701286,-0.126588455401452,0.147857580398481,-0.164287520212921,0.132596485779072,-0.973378715029074,0.174258328405447,0.0458745578319638,-0.616692063167075,0.0369818739157721,-1.66064082432662,-0.848948533918861,0.174866940635552,-0.0311051348907382,-0.990307174594366,0.178384650776663,-0.226335204049217
50.33,-0.426538810721022,0.197543643692546,0.870667050124814,0.0674027655197659,-0.0486500468672964,-0.0735925478020286,-0.905817910397336,-0.0288620148998593,-0.123843194937902,0.17491560861957,-0.167093366384506,0.155945965079927,-0.988316217605559,0.16108145850815,0.0907499012010631,-0.483189712119306,0.00657532568246601,-1.73585862490717,-0.834853673262966,0.184687760779879,-0.0206459797002669,-1.02819722620748,0.15598627515899,-0.171874821506805
50.335,-0.40252526167866,0.195723310341267,0.875292464046856,0.082995745748981,-0.0517069452926904,-0.0681588732629859,-0.909476277953013,-0.0693871969602646,-0.110620947712552,0.157280106110763,-0.165161049081002,0.15534051274373,-0.998395387610282,0.145895002316479,0.12376375481142,-0.33464084881268,-0.0287433996363071,-1.82053185044585,-0.820550349840675,0.196508466861957,-0.0151592501670521,-1.06677194451288,0.115956680382875,-0.112165003741669
50.34,-0.403304767696777,0.207921467519698,0.873959563100074,0.0824742931681704,-0.0401855603038156,-0.0584973875725453,-0.919329314832691,-0.0877348638046056,-0.0869489545281298,0.086795982169258,-0.156914285229608,0.147687772079167,-1.0170222334111,0.120617591153903,0.1470097529582,-0.209856544479256,-0.0692950270844533,-1.88390303812373,-0.80325227729916,0.205090815027418,-0.0142970964146809,-1.08571788563076,0.0721407408646549,-0.0569778693775283
50.345,-0.423084433257607,0.210835477386793,0.878477191606553,0.0792512539698309,-0.0217165870305651,-0.0428447477927354,-0.943998424498948,-0.0930384827150608,-0.0576294079714661,-0.0179095521727556,-0.147939614173131,0.126612730556117,-1.0385291446894,0.096863929059114,0.160119897492166,-0.164724731332894,-0.0963232150872318,-1.88239606475858,-0.781055136196377,0.21485541311618,-0.000483947864068456,-1.07609463579806,0.0239202239101282,-0.00661666285503648
50.35,-0.426855512378618,0.203798253334797,0.873798739839186,0.0785847015674013,-0.000127680483585104,-0.0372155014140454,-0.958748192645835,-0.0722589012121734,-0.0485092908528233,-0.0466512871362356,-0.132301714271435,0.111771582636068,-1.05913515711736,0.0754094056037513,0.170158504542905,-0.222027438712566,-0.0946705728448608,-1.80749804418429,-0.754918418445506,0.237914611185937,-0.00103559019118733,-1.0687582755913,-0.0160817630474639,0.0527753601899587
50.355,-0.416268746793855,0.206585129717844,0.877115654529089,0.0831856559547202,0.0135874570753895,-0.0324269777733092,-0.978178127606264,-0.0460142196753787,-0.0496929684342766,-0.00241423842062679,-0.112501232962348,0.100342682177964,-1.07790922154192,0.0573227574903479,0.171578471546376,-0.352912352985266,-0.0487239632903412,-1.69986520617672,-0.735047566091007,0.238349536361142,0.00413142617671965,-1.0751424195235,-0.0361178186687939,0.0916455306342009
50.36,-0.404349874001936,0.211499288097399,0.877461935348088,0.0780978567919371,0.0257420319181465,-0.0302980524794718,-0.984138196677489,-0.0263481585881255,-0.0591794733075198,0.0671684679111216,-0.0881271826258526,0.0989244494587743,-1.08315305081793,0.0487673973593373,0.175106649230465,-0.497443512034001,0.0128895956113115,-1.58488614150834,-0.718159756243737,0.234895054848162,0.0101749034699748,-1.06742903567337,-0.0564081185951947,0.107911422852156
50.365,-0.412949170076141,0.214881353644808,0.873806179939817,0.0847630789204732,0.0338402020667562,-0.0327300138843479,-0.992358705801202,-0.0139082934340911,-0.0678317152395239,0.123033122549123,-0.0717138411120613,0.0940843791899114,-1.07905823532189,0.0472359370780784,0.179162071801786,-0.664677070501764,0.108109112315101,-1.41370163163264,-0.71129330116452,0.229521101849036,0.0168932430924545,-1.01969429282151,-0.047289852551779,0.098969819290087
50.37,-0.422880339062944,0.218132033788624,0.865183555101965,0.085784949362278,0.0406438102579031,-0.0279701473558035,-1.00752613382105,0.00726150774729703,-0.0774463471595814,0.134410885635511,-0.040562647772936,0.0921615926763673,-1.06678098709494,0.0477450016907752,0.185923737927955,-0.74875891214606,0.20268316555125,-1.25846998879321,-0.713630010985283,0.230020515013347,0.0194514581095599,-0.969905079183676,-0.0254345756167161,0.0722093213748533
50.375,-0.438798975117334,0.234287035476339,0.865290671513002,0.101025374749618,0.0364996394715417,-0.0307322246447903,-1.019297883187,0.0241172693924166,-0.0832380290498028,0.129571631390561,-0.00687097087055762,0.0998297780600815,-1.03421749236421,0.0507805353477134,0.203401256170332,-0.730377326115318,0.347424798565622,-1.01603545537498,-0.710831330771204,0.237759899482812,0.0269674661002463,-0.9407136158759,0.00975929537142112,0.0308315698780041
50.38,-0.436344703836401,0.229205547274751,0.864468729790149,0.0950459251524181,0.0369811985246886,-0.0272170819119971,-1.01270255089896,0.040028452611499,-0.0653006137673751,0.142967069628324,0.0224608285839872,0.10961754269378,-1.00804410170911,0.0709196683323526,0.218383156521994,-0.655814992038375,0.422774610826822,-0.897193473328742,-0.737960975673999,0.230898382598011,0.0404912193203171,-0.937745768309073,0.0523950255854766,-0.00687988528798116
50.385,-0.422477688447643,0.222940514486353,0.863041441649233,0.111861983145978,0.0265595875509815,-0.0306559499202995,-1.00266621623419,0.0381902550907855,-0.0501040902236953,0.149213492343898,0.0481600668482603,0.116298355916485,-0.966153179949016,0.0921641182763001,0.235068729960581,-0.509259862214713,0.496388287304456,-0.765346772796341,-0.742539452823329,0.230066042224312,0.0359773340798724,-0.899307009612411,0.0823260372180957,-0.167964754233367
50.39,-0.423598047885291,0.219224813351258,0.868163028891612,0.0964540346904572,0.0281264140325802,-0.0244967922844501,-0.97979688002149,0.0415848330314855,-0.0277741769545288,0.145104317193908,0.0617496852244635,0.11554534566967,-0.941022330239038,0.104491798041443,0.255766728603936,-0.376476617996515,0.536931033874007,-0.670248322688395,-0.753206612857508,0.223399627451618,0.0306254661712656,-0.8682590378971,0.0681485629502004,-0.126493560300363
50.395,-0.418645951872323,0.230843389788219,0.869237108847767,0.10006066835404,0.0183984356248175,-0.0172362567480602,-0.949394639989441,0.0467949105370833,-0.0242456700347476,0.10191347986567,0.0876851075677973,0.0989424929405768,-0.923212833958977,0.114450824190801,0.283381254664235,-0.247108126990656,0.556065569427349,-0.577387482723883,-0.78695643978213,0.215824132049282,0.00486680280575956,-0.845610634398913,0.0758246617928449,-0.0820448197223015
50.4,-0.422491979985963,0.236100587079335,0.869626775559708,0.0878219292265504,0.0191000428283324,-0.0108285675785369,-0.938524254408467,0.04806344394261,-0.0207059281598279,0.0467111066105159,0.105460900488854,0.0795698487403771,-0.90818740633683,0.114804075771497,0.298336690921023,-0.14030359158895,0.498660692995692,-0.548583202235508,-0.814838928876973,0.219037577636765,0.00435737092645841,-0.863939221412844,0.101775694372189,0.00110755184605806
50.405,-0.432081151285004,0.236347549385783,0.862899177744069,0.0845632553100586,0.0159635634038646,-0.0074476975139182,-0.920320434541086,0.0725378844845714,-0.0186399064333313,0.0301906795958848,0.131000101566315,0.0587982791864659,-0.919796308681997,0.121704709333387,0.326568615226515,0.031978145456909,0.474699428519064,-0.567316271985345,-0.83069626051805,0.211091526448883,0.0205600198137729,-0.816731964466015,0.0802615088541933,0.031826954191541
50.41,-0.427029877666915,0.234588154657287,0.865258820458378,0.0876484815690376,0.00927050611828949,-0.00719899336485892,-0.904192505314998,0.0860098622681297,-0.0112496658782414,0.0287221167236567,0.148031742043091,0.0411070560140686,-0.921251716193034,0.113551124611921,0.341653152990575,0.298078094969546,0.444961792797671,-0.591675276403548,-0.854593815404353,0.205143839219967,0.0365943884496649,-0.760605728945228,0.00536699862461038,0.0154636531944513
50.415,-0.419969200761886,0.23182479547426,0.863348672825569,0.0824538930174042,2.2426826054607e-05,0.000724179793884648,-0.904499133517958,0.102542935229782,0.00380343996175467,0.0278726673466811,0.194775956411758,0.017126090113264,-0.932780301997373,0.0950418033388117,0.338118148797916,0.494124428823202,0.404511066841523,-0.610414367649094,-0.891626626532518,0.206528674142477,0.0429002952660344,-0.780370904788756,-0.0794265758233935,4.91833049739254e-05
50.42,-0.413050374822277,0.242034010499684,0.862439874431578,0.0902683904617133,-0.00746250789768169,-0.00861437648932817,-0.907272208673819,0.124462905803048,0.00389133066629807,0.0182821692499251,0.25189239000683,-0.00373839475735185,-0.96607107194415,0.0757739641872973,0.337106943642469,0.590532811987687,0.404881725871896,-0.570728964535238,-0.927718629735219,0.201134979237394,0.0481097367203138,-0.810841604634789,-0.158925145805043,-0.0146152567876117
50.425,-0.41132443822272,0.256494527701229,0.866288412496024,0.0541226233493589,-0.0103605923118991,0.00761604810930661,-0.922755142675124,0.15102987998627,0.00972302592155268,-0.0068398625457206,0.297651437438412,-0.0335823293018876,-0.986019644976334,0.0613794131919436,0.346399768700343,0.627909059269015,0.425034024001554,-0.479570133827699,-0.949415513535122,0.191858718423913,0.055420170798635,-0.825730152252455,-0.223025610028005,-0.0347858941440895
50.43,-0.414899816993064,0.259613864910844,0.859922794943665,0.0680180928478463,-0.0210804063826799,-0.0032139218226864,-0.932180072445725,0.167792519973114,0.0186830773376447,-0.0357644706565278,0.332570896234617,-0.0513671614853325,-1.01230458233346,0.0449320205961492,0.337125970956472,0.642783641815186,0.421411258960161,-0.368698135564047,-0.971164342726012,0.186286480476668,0.0661034706484328,-0.830332516259778,-0.249771613178716,-0.0462541234023268
50.435,-0.420249001762585,0.251943274799244,0.859021423571276,0.0563657764176616,-0.0260656871070376,-0.00671763943333532,-0.939268722046015,0.166537329662395,0.021358765194228,-0.0538498144541001,0.376214870518629,-0.0869297705123241,-1.02212744236764,0.0334019302610974,0.323221340946928,0.607853104554141,0.424145584795625,-0.298509565630944,-0.988484273831108,0.186986495456469,0.0742490385121995,-0.845412229846488,-0.256385194872839,-0.0569103120878116
50.44,-0.419338840103524,0.252763826655246,0.860320360777894,0.0528726127422067,-0.0410416231480997,-0.00906252674758434,-0.947963727867033,0.160196174638654,0.0244402024580536,-0.0591427794382025,0.42158479603476,-0.114219476860173,-1.04977316379801,0.028619237166033,0.312406158611064,0.519482162548126,0.44239787641098,-0.260208630692723,-1.00091140459886,0.18890215983044,0.0735446060250056,-0.879088476143406,-0.245707892411997,-0.0620308765318356
50.445,-0.415756643001166,0.236574277177147,0.861349176444665,0.0375404343026449,-0.0457137763950394,-0.0103090589711602,-0.948670007299008,0.140589067672998,0.0237025411690253,-0.0666067758379985,0.476813088393167,-0.1359685734994,-1.05610459935755,0.0280575050546719,0.313364294811533,0.506257134916134,0.462081495192652,-0.239185788671905,-1.02016570085238,0.194953790096633,0.0746914408398727,-0.91421355686619,-0.209829440230402,-0.0695140452125234
50.45,-0.418471209103178,0.238317316586547,0.8665345648432,0.033231874375187,-0.0484746574066245,-0.00392736788468185,-0.943864930756065,0.12840920236248,0.0206533540124358,-0.0904200726025828,0.515667747382071,-0.16061834039096,-1.06076930954021,0.0254071534751362,0.301726466485801,0.556966096813124,0.473085300455434,-0.254683073141011,-1.03540535736493,0.19206368805598,0.0634613142924449,-0.93424283029645,-0.172779967257989,-0.0786535507171146
50.455,-0.418227009222529,0.242614250635151,0.862319792177765,0.0276630197048277,-0.0577458524854361,-0.00435862380943365,-0.946046824307452,0.125377628827935,0.0243270578535062,-0.13749134246445,0.571657214940638,-0.194303882625689,-1.07686731109039,0.0284742037088871,0.284145992331969,0.649066416481073,0.487653638116877,-0.274569431631497,-1.04278933068314,0.183720099672602,0.0612059987421125,-0.960184609846887,-0.129339292828912,-0.0893873851153001
50.46,-0.428322994442338,0.252388977665639,0.859288591112338,0.0206443748433308,-0.0650125052573912,-0.00549525779141435,-0.938130920478304,0.119731237329918,0.0283794325126054,-0.15036438320779,0.624135576407302,-0.222640131393701,-1.0859265001914,0.0315240204926783,0.25949974852911,0.756339597186038,0.491470515727997,-0.295704827097918,-1.03788874909063,0.178490098913606,0.0598812356768308,-0.971433465601189,-0.114785158829879,-0.0976325181102966
50.465,-0.418581149799636,0.252286148923711,0.857105403146077,0.00887990185794696,-0.065419283714026,0.00309271150191961,-0.92495980402677,0.112653444517271,0.024634577441045,-0.157815452171252,0.682445358443902,-0.255485567127928,-1.08781285021371,0.0354438967686529,0.234306092868177,0.859376468080093,0.486664321613799,-0.312959046048126,-1.03233745364805,0.17529659109499,0.05666826355811,-0.976073733113128,-0.11132275519995,-0.10673192753585
50.47,-0.384484122022121,0.277043016003771,0.866621810878547,0.00528302841635006,-0.0781627200629438,0.00232248083724637,-0.926101213840224,0.119011955817597,0.0478040461618935,-0.160319697174658,0.753793044952829,-0.279420280321835,-1.08454628816746,0.0364779235979312,0.210309771192794,0.993039131602779,0.464789313695675,-0.338863535296259,-1.0182761510879,0.177198452362838,0.0532298122939332,-0.980259165112026,-0.122314895937968,-0.111904399249097
50.475,-0.385343685907968,0.246058002967232,0.879935239847743,-0.0192804816473232,-0.0760571069117489,-0.000511112346175459,-0.935163362662202,0.121246230957943,0.0491657463835258,-0.161841591755474,0.820267101920116,-0.299842512977353,-1.08395781110071,0.032571873019512,0.182144702350559,1.06411077021896,0.435322348786358,-0.35532438530874,-1.01404358758756,0.179702150587771,0.0493177175482748,-0.976254933108424,-0.140968279667112,-0.119318819692696
50.48,-0.40741619140241,0.236857042372267,0.870589170272716,-0.0170300729322481,-0.0796254077763974,-0.00417574867606163,-0.949665175904815,0.118196075725773,0.0141221218717361,-0.202931639805621,0.862158652498479,-0.320555053359064,-1.07647064099871,0.0330502854339619,0.151148783015134,1.15006029513773,0.386738670742634,-0.385444329843954,-1.00184340837324,0.176446054031991,0.0509231556955391,-0.9698369189915,-0.153326436005298,-0.140355075997555
50.485,-0.410522812883207,0.255213409236651,0.873545882776045,-0.0225887903520752,-0.07408936849341,-0.0038081915462799,-0.970151448052808,0.099913151139093,-0.0292658683313961,-0.240655440018799,0.923117715339581,-0.339984023058596,-1.06914901081706,0.0497275165973892,0.117656079965034,1.25109537285453,0.323687871191008,-0.399175972637998,-0.994396791284595,0.175842230267486,0.0557268000913183,-0.970322009648136,-0.153958739896641,-0.148813454250469
50.49,-0.407998726036814,0.239670286662116,0.874094751106097,-0.0336588837361251,-0.058201629069589,-0.00182643552290855,-0.969387596147528,0.0780427488845319,-0.0657412343714193,-0.24646456858234,0.951444373160036,-0.364291006209506,-1.06603110171734,0.0857422621707696,0.0783235832694049,1.3528215614709,0.250071666155841,-0.418265520774465,-0.986897637960475,0.173713656052512,0.0576790499000383,-0.97927241227285,-0.147976982642881,-0.151702642440796
50.495,-0.407021221385873,0.239199016529003,0.874724776634801,-0.0355858309089723,-0.0448882085139598,0.00285661644960216,-0.973482040533825,0.060221484480207,-0.0905412527069014,-0.256042579515752,0.989001150138415,-0.389866778277751,-1.06729157523423,0.121492570455165,0.0481936032789628,1.42868584284388,0.167487253699546,-0.41707870373547,-0.97918033835902,0.172699641400155,0.0588808791581077,-0.988800493677636,-0.133511985348765,-0.149451218163591
50.5,-0.407215675451263,0.233560226989921,0.884305896034566,-0.0422440176750064,-0.0203091488182251,0.00310693711007397,-0.99183960332992,0.0465347620640781,-0.0845188919241261,-0.270144118414356,1.04602921372145,-0.4083401055024,-1.07321006773368,0.168187898696596,0.0225494889562335,1.46472666196011,0.0757695162283003,-0.410679053901542,-0.96961126221269,0.169504347367545,0.054616666300115,-1.00378866845837,-0.111070775864589,-0.148915825516632
50.505,-0.386339467334524,0.238195705346417,0.885691253229393,-0.0406314494476884,-0.0135174932849763,-0.00138324112033219,-1.00634872048168,0.0508394686571084,-0.0963860851289787,-0.317242315051815,1.0761323600491,-0.422422472892836,-1.06717300895577,0.207408303192916,0.00426585684048699,1.39023124556093,-0.0177280064030303,-0.392108652180112,-0.966056139900519,0.170761386409523,0.0521577778989028,-1.01660456179951,-0.0975193566460713,-0.161718751554635
50.51,-0.424056956576083,0.217629482345192,0.879535410479547,-0.061387155270625,0.00403106840808976,-0.0017323587089777,-1.04632661959467,0.0516944510566455,-0.0910655594438075,-0.360345540371342,1.10340188515127,-0.423543155193329,-1.06818333502299,0.211800656390069,0.00489789686000055,1.25897530186003,-0.0841572248478801,-0.383324617939839,-0.960053219220697,0.173946078504148,0.0452161290690664,-1.04385526201392,-0.0741330978547739,-0.178317400390554
50.515,-0.424778656614206,0.2297657601396,0.87259002649175,-0.0521404294791351,0.0217093104778222,0.00133708079470509,-1.0110003673176,0.0578259049184614,-0.124425410929398,-0.349690858628158,1.09563127695276,-0.431072337167663,-1.05616536172649,0.193155982000331,0.00940753252081774,1.02083734204849,-0.161396040593393,-0.388364046702801,-0.958026680397284,0.177505023887455,0.0402196281432799,-1.07101765211194,-0.0673494703513967,-0.197596254167447
50.52,-0.403421122904682,0.241710324717301,0.868797726989715,-0.0649224678762605,0.035889394967824,0.00193634171022008,-0.984812831194627,0.0596581277384526,-0.156551896515864,-0.398065756875635,1.14218380323037,-0.469227189712354,-1.04538035004938,0.151736026591703,0.0185666654462017,0.817667492759699,-0.203671853222303,-0.400066389565388,-0.946021713652412,0.175098205934737,0.0385073967234217,-1.10115220796927,-0.0503671558020654,-0.215754210391973
50.525,-0.407184337855643,0.24067456146776,0.878613040322665,-0.0797125126201158,0.0538430990127408,-0.0146652992341548,-0.991602115449468,0.0404059657087041,-0.149008083748445,-0.382293009845523,1.18577160734262,-0.494749399975882,-1.03220500608245,0.0844972029897723,0.0211834027469153,0.531769447214991,-0.236946503721378,-0.42271271924319,-0.944259433237253,0.169031167719548,0.0447681093205723,-1.11452172027747,-0.0481506159862499,-0.224908973559552
50.53,-0.415625380113902,0.233771070540131,0.878634774830865,-0.081266267076686,0.066115701949149,-0.0234019326424151,-0.991875372645141,0.0401132667292883,-0.173970139255807,-0.355402658522285,1.19876110553741,-0.504700371632387,-1.01956112781634,0.0225838153906269,0.00588533474973701,0.256486561377247,-0.237774542675374,-0.442577423768684,-0.948449492934463,0.151939225932061,0.047930394409963,-1.12314185869068,-0.0432877453297364,-0.244349604681502
50.535,-0.424793368607511,0.231231193139206,0.88122210851511,-0.0851872849874524,0.0801252612380698,-0.0297230121101492,-0.984842361623554,0.0438219921084046,-0.201563988000916,-0.354757199434619,1.20111591557325,-0.512461324032507,-1.01957353553417,-0.0243976390350702,-0.0178480506917368,0.0534236624934533,-0.214950531922585,-0.456776156002146,-0.952760019827369,0.140010219035804,0.0551390925986078,-1.1305560246538,-0.0365609565107024,-0.253884052074221
50.54,-0.431118363158906,0.233265842353651,0.877431886728438,-0.088297864635989,0.0866121288410274,-0.0463155534926542,-0.974808622072235,0.0305980789638227,-0.214495354433328,-0.359399587790828,1.22825936628903,-0.525987839613759,-1.02411513858981,-0.0601131725739805,-0.0532551929503152,-0.0789432843510677,-0.182800883765174,-0.443263616113142,-0.959790080431725,0.120809816092281,0.0545002274486772,-1.14486364396258,-0.0281237391602534,-0.267512381772577
50.545,-0.423714424349831,0.222548946790883,0.878196531902329,-0.0983665233697985,0.10514325048387,-0.0520056092726505,-0.976983356351727,0.0103069710040014,-0.223210660217484,-0.344720282438817,1.22970984395133,-0.529820344448754,-1.03246504483467,-0.102346555479644,-0.0927768329017648,-0.190173418646655,-0.1305933810351,-0.379767403746618,-0.964807217874453,0.0997232092208209,0.0587211734399233,-1.16851353297552,-0.0181556570913626,-0.282966049061093
50.55,-0.430383779593237,0.217130564218976,0.883232044437012,-0.101892612947619,0.133336162495783,-0.0663248828803711,-0.975096543617124,-0.0117357908454443,-0.23695294652977,-0.33468757325673,1.22825951360608,-0.540170546821174,-1.02812607996065,-0.131726547617234,-0.140920862213819,-0.280167233773773,-0.0733579432000823,-0.265007366082432,-0.971542546374192,0.078594119802005,0.0650738128629052,-1.19592940573406,-0.00664843474891763,-0.301134710177602
50.555,-0.434736287164914,0.208725259734827,0.882179850120139,-0.0880107842231804,0.152072179190122,-0.0785415540575561,-0.984581831166703,-0.0211950696767257,-0.240062362438946,-0.326495036559966,1.24259669335873,-0.542300471101442,-1.02957646365878,-0.161332310104945,-0.189193475931506,-0.384035815770786,-0.0192479473520277,-0.106555540209106,-0.990333229538933,0.0563510893254897,0.073940863062427,-1.24372379787887,0.0158226804209068,-0.32250721917914
50.56,-0.429821324153721,0.213714038324118,0.884577018856502,-0.0764614616667993,0.169497208069294,-0.0854150726210426,-0.969094734406063,-0.0287543856622835,-0.248783483276992,-0.284647348990874,1.23571978089643,-0.540089637281583,-1.02305853991846,-0.208662375059928,-0.216048214350651,-0.424309437398831,0.0295425462701758,0.034235047175877,-1.00184114770377,0.0389323304884854,0.0829897047256379,-1.28254390577294,0.0184902869596992,-0.349915450023555
50.565,-0.423111983801802,0.219721184833529,0.88117650099911,-0.0719736356843474,0.198766358592144,-0.0907027363036788,-0.979309112892623,-0.0317624368207966,-0.244696551385087,-0.272264375526056,1.2318217379653,-0.561392458643072,-1.0029347780082,-0.27119387048034,-0.223719627286759,-0.318219101634125,0.0847590758550335,0.172202510272658,-1.01218908865814,0.0281471433406184,0.100110840291844,-1.31955118734065,0.0314678053799199,-0.383463529713024
50.57,-0.425179442330881,0.218710714621572,0.883442490313456,-0.0661155675092936,0.224470692669736,-0.119710437076675,-0.996104338320397,-0.0335591297654081,-0.223287542015194,-0.239302473234256,1.26749699653725,-0.575372305707516,-0.970446942678462,-0.311649508163815,-0.239769676188685,-0.0988317331383887,0.135289528665372,0.253145242687363,-1.01750233681227,0.00817951779981621,0.101164723394024,-1.36578532795583,0.0423001283527868,-0.418373995435383
50.575,-0.432525950771621,0.220558587929505,0.882375578691396,-0.0605853646301306,0.255060261275066,-0.12904675396067,-1.02400917805102,-0.0348377996956701,-0.233837061370687,-0.170909982226611,1.27251177152321,-0.563489833331668,-0.953445996509678,-0.314414348972168,-0.251605771786332,0.0355257913868683,0.157530455899205,0.272490149628925,-1.02288729116291,-0.000982624519163512,0.0974498079517241,-1.38330827102506,0.0736789439974615,-0.452070753087876
50.58,-0.434498513508376,0.215986266182414,0.878074914455176,-0.0633610118845567,0.294947789604863,-0.145439600430755,-1.01982298014609,-0.0330678343556258,-0.240231149004554,-0.141365940348068,1.27384693149409,-0.567470184483671,-0.933877758292239,-0.296139092648556,-0.254196048881351,0.14788929755835,0.186679379834761,0.248584006803594,-1.02295039017465,-0.0137548273833722,0.093727147426196,-1.37926608075907,0.112796921332709,-0.505766264565526
50.585,-0.425863992961589,0.212120857214164,0.884055384519688,-0.0447945636419954,0.340028498607656,-0.163681679518401,-1.02410592821497,-0.0501035658607649,-0.224270188531966,-0.119555835340336,1.28241903488522,-0.573253388093338,-0.930657849632,-0.243789961277697,-0.240614118463332,0.204492704029045,0.208665569109105,0.217242661886861,-1.01504603226373,-0.0181333075706443,0.0930857275638714,-1.37371293732729,0.169816929203369,-0.553654935479712
50.59,-0.429623959993992,0.211996411693119,0.892221854808313,-0.0370961060024165,0.385166125109666,-0.186087033554584,-1.03709412962198,-0.0649114717543176,-0.196551294693559,-0.0871102024612183,1.31132848350315,-0.56970762549485,-0.934613278126457,-0.169147833532114,-0.224174360894076,0.250473951171345,0.226841007516397,0.187169025962254,-1.01391855899737,-0.0195547490008299,0.0937569727865241,-1.34075191656598,0.223922412109797,-0.597975488217339
50.595,-0.430065203382502,0.212555913222545,0.901085094772587,-0.0324753018991835,0.443974344801202,-0.200786831607198,-1.02595906059304,-0.0639524530183154,-0.213017178289798,-0.0735380251310009,1.32301172937087,-0.576930501735246,-0.959621216222413,-0.0911297544375615,-0.208829975956655,0.250538551500748,0.233713243502301,0.177519902233258,-1.01811419719001,-0.0195499772213925,0.0947668762671872,-1.30254737620364,0.27267246502986,-0.634206038187657
50.6,-0.42688669844225,0.19884195042951,0.907861719937127,-0.0293000384563601,0.514110579550196,-0.227363662201978,-1.03727202156155,-0.0714530051830829,-0.222254408164712,-0.0877448402622526,1.33615358065717,-0.600467937463196,-1.00875958958187,-0.021125845859395,-0.182025370372436,0.180224181297457,0.232898996575046,0.190014280811029,-1.03161726940224,-0.0235508083452521,0.0928259309693112,-1.27035956156554,0.300041475433729,-0.662137752811069
50.605,-0.420910393931072,0.206409905204572,0.92632917456066,-0.0386861810427709,0.618890456622556,-0.253899056647174,-1.06071085572545,-0.0799899056153528,-0.22067450093788,-0.0582339311984625,1.38312178826879,-0.638316596048123,-1.064843749206,0.0244164612535532,-0.149450422908384,0.109696370336147,0.233631769749449,0.202843882920551,-1.05780132450241,-0.0333084245085164,0.0714145950150537,-1.22444875434612,0.325080668764413,-0.688919277456454
50.61,-0.456013589337166,0.215860149385624,0.927584073232842,-0.0619587512111182,0.740424977200914,-0.281844356477219,-1.0913681921261,-0.0808545048528503,-0.245105374823291,-0.0461561418504234,1.401174808596,-0.68579536948934,-1.1392685100036,0.0522734479778955,-0.100778762312779,0.0968379334884747,0.230854722516044,0.224138855498032,-1.08638081148908,-0.0332927598606788,0.0276787104213364,-1.21421730980154,0.365742910216252,-0.720902874915588
50.615,-0.424110003320899,0.220726533524633,0.938830552543459,-0.0765376222254321,0.859516437577316,-0.290737900933121,-1.11089710559533,-0.0905247990924086,-0.217717958860305,-0.0321797948835282,1.44450448788552,-0.765989039054075,-1.21990368540629,0.0663532292668894,-0.0397734941230079,0.133306701260697,0.227584481239319,0.248914231950554,-1.13383636182199,-0.0474965234903768,-0.0126867103600914,-1.21138424971356,0.399137345504153,-0.750777326846056
50.62,-0.387796109997451,0.241898905933134,0.92267539829884,-0.0673922501052078,0.973098979850415,-0.305759333395143,-1.17021541388858,-0.085911073830087,-0.206872924033179,-0.00113085319876081,1.48933771416775,-0.855146899614691,-1.28596944698722,0.0743924106479238,0.0270379033343477,0.159300366667328,0.227311084612447,0.286865260338493,-1.19778207517061,-0.047926328244606,-0.0469735124605537,-1.15995434399357,0.416543122302954,-0.767691053598291
50.625,-0.416773457500801,0.236367740684104,0.91441166604948,-0.0756534592399985,1.14925566882165,-0.407834778326898,-1.24557844228895,-0.0436569107681508,-0.180319092682383,0.0084755485625089,1.55667052555045,-0.904517529561133,-1.33932091861402,0.0779899333047447,0.112538904990319,0.173517912247793,0.223512734933955,0.35377100533766,-1.27253866582901,-0.0351887179015684,-0.0692640715159839,-1.03912716218878,0.430687157063493,-0.766361401189246
50.63,-0.42519479960254,0.243300748943827,0.929009086437148,-0.0759549423095926,1.28341037254504,-0.473658757294514,-1.30142821185321,-0.0221309988692396,-0.184171282572146,-0.000108469829395522,1.60186076255107,-0.93067591518533,-1.35770598662127,0.0715594741644424,0.202173422686606,0.184501137853961,0.216319559239164,0.464973920141462,-1.34529018042681,-0.0154528252027442,-0.100422996213049,-0.876406984339455,0.453110364640603,-0.744296780101356
50.635,-0.413802507028224,0.212665485031078,0.918126186378214,-0.100674054728391,1.42139576689354,-0.539433018908672,-1.35615922705743,-0.0175648369560085,-0.164853196208149,-0.0029191087251036,1.6421490844366,-0.94410784735224,-1.34917237866461,0.0614473830265454,0.295996069763293,0.242265943706063,0.210539383606591,0.593607222879577,-1.38432002951978,0.00684523284857264,-0.137549091611041,-0.722816992991912,0.485943766875287,-0.702628238955606
50.64,-0.392157911322485,0.247477898122408,0.941187583368362,-0.0828224787554409,1.59833438291268,-0.583937669470967,-1.39917009718178,-0.0195537779736526,-0.139843035972135,0.0313579013804992,1.67832078259281,-0.945206701755524,-1.32002349945373,0.0461572674791279,0.376148187114716,0.377600622175216,0.200055165440911,0.721416759963245,-1.39875220816952,0.0266791435406149,-0.1755956705282,-0.620056710405463,0.517214199634055,-0.650235194499405
50.645,-0.37252317311456,0.25761393262497,0.923066878220406,-0.132232148376967,1.74326547000127,-0.625267937620611,-1.43319422545822,-0.0298148644274529,-0.0893433514927613,0.102547368085715,1.74549845091125,-0.938283747909842,-1.28088911735227,0.0257670979187329,0.439619335178107,0.586116034327385,0.185804476351893,0.845762008886517,-1.38600286039205,0.0347631467182978,-0.22687886040856,-0.548401539329022,0.524470215251125,-0.581949293209367
50.65,-0.381081108938598,0.242803088189101,0.925016501492106,-0.121098118193478,1.99042887802113,-0.681663846308614,-1.42661350081199,-0.0297231965295083,-0.0759648185566472,0.115223357521644,1.83361678651751,-0.95619042224408,-1.27701384581607,0.0147267553423058,0.458320535162579,0.751328276958543,0.162168204856137,0.908480461030116,-1.33870209035651,0.0399433529314238,-0.267769838855865,-0.53137400324559,0.494786921346103,-0.5121216359069
50.655,-0.387468269641699,0.258323113685065,0.92441648283548,-0.099478852678922,2.24702380017397,-0.75280835398649,-1.44449988233585,-0.0241896194029414,-0.0837030343960978,0.145364452789079,1.94776550644547,-1.0007734155714,-1.2856134992603,0.00620355197580058,0.466989410281883,0.910531685858773,0.116226498203144,0.948260177972889,-1.27681942286603,0.0430889531920062,-0.295722800866836,-0.521994752802179,0.430257863292611,-0.436399277833451
50.66,-0.3921821853921,0.296894590825065,0.91532374399324,-0.0683008660254173,2.51449721248571,-0.827848193385441,-1.48556485281025,-0.0316200701897227,-0.0832498894604277,0.226079189096168,2.03897115718075,-1.04217349057768,-1.30481753947195,0.00902644653820863,0.471875482976443,1.10416167060197,0.0468178408128808,0.9927289725013,-1.21722109081153,0.03724904486273,-0.314760422582796,-0.493856693389083,0.326513204192062,-0.356271707481087
50.665,-0.403767787786599,0.322094974473131,0.911665922799734,-0.0913122771449664,2.79146389503026,-0.906495750004627,-1.52512835766617,-0.051582809360285,-0.0603368460631793,0.315769445236088,2.1022753666613,-1.07511807598672,-1.31485038714162,0.011798521068104,0.469203441669224,1.31805550293372,-0.0129096222990454,1.03603611483383,-1.17368637935226,0.0368989875715491,-0.322611051053026,-0.462745615686133,0.216834156164118,-0.284961972283196
50.67,-0.399753206190667,0.358617181925361,0.919010452463743,-0.119391826399787,3.15546973115651,-1.02636733738142,-1.57020018793313,-0.0627247775514745,-0.0354181531833501,0.379639329318922,2.15811042576048,-1.09880180807527,-1.31475685245183,0.0126147127900781,0.456756360265498,1.5736942043738,-0.0705818718943178,1.10550498188712,-1.12735769775302,0.0445120641406841,-0.308974119912335,-0.406886809779039,0.104112689308615,-0.195604897284882
50.675,-0.39804614962266,0.357823716164729,0.917871666697517,-0.155563185717513,3.43105013383088,-1.09651155249274,-1.60993652870985,-0.0723569805185444,-0.00622770949824782,0.404107955898141,2.23060403422628,-1.10076927985275,-1.30864465521405,0.0080183992297184,0.438227742714361,1.83423279693195,-0.114720601365286,1.16564921587714,-1.09541511417191,0.060124877450807,-0.290647414492322,-0.363385935679082,0.0492175478585403,-0.135499791252185
50.68,-0.429154381269772,0.364059874222279,0.929826523785475,-0.192529598759593,3.72187810220376,-1.19485095269899,-1.64733688261596,-0.0836690835581781,0.0157220842559351,0.442521487866764,2.29715686877428,-1.08204211213938,-1.30244588268726,0.00530847877641025,0.39949809201113,2.08807781386498,-0.15840778644491,1.27981725041028,-1.05348345513991,0.0668295650000393,-0.259539599488712,-0.331974983510919,0.0146102056313036,-0.0776050275531259
50.685,-0.452918142468673,0.366263468783856,0.923309039748201,-0.274094933131844,4.07440885943549,-1.28877909923951,-1.66190487685532,-0.101481784325199,0.0320521778836156,0.532206010450614,2.33724312891445,-1.06894319460271,-1.28950664001186,-0.00741949631840989,0.363422885009504,2.30412527958563,-0.193012799144074,1.38596881244639,-1.03162309287318,0.0641829169543528,-0.219383431306723,-0.31078281101823,0.0421077464956352,-0.046081277878759
50.69,-0.482593373828255,0.372883629396468,0.931241740286139,-0.341816233613265,4.39190320809311,-1.41174489403972,-1.66058967668572,-0.129348397794666,0.0427853722499959,0.65127251474353,2.35553985998657,-1.05902049480889,-1.27493189082868,-0.0302476088111329,0.306922793686433,2.51680284656452,-0.22328980302417,1.49373432992541,-0.996835789717936,0.0502536323968239,-0.193310556601409,-0.296838142395622,0.10233702755501,-0.0386254370188849
50.695,-0.587031669482038,0.366680944576988,0.951267883963979,-0.501236472089018,4.72736132378436,-1.48758853703631,-1.64925018650699,-0.158886309235504,0.0274122825733868,0.761270884452514,2.37437197637763,-1.04762467565992,-1.24107270071713,-0.0688689940131913,0.226374200790554,2.77185970989915,-0.250224401417479,1.62996724573312,-0.955643897921998,0.0323541049621949,-0.17244572907328,-0.280117088079961,0.167869567360357,-0.0302966541861896
50.7,-0.599341977744337,0.284099809912096,0.954426129542893,-0.782935861437714,5.05518474081563,-1.61197371056064,-1.59739686843003,-0.186489124380093,-0.0349457456322992,0.849681095043555,2.4210878248746,-1.04200885100108,-1.19971175055017,-0.101635928444215,0.13110934085956,2.99354930094115,-0.265653249447423,1.75808372074119,-0.925094541851684,0.0125548183596328,-0.161092340139978,-0.259552963212949,0.230973411138663,-0.0181187406607848
50.705,-0.599555770287873,0.251584303537161,0.946692002921805,-0.966290099603048,5.28984024933833,-1.63528101900626,-1.53769817339382,-0.20788794866477,-0.0805100055797906,0.881292832750299,2.43990828167684,-1.04657296222961,-1.14999884465944,-0.134183543404584,0.0135479801648323,3.21177148436319,-0.236652027837955,1.90392415934178,-0.89410941913877,-0.00562998393085584,-0.138723597969864,-0.226201926466402,0.289655629932977,-0.0114696636953269
50.71,-0.637648509021339,0.317702807780285,1.02275119759909,-1.30252944165067,5.49948601427371,-1.73639815691917,-1.48957457607067,-0.197967845826039,-0.1134372148538,0.936199289126525,2.43632730418549,-1.0671657396066,-1.11581897588597,-0.143030614492631,-0.0944264057982373,3.35868094999287,-0.178773885749979,2.0296155189545,-0.864193886113846,-0.0313269446990191,-0.125253633045168,-0.180305704110443,0.307497418166676,-0.00553081884976028
50.715,-0.677436604732728,0.416138830185829,0.972179947826113,-1.65840889744252,5.60185783700816,-1.76013733640234,-1.42929690469018,-0.155657584947766,-0.121347486814958,0.998178175179264,2.45376757283709,-1.09534951647784,-1.08877945448536,-0.130763762443712,-0.195504594148402,3.42803629795315,-0.0948593248640437,2.14812305222194,-0.836876736330804,-0.0535164381280307,-0.106074406293582,-0.134660557196141,0.293521592225833,-0.00487608625110483
50.72,-0.803137417265129,0.44604685111989,1.03094259101386,-2.01870585897383,5.69540017408481,-1.82213797848596,-1.34097889746032,-0.102605137913631,-0.177497254608725,1.03779098115611,2.49405351414392,-1.11684095577676,-1.06459782572098,-0.102040661994459,-0.303053594766072,3.4425661744327,0.0266921120110362,2.2636178849531,-0.813675797068736,-0.070800586801979,-0.0859275920213096,-0.0657374351124817,0.255965232708428,-0.00667419758025677
50.725,-0.783916055798978,0.400873221959054,1.14878955609908,-2.38702725738533,5.76167800865615,-1.90603450919213,-1.29682832781506,-0.061878962653609,-0.193527378915569,0.984368168084321,2.48933840243886,-1.11571795624785,-1.04658306140849,-0.0666827520604769,-0.392188756202659,3.43130612714446,0.167512873588462,2.32245818294019,-0.797922421288011,-0.0788399923900713,-0.0605846380314659,0.00646489158288484,0.204700811050825,-0.00509929656982422
50.73,-0.696830689890793,0.447432288800315,1.18811588350209,-2.64657867687919,5.77685456681252,-1.92911244362595,-1.21600927958,-0.0134579484992377,-0.158386779221331,0.924365029248442,2.42195323587664,-1.10876723618221,-1.02443223775665,-0.0115219851438195,-0.482696485783733,3.40843315518208,0.360610615924104,2.41683285111889,-0.788877230005108,-0.0929798278567294,-0.0356354870258011,0.0912077775954884,0.141389773611413,0.000763045694515632
50.735,-0.778055669995766,0.296911502933734,1.20040895540023,-2.86715355331807,5.72926498953238,-1.94022985963646,-1.13589738451284,0.0247474134698483,-0.221378341361304,0.915672361850739,2.41059804947764,-1.13366632396849,-1.00806474967826,0.0459569591176999,-0.555701178871123,3.43652201945653,0.54648669881835,2.47342216304762,-0.773884872472988,-0.0992821853018176,-0.0159903989187296,0.161618793101601,0.0964428675700532,-0.00525790810979402
50.74,-1.05493468182129,0.060758950996525,1.29943064095569,-2.6353704901573,5.57883546796607,-1.99880053066045,-1.05606220685859,0.044841083868402,-0.396823095198139,0.778717313511709,2.35300260555357,-1.14266467395221,-1.03454850368869,0.132708837646024,-0.601698163333475,3.55217561727962,0.731969348567604,2.52807798489503,-0.75913310322319,-0.102637385884669,0.00524115219137462,0.231650886981477,0.0720805142598927,-0.0153906898669234
50.745,-1.34375416942305,-0.11771491076593,1.57918439801098,-2.42002989113175,5.3333056703697,-1.96261834580282,-0.976741458857104,0.027798289763369,-0.575426586770217,0.541550263433393,2.26536778074374,-1.14398476449272,-1.01191195275407,0.20224385490414,-0.699857328736898,3.82903273932655,0.84508909180869,2.66994439290731,-0.738893316326083,-0.114224743003131,0.0272682171948515,0.316952694388883,0.06314907058201,-0.0289774564372107
50.75,-1.54691209916889,0.0368557506363469,2.14752621225228,-1.95079101424679,4.46697552857521,-1.69990037329358,-0.855202794589801,-0.0429144869511872,-0.787252976077438,0.199562611642742,2.11227978145984,-1.16896173708484,-0.845446343657635,0.280049714082914,-0.838564409157212,3.71808214798885,1.23030312776177,2.86679021642624,-0.735016049856797,-0.115854630122148,0.0380887805658701,0.394923727635251,0.0648150585146293,-0.0488587957600791
50.755,-1.46555832858876,0.275450966552337,2.26975584450144,-1.75044302599245,3.78985230485275,-1.38413863383755,-0.77312818549272,-0.103075320545569,-0.89977169935952,-0.113602227313972,2.01157365240408,-1.15109264722563,-1.00614808878672,0.324629410640752,-0.847175276903896,3.30761932252029,1.33002850274544,2.78392355349052,-0.730577024343876,-0.112331372226313,0.037091368655562,0.432872887530112,0.059512398528668,-0.0594448597305438
50.76,-1.36055900540154,0.267570678069882,1.85698867562959,-1.20856763319934,2.93389584996395,-0.973988009139757,-0.686520956123796,-0.194920838371143,-0.955996795907404,-0.394843320903944,2.00042601415646,-1.14157254950614,-0.984847865904537,0.310683143251082,-0.901272920271133,2.67187160809856,1.46261180718736,2.8623821798961,-0.764786039881324,-0.106428611672504,0.0249685718288534,0.447252975652918,0.0473193950845048,-0.0778331195205648
50.765,-1.14364182104576,0.0989731959228186,2.05117174249974,-0.0732460303344837,2.52185780848559,-0.479839571627689,-0.697990774232562,-0.182791759331843,-0.834428084187049,-0.711241965140713,1.9539841095912,-1.26756507313477,-0.845341236883119,0.319864264675861,-0.862188406165306,2.1393426310395,1.53933661970567,2.62985457211177,-0.794453288508267,-0.0969330511731616,0.00293214150700402,0.414143749147771,0.0310098840848331,-0.0905866141586887
50.77,-0.389802270268311,-0.243303144773715,2.62369669356976,1.61819702967674,1.67294663789142,-0.201470058618101,-0.787965063628162,-0.082316147212938,-0.384127208163436,-0.582004476995745,1.76485111978313,-1.34121973401147,-0.908490860251296,0.329978933562097,-0.731117605663689,1.87102397927597,1.47827297904657,2.25505904817127,-0.82999321874012,-0.0818843422807668,-0.0334761330851543,0.356667226378549,0.0106354729957202,-0.112434115113069
50.775,0.416474222662904,-0.0355451408630665,1.5975845319441,1.72879779322452,0.747073477506222,-0.319953349999732,-0.840103117299517,0.0370819855015494,0.108830959088365,-0.17828372421162,1.67995694959157,-1.45478693001058,-1.01515259755631,0.259462980111174,-0.685259290661914,1.77290942059602,1.33297613328865,2.14654449434813,-0.86870147419145,-0.0685201342986338,-0.0623891921945283,0.272242096261152,-0.000466690705936103,-0.120285811934169
50.78,0.58556135771426,0.567374287331597,1.14393219820302,0.488326719658009,0.505626087312058,-0.516183985585976,-0.943939533744492,0.104454306344595,0.338853888498284,0.0962743067672052,1.58459319988682,-1.46923256142297,-1.03430514030837,0.151402864678068,-0.634395320306703,1.20684697240638,1.24226664389951,2.06633922997665,-0.928471311937016,-0.0497693291536762,-0.0889001954271675,0.182638531028591,-0.0106195113108693,-0.114670723540607
50.785,0.347107915581953,0.774653545801532,1.33384584279364,-0.956817810663374,0.419176004948951,-0.894180259468208,-0.98093175953475,0.199210965759734,0.317783370638919,0.11178399678305,1.12194084987175,-1.35934108679287,-1.12301844059647,0.0419578325868719,-0.521879902902968,0.53417800287374,1.15071108396243,1.88284283181372,-0.992571213385001,-0.0328675963206517,-0.117689665103385,0.110633636895568,-0.0196767806949032,-0.126213601914746
50.79,0.168290878009468,0.0375960858675039,1.61933917021749,-1.53985801531896,0.097718327092947,-1.28494731229138,-0.870322213241147,0.199674526710973,0.212287292028015,-0.208618938566079,0.650408361349609,-1.10297890538161,-1.18199509970344,-0.0113986023146707,-0.443212158823573,-0.0106659998937115,1.09065646431758,1.77289845371331,-1.05669816348,-0.0155093088341329,-0.141600788888928,0.0444561321291528,-0.0268932190366139,-0.121038017072364
50.795,0.315959190347082,-0.174206637162253,1.43437404077772,-0.976916899050137,-0.350080650961775,-1.29918240996393,-0.749945235075972,-0.0159300016224924,0.21301105331859,-0.491558626499404,0.354763732277196,-0.886414821425974,-1.2536081052223,-0.0653558025473794,-0.365505492294866,-0.487281176878073,0.993008955209547,1.64051523349893,-1.12621966269559,0.000950672154599134,-0.170363633405513,-0.016530141295848,-0.0710915622289882,-0.102518056535179
50.8,0.297404020545721,0.188397498484225,1.26423039031351,-0.565761457207544,-0.641150658073902,-1.15498674271611,-0.605549878604001,-0.276360820699154,0.169874789420942,-0.395912798644034,0.0578529375562133,-0.68053069973543,-1.30730328633902,-0.126326501023541,-0.305215668897961,-0.749692491227609,0.903733053156069,1.48739263050341,-1.18700096634191,0.0171101682559258,-0.191008081383605,-0.0464448844786042,-0.129647628072787,-0.0835433148129334
50.805,0.265291676532974,0.449701119051594,1.16383894740662,-0.570171896465052,-0.876447505743401,-1.13080379036668,-0.481485051484366,-0.370755244058138,0.0838388754977257,-0.30319143143607,-0.10611587032497,-0.541155339743473,-1.34943962521557,-0.205037319166229,-0.281246298251034,-0.960699668140784,0.802067681334662,1.29046095970747,-1.23893942293294,0.0301232372728676,-0.208683722040137,-0.0806177871053944,-0.191139418816248,-0.0528045808605968
50.81,0.286386211964063,0.507167006863698,1.11032773451003,-0.713519138490019,-1.07238358724813,-1.13879637805203,-0.429754649328907,-0.415450437355139,0.0628789691309767,-0.227708816511176,-0.193832703431524,-0.485157948361266,-1.36034460822305,-0.280535455358088,-0.240391658814748,-1.31770520916258,0.685541284483576,1.18666759314511,-1.27463759348833,0.0365608170748456,-0.220795919349574,-0.11692811134355,-0.244393415375457,-0.00987968943008809
50.815,0.246203650086701,0.556134025931099,1.09017928838661,-0.699078568797692,-1.29139736083444,-1.03527882087576,-0.405373821262364,-0.400936762717875,0.090359731460575,0.287669542056664,-0.39640067728506,-0.48896479214993,-1.35559393409822,-0.304367381818374,-0.168819169754213,-1.6284739872131,0.551806334244425,1.18185884323693,-1.2972174109465,0.0418872521176219,-0.224992611614798,-0.142802949820361,-0.289262966764605,0.0231266722886464
50.82,0.167955081474201,0.637259039179032,1.0681427679989,-0.629757307755182,-1.46170772028407,-0.917849421032675,-0.42881254322654,-0.309065957656393,0.0764399435909362,0.697251005092341,-0.576366727826368,-0.52384483270619,-1.3334327109964,-0.335340606520495,-0.119446354718322,-1.82339160579105,0.523559877514695,1.26971933818568,-1.30912882522271,0.0333325395095401,-0.225894116383122,-0.168721766776513,-0.312559439336415,0.0438331164619348
50.825,0.119965766773407,0.702005355220045,0.990986177931925,-0.538322630478289,-1.70494193646442,-0.723327927642209,-0.472881025720376,-0.13773335819447,0.0356857438276263,0.961655113556791,-0.769280171284248,-0.530662232885258,-1.25199428852524,-0.334508261671246,-0.0415806901103435,-2.03747036856569,0.501128393379533,1.45296630787181,-1.31016275064113,0.0286807925299484,-0.21690323582076,-0.206344726332023,-0.333361333818862,0.0451233201905204
50.83,0.143611484144111,0.762023722004963,0.82067398159469,-0.469778040585855,-1.94633784282486,-0.404972685724117,-0.546817261858973,-0.00814823286597459,0.0334978732087012,0.958248659732739,-0.956248497491564,-0.47318425194943,-1.17972297357795,-0.339128456222576,0.0348608340411043,-2.09474827364868,0.455669718259299,1.55908973405233,-1.29957083245397,0.0116148560292212,-0.21014063010625,-0.234647762094894,-0.339757922555136,0.0247687926741913
50.835,0.150158180196288,0.790075115964446,0.743061355983436,-0.455994593039988,-2.03330020174268,-0.195884219256915,-0.574476963519343,0.067253889827869,0.00884116816244079,0.814913970604669,-1.13247616874807,-0.385115016868637,-1.11104571730919,-0.339401261280429,0.113676992023346,-2.17509828860686,0.362329048423701,1.60344209220678,-1.28336041274309,0.003329702740234,-0.201374139067734,-0.263506707580676,-0.310333605859831,0.000371681153166808
50.84,0.149830454549734,0.805373889819208,0.67666206214259,-0.463661302646493,-2.09931293807417,0.104158052517179,-0.588958890660637,0.107043721618638,0.0038594976780357,0.546337357286659,-1.28968468541435,-0.281903926182144,-1.08360547209469,-0.323691424736563,0.179315562896187,-2.26741966771195,0.255179983301572,1.59239168173771,-1.26213179671683,-0.0179407521596738,-0.203398546880164,-0.269929835182068,-0.269109671730554,-0.0257657874876146
50.845,0.13586540070548,0.773998479740809,0.666570079431477,-0.452383830980726,-2.13490372137041,0.335361598878035,-0.577168173014023,0.110538881260023,-0.000400453155173704,0.201647748165945,-1.49585249195233,-0.155325812524633,-1.04457807250573,-0.294856126228082,0.227005078949948,-2.30065697082789,0.134133542776122,1.53104178101319,-1.24881677247423,-0.037905509375949,-0.197001630710677,-0.288455355030983,-0.194537122243897,-0.0548101350580317
50.85,0.0954860939526081,0.742219848196262,0.674336885998188,-0.410318721919801,-2.18147293813795,0.601790784112788,-0.570710632832116,0.0926058790272103,-0.00816659127714861,0.00581814850858511,-1.73294291133821,-0.0655180115842665,-1.02262886019264,-0.268197548463558,0.249322494658314,-2.31603864691546,0.0934524942320685,1.46119775309093,-1.23535660730508,-0.0579988098554117,-0.197175949344722,-0.318635924895366,-0.0902577179608222,-0.0737658969198985
50.855,0.0590232929337634,0.722353366189533,0.684912859191644,-0.359980317767919,-2.23165111988189,0.89920377426401,-0.563203277083543,0.0758667382490782,-0.0186888794284717,-0.0737606416446092,-1.92609503661444,-0.00809833604307104,-1.01290630768277,-0.237526920376622,0.276650502869019,-2.41491206225117,0.111188315700097,1.35479079079463,-1.22083809877014,-0.0807545008622288,-0.19031579118898,-0.361031749521569,0.0224649151756805,-0.0805618448581003
50.86,0.0308362066386511,0.698021527381652,0.70045634596107,-0.31667878840126,-2.28961860462942,1.06636716470093,-0.562711393875382,0.0523664353970695,-0.0545565818376318,-0.0943513557997329,-2.19090923348125,0.0604230431582231,-0.991645050745353,-0.207473557638838,0.333301949847165,-2.48557158397728,0.100673507251706,1.29615674336965,-1.21102469710888,-0.104592500887534,-0.184523152193994,-0.412561808984498,0.127595253046706,-0.0748934925016887
50.865,0.00713357438216699,0.654532807768852,0.697559521522675,-0.25942995172883,-2.37385014900364,1.29741591338071,-0.561744905141153,0.0585312422783308,-0.0894796541439794,-0.0727632077713368,-2.34903356157328,0.107863692703394,-0.966901751569024,-0.179760024465736,0.398107973013338,-2.28528995878895,0.0314475533094362,1.17920964581843,-1.18553394946562,-0.133357483100284,-0.176655084141071,-0.436341061411426,0.207031473063446,-0.0639363181189778
50.87,-0.016808061641644,0.592998200717227,0.687961522601483,-0.224241379665918,-2.44363230461252,1.47572796388973,-0.576150718133999,0.0735625419014931,-0.113924825704115,-0.0625635773670171,-2.50477048245313,0.175374919271214,-0.931437271404953,-0.149629202611874,0.440259510871912,-1.74355489845699,-0.0770437476007714,0.970431001130435,-1.16011756248161,-0.149183193299239,-0.162859597029325,-0.440036793222155,0.233245251164833,-0.060594518091375
50.875,-0.0437763095377993,0.523595112353174,0.701420996686041,-0.205846449397543,-2.48594536644457,1.58653455769184,-0.615202667658769,0.088614169801384,-0.138546969945008,-0.0928151998709894,-2.63349390206616,0.25757353693057,-0.913997449082127,-0.128219584513025,0.429159426520485,-1.27972644464711,-0.127109443018067,0.777709489508285,-1.13147688312252,-0.170697355611481,-0.144147736467584,-0.434453358748214,0.223635272308793,-0.0550110742752552
50.88,-0.0719802319293443,0.439172645509359,0.736958842078035,-0.169081927969365,-2.54373994482566,1.6655800648587,-0.652499015035395,0.0919295646777025,-0.172680953236177,-0.163070859476892,-2.76715110481465,0.337139535139148,-0.900552997830933,-0.11212853170107,0.413527370168868,-0.931799144986777,-0.144751842590148,0.609286868926297,-1.07703172867831,-0.186978501728783,-0.130528966129672,-0.424765006353365,0.181917457922909,-0.0565954437289943
50.885,-0.135840395065971,0.338019354482541,0.80637805867195,-0.127935376657512,-2.6013526539753,1.67553269009934,-0.703583547675699,0.0969910622819066,-0.209700971757341,-0.244128266314116,-2.95845418261846,0.415395096496777,-0.878135115293974,-0.0754387471204675,0.41935628951744,-0.785766148653328,-0.162068468416637,0.541951040362482,-1.0436043262408,-0.192350420278355,-0.109335211823943,-0.426048497272757,0.157245604622468,-0.0560390233443816
50.89,-0.203096052176668,0.306401630638039,0.861980401388954,-0.0791547237506106,-2.68511172902347,1.6412917425756,-0.744552117581545,0.0914717318314058,-0.22942705452902,-0.277295840919728,-3.1147265435503,0.462746647706038,-0.852210783413055,-0.0553089081549745,0.433226010591064,-0.59379845751376,-0.196759684651296,0.511845724747355,-1.0039850723148,-0.19665480387121,-0.093672994136746,-0.43729307403876,0.15209501723955,-0.0495989819839106
50.895,-0.311633036134295,0.286097224307737,0.926708521750406,-0.0455338440894289,-2.7827335032218,1.57707770333,-0.788397478043123,0.0754845557944076,-0.263875240680106,-0.281588286161423,-3.28076255785846,0.509271632655729,-0.817843944986883,-0.0602520892296553,0.446742812997731,-0.218886405349244,-0.241596261470126,0.486444870949306,-0.960105339659929,-0.200718120847564,-0.0642647855801779,-0.4380164136815,0.140311832637443,-0.065845641879009
50.9,-0.385736673275965,0.291974323021671,0.947755252290389,-0.00357146471445072,-2.88741181469668,1.50502926651653,-0.830334617398396,0.0661379162956748,-0.322006385005396,-0.270009950784428,-3.42486543272483,0.550144897632707,-0.79632920528582,-0.080149026031812,0.436608849525232,0.175123937902899,-0.271112360618127,0.475369428869733,-0.935903126283889,-0.200976518375338,-0.0407334581192703,-0.427210987128708,0.12621577109999,-0.0735478995301227
50.905,-0.466267654155418,0.366860752721796,0.943217977519739,0.032172362602911,-3.02663423403842,1.41311740784008,-0.85834748350382,0.0599107989681027,-0.375800340294237,-0.24652304741927,-3.56566755843334,0.588081258127582,-0.768247906880741,-0.119869551556086,0.407256518517134,0.580807926444644,-0.274536137986866,0.437335781708612,-0.963921984704522,-0.182455361082484,-0.002864730937125,-0.407359752753041,0.116127183158381,-0.0828144361773008
50.91,-0.593493362835608,0.481525684927449,0.931748456769517,0.00954455676784209,-3.13034700551396,1.37616794672819,-0.876970901476121,0.0623761765184323,-0.44262117318267,-0.231708894372835,-3.72706638821223,0.636457397874408,-0.733758276008616,-0.148453795784835,0.376761116323156,0.902743732434107,-0.247510550213592,0.386589916638228,-1.01455861247661,-0.183052159503899,0.0129758701774255,-0.459347525719414,0.0750911410140151,-0.170634457446295
50.915,-0.724661212169129,0.559075974944856,0.88385208719253,-0.0232632037734245,-3.26525724042529,1.40087729499167,-0.878782554367933,0.0742846490698742,-0.50233434498788,-0.252997839986042,-3.84800514602014,0.689831929502019,-0.699269822027805,-0.164352248106777,0.339083259695039,1.10126272608837,-0.227426877992087,0.328496971164227,-0.817101057883482,-0.197377649732246,0.0199960285789389,-0.246026894994755,-0.0522136567455134,-0.456631830057455
50.92,-0.857929251559481,0.65315297611272,0.787428767848471,-0.0943762713760117,-3.34492854515591,1.48661474920343,-0.873962225415627,0.0923998347475713,-0.522513727009134,-0.328153006980813,-3.91026832557384,0.734940930429166,-0.662422369866109,-0.162117897973288,0.297187785766923,1.32714683132455,-0.223742545598009,0.262658979661663,-0.751868167731874,-0.183273806237608,-0.00148333792318994,-0.283673128256524,-0.147271412734654,-0.305848129691175
50.925,-0.960953253396363,0.70934079450678,0.673818166908334,-0.213590380573084,-3.38939639980856,1.64717880165678,-0.869267231718741,0.107918951299506,-0.564793026026155,-0.502117898395992,-3.91235773771635,0.783484330150646,-0.625142387326354,-0.149290785673217,0.255058497097278,1.50921175527925,-0.235464651426068,0.200762396330321,-0.785331390367117,-0.161647589882317,-0.0462817433468821,-0.302120142281035,-0.119553466039999,-0.160151418838699
50.93,-1.04238069886142,0.752598821643675,0.575840483685191,-0.289489666227595,-3.37636538944119,1.82481558481812,-0.866165403099886,0.12321483807421,-0.615711253191369,-0.777670974845782,-3.89326143264771,0.827681466246648,-0.60442059319625,-0.11406184794324,0.221536833065227,1.58722254490725,-0.292118380307454,0.0945888356546568,-0.797106611828131,-0.140441454190272,-0.0338311550302754,-0.28354651885577,-0.0422927321181112,-0.109576829318166
50.935,-1.1516173092927,0.848151747155407,0.466651217066794,-0.358094047052351,-3.30744213314419,2.08735268067883,-0.861950624827964,0.122532068636935,-0.665804823594253,-1.10841885759531,-3.87824471601775,0.841237975933403,-0.570000324546955,-0.0663158091298341,0.172331865057341,1.64755991768401,-0.315938473684547,-0.00309290712409329,-0.821836516137482,-0.132676332584656,-0.0183426920441007,-0.18858084970956,-0.0252350196242332,-0.115335503128794
50.94,-1.20722447034397,0.886215816286915,0.420763907048251,-0.418626788602345,-3.23372333771876,2.2702745974147,-0.841338963243185,0.0946297988447042,-0.716844375922768,-1.57723957140699,-3.85716391297828,0.812019979255185,-0.530021552360624,-0.0280220673973829,0.0899282067431492,1.48216010227085,-0.502898656007553,-0.149403565891096,-0.855098107227975,-0.124414338738454,-0.0192476381195216,-0.157945889755486,-0.0208180096358829,-0.156288650497229
50.945,-1.31279986637763,0.914244271336428,0.366661241709379,-0.491968204290042,-3.07912625334221,2.63876452815715,-0.818317919763542,0.0480768300314423,-0.756634204794002,-2.00981283545042,-3.84623217135612,0.741988721199454,-0.509931601991271,0.0264458750279606,0.0478514773576043,1.0875054159522,-0.584368019471596,-0.23777304602601,-0.862575304087924,-0.0977100500026122,-0.0342490192877872,-0.237407697897628,0.00964518063387701,-0.132704469898336
50.95,-1.40246529562523,0.914306232165638,0.33011965554764,-0.523746634974996,-2.93841627123124,2.97950772923228,-0.781977300993065,-0.0155519437018587,-0.800407153514669,-2.47496812300619,-3.82042078637156,0.63428289794025,-0.503706345744766,0.0910305128048282,0.0589659093281289,0.757803879985207,-0.622394902769367,-0.296577104071817,-0.861589926343979,-0.079552116859218,-0.0418670423926014,-0.303093868872555,0.0852852951637349,-0.0726856681222038
50.955,-1.46448816345059,0.884266829933418,0.287549998785003,-0.545775794359962,-2.81038758156831,3.27232966530114,-0.765436400486257,-0.0660880349000321,-0.831069468465869,-2.85362022819315,-3.77670226302666,0.531606128896426,-0.494527569232174,0.14610322989875,0.0760385523989021,0.761669682045939,-0.629012243053585,-0.296848609678855,-0.871069540005871,-0.0609072005310074,-0.0425144846139755,-0.281323426988882,0.161038341242764,-0.0266756601624134
50.96,-1.52260060965137,0.782577877334167,0.219829644183369,-0.562790011617894,-2.61821197516874,3.62630341000865,-0.768900138900443,-0.126192001427596,-0.883439771303669,-3.12851953139365,-3.71458807789844,0.455133474170207,-0.492519279741481,0.18085874223782,0.0658476214695602,0.909856908776751,-0.671296739819328,-0.328699025351825,-0.898625972401807,-0.0430815451984086,-0.0422644234085704,-0.228653066843643,0.228959128892592,0.0230812494930869
50.965,-1.56874261328104,0.677989080076296,0.174518224564608,-0.552197016887686,-2.45154951913837,3.85899220880766,-0.803839992691125,-0.14752638263339,-0.926362572982021,-3.31466851562927,-3.62643638624299,0.425014425532952,-0.505258290770974,0.196626598803531,0.0577972603103164,1.00601473085155,-0.751185846585086,-0.427871158411545,-0.933806302545733,-0.0284688282836029,-0.0474343670579968,-0.167666776374678,0.274377864885543,0.0441450563568299
50.97,-1.62778698112315,0.528834997398851,0.164695094461936,-0.552125600291915,-2.26679551792093,4.05068347805744,-0.841621808427786,-0.146164325600532,-0.954721403971125,-3.38163398536718,-3.54029912099904,0.439936853693389,-0.537484300861322,0.204055321928796,0.0625874808686903,1.02666214901348,-0.843042164856372,-0.565037978589531,-0.966153438612244,-0.0168566076818462,-0.053533064849061,-0.112714454189087,0.288435029384073,0.0612794934632924
50.975,-1.6657538723458,0.383174216054024,0.151837225324234,-0.534389250980663,-2.08511631024749,4.16186031359544,-0.896190033283896,-0.1198265880739,-0.991236086023418,-3.4190992528479,-3.39741838032874,0.5182402436273,-0.579432634739021,0.189464822018827,0.0812728977442798,1.05500360345857,-0.915150599103437,-0.781211110893412,-0.98624891417668,-0.0176112002206092,-0.0611197832068907,-0.070176228394098,0.261830238689761,0.0830576358306409
50.98,-1.7204071527496,0.245805072631895,0.185779147875979,-0.492083996967788,-1.9139490589662,4.21544860170421,-0.946867180131554,-0.0964110120554659,-1.02566000765838,-3.41073006613636,-3.30973018546086,0.586065047830812,-0.626128538790081,0.150600652821342,0.0912047774311572,1.23150310337192,-0.973186634475381,-1.06862924650915,-0.998225436426738,-0.0147937914771224,-0.0704594653438163,0.00366308496491802,0.206084057352559,0.0647155458737583
50.985,-1.77902896220911,0.101680133934131,0.240334891199693,-0.457441518848423,-1.75200015111487,4.21481121224395,-1.00309090780104,-0.0719675566123418,-1.07487535169922,-3.39774765705602,-3.18751593781151,0.688413968240063,-0.684555225075046,0.0937750901002356,0.0805406312527799,1.42797164614172,-0.995643263248291,-1.27766640824222,-1.0040471373321,-0.015033600403866,-0.0849750783882297,0.0110048754567941,0.163088816629548,0.0585243821590211
50.99,-1.82557160796616,0.014265912756991,0.279475850984132,-0.411632311869206,-1.63027958465995,4.17756084670656,-1.0377790047565,-0.0602459654723019,-1.1275726328853,-3.40928270486865,-3.07134366793267,0.751053101346101,-0.754986506351301,0.021371189770664,0.0398856970451441,1.7562760046732,-0.984637186178372,-1.57825694934987,-1.0052812940635,-0.0252238234945644,-0.094114012404792,0.0168667360885759,0.0898067713388153,0.0783583780889055
50.995,-1.8894170186148,-0.0667166719377909,0.313137817376026,-0.375020369391026,-1.51043185692777,4.09613199982354,-1.04547031335318,-0.0513041573356024,-1.18934139305168,-3.45018330045474,-2.95360030911113,0.782502645035014,-0.814669454977192,-0.0357857707242912,-0.021400507783407,2.02566597357957,-0.9303000426808,-1.8203154741362,-1.00002846366055,-0.0400711790330942,-0.101223284348366,0.0618852125133495,-0.0564493333561026,0.0969009879608308
51,-1.92381212453811,-0.133261761183888,0.296657824493553,-0.358328740136153,-1.4204544596964,4.01613551467463,-1.04521645760028,-0.0575754104541263,-1.23109470377401,-3.50293207861697,-2.84171289915122,0.76660816052099,-0.887923687339627,-0.0823148778883633,-0.116133940905203,2.33553650681875,-0.812459153080725,-2.09667548039237,-0.9931852904047,-0.0494751079088968,-0.115422199709983,0.0756283413077887,-0.20333581989275,0.122473075814771
51.005,-1.94335382107967,-0.189368273125023,0.267676619703069,-0.372215350032978,-1.32362976982565,3.90044056524177,-1.0405967716676,-0.0599273876541654,-1.24731761585375,-3.59468174169279,-2.70785349554894,0.694038868616959,-0.935563317681772,-0.103169856658534,-0.202621091249689,2.51029249230635,-0.687763822694284,-2.26528730787996,-0.992365627894351,-0.0618595167152343,-0.115237374879527,0.0621989881653536,-0.351457894670076,0.154558289592335
51.01,-1.95958200412367,-0.239817877721831,0.218951884881894,-0.439731310834082,-1.19846154455682,3.75798820683608,-1.03417923229774,-0.0660430485993283,-1.25119584616804,-3.71227674062396,-2.53750189398947,0.573509036331472,-0.987183909481433,-0.0985128163534026,-0.30307352382179,2.63361138505947,-0.541116511948097,-2.41703652417372,-0.99035742565045,-0.0706620144822481,-0.116889663088042,0.02515326993773,-0.495632450521765,0.196937513735409
51.015,-1.97281088430054,-0.268454595194737,0.166042422691905,-0.514194821633176,-1.07553284031721,3.63525347258119,-1.0230932069718,-0.0709969356041081,-1.23498459810963,-3.81886978197206,-2.37124164505102,0.461310150593721,-1.02961112549668,-0.0711007029521644,-0.386866670674718,2.70832499339506,-0.410453370355235,-2.51840582546572,-0.988022363158392,-0.0725602517160784,-0.122019315813417,-0.00917209915005192,-0.572183065013397,0.217218189582982
51.02,-1.99201267806025,-0.264888285266715,0.12232313400479,-0.638442861440374,-0.89397264755212,3.52634141623043,-1.00565314515807,-0.0915223802775359,-1.21139868716298,-3.99461125046769,-2.11585278328126,0.307487102961286,-1.07754778825374,-0.0231431930527293,-0.428448462471815,2.72307147520588,-0.310035015455136,-2.53696419874796,-0.986188849872113,-0.0793225425027076,-0.121245162230326,-0.0598508232388018,-0.630654649200632,0.230687737464905
51.025,-2.01256721623405,-0.232185640883416,0.116448035431304,-0.819556417799766,-0.745361226352909,3.5615368044702,-0.977450930519169,-0.125502878884954,-1.20386981033454,-4.13210382071661,-1.94114409575573,0.19258817505372,-1.13124964041292,0.0431736361188698,-0.451388395681595,2.69311938203252,-0.179449882042495,-2.46516689568324,-0.988161532736648,-0.08530790468655,-0.121117416103052,-0.15509084720705,-0.646804558735418,0.228445763404674
51.03,-2.00409676844953,-0.203082924793261,0.121739671746793,-0.984032934556658,-0.612568236826653,3.2401022162278,-0.92913584750579,-0.164517506464842,-1.22479917442828,-4.23281460082638,-1.73611921200699,0.0694645011853103,-1.16688439372648,0.103727208629007,-0.456548470613035,2.64611379059877,-0.073182740893207,-2.32937610913638,-0.991025018862944,-0.094815768808939,-0.120943325804106,-0.253366936697772,-0.623624144999345,0.215851673330741
51.035,-1.99855922228053,-0.152899064722536,0.122642632513363,-1.16779463745675,-0.487209582070349,3.17082010242152,-0.893122247570256,-0.189465545970774,-1.21890241284771,-4.2620846436815,-1.47875991720882,-0.0781641748418845,-1.21602673680868,0.177966179930625,-0.451096226167491,2.50965267115953,0.033014861283334,-2.10803990034568,-0.993318739218757,-0.110727560431821,-0.119865309133214,-0.356116826686157,-0.540597792977258,0.187777979714422
51.04,-1.94527648246971,-0.136124454130776,0.0897285409291075,-1.31854571627215,-0.377433162917055,3.08761520624929,-0.859670619630705,-0.198816832509849,-1.19964742467762,-4.24105332230311,-1.28978694687413,-0.21752357610382,-1.25404446366874,0.235210101733895,-0.4465117640821,2.26490016096829,0.0998226792627692,-1.89168245962254,-1.0016119758077,-0.119508205664606,-0.106610795931555,-0.430345913907669,-0.455795267237588,0.159358063906176
51.045,-1.82285954543627,-0.160376776636463,0.034971137822225,-1.47804466455929,-0.23839472167378,2.97533346249489,-0.844537592843319,-0.194000355111926,-1.16543323058131,-4.17336426984569,-1.11048083500098,-0.340171346775501,-1.28809585481226,0.276800850552662,-0.419376534465188,1.84169998548404,0.121496668906674,-1.6479690633205,-1.00558300819655,-0.127236612770314,-0.0963842128918888,-0.471431523007566,-0.353505429204621,0.118410212820816
51.05,-1.75198605838696,-0.147091494673372,-0.00145532800278874,-1.54873056917308,-0.104912238737934,2.85536324117815,-0.840376853193167,-0.176484064453928,-1.11054186861065,-4.0537276567175,-0.899822639595122,-0.452253905550864,-1.31754259090959,0.323392955073003,-0.379070121645285,1.34815371058115,0.0883061580991624,-1.42565983232224,-1.00122232003156,-0.128690056825035,-0.0862155676334448,-0.498718641283662,-0.265337976275914,0.0720244716458793
51.055,-1.68524730294769,-0.113351185700003,-0.0244184767226832,-1.56372268652281,0.020593790075321,2.74299773057612,-0.841935172513525,-0.149236785804315,-1.05684490973232,-3.91870223456346,-0.717634894312023,-0.523644373906426,-1.32358854638517,0.365006335255365,-0.33731357029217,0.955226178854881,-0.0010466593810114,-1.24315658087378,-0.997097614670585,-0.122590263841203,-0.0859029944361808,-0.516424090189505,-0.205256045308614,0.0321733530956623
51.06,-1.58212443314663,-0.0474180079298234,-0.0639963821002715,-1.53290327502257,0.179831422555756,2.60098424685793,-0.83036525096125,-0.111303853288515,-1.0143332293359,-3.76291373033856,-0.554989065781064,-0.543561279922118,-1.30650121742327,0.406548972635141,-0.29059879886547,0.6508371649652,-0.219177342494496,-1.04943415263979,-0.999863251244661,-0.118044490010521,-0.0799031127079742,-0.52532933891761,-0.177419641551212,0.00781215214316909
51.065,-1.51855484526859,-0.00610555937755558,-0.0710111038448256,-1.47691503641139,0.325623981461524,2.48685237108364,-0.817558123883804,-0.0743845761890052,-0.96682960576851,-3.56004585594651,-0.377684560683223,-0.502024988082053,-1.26851218108341,0.450107969543178,-0.247119713801704,0.417658645396051,-0.429357530297209,-0.81567237430362,-0.996101030005684,-0.120384968307959,-0.0822656770696566,-0.534040032372999,-0.167365160608621,0.000652784117423492
51.07,-1.44221454417329,0.0431552006246402,-0.0545266973219904,-1.37708208035293,0.476448376252548,2.36431593446238,-0.800542988101251,-0.04321093376899,-0.932145403195646,-3.37602699428169,-0.263907630079165,-0.43985724738048,-1.22468146292549,0.476839406726153,-0.226689106236461,0.344066883966378,-0.61880238945229,-0.640351249770102,-0.99652373459012,-0.115912020454959,-0.0821574913576973,-0.544479302349147,-0.177738279443957,0.0146330124746701
51.075,-1.36360169745849,0.102691766874008,-0.0281661905771809,-1.25981434634268,0.620574609291943,2.24829855980121,-0.772154274165512,-0.00736795673680194,-0.877172067319293,-3.08578783450365,-0.138142223096309,-0.334345093124266,-1.16698457495558,0.494421029148766,-0.210803975517774,0.253427127702395,-0.813355052911708,-0.386519132139583,-0.991715752611319,-0.110524779006704,-0.0790269396168888,-0.547231786621207,-0.200529642646192,0.0388594774356789
51.08,-1.26640346861477,0.12297274882782,0.0109639970935117,-1.13244362359364,0.726397497603111,2.14550705912661,-0.783840263433972,0.0390138857491797,-0.821497832478254,-2.81435695217781,-0.0476299759585557,-0.226854507580939,-1.11392986232384,0.498182757378718,-0.198127060803424,0.12003433458451,-0.926449506578635,-0.157259935933977,-0.992098122886291,-0.109934312049653,-0.0718413196044703,-0.546404835038264,-0.240920372907395,0.0705059219185176
51.085,-1.17745865468219,0.160113085220825,0.0519800919517196,-1.00102755882343,0.860954700100098,2.00763339018195,-0.757031152477211,0.0655068463824284,-0.750129229487545,-2.52812566687382,0.0299308398182042,-0.126352383588672,-1.05562854211518,0.488497449803124,-0.191917555458264,-0.00107171958645745,-0.972238500805665,0.0432044069789678,-0.992255047374023,-0.105980301476751,-0.0651845344193565,-0.54128652999118,-0.280819611360674,0.117261791197948
51.09,-1.08499604040141,0.174172432393244,0.0796079616613893,-0.852704705339923,0.972796529106516,1.93889753451805,-0.746116947168824,0.115106380499299,-0.70678082006765,-2.2819877985816,0.0707031414938302,-0.0550158791066362,-0.991701066381018,0.455733975205474,-0.195868087836532,-0.0414810817380505,-0.986779868602753,0.183274070011985,-0.987188594400075,-0.102504779864661,-0.0600192461441593,-0.550496707399787,-0.298442660227266,0.152395877642339
51.095,-0.911584298179867,0.200576620875906,0.0999699613062955,-0.627957521600335,1.13121313431238,1.85383254913952,-0.78421909230269,0.141863952262724,-0.627313379725505,-2.09442243294791,0.121196386649035,0.0197143314489091,-0.944184841906945,0.393367247500932,-0.212699088275806,0.05131222987357,-0.978350499874911,0.196032238644292,-0.982239701683267,-0.095363152753823,-0.0400544180868846,-0.570845453370528,-0.291032787677155,0.199562699055585
51.1,-0.728726435240724,0.29704003248242,0.280163156041944,-0.500700708247467,1.2284320970426,1.69232117374093,-0.829692869675404,0.137943218705004,-0.561758389424329,-1.92177517433136,0.154117528449878,0.119597416942684,-0.890090540236933,0.267422497317732,-0.248296339900453,0.345477822434541,-0.948846496448878,0.0996246989245517,-0.975011173015658,-0.0866955191560802,-0.0360911391183086,-0.604399057466953,-0.26151646915255,0.245699837152066
51.105,-0.84251332598114,0.35012490505814,0.733109166445295,-0.714857855053572,1.21157246293091,1.36917768322104,-0.863414385349661,0.16357469085331,-0.55270957746019,-1.8066416960018,0.123698522635045,0.17915945851901,-0.854277667339699,0.145767385233042,-0.294296379247736,0.612138936281145,-0.903945263895481,-0.0350785686419045,-0.979686421564134,-0.0879487984628428,-0.0302604637332529,-0.628139880527949,-0.208631413398986,0.272706434867124
51.11,-1.09478172096704,0.111912136285565,1.62819124964673,-1.42873131265603,0.920308812374954,0.563379339757344,-0.898068380825527,0.188281939391591,-0.544382349518632,-1.74773358022428,0.0593577755422404,0.260107106624622,-0.822800546974653,-0.0310413737221733,-0.350891889727029,0.947813534311032,-0.805531488436277,-0.237787060026415,-0.971488711984821,-0.0886522090469352,-0.0234408160826716,-0.64091449713577,-0.127438224383547,0.284784636840098
51.115,-1.17895916410967,-0.365102770585937,2.36585506775657,-2.08150016161626,0.199199529251922,-0.114398661351724,-0.902778883846388,0.145462987841293,-0.520803559321238,-1.68016102811819,-0.0169105535185123,0.321071356028198,-0.804614443796311,-0.163905753712148,-0.385883060061981,1.19933068871291,-0.67744552518418,-0.432984589765994,-0.968045469199457,-0.0850017898899595,-0.0183176039773593,-0.653585189977309,-0.00447248220661939,0.2818635186906
51.12,-1.23203056959747,-2.01607822113271,2.3675559390871,-3.06425011330867,-0.579879540331342,-0.879117733910492,-0.916514911282691,0.0340614955941181,-0.419241300610273,-1.43441482603579,-0.101002705301633,0.366525470151658,-0.789997691818981,-0.30915261214083,-0.41541846027727,1.31378523938066,-0.53852166482836,-0.594376082773259,-0.962600679707251,-0.0900147679289325,-0.0172406856949014,-0.659750675499406,0.0925544842796292,0.266870286067412
51.125,-0.662517591055046,-2.81169999781695,1.53566946370683,-2.07664296221182,-1.13600729063532,-1.07804988090971,-0.930998202476671,-0.154686400400101,-0.248318310176238,-1.09211427822156,-0.165882865131666,0.391936825758142,-0.789989489057018,-0.401708362177415,-0.411094484008449,1.31304850287943,-0.357119497317915,-0.749299006296857,-0.962444622000306,-0.093354619650155,-0.0142083616682829,-0.674353795569568,0.182731342348424,0.252995283151857
51.13,-0.176391416369999,-1.77721108752704,0.950050083355639,-0.0584664101535198,-0.758307005111938,-0.480567594516292,-0.953432986220611,-0.450847641399541,-0.110239303826225,-0.613332021952958,-0.25259308720146,0.345721744807356,-0.795950985998112,-0.426667733356548,-0.395359607064806,1.26580309520304,-0.23820723714127,-0.845384245232975,-0.960375835099073,-0.100603471282127,-0.0226229946116203,-0.693517389448234,0.23202265664594,0.247700932617645
51.135,-0.198482169621918,-0.49683151488067,0.878147359698544,0.867495039385819,-1.21948794489774,-1.02419708994218,-0.97098682728291,-0.680248138969218,-0.108649737090239,-0.180994751696975,-0.289145274287906,0.290637778991139,-0.808722808750658,-0.431085639552845,-0.367370673552825,1.15740646142845,-0.114960119109105,-0.951039827133013,-0.961008492573368,-0.108539035660369,-0.0259400290552728,-0.698711582601477,0.249451752698045,0.233216172628637
51.14,-0.495384980684032,0.703223303538785,0.821311054190215,0.897311558112072,-1.31929386168243,-1.26545493019368,-0.982701234123,-0.91268554116738,-0.197349499532443,-0.0927320401336717,-0.202400632583126,0.314115934012997,-0.820137576387356,-0.427249940216366,-0.353310668804814,1.05189483125157,-0.0643972626719498,-1.02287707353873,-0.95021887641731,-0.1093769156982,-0.030018386604702,-0.700104841913939,0.231245085450354,0.224348459851873
51.145,-0.66598952264568,1.19283205706031,0.791047147505741,0.77549253065058,-1.24909486504296,-1.16730521818857,-1.00360535001924,-1.04216070948921,-0.199963338797205,0.107139102518927,-0.147862661188533,0.333467990263593,-0.840885032993105,-0.412885688905849,-0.333087607012496,0.782662203481644,-0.0354598745784498,-1.11300123713457,-0.954064568257518,-0.11520952337192,-0.034186041446046,-0.672837934114636,0.167864173397405,0.216252879980375
51.15,-0.568768507793024,1.16037806769424,0.741017561330253,0.202155108012152,-1.12169595688035,-0.782387351332467,-1.00643796579618,-1.07514684239501,-0.204958690943091,0.649154498024617,-0.211914971546437,0.349291032026133,-0.858403037967886,-0.396585030388682,-0.313645472205767,0.52260081423265,-0.0348267908593961,-1.19004543032124,-0.95954582513134,-0.120204650105176,-0.0313389118976025,-0.638503502575137,0.103103658143481,0.186053408588385
51.155,-0.484796369651897,0.67742738276922,0.808158670018763,-0.365286558810581,-0.872531038329263,-0.433452584264326,-1.01618458658464,-1.025934680865,-0.246638170108192,1.12616827757921,-0.281505368110033,0.3588030533405,-0.881681239066448,-0.359922656472983,-0.288356378015416,0.263249538499838,-0.0527171439290592,-1.23681741403238,-0.963058740522479,-0.111515991619659,-0.0330322327873491,-0.601600444354365,0.0410664460876633,0.142409074004219
51.16,-0.655373816771718,-0.0333905101435089,0.915336881640993,-0.592171835296314,-0.609042855173694,-0.213993951570157,-0.993232570129566,-0.895509100008615,-0.30223666394801,1.55174908934747,-0.373649900014352,0.325166420362631,-0.914455986050921,-0.309885396489991,-0.268675666464967,0.0559493716863639,-0.0612316246228809,-1.24893469522326,-0.971606034364015,-0.111239387597092,-0.0228570306700798,-0.573526782255951,-0.0039994326808633,0.0992115157267867
51.165,-0.784951637900553,-0.817532517942765,1.07717756994731,-0.224890606444345,-0.510281574840284,0.01905986838399,-0.998459617593378,-0.831552825155324,-0.338951692345036,1.69509081830489,-0.413475964500151,0.214088974061946,-0.955326017936367,-0.24110473456333,-0.255266789122903,-0.0289288635376582,-0.0570766572524033,-1.22491837530332,-0.983374153444011,-0.103700063958286,-0.00405286528777787,-0.556538073917318,-0.0430826986437283,0.062092021356511
51.17,-0.571766526488072,-0.898829405599406,0.891135491552053,0.117295150388913,-0.492443185137562,0.0048594502937455,-1.0765532388628,-0.70909053935031,-0.306255977469305,1.86858274471448,-0.337155638587548,0.151173799548296,-1.01135436766947,-0.160833096140954,-0.244427703462761,-0.151884860939584,-0.0568475873535311,-1.1631593401538,-0.995461891232724,-0.0981590411526646,0.0128205042747228,-0.54761665204614,-0.0843413854797994,0.0300339135958461
51.175,-0.515708251616674,-0.388286804226864,0.960482772559538,0.608200639144404,-0.378226795485045,0.0729607731044039,-1.1429193572187,-0.558034494930015,-0.256807753068057,1.94465724054712,-0.219922031758515,0.12888679744273,-1.08233371728295,-0.0918771205821377,-0.230399660788744,-0.292906031730746,-0.0566858759523158,-1.05201434187888,-1.01381981940043,-0.0892953460044947,0.0234312920229451,-0.551079143228909,-0.108458509496402,0.00962141874617601
51.18,-0.474666057878923,0.212380705225898,0.972881520633383,0.926290953370482,-0.381460426494548,0.172156144300399,-1.21337214231648,-0.402849605910168,-0.168759244697134,1.85664610452473,-0.0992018092102126,0.137582756724424,-1.19449957887334,-0.0274463100276308,-0.212673530787214,-0.483254767317197,-0.0603225284967384,-0.87624937413128,-1.05393558905057,-0.0745629924482982,0.0150527897192563,-0.570366452258916,-0.128264413598098,-0.0196581041960053
51.185,-0.370066464510523,0.531617788695975,0.946311932170164,0.820948307585551,-0.331358290251697,0.251872283333561,-1.31357050728527,-0.21443072437893,-0.0412872181425562,1.704121461287,-0.0414948348542786,0.198315287984925,-1.28563943886995,0.014476869320306,-0.197538889971084,-0.622711089501258,-0.0536152749089072,-0.761183442593444,-1.03930082107552,-0.0706263248181208,0.0197990761114064,-0.568261586133401,-0.120351436458676,-0.0332392259821139
51.19,-0.343598021311903,0.503259450557988,0.96274875272296,0.623318820313744,-0.206973967495786,0.267303986186108,-1.40675131984106,-0.0193613259354495,0.0926072366874752,1.54949408840325,-0.0522665732145594,0.328474695801495,-1.38526649973084,0.0552989337933109,-0.181734993267756,-0.737553904947119,-0.0322808741285672,-0.680752916620499,-1.07952511415088,-0.061839986770119,-0.00603421942214001,-0.555370998903647,-0.141192065365708,0.0155567329069238
51.195,-0.313277666295354,0.348711928500861,0.970447420995114,0.532588184666786,-0.0891281238684159,0.227252312783131,-1.44444693364595,0.168481897837249,0.146468857861403,1.44806738440176,-0.140047942157281,0.461180454699986,-1.49047464895579,0.101758887293251,-0.170380353957222,-0.818480039798302,-0.0114952741730669,-0.654798321016772,-1.12499046891966,-0.0524592772571328,-0.0439465371543179,-0.549324957324823,-0.104732030309128,0.0572656498004057
51.2,-0.342216087853894,0.192913560446571,0.948370591841914,0.46053066194112,0.0402962325410127,0.197606247203782,-1.40300313876474,0.333356456853777,0.166779637089722,1.35307341177276,-0.253232583843309,0.625723098276854,-1.5841032024789,0.155020509950883,-0.154651165584763,-0.867774073533839,0.0205075421438617,-0.683035122182143,-1.1557192860026,-0.0358355306192469,-0.0632379423557702,-0.574453471400405,-0.0465988346941882,0.106662858474902
51.205,-0.404598589381726,0.196174038932958,0.942457203583912,0.410725228779757,0.140331690123182,0.18432296347295,-1.30674002869017,0.390432025512083,0.0977069337518936,1.21963406355883,-0.265908470548668,0.674844093131697,-1.65045935613089,0.225406905427625,-0.128198530525456,-0.845394267343579,0.129881550553931,-0.693920814104901,-1.16423745916648,-0.0318950995308708,-0.0833650233048314,-0.583136238961817,-0.0137905917107391,0.131534578785972
51.21,-0.423761323148332,0.236105570943576,0.905692538273631,0.470192947727635,0.169315458923072,0.182555036335677,-1.16143208577017,0.37451898117407,-0.00221741569936796,0.881471111873524,-0.170947728148157,0.667537324399833,-1.65769792130768,0.266376320301584,-0.1024988949582,-0.818157386774465,0.203922410637915,-0.668526168883455,-1.15944940162983,-0.0148122131728279,-0.0964119530694788,-0.57897930268841,0.010288254531983,0.128394194005114
51.215,-0.45015242793606,0.26409550166322,0.878590949052687,0.46853935561938,0.186225125694965,0.188584610181732,-1.05026855375455,0.304322632060806,-0.0535540821073681,0.522435601602572,0.00846718782923478,0.595573414095107,-1.61597724805919,0.314586425050844,-0.0469035321542845,-0.766109419531717,0.310605253364274,-0.539895495707232,-1.1489158007552,0.0038166372931175,-0.112919175524013,-0.622384931990681,0.0243046337570081,0.136698631961149
51.22,-0.471171207508835,0.239225562935216,0.878422692675328,0.455472757201197,0.173176626776318,0.206327536789969,-0.965330699231125,0.253509818196611,-0.136016838973714,0.104153113297163,0.180201416291582,0.446826953180992,-1.53939444339792,0.347509770795234,0.0384545339524131,-0.618781259761922,0.405933422356777,-0.344825485727278,-1.12911042106865,0.0229939571083563,-0.132526551951344,-0.643372502005492,0.0381679608248881,0.147107450728091
51.225,-0.453747650094925,0.216497237177583,0.860143959565209,0.456710268236189,0.164053324178292,0.206613648638799,-0.939350384204038,0.23973156912017,-0.15897744719158,-0.188504323171368,0.22794988038575,0.301965587821457,-1.42083172381901,0.351702389589883,0.109976616263338,-0.34081197771069,0.453038326100761,-0.115308124128831,-1.11373678665237,0.0405401780752008,-0.142815100773924,-0.622653959746232,0.0484586667354877,0.159783806304924
51.23,-0.435266408877999,0.238070169282903,0.870940203273913,0.456609159071518,0.176943551305016,0.211031805666614,-0.938092352152516,0.239509397386341,-0.134092342791734,-0.317571055441217,0.190423976703187,0.202078893668743,-1.28905022679974,0.323352521941394,0.152396877502521,-0.0572671262565754,0.438651502626016,0.105125333096114,-1.09057966425464,0.0505906292001119,-0.153083377768154,-0.571119964362632,0.0536495074030134,0.170871375334084
51.235,-0.430377339621707,0.257242877740918,0.865867290957204,0.425297736186243,0.172203463422945,0.210251356320504,-0.95896051621064,0.245962092447772,-0.096479850302189,-0.350602172697638,0.16739204783419,0.171640367858181,-1.15042869133857,0.277803088592654,0.164063027545169,0.102167080882595,0.41104785034886,0.274375728548881,-1.06957717580513,0.0505833549664896,-0.149978622109769,-0.523367573486667,0.055990991541547,0.183215218739121
51.24,-0.431899591544744,0.260713942511502,0.857619201788818,0.416031122569055,0.170874558521118,0.196510274895853,-0.973120281178615,0.241766140548069,-0.08788946972421,-0.529206813163977,0.197578948508757,0.141524435628307,-1.02323820276169,0.24319092066523,0.179362457889058,0.104663627093937,0.374554987329367,0.344336915815102,-1.04336454447761,0.0424320356106244,-0.147128976880192,-0.461822165458616,0.043451746257712,0.195136083535545
51.245,-0.451897666543476,0.257870370477063,0.868888810384026,0.39077514275762,0.166981926426424,0.185522065801644,-0.967462390508378,0.212879971214247,-0.107130885405143,-0.705822515122299,0.219537232050282,0.121068853824557,-0.912787233234515,0.218452804533534,0.212973194052967,0.105199323660582,0.292983039055258,0.307083957717318,-1.02065616323512,0.0302636409813172,-0.126968767812869,-0.405446562725843,0.0249858147198703,0.219069556305332
51.25,-0.448311008934014,0.272561435306248,0.854896027164612,0.368757007659141,0.149459289743837,0.168807335320576,-0.961010096154964,0.143715270354742,-0.148879919804269,-0.920575848426679,0.189448459244651,0.142490819236103,-0.870038778453474,0.203217348933058,0.227997467278302,0.145741592585699,0.20533959278749,0.251114997992336,-1.0039065807593,0.015603798005636,-0.112267334162289,-0.358649234440547,-0.00385946603076846,0.258487446949962
51.255,-0.466719712055527,0.280368700253046,0.846127735646146,0.351858321911305,0.125976529394461,0.151689079527615,-0.918435122259041,0.0781133861892838,-0.179389261324259,-1.00991528886484,0.165291278079956,0.152397130693197,-0.833030990791491,0.161041470781452,0.242636073308578,0.134978494920342,0.0995788175012494,0.20618007853746,-0.991396167641317,0.000418313612536787,-0.0923229671833488,-0.325477322568872,-0.0261184216107127,0.296443147586633
51.26,-0.472130406781149,0.287904409941248,0.846164864290882,0.338859259519721,0.0966871195891776,0.118462114726165,-0.876110739532188,-0.00645880034514501,-0.209156840844187,-1.08873463881461,0.177302885437066,0.15344405504547,-0.808783124619237,0.0980284281037454,0.259791509062166,0.0593424796718876,-0.02526706344303,0.145017864140472,-0.986512934364344,-0.0176487034528459,-0.0769211356364671,-0.298893056348941,-0.0522421983411392,0.335112223592056
51.265,-0.4603883081766,0.276202036170841,0.83981691785255,0.312117917817952,0.0780662872106126,0.102004121322522,-0.881313372722,-0.0884593686580176,-0.195110154367764,-0.999873011906685,0.201643499071583,0.157879965588043,-0.798291149269767,0.0255322504039643,0.269968295364901,-0.0827875793884701,-0.150695929519223,0.0463708861529264,-0.971067475948094,-0.0450190580837032,-0.0525489587111262,-0.263002970395913,-0.0572285309076775,0.331164920060216
51.27,-0.469717967584398,0.255379660270035,0.840513038293546,0.281849014720241,0.0670959219514807,0.0761417165204485,-0.889484240368315,-0.194683967495007,-0.184644721908589,-0.798091892544496,0.204745839057583,0.143567015424747,-0.779097047905602,-0.0553826242382957,0.270555608335779,-0.251649840542166,-0.27879846728956,-0.114886422852637,-0.954832869820868,-0.0725964338630517,-0.0306872214912541,-0.226654061577416,-0.0701187544725222,0.313606446001756
51.275,-0.469911812387929,0.229880844405388,0.847937709290736,0.258999626964491,0.0581241913419955,0.0620257003366937,-0.911394343206213,-0.297752131622388,-0.186310191763294,-0.535486227054379,0.202832642894385,0.14598287990011,-0.765560913696647,-0.139060692076294,0.267513722908879,-0.385394343310262,-0.362094891633503,-0.282079850218116,-0.944055824733209,-0.0899250977143422,-0.0154944265656245,-0.19018460507015,-0.0646184309559705,0.270060020933748
51.28,-0.447129164974804,0.233861336815279,0.840903249777889,0.266204727954455,0.02879724693908,0.0509470587418683,-0.95687891874294,-0.359570340387133,-0.182035404104137,-0.194680385769671,0.197888051390498,0.162123431804667,-0.76009773131042,-0.202846499698907,0.256474399516741,-0.461370276474461,-0.426985817217335,-0.449347022156669,-0.935324645934278,-0.0927596428697623,-0.0120084210525389,-0.163662552377528,-0.0325707508464642,0.211295914898058
51.285,-0.451571341431865,0.236451238006181,0.85597671028078,0.257776142321287,0.0161643514311141,0.0432610805245709,-0.969557675749752,-0.38261861239756,-0.186225881532496,0.139194375966988,0.170448408691966,0.190674110159445,-0.752979968443702,-0.27420022881737,0.229639870680864,-0.412365662480782,-0.483425397563094,-0.644392210830868,-0.920557265228262,-0.0969528309696081,-0.00807184844755543,-0.163848695453568,0.0276842759155184,0.149669475629834
51.29,-0.434864094322767,0.225508486486599,0.861956085504631,0.252453395974425,0.00492050744987593,0.0372424056874662,-0.98863110689847,-0.369278874955094,-0.176273950952407,0.467240320376856,0.133606917100985,0.220383216753455,-0.750949594105024,-0.314354346995769,0.207538231549057,-0.311922366641623,-0.523139721942802,-0.790083946656726,-0.911797899365183,-0.0946670277560134,-0.00611853037583905,-0.172421743222178,0.104881222302949,0.0747475782189644
51.295,-0.446664255036156,0.207833823906588,0.872139970208299,0.237785175573809,-0.00415928940555838,0.0328214462609409,-0.98536026813946,-0.320226086678315,-0.16409664858804,0.671750478744415,0.106768847641426,0.247937877596855,-0.768593758483099,-0.330921917764899,0.171817279711849,-0.0977854783658417,-0.557767202854168,-0.931427984537077,-0.909611007421032,-0.0913122627504167,0.00370301009030507,-0.17243366646696,0.174879732289091,0.0146205875834316
51.3,-0.432115379500003,0.202195139215666,0.866141733909941,0.233186891744841,-0.023877752757401,0.0351861474813366,-0.979928546103718,-0.24144101351502,-0.134926315502536,0.880824722190042,0.0698531310207278,0.292972671749054,-0.792240848103535,-0.326929690142232,0.136318568295878,0.148754643393993,-0.570123870018596,-1.01970898870662,-0.896423177520871,-0.0783207540851995,0.00889404745404088,-0.163105962870476,0.256809496767122,-0.0380989929609231
51.305,-0.442678387860851,0.196878923049176,0.86371227792546,0.232272748677703,-0.0418728667935767,0.0234529245849302,-0.966745370627362,-0.194542503018812,-0.118487129040279,1.01808166001336,0.0382410177706396,0.333817735119375,-0.834036384757284,-0.311476407150039,0.101371765245134,0.431148580060151,-0.548466936160675,-1.04768930595384,-0.883744216747623,-0.0700747606089439,0.0284000551650171,-0.151094967973541,0.301978530029232,-0.0534575933935766
51.31,-0.449693369521022,0.175649535096544,0.866087088969698,0.196243482314845,-0.0401061317960167,0.0321326110706528,-0.951946840527622,-0.133612030864888,-0.113509591125488,1.11254612559468,0.00222666671925476,0.386642231497924,-0.871347652259997,-0.280742865815064,0.0746705994829226,0.599498003511648,-0.511789569043796,-1.01460646295096,-0.87497453755332,-0.0566962177576746,0.0292643391509517,-0.129909789455964,0.348750648803038,-0.0433019905712107
51.315,-0.440932162120683,0.139424090697713,0.87428923369965,0.182720446329369,-0.0489403435592411,0.0378531941069115,-0.951186036014589,-0.0870801495069606,-0.114757402016922,1.12129092060331,-0.0101846203639577,0.439686804516775,-0.916893078696305,-0.236632025530006,0.0357975279389972,0.738701479475781,-0.428566335627711,-0.901021397823473,-0.871472547705255,-0.0369539287867005,0.0203047049173612,-0.10449861626134,0.375994650395898,-0.024132549608436
51.32,-0.444185321557165,0.137019154800383,0.874903861414044,0.168633634219565,-0.0515596628998574,0.0452082173250401,-0.953835933179445,-0.0503025817375215,-0.131371257794272,1.06306146284021,-0.0330127370860776,0.476031697087753,-0.952928114278508,-0.206828769809581,0.00613104422151937,0.790651492075125,-0.331125365469535,-0.742718387242909,-0.869562988793153,-0.0158438657527442,0.00836884777131034,-0.0774373200958764,0.397421013328696,0.00459884421041645
51.325,-0.444563096547795,0.146281576942143,0.874688287732957,0.154876333491562,-0.057186046635672,0.0611192516738467,-0.967923979716506,-0.00336330230354943,-0.146074164915203,0.909907960672395,-0.0548867554092117,0.494517259649322,-1.00509481658487,-0.163116357522981,-0.0370358423597007,0.759350397521668,-0.216304872403378,-0.54807088488263,-0.864059531760073,0.0051752331204028,-0.00200298632622039,-0.0598537750663895,0.401792217766734,0.0338665168294054
51.33,-0.438053937066194,0.153899527454267,0.879368375157583,0.139624813692466,-0.0516227707266808,0.0704087801958525,-0.976831083808499,0.0356716293620396,-0.135005489352672,0.786406539423915,-0.0748202756018843,0.489497752269478,-1.05177641398142,-0.114381830994807,-0.0688094842193112,0.682243445751416,-0.0975656433378032,-0.332623041444403,-0.868319874584969,0.0305114199945777,-0.0118264334780349,-0.0701059472170269,0.391508987180125,0.0727968474873033
51.335,-0.430674917280741,0.15843835112048,0.882490804761927,0.133431032299995,-0.0589936833606464,0.0833208843038845,-0.98028378588217,0.0664669562659104,-0.120473107045833,0.623260912137886,-0.0704429944748442,0.476164915188223,-1.10285120408714,-0.0585981294978798,-0.103843316397988,0.596121465972045,0.0469946609566901,-0.0717628099460611,-0.888492870398523,0.0579992732151984,-0.0136173400178555,-0.0947357359921696,0.365006374666179,0.108977883519909
51.34,-0.42510871010301,0.162719910383253,0.873743890422024,0.122012875468799,-0.0468926428367865,0.0868717792758948,-0.989241607412501,0.083034738595179,-0.108651690008586,0.445787578116408,-0.0712764044653225,0.452583954741726,-1.13889427438802,-0.00751385465228109,-0.133128735111728,0.503086810959979,0.18404012453686,0.15950824371556,-0.913526042086033,0.0890771032686304,-0.0162426227453576,-0.124727569133918,0.313915324718736,0.149426140684963
51.345,-0.421761677649116,0.197438706145678,0.885508856836114,0.115583517491232,-0.0373200796373431,0.104703819857129,-0.990115688163644,0.0981353234384102,-0.0853043143985921,0.206171108841561,-0.0542325917916832,0.416472451324597,-1.15009483863303,0.0365631181783568,-0.163362427836954,0.373888622705776,0.30270533244012,0.316364230326909,-0.94054234575848,0.111321812030133,-0.028602775593943,-0.151438739886993,0.277504430936048,0.183595855521819
51.35,-0.423813984661206,0.208216289316861,0.884424267942269,0.0881668098493323,-0.034250095525558,0.113913781824186,-0.992667068717269,0.0978143630155237,-0.0686144899053898,0.0119053213092803,-0.0382404499116445,0.391394888631545,-1.15158335326896,0.085145555096198,-0.180228275816832,0.163757506801501,0.426188690261651,0.440441299374443,-0.966827905061648,0.132219178289269,-0.0435112602697521,-0.168003245500156,0.258631683478705,0.208128507777624
51.355,-0.420993166785249,0.231893396873348,0.877574759942305,0.0847441331842179,-0.0374606172050495,0.120935275634672,-1.00126957590054,0.099510385194448,-0.0729757300681448,-0.180721132230571,-0.0220694347850127,0.362384363886927,-1.13493166508883,0.127495274469875,-0.167572757285589,-0.0420725643630838,0.498545509443834,0.494000383864862,-0.984055755415705,0.152103128242785,-0.0655278759750897,-0.171282430961983,0.261227224508047,0.226044543758381
51.36,-0.424496475518241,0.253478924537908,0.875835725255418,0.0592147079893524,-0.0259671863168478,0.11847831457923,-1.00591089217293,0.110035189171743,-0.0975375599811796,-0.350016531965827,-0.00644584104688444,0.348134853264733,-1.11087404364016,0.181402371341394,-0.114042331579764,-0.259080930768761,0.494101912112289,0.498748547581804,-0.997078006121862,0.172215587857468,-0.0883020866293014,-0.1757351985711,0.287142957219547,0.251061896470812
51.365,-0.43515298626046,0.255840315233362,0.866135769245692,0.0267194934341576,-0.023652209619118,0.124359000872772,-1.01532819448048,0.130050356761235,-0.115282397455208,-0.487345777749338,-0.00171912328458609,0.323344205243501,-1.08568908629144,0.202901164253546,-0.06240320336804,-0.232790506136153,0.429725158273829,0.450954116792262,-1.00984518322963,0.187432882214258,-0.100766145551748,-0.175279403870283,0.318560386693168,0.258827844205371
51.37,-0.435382560730658,0.262259531422904,0.860945604786717,0.00761210617285747,-0.0174956512576943,0.120710437236824,-1.01960243657845,0.148932596202868,-0.12619568954184,-0.561626213636159,0.00676015462630967,0.312500814810777,-1.04959631602183,0.193976459139902,-0.0124974274434155,-0.0691327798507776,0.315515365698751,0.322605537100888,-1.02639737639472,0.200925854216306,-0.114534582357636,-0.175625243370784,0.355900810136096,0.251953117156422
