Header,foot_Accel_X,foot_Accel_Y,foot_Accel_Z,foot_Gyro_X,foot_Gyro_Y,foot_Gyro_Z,shank_Accel_X,shank_Accel_Y,shank_Accel_Z,shank_Gyro_X,shank_Gyro_Y,shank_Gyro_Z,thigh_Accel_X,thigh_Accel_Y,thigh_Accel_Z,thigh_Gyro_X,thigh_Gyro_Y,thigh_Gyro_Z,trunk_Accel_X,trunk_Accel_Y,trunk_Accel_Z,trunk_Gyro_X,trunk_Gyro_Y,trunk_Gyro_Z
84.69,-0.431497139644605,0.234674968866686,0.854798912647406,0.147952265494144,0.155176297202095,-0.17138096106755,-1.01470059882846,-0.116254968186472,-0.208804497895915,0.397995094377961,0.705314755439758,-0.543901418019912,-0.937007693004779,-0.257404665149834,-0.019705742514423,-0.842975916311774,0.203690212732514,-0.974167827932324,-0.866077387446164,0.111194284665021,0.303275466332286,0.657128505641113,-0.00492399507730243,-0.127333338415131
84.695,-0.432887681601619,0.244188969387682,0.855126007309993,0.170755164678529,0.179655195956989,-0.182735772427537,-1.01005968871504,-0.108977835966231,-0.194863701414945,0.460960367111553,0.710557555007437,-0.553634449511901,-0.927266799133081,-0.252049969529911,-0.00150117631266181,-0.918964024941448,0.212739229468193,-0.955934552347241,-0.896356560602722,0.144562795767306,0.29049100789802,0.670139529689357,-0.00928217456796603,-0.103337132322594
84.7,-0.418803206024553,0.237084639692102,0.856892377800492,0.18838939431325,0.204122240157937,-0.191869089367952,-1.00788035646197,-0.108077764492158,-0.17774343407074,0.504726409272768,0.736699503375233,-0.560029573099857,-0.928075473785981,-0.241762508141305,0.00782369082316882,-0.963437010921493,0.227532733398353,-0.964973391805387,-0.905296322979127,0.159804001881744,0.272061773784714,0.660994400485534,-0.0412079183236014,-0.10231672311359
84.705,-0.410790717693685,0.232126118665111,0.864668351776742,0.220194969174346,0.253639446587069,-0.192702699810172,-1.01677913729521,-0.0971919326862328,-0.167986746657079,0.49414271584001,0.758536026580795,-0.571745152546632,-0.939688535868767,-0.218331191840641,0.00980790039918729,-0.973472520975425,0.246918451661318,-0.980108992807209,-0.933355505938556,0.177683272960122,0.254710529289624,0.667353703322911,-0.119607881978205,-0.132204557881724
84.71,-0.410879889649132,0.224962310919444,0.873359765513871,0.246533746744939,0.303206230274169,-0.19950419205444,-1.04202860003461,-0.0934769650605472,-0.162740385083109,0.473670264857215,0.775735887874037,-0.595864362893739,-0.970307512442945,-0.187200069857407,0.0177993772416622,-0.945558359028904,0.27442829023283,-0.995883294886874,-0.968851411459956,0.181975797488036,0.244158883338327,0.669483286603962,-0.169863167763017,-0.141568191416641
84.715,-0.417868955153425,0.223017535205058,0.887580013974437,0.273837208753792,0.35745990156823,-0.202928254532169,-1.05579081318269,-0.0943062498545247,-0.166712013128175,0.432979395228285,0.785062629145842,-0.619284939091313,-1.00698762550061,-0.150678090280199,0.0285426809547249,-0.912480891989453,0.307116454690895,-0.973592699036504,-1.0042465756487,0.186629900256383,0.247101899831813,0.666777400240869,-0.194219254971867,-0.15160090115553
84.72,-0.413904361639495,0.238239616283446,0.905431451754117,0.301245899206322,0.415826719483094,-0.207900124827196,-1.0812005575234,-0.112400617250819,-0.171029437322246,0.371672317578932,0.797626343778295,-0.64869068740736,-1.0384819503132,-0.125832464253924,0.0428504968245897,-0.888485122084486,0.345224324781148,-0.949938570233372,-1.04116981716489,0.205290235952032,0.251792632297952,0.664893984794617,-0.197888434554589,-0.157164647138196
84.725,-0.425381264482786,0.225262015717169,0.914995488718065,0.307214829075074,0.4955116448685,-0.221427151089573,-1.11097656606266,-0.137902881763913,-0.164639827251157,0.324936811583278,0.807639233439558,-0.671758804323412,-1.0854769910014,-0.107064859872657,0.0607777403587046,-0.868936726280433,0.38910139675714,-0.910323959608359,-1.06323409113514,0.216845287675351,0.256282341993911,0.6444357786544,-0.180627738231783,-0.160217965343387
84.73,-0.438606359379691,0.230373619701836,0.91419651094894,0.342910455267064,0.559617901226192,-0.240005248745207,-1.13966465007779,-0.161348622570012,-0.180672458565909,0.318458082931704,0.827377580159457,-0.684148500988747,-1.11476803693319,-0.104299868202298,0.0712543765434379,-0.865224542078092,0.421457543037354,-0.857983987307595,-1.09295174686807,0.229955162269668,0.257931217011412,0.619215132310591,-0.154879711663797,-0.164799591565723
84.735,-0.444071571542392,0.225868863133164,0.900564457860836,0.378588369709204,0.653288448738853,-0.258628048814684,-1.16109418359935,-0.193039859092473,-0.19228471685831,0.328669868664372,0.847635802773371,-0.706292572639016,-1.14399801172738,-0.115224125456999,0.0799648264253473,-0.858678936958313,0.445490754552541,-0.781737678546729,-1.09994609318213,0.238954827033362,0.252377263365593,0.580008824130555,-0.11322053132188,-0.177349181186452
84.74,-0.465597448561945,0.257769244728349,0.915602201652563,0.420169947535205,0.741488232064895,-0.283777789607847,-1.17445780915697,-0.216513029327022,-0.200861838136827,0.365517874427107,0.883421527239582,-0.7384841612601,-1.15503479439627,-0.128707220584077,0.0830934844603443,-0.858678936958313,0.460066835858035,-0.730039325449998,-1.0975574278958,0.247481760788743,0.246711329308439,0.547297989195339,-0.0624809138293108,-0.19446693408282
84.745,-0.365038410587355,0.238123084541151,0.931423126469431,0.452382879535783,0.842090053643877,-0.298823428806849,-1.18280708276945,-0.219391707265487,-0.188356032698321,0.389643548247381,0.918964621061413,-0.756550167725259,-1.17048053987203,-0.149626696820138,0.0729037646904611,-0.831586167149874,0.475637444726174,-0.684468610133953,-1.08894799511303,0.242909884775246,0.240716974861952,0.497152961659761,-0.000247794376163591,-0.215374218780002
84.75,-0.394999089099484,0.209060250256878,0.927143680415401,0.489686757073135,0.975510469114436,-0.331441084982381,-1.19034245017334,-0.272911872638005,-0.125577549774151,0.479521528519246,0.962533129610129,-0.78255414766608,-1.18652637238517,-0.177959899895983,0.0532019543293335,-0.733607708590937,0.496932375196044,-0.632010548349392,-1.08659563815249,0.249404638009617,0.239830634731555,0.467291464424268,0.0492530078799716,-0.229668275219957
84.755,-0.440930461293466,0.230853424627999,0.920417105209684,0.534961595498392,1.08798532443278,-0.337285576791054,-1.23049542536647,-0.296461123909587,-0.144790441195587,0.527613340479391,0.972082610627938,-0.811836429083328,-1.17252093036387,-0.187743361974354,0.0417826019705137,-0.639292757273145,0.513234672093794,-0.608542494530265,-1.08476401777832,0.25565103611086,0.239055994177618,0.426026585901124,0.126838769413575,-0.256148467074518
84.76,-0.451059027290555,0.228819718464856,0.919851050522697,0.566759872648724,1.19835586768741,-0.344978356240808,-1.21494568770058,-0.29076304853311,-0.157844045062516,0.602577127922286,0.980074810258344,-0.855521585484896,-1.14078874240611,-0.177925705249386,0.0288521795099145,-0.534086737987606,0.540573703308671,-0.587397401008682,-1.07679093746276,0.268104784661878,0.245789548567273,0.37423054256621,0.190210805592455,-0.265320241451263
84.765,-0.479032395500849,0.200088752946408,0.939707504077915,0.59594177444573,1.34582715996908,-0.359560227027732,-1.19466051265506,-0.295974381544768,-0.156287016020099,0.6313663133435,1.0255746895874,-0.894014480121537,-1.11717700165495,-0.158182025705508,0.0247338993137446,-0.469581225818231,0.576541463734078,-0.587984759823253,-1.0644848229558,0.283160777222252,0.267501465907579,0.29626167786203,0.253070278508173,-0.284770923332648
84.77,-0.452950672954882,0.243105013862367,0.960975861436617,0.629358345498606,1.45563626233464,-0.35004334020541,-1.18293829395621,-0.315031665746861,-0.147082330754684,0.652914068775181,1.05290854067108,-0.942938935937098,-1.10053076294723,-0.141052539451556,0.0354412217404814,-0.450938249928567,0.60635848462846,-0.602412479322635,-1.04968089611573,0.293903254839928,0.278675057769713,0.246922528001276,0.295238614134047,-0.285813326073206
84.775,-0.402884898241654,0.206754453669716,0.966299838073977,0.660180669006077,1.60700486242652,-0.319931129983252,-1.18427763814328,-0.346729640731395,-0.115624541196037,0.634029701374886,1.09827339214573,-0.993985263050778,-1.09211229443353,-0.125627845963012,0.0582014759099205,-0.493815714362284,0.641240016650641,-0.620232486258349,-1.02792208716559,0.31758063129206,0.293591238251157,0.17946841248711,0.338729162952773,-0.277580376207202
84.78,-0.403167501493961,0.214262984963625,0.941657419255565,0.692517117090212,1.76381517599432,-0.293274876598497,-1.20588436420921,-0.342281180770431,-0.0641957002417628,0.566558968753255,1.11885789129546,-1.04217860521063,-1.09724638191527,-0.124494104193095,0.0752898558772316,-0.546149470914014,0.669950065448486,-0.617068929110607,-1.01847781087812,0.336858970100501,0.309853942798308,0.115828135150352,0.365882234925138,-0.250309880268361
84.785,-0.428398911453323,0.264416245316363,0.935911975024435,0.717540676052058,1.91074173534219,-0.267398912186867,-1.24882228327454,-0.320226615677357,-0.0841188863149686,0.503523902756782,1.11827382033646,-1.10214836314314,-1.09959223114899,-0.119193754302128,0.0955994802932272,-0.591699711758934,0.705838969720409,-0.585085251690083,-1.00961004390068,0.35440895698535,0.332856635399055,0.0867234669425094,0.390034334094286,-0.230756794679901
84.79,-0.447897438197985,0.222988439803997,0.928336721592417,0.703621116626473,2.10682929238659,-0.256054639455089,-1.24671190642614,-0.321716917021146,-0.107846276258316,0.423561449309094,1.10632776485151,-1.16731812669796,-1.11398046209931,-0.103717444853111,0.0981727551527411,-0.628148912565792,0.749383545660577,-0.5450144219449,-1.02724709852991,0.373804371771681,0.352663096869266,0.00984530057971114,0.373686738357939,-0.211757631516056
84.795,-0.463191072770995,0.233195097433066,0.946688924880742,0.722911027610296,2.25484854087716,-0.24418368803474,-1.24039569043107,-0.325319991625295,-0.119602726275167,0.317681146778758,1.11909320802036,-1.20811489903987,-1.12002201131177,-0.0911589022751029,0.0956272389365247,-0.613052860233433,0.784053899852802,-0.521941240658617,-1.05353041706242,0.394866842141513,0.385871631799622,-0.107899322783968,0.311061515107254,-0.18174723592856
84.8,-0.45913027264086,0.24526115349673,0.941280677354601,0.740553292563179,2.43423900885034,-0.230522933552819,-1.240638316317,-0.3277165688566,-0.119626428105747,0.197505749092698,1.1480329800593,-1.25858859417579,-1.12590860561732,-0.0846891763901114,0.0885653518051862,-0.563799343957211,0.829091973668323,-0.489237073533547,-1.06561208863682,0.391237152934765,0.413382490500516,-0.161432593606902,0.254607407297776,-0.155903210984216
84.805,-0.480779517821359,0.24734082136067,0.916811476513001,0.744715785427092,2.62977654868186,-0.226796558977432,-1.25056529790998,-0.324578499101038,-0.0988978901759178,0.10102613578746,1.17904328721342,-1.30109929267005,-1.13098265512551,-0.0798982099066057,0.0902476381987805,-0.51187669267781,0.883454914498394,-0.474490153525559,-1.07426407837599,0.397884484901386,0.441636824815923,-0.201413969294918,0.177526723234925,-0.127181732668712
84.81,-0.517494313349836,0.281922035688181,0.895949771155897,0.776428517564414,2.79117900642903,-0.233742131893837,-1.2707222509087,-0.306883528615176,-0.10811979001306,0.0123170991112169,1.20512783988831,-1.34571021075698,-1.13888476994357,-0.0818623461712052,0.0886672415846728,-0.462626183804302,0.928591732449196,-0.446082207933822,-1.07670758084144,0.386976645103336,0.470705278516135,-0.210199885798717,0.172369339034632,-0.107145478590387
84.815,-0.517809188241934,0.288408113189792,0.89318040547791,0.819877622107532,2.94426356839338,-0.261068554810051,-1.2783217571456,-0.307649467275811,-0.0907288254909768,-0.0492425558729627,1.23095049823381,-1.37307849310851,-1.15053191403191,-0.076928016253503,0.0793276392168617,-0.420663429868053,0.982021557961356,-0.408456265062634,-1.07814685391568,0.360742492881895,0.486363166022376,-0.130142150977114,0.18899824799837,-0.0806458488062075
84.82,-0.516636289541667,0.34170420480714,0.866834402308653,0.845948379019248,3.13167113724056,-0.320169411310564,-1.28045902925621,-0.294328680668947,-0.0558544345489384,-0.0870456364575418,1.27054208094018,-1.40799446233664,-1.15731055516652,-0.0616807332580693,0.0703105639330423,-0.38577329326287,1.02195606337312,-0.367481472794133,-1.08948272072627,0.344198418107768,0.491252093053561,0.0177587840494449,0.204914851481835,-0.0553047128648301
84.825,-0.521459186910169,0.347748566235925,0.842205627280652,0.876854523720617,3.29285876907562,-0.366069080059486,-1.27750004733358,-0.281409192689613,-0.0328577785761106,-0.101328853420663,1.31402049997549,-1.43891796547374,-1.14841853692082,-0.0353989788087742,0.0604292409701232,-0.369238129452976,1.04955070187461,-0.332398664490386,-1.08326225423137,0.331365163090468,0.48628178700769,0.0951086325082291,0.197130051048034,-0.0369781178596753
84.83,-0.550442340063654,0.310180296506166,0.834459789921603,0.879409822431988,3.50558699791407,-0.431190499407528,-1.25604785055927,-0.252541666368476,-0.0138987589849464,-0.101935319507312,1.3380063303434,-1.48519662021744,-1.13602840719344,0.00881263050280809,0.045498912564392,-0.348514320827848,1.07974871098995,-0.280080866138792,-1.07910351715798,0.326746817624976,0.469909316798587,0.0983006514402288,0.163348218875479,-0.0467717644579215
84.835,-0.551825952547732,0.32863351633136,0.850260021461228,0.934898794767819,3.67678627374813,-0.480529525322584,-1.22744103039253,-0.22735353333915,-0.0174369336248347,-0.116064645349979,1.36039316453929,-1.53223739773687,-1.13121308701639,0.0519222105242008,0.0426201196469045,-0.344068348696119,1.10370390448714,-0.226811866608234,-1.06425813377453,0.302002096143373,0.452197329538705,0.036422236268197,0.135191487575552,-0.0943014764697936
84.84,-0.562325657631587,0.353040015133888,0.847993202922233,0.973320365063245,3.87653272257442,-0.5505212450834,-1.21937201382373,-0.183807754623981,-0.00515059401417341,-0.138999224775029,1.41934209988212,-1.58495470679275,-1.14695185659798,0.0912998846435733,0.0468024468544628,-0.338970343664423,1.12626212280204,-0.175396003754976,-1.0429895636486,0.274293289831624,0.433218677928718,-0.0275615258629288,0.138831909970224,-0.163044005863962
84.845,-0.589996400226505,0.398657910175971,0.812063477819087,1.00882509871838,4.02570411948148,-0.613130013875368,-1.23872311328854,-0.145959813843608,0.0262987446066224,-0.160696421749438,1.48101800948726,-1.6531668479702,-1.19800296299358,0.147032364180064,0.0408539010787054,-0.326891088579415,1.1427039435645,-0.129022837558633,-1.02789406476706,0.237043763151755,0.403133495995037,-0.0776004184391205,0.186435038974528,-0.237142450485823
84.85,-0.61533629450787,0.422910493936327,0.812817450001836,1.02782191859874,4.23012874498056,-0.730231786110395,-1.27921583257114,-0.120382118717942,0.064620511427973,-0.18631477572729,1.55998968995405,-1.72661542250284,-1.21721542861666,0.193391986470413,0.0421497359699414,-0.325270448981279,1.14385545253754,-0.0462935801512127,-1.02675398781564,0.211618900852919,0.367619008421814,-0.107605468189538,0.272962689848474,-0.341666275030331
84.855,-0.619185788625617,0.448217878094268,0.792216910317323,1.08113520894222,4.39126112670098,-0.846231146956407,-1.32234238993428,-0.0822668797594418,0.0959740273084533,-0.230601668915146,1.6338713584876,-1.78347342217924,-1.20974376378601,0.232354115198375,0.0512112133533412,-0.327759641343983,1.1472615989163,0.0508593189638833,-1.03800740841899,0.198067374329627,0.3365696429875,-0.110520054739504,0.324049226424022,-0.415935940702489
84.86,-0.625061414479081,0.506754278105606,0.812751121900461,1.17498876173361,4.62205652391573,-0.99379532734839,-1.3658892666513,-0.0553866128256879,0.108980351580609,-0.253046147070809,1.68277821999074,-1.82638608926437,-1.17926520804492,0.243823696832472,0.0582366878813923,-0.369282824398311,1.13725426578629,0.148377103004094,-0.993419257090068,0.174141787912829,0.302373202546612,-0.0279187273416115,0.381417647534933,-0.50591756282073
84.865,-0.640099254853277,0.507324940740002,0.840857176540876,1.22198324104829,4.89036218314304,-1.13075851243102,-1.43418429415879,-0.054527366819345,0.127724606170608,-0.285636394960578,1.76428011261413,-1.88467659277658,-1.17945149840146,0.236132612089792,0.116512691354583,-0.49829413007631,1.11683811414111,0.321752757368351,-0.973851988737161,0.180856805762018,0.277523087786189,0.170820327875547,0.456181525334249,-0.571773946638447
84.87,-0.683642916786592,0.577581957148505,0.881986659677141,1.28924490111619,5.2270970109641,-1.29789928205959,-1.56099956176278,-0.0144464038060776,0.144844151655499,-0.316291741436788,1.80126481586526,-1.98847783146108,-1.33052278105834,0.245923611870389,0.173185201381654,-0.601244082323084,1.10709034942575,0.467441664062843,-1.09639504669112,0.124473491829905,0.297854953033056,0.283363337033745,0.390520029180302,-0.52799302705039
84.875,-0.747247371985807,0.762870868509102,0.79976033553557,1.36058084446302,5.60497081545553,-1.53209455957575,-1.69245585499487,0.100156269995716,0.182778051442576,-0.3588550902702,1.87866536716854,-2.13711928869317,-1.68008543763029,0.289658940348209,0.222107444134942,-0.656971004538813,1.07106704065883,0.597598978297943,-1.25971230847824,0.0568131701557713,0.276230475747487,0.369858879527148,0.148274297134302,-0.456004733166664
84.88,-0.765523601128656,0.937207899009987,0.662592073564323,1.36880377350902,5.858148610917,-1.79994916013444,-1.883608768606,0.255217268918954,0.244524508787996,-0.487151052380318,2.01940514584825,-2.3362971230094,-1.96406938807397,0.335075475782242,0.263761769733458,-0.547544081978957,1.03051647143612,0.725864448143483,-1.5344220936488,-0.0209707338610879,0.169429679382451,0.360982380721225,-0.086906067242128,-0.324133031930876
84.885,-1.01117055986937,1.27942548101234,0.538325203531727,1.19471554775182,6.06657071035068,-2.16167057104775,-2.05284686252038,0.374469026068805,0.264652771871875,-0.683369385308694,2.09605724350572,-2.43124949772846,-2.00105100252028,0.34562333226491,0.285429893281345,-0.299314361744375,0.987083198151145,0.886292593965396,-1.93978230469901,-0.0554282240492602,-0.0494775362362175,0.478392561904236,-0.195197348088611,-0.190618272649592
84.89,-0.962866187661106,1.12506155803795,0.464183794582509,0.526811262907244,6.36446928792784,-2.54659681395398,-2.09623356195172,0.467313783087588,0.279326507036189,-0.928500870666433,2.11595270794424,-2.38356762506813,-1.99013711593942,0.299789375209613,0.312080131574795,0.0995528224751903,0.899364754670733,1.23058991091203,-2.39741595519338,0.0566704691316787,-0.372027208976945,0.786581703779044,0.0875079800128642,-0.0376706219866711
84.895,-0.975461450741831,0.903603917862755,0.436518440976976,0.287269607994673,6.55380163963193,-2.88252541903317,-2.01721059065628,0.525659781782542,0.279809800673486,-1.13669979998024,2.17881550943638,-2.20791719694719,-1.83792748180062,0.225000131124059,0.341477629623407,0.434285974727795,0.802458013875964,1.6302680575874,-2.40437882343543,0.15061684039671,-0.558286886558085,0.965139548297593,0.566321744420555,0.054900707307301
84.9,-1.01627265898515,0.899682759102465,0.452018804650477,0.0963121464500525,6.77514593477223,-3.37080383186653,-1.90379204981103,0.484536054138899,0.224682896529822,-1.23601527437281,2.26272661389536,-2.03849534797013,-1.58176058513291,0.140567969172476,0.360959086154979,0.704945578827316,0.697545937178877,2.06653887885692,-2.01266823392868,0.13440230515863,-0.692696164232424,0.84828124966455,0.903674463941606,0.135459656835936
84.905,-1.07895528179486,0.850415443204514,0.49227275139811,-0.163111736561888,7.01164743530627,-3.74180701959892,-1.74582441499768,0.342284048762196,0.134268340730286,-1.3825484288205,2.42221842531981,-1.92337353906272,-1.36741078448449,0.0821013575181383,0.381886645660322,0.832383542943978,0.538008556565633,2.42302699184405,-1.4686963688596,0.0173781727738683,-0.791862001578857,0.386912783025414,0.714507444301729,0.186245889609867
84.91,-1.09381451575282,0.816353538328765,0.583931624552964,-0.422374858912948,7.2661603053194,-4.05417116945481,-1.65635625960869,0.290233423614986,0.242962790690511,-1.47331103586845,2.55856041138188,-1.93269039407085,-1.19285031138574,0.0711610818556355,0.381908932140554,0.927359323716325,0.436368578523116,2.57808108990782,-0.971803623739225,-0.110097443019335,-0.856963005386917,-0.289174669214349,0.0624868392018312,0.21241863981182
84.915,-1.05298894533761,0.897676847451257,0.636202674851122,-0.721446415951823,7.53773847783795,-4.40490708537212,-1.61877747092532,0.283316372274384,0.421328084602186,-1.44441699333149,2.66113379956102,-1.98711968450016,-1.08252897878052,0.131725351897591,0.32588196913593,0.9518723487854,0.325415354652923,2.53075640170038,-0.791384146447694,-0.175675751250156,-0.814733736166784,-0.680067636607623,-0.417943690601654,0.199515218400839
84.92,-0.985510953450156,0.95709098788175,0.642887200500378,-1.03354069841674,7.84208223459276,-4.79950964797712,-1.60505105298787,0.300906348749429,0.502384312222584,-1.18969805729205,2.64201846299579,-2.0508420731512,-1.01501575011319,0.216998094843916,0.26175006036556,0.935299801578253,0.214555226295075,2.43136855762744,-0.832019034306368,-0.234227508978099,-0.615860297877838,-1.0876040256618,-0.70654249417511,0.155917831745682
84.925,-1.09049309632723,0.859433153895283,0.677057642574798,-1.42865766603594,8.1080012769241,-5.27359735543943,-1.61426466441583,0.326799960329829,0.387981995345299,-0.850190923007122,2.56967032441973,-2.11879665444539,-0.963479800237321,0.245417611996222,0.178948558016764,0.874206929439782,0.0887365554567262,2.35237786190021,-0.983981949769389,-0.311130721247976,-0.423540051419905,-1.35723546724775,-0.711873595737962,0.156443675502716
84.93,-1.17240545255356,1.15754762555285,0.788980040558452,-1.70024542185251,8.09002699321287,-6.17645966078705,-1.59478390756201,0.439659993696018,0.165776938797714,-0.470449069939698,2.49065743641521,-2.19535437161819,-1.04409928900938,0.289906980329767,0.019130113073076,0.818841769883626,0.0218238044692481,2.42284883597078,-1.16718115625756,-0.441276221075231,-0.290246940444592,-1.37152285649909,-0.530127934333166,0.174602826687159
84.935,-1.28684380848547,1.49913133001748,0.721301585886712,-1.96751629188956,7.88015540830106,-6.825739609236,-1.56638353362412,0.674163230361323,0.0158098705261882,-0.0913905380453478,2.44917052361321,-2.2751557650649,-1.11457357891904,0.257846875172605,-0.105811808380627,1.14259808066819,-0.125343784156494,2.48677090072192,-1.31906131154513,-0.555164606341388,-0.197260640004805,-1.23043614194829,-0.187564739627686,0.152965059431949
84.94,-1.2810881554713,1.44880166247293,0.645475756451644,-2.53326473438609,7.54856518675726,-7.65088975878942,-1.53169854193096,0.992694440490104,0.00172477648322843,0.304425777905242,2.38910048908947,-2.19540676580786,-1.20694734870061,0.232308461736091,-0.146544381143552,0.924070017490903,0.0491898257012438,2.66422652637365,-1.41050915879347,-0.623828775580951,-0.151541650840143,-1.0091633828508,0.18565078962743,0.146239929397343
84.945,-1.29392644582801,0.747607771568165,1.05066228457077,-3.69075562176177,7.03129480495246,-8.66932084366513,-1.45917232511558,1.34315111946686,-0.0244820762744354,0.508842959371154,2.2963779952284,-2.02807171848243,-1.24850855177389,0.00662224489806704,-0.0156624595149657,1.7421746728124,-0.278291336773989,3.11103186443996,-1.49376064325746,-0.641691521496872,-0.159409406983473,-0.740615352909762,0.440127372262087,0.196843149815092
84.95,-2.09190247867275,1.2309052416989,2.03710256441196,-4.39145641198085,6.41877134049662,-9.05689144011917,-1.38515047149582,1.49960256763098,-0.32751276058202,0.128466701741761,2.13188322681699,-1.98491774442776,-1.25226618984883,-0.106224828802453,-0.0799976401010243,2.26293822533686,-0.421605358009628,3.44209939832679,-1.49645172119226,-0.638117230961152,-0.207420150229067,-0.533719714321344,0.558290127807337,0.280269813330594
84.955,-2.7387842970522,1.83243040719822,2.65840193912862,-3.84116142883719,5.08915781225425,-7.81353824195044,-1.28012516581585,1.40918160224056,-0.813806449136337,-0.511093855874514,2.08317424735334,-1.645298665734,-1.28309446574024,-0.211655008274546,-0.0675268175459238,2.2647597279508,-0.336421373418323,3.62086398609807,-1.45728603673216,-0.637431271455249,-0.254308506157815,-0.427239651405766,0.528734966083799,0.28958523494549
84.96,-2.58430164913308,1.78055045580322,2.50825453445816,-3.08078466213509,3.52580905541205,-6.08467436491947,-1.21335539972326,0.968189522450293,-1.19876168134177,-1.23420737763255,2.07614692882056,-1.2988798589704,-1.303011912988,-0.315039900919819,0.0216202371963234,2.03188576311967,-0.364853729030747,3.54441845221429,-1.28034509237445,-0.610764033878011,-0.27419523611271,-0.316426127108389,0.408687957852889,0.183263077689084
84.965,-2.44934636539902,1.77061309079936,2.394397256788,-2.68603063482087,2.33188225001655,-5.18347278439687,-1.25259417317735,0.325340155242545,-1.33988044246148,-2.10624091689548,2.22041459409745,-1.5275047533487,-1.34449808375008,-0.384541404295257,0.105845221681323,1.84794455403565,-0.542470587829056,3.27847845815926,-1.11786993059754,-0.59576542259446,-0.26302876059028,-0.247593341236312,0.318749263356271,0.0984365336908772
84.97,-2.38264406749604,1.26897259209629,2.93926814726646,-1.40313331112502,1.01743140161639,-4.48224229170208,-1.398498380907,-0.0656069829010306,-1.14671795498494,-2.99323387018221,2.44224747915144,-2.08925822453772,-1.43570199400551,-0.466964028586384,0.151222495093017,1.69790564566476,-0.830216318125078,2.91815953293846,-0.905370437518638,-0.54341809730868,-0.214093438423041,-0.147821361345638,0.215226064491937,-0.0230233711163249
84.975,-1.92758068138024,1.53023445441144,2.7249590908477,-0.852683108526274,-0.342513375928367,-3.81586941443325,-1.57508931910669,-0.26059661609206,-0.737656155937789,-3.22056708802821,2.51992226663924,-2.27670166066723,-1.56019431530148,-0.568890002940478,0.10789983960547,1.50765365773862,-1.0620182233794,2.6283995159536,-0.790032225867584,-0.478012980583402,-0.154273825234028,-0.110049122727022,0.173984672570124,-0.0866192847889254
84.98,-1.64584434893301,2.02076199648101,2.09635880060939,-0.912823124185273,-1.6300182694817,-2.74179458390332,-1.71445287989766,-0.296518372935748,-0.487615817978992,-3.25716008728827,2.28974623129717,-2.30398709227304,-1.66279558318778,-0.676781253748081,0.0681964052459479,1.27078165165264,-1.16976875663178,2.57781617579748,-0.734141466422457,-0.379848912106722,-0.0760410580279003,-0.0859643549120207,0.167855720503558,-0.156229533107634
84.985,-1.54054306561465,1.78123094071391,1.64647118007461,-0.857070956085199,-2.34506422935014,-1.94811742177802,-1.64466652253873,-0.197710843871092,-0.42321403622711,-3.05368978221783,1.84464391051657,-2.19837139086243,-1.70164053391903,-0.791503884018724,0.0665897192195705,1.21552711336026,-1.2505280169349,2.61017309378262,-0.719972508998484,-0.297765260850117,-0.0258282387208329,-0.11924982138287,0.157196319536817,-0.206292598857493
84.99,-1.05442340677511,1.54262389856244,1.37882198968106,-0.71619403398249,-2.8876871533274,-1.89953729615078,-1.44966842668641,-0.0642668402425354,-0.376795148639541,-2.41641012491758,1.43011449332643,-1.9042855339934,-1.71711648877658,-0.894724185809849,0.0419186053248397,1.43560590695358,-1.40435711779363,2.57967179952022,-0.748130180755116,-0.225202726106508,0.000319029550413978,-0.231762211492681,0.137254403077026,-0.246298830553739
84.995,-0.585193159141435,1.4626429982149,1.00176426003463,-0.790490863566705,-3.35067102747948,-1.82123285581746,-1.27778603812114,0.0931162662125118,-0.209202289573811,-1.71597867665491,1.18181830710009,-1.57498975437097,-1.74022584825879,-0.984143920513782,-0.0497570374899758,1.72795527145766,-1.49929941770849,2.45408300852644,-0.788291011953173,-0.157851637543728,0.00746070266675423,-0.380834463249041,0.0659414210340513,-0.318200801887075
85,-0.325424146859966,1.50040673375205,0.699217447730786,-0.900879901428907,-3.57873542719657,-1.73650306320993,-1.10075005107253,0.196707978410562,-0.0184684635955449,-0.991930408604552,0.943402610111968,-1.29737447542667,-1.75655772677394,-1.04201507661305,-0.143019680479029,1.86862016829212,-1.46042319328597,2.35372036025765,-0.819070862317872,-0.107044911766839,-0.00632393386752119,-0.483263952360947,-0.027713458733887,-0.380177040053919
85.005,-0.239545176680945,1.55616837040965,0.518649741586825,-1.0507996928764,-3.60380890027869,-1.67140902824091,-0.966513494798023,0.215365999847794,0.0590719984632043,-0.353863583098638,0.743569326243225,-1.06176862726738,-1.76179544686164,-1.08612434600733,-0.222953390423145,1.8796257074709,-1.34293533898727,2.33280119248517,-0.850848408431024,-0.0750365405676079,-0.0254557600423064,-0.526088642955296,-0.0979677760078681,-0.388910640137521
85.01,-0.103788888859865,1.50292182491379,0.386035359692686,-1.3483086021261,-3.51064695689569,-1.61901095587557,-0.842037987173292,0.196975075761767,0.0855565919471634,0.284474976167937,0.53080082297595,-0.784744273123001,-1.71540474813546,-1.07920553322234,-0.325431854342936,1.80938466606225,-1.18061927102063,2.37652545782202,-0.895180093338253,-0.0593240530412879,-0.0573246008660561,-0.438700141232677,-0.14225981820774,-0.363392107881643
85.015,-0.0717677109026716,1.45433660886425,0.376321319289744,-1.61123814568337,-3.37839319148161,-1.56172603744459,-0.788014781753764,0.175558162460642,0.0633476793622267,0.555759288444344,0.369295769361735,-0.66772676154096,-1.64259844349947,-1.0124766017708,-0.393419364526311,1.79543850752812,-1.05893859724346,2.43373331276173,-0.959064129942791,-0.0364918594019441,-0.0702354275773671,-0.282970702218163,-0.165272163132096,-0.333345385895822
85.02,-0.0591133818930491,1.4089136029265,0.410242946941934,-1.83380363436456,-3.27923233903567,-1.43684291602601,-0.727019421516118,0.165156691799241,0.0259123536185617,0.68809004408416,0.192274507028655,-0.624854227339632,-1.51729015356849,-0.867929689420892,-0.465744077229939,1.86124907655462,-0.947790668305396,2.52591208769033,-1.03955045896654,-0.00320982391614293,-0.0727705703447506,-0.142653790564247,-0.171838372945786,-0.281301724877784
85.025,-0.080198437529595,1.3391767133563,0.46671675642908,-2.07099279515222,-3.20501655068952,-1.14427481966704,-0.674353220367548,0.17106163131627,-0.0141292294777868,0.695880314030477,0.0272704561820559,-0.586952664345673,-1.38634910285902,-0.689306912125818,-0.494596560707344,1.96204126710878,-0.865301766312389,2.60367038420002,-1.15389394797,0.0431715350259344,-0.0706310746260628,-0.0116137867638807,-0.171838372945786,-0.185202393178536
85.03,-0.135830714363186,1.24396546616107,0.519623326694445,-2.1103860834138,-3.21493849473988,-0.810614961963192,-0.624006790685508,0.171032356508703,-0.0456803328277305,0.579838200953143,-0.146669275411189,-0.53581652328151,-1.27485577490758,-0.506714029400162,-0.492288323685881,2.0700420619015,-0.824096391381873,2.68102921307595,-1.23804315231465,0.0812534583081746,-0.0586800385182354,0.0352621338676175,-0.187100108089187,-0.0996049608438693
85.035,-0.151675774683989,1.20826815464785,0.554374068089461,-2.00778743969465,-3.29170391545801,-0.405506407831982,-0.57841119486692,0.204791166588954,-0.0771679463355353,0.343625392566609,-0.358014758612345,-0.467565602745962,-1.17460515537939,-0.329263516268512,-0.461852545678179,2.18678767553969,-0.78915363291512,2.80458403126867,-1.30365409096434,0.134938166361042,-0.0506049019900985,0.0386926030799203,-0.201206423218649,0.00310641281550225
85.04,-0.168062942085504,1.23008218631721,0.580881768007129,-1.84179373499724,-3.39592091140924,0.0039816576704261,-0.545761246114633,0.258089738865951,-0.0949788651195008,0.0745036860596256,-0.579263854632128,-0.35908005999916,-1.09973887259602,-0.20958043811882,-0.410556484855186,2.25316044651892,-0.772472036234766,2.93878957054792,-1.33334934990918,0.17800466337819,-0.0422862340171718,-0.0251435493494431,-0.170611136855189,0.071956799093934
85.045,-0.172230080740555,1.27650442012504,0.5950372784037,-1.71199328584602,-3.52408884515546,0.396172821092768,-0.509228839540139,0.30013904655132,-0.12333526733405,-0.128365595913773,-0.832667018920409,-0.223121813873637,-1.0389183755325,-0.149070541057083,-0.348910932204711,2.24715342464954,-0.779471245053862,3.05896030621821,-1.32861626226651,0.197561808446981,-0.0265565690505647,-0.130220704239925,-0.0885942672380308,0.10767388847354
85.05,-0.157068530977642,1.31347473937742,0.568573330382623,-1.71487909551662,-3.69018022920321,0.808629777176536,-0.488450662181932,0.341976604890323,-0.148067316713117,-0.351738683333846,-1.14288591643835,-0.0583362967089229,-1.00316799425405,-0.130742169414468,-0.277468547582216,2.16184302085841,-0.818587915903748,3.11243057250977,-1.29441294883835,0.208920891278968,-0.0229828644927881,-0.232347281758128,-0.00918386376380835,0.110502283925454
85.055,-0.129422829321799,1.30644325904826,0.526280205591324,-1.78854607011536,-3.81384823674175,1.1356837196381,-0.458805731753862,0.362069746598713,-0.14691184583145,-0.522023416999391,-1.39940626942848,0.0722359396211578,-0.994413033211087,-0.137067253061339,-0.221900734742028,2.02010080073329,-0.871521716199998,3.07964517752636,-1.25463238676745,0.193386999106789,-0.0228711251756635,-0.353888145944362,-0.0102625024661255,0.0964574356355955
85.06,-0.0884674411937927,1.25000056694964,0.471577787678287,-1.87303512530753,-3.93246379166836,1.44902966883405,-0.416420540354109,0.377188277611124,-0.130806543118069,-0.732671930988012,-1.66155126666547,0.216873559814292,-1.00084165713017,-0.151360519388314,-0.142817867959263,1.83659837509707,-0.933766695591675,2.98305421403951,-1.20980487051775,0.176939005918293,-0.0224817473837253,-0.419228528951295,-0.0346519383582152,0.0610192039038506
85.065,-0.0354373308567581,1.139003836779,0.393816875665746,-1.91062913716394,-4.00985388641465,1.7928796438613,-0.380435348327695,0.385649465220344,-0.0827239146708921,-0.902974702301764,-1.89891713345004,0.334372041232406,-1.01064585744453,-0.170724593600607,-0.083536406928705,1.68729986190029,-0.991903231928055,2.85688231942953,-1.18711279099556,0.167696914896064,-0.0946031536964743,-0.566490493105695,-0.0725577885431973,0.0232631248612814
85.07,-0.0113857934782444,1.02850299473679,0.362347702822293,-1.82450546008758,-4.03477852011003,2.04509735103664,-0.386903015693812,0.385997231491265,-0.0667758673895536,-1.07652002881931,-2.11030363459773,0.433087004823149,-1.06147640884728,-0.199036261984538,-0.0551443331717122,1.52365734138785,-1.06715006254863,2.72121285659511,-1.04875853401469,0.15288666412522,-0.0430895862791132,-0.748174828351026,-0.112172813378742,0.00293849080438615
85.075,-0.028123890831441,0.889051699325416,0.356879200465878,-1.61759454866501,-4.01696914496543,2.29342948778276,-0.411822795247521,0.360068990051401,-0.0654996026818746,-1.25796326461498,-2.337636106342,0.528942425079555,-1.12468662149387,-0.238829786901354,-0.0383592862110581,1.29180848328836,-1.17940193468715,2.60614595738519,-0.963854327467156,0.130156804387223,-0.0447579219066935,-0.918232637412371,-0.162981607011544,-0.0439038783836746
85.08,-0.053042439465444,0.755931776973108,0.376081518322911,-1.31183372461668,-3.99392162176694,2.52767663978473,-0.452326398026795,0.302743238325618,-0.0860449114939962,-1.42538849684332,-2.56632142659831,0.627691143440622,-1.17070401531546,-0.291928019848313,-0.0348384024914513,1.06842936127698,-1.3030450620634,2.52959381323179,-0.871031446814689,0.100992943861207,-0.0422107499337634,-1.12471688182386,-0.223334914918766,-0.111238994692856
85.085,-0.0828505522484738,0.678730003279313,0.42472473779213,-0.985812711101668,-4.012256584075,2.70597322736575,-0.474208782516878,0.254645713912164,-0.124416141980626,-1.56023846330993,-2.77534281476046,0.716434687533933,-1.214670016192,-0.356141057399842,-0.0167368876401668,0.944544662970963,-1.39629307177393,2.47771172483945,-0.799864238401405,0.0606131811729336,-0.0518589245652184,-1.32367433463103,-0.270713678518163,-0.15651878504844
85.09,-0.172275331699729,0.637761063025211,0.482788918123875,-0.58907824648914,-4.03750665944003,2.88372998839136,-0.490159390067889,0.192371114915797,-0.169377238654047,-1.61479869301554,-3.01159379078542,0.832311835504723,-1.23224414710432,-0.394939658808651,-0.00089721141919978,0.938424635309536,-1.4562712571242,2.45654416390141,-0.747503587345432,0.0155061936545163,-0.0656011212683534,-1.50578911565052,-0.259310786268437,-0.203974477761053
85.095,-0.248744688125655,0.647138291734553,0.52763815076915,-0.280929260931083,-4.12672939171545,2.99181572311508,-0.497929348996397,0.15651625801073,-0.200564112024683,-1.60314121673154,-3.18693034282143,0.925352095373753,-1.23735708045203,-0.431223394932972,0.0116696050241935,0.990032712562995,-1.49552695264137,2.43148262441448,-0.707504483286735,-0.0354452587766601,-0.0888805894938987,-1.62510270792215,-0.210955823926183,-0.255801818038711
85.1,-0.350497792693634,0.698795365636648,0.562724842516867,0.0200650716975276,-4.26265785389212,3.07841009340607,-0.506600363963478,0.13210343791372,-0.237477404373913,-1.51593407576104,-3.40905769970614,1.04941313519965,-1.22185838416872,-0.47323657445672,0.0163162585221163,1.12020904136576,-1.5290974808923,2.37842145896124,-0.680534276873224,-0.0847235073614183,-0.0998623859286034,-1.70403603657337,-0.0851833664255623,-0.307409956364865
85.105,-0.435958178558532,0.750880231878923,0.559665410565612,0.151501701775718,-4.39190013056121,3.11752879573267,-0.510647407615271,0.137268783881591,-0.269262053861458,-1.40130391019979,-3.62342529221786,1.17482209128968,-1.18410964781664,-0.512562488838847,0.0216989222568728,1.27989151368591,-1.53775784325027,2.31491303793942,-0.659856518579211,-0.139359191840059,-0.0906833927324623,-1.73892820144596,0.0951236353631655,-0.351117589018484
85.11,-0.536314437775405,0.766062391534499,0.551352408634218,0.192429184913635,-4.52848199064238,3.1317667881298,-0.530571675590246,0.13347467151179,-0.301500749962846,-1.26705065082559,-3.7677312647066,1.29621511747587,-1.28178243963853,-0.589322871005646,0.0531916991374547,1.45666235146013,-1.61984125977931,2.12113583139299,-0.653909771907504,-0.207419141094081,-0.0686465040345517,-1.67071986596666,0.30253814115105,-0.383407717437168
85.115,-0.605361570348018,0.754548349560881,0.527273225874521,0.198924917748436,-4.6365194252297,3.1202054007048,-0.575449148498607,0.105630525070816,-0.317969066603963,-1.1030606398763,-3.93212989539716,1.44401092544443,-1.14504765530123,-0.525394975999035,0.00744896643953475,1.44131684162007,-1.40829454423663,2.0620177452229,-0.666323199370821,-0.251398733108373,-0.046445587489941,-1.54644601369127,0.418090709458339,-0.410518707923716
85.12,-0.711034671508689,0.727267557209959,0.488265442363835,0.236417404517216,-4.7574228992507,3.11122691674595,-0.635015599625122,0.0842630059267187,-0.352741340895714,-0.974368691685558,-4.16247504362391,1.59455851943253,-0.973943957361939,-0.582540025687322,0.0887961986431269,1.9827210563431,-1.50298855802018,2.15791548674167,-0.681899453002603,-0.289415058234077,-0.021411160417688,-1.38089948994487,0.502021677686392,-0.423267703948313
85.125,-0.793828732694744,0.708528372809542,0.439640512561083,0.304979875027703,-4.85415874167621,3.13156642374852,-0.650552316799655,0.0664150311174803,-0.37352419415748,-0.892321363447905,-4.3200186292827,1.7349303703173,-0.892146497221539,-0.597117597634402,0.0780199497293767,2.35674022752703,-1.49629522374515,2.02042171980776,-0.695675452517016,-0.306336374561452,0.00925114296273435,-1.27908918121053,0.536297806937732,-0.416959252522492
85.13,-0.878263649978111,0.71548018693535,0.369260979388215,0.428718445018595,-4.92745717400957,3.16851330746001,-0.671396501499601,0.0442178201936952,-0.417091433811112,-0.774249788620675,-4.47092999088284,1.90625690172411,-0.878352000588675,-0.619234757631689,0.0736514297889636,2.73900257343356,-1.48323305471002,1.91629437040103,-0.710633341440639,-0.328922023398676,0.0490407915772901,-1.12738358522347,0.518818787916471,-0.418597231124791
85.135,-0.938845377617008,0.725661063075709,0.283210888813242,0.574579910055351,-4.95198200516589,3.23462004726871,-0.676318416203236,0.0236888906582138,-0.461409215032443,-0.720345043599172,-4.5527995798342,2.04507761713549,-0.825182761527938,-0.632487930247044,0.0642371458209739,3.01335611829845,-1.39632542947457,1.88724303651894,-0.719951938806101,-0.311668318919473,0.0761544374970701,-1.00776414328241,0.45891547724711,-0.408796716508414
85.14,-0.986905060776995,0.738594550363195,0.212300775074155,0.729340314845218,-4.9145386013257,3.35217177821527,-0.670489060945589,0.00316403708532126,-0.512507686698202,-0.724833125745642,-4.62932403257585,2.19620336563696,-0.701269584301857,-0.66052256003002,0.100749567561572,3.35996074599152,-1.32105986484424,1.76891104146691,-0.727716290710361,-0.274655910571259,0.0872728840588743,-0.916768192255374,0.397745693795604,-0.389319653228514
85.145,-1.02837116097549,0.796599674772657,0.144386181733879,0.860440662802465,-4.86691217780749,3.47891875741219,-0.666784683155001,0.00361118757617704,-0.553865008921104,-0.747389050439207,-4.67777792237484,2.30110498246892,-0.651775342500127,-0.692986151867888,0.0957955427939768,3.63641639050773,-1.21906121540326,1.56808771615721,-0.746241232126848,-0.217277884413565,0.0894499403259209,-0.862995400600836,0.342140982038466,-0.367082403455325
85.15,-1.10059779279644,0.866766296180653,0.076298994125578,0.96050777912143,-4.74530015917372,3.70976579077126,-0.652708327704099,0.0125025220759517,-0.600151003197988,-0.850041579127885,-4.71124970709802,2.41149400658595,-0.599892461775298,-0.720957843728231,0.0855533011253897,3.95919674189608,-1.00430107982552,1.3529825518947,-0.771826154036883,-0.163981807326408,0.0888213557872472,-0.807725881698495,0.295198813456663,-0.341577665003237
85.155,-1.16422297873312,0.929594433260421,0.0638199717709846,0.981306590837018,-4.61341358647109,3.93806572718229,-0.64829638329428,0.0358650147699342,-0.65197324974395,-1.06312190075135,-4.74007803269228,2.51682027993242,-0.53402340084978,-0.758443449733288,0.0358614916300167,4.24559043053354,-0.816836013489395,1.18954603169019,-0.799592787266103,-0.103848041330996,0.0793374203265128,-0.756416441252833,0.260394176261626,-0.311382155981076
85.16,-1.2097467464169,0.954381694861244,0.0530880257525417,0.989470065242277,-4.37005535002153,4.30255124292895,-0.679130453071929,0.0434240040646398,-0.718508164606363,-1.34136989504284,-4.76622799847752,2.61498478709312,-0.466898462483171,-0.793113756264074,-0.0377222497456036,4.55211244515905,-0.604554743476414,1.0492128500084,-0.838138041735642,-0.0423680229925376,0.0614312574151282,-0.700627339636754,0.239308389815193,-0.269435600053533
85.165,-1.23089442739894,0.8587092678064,0.0599955734872698,0.992565401539446,-4.08469849225647,4.65979379913517,-0.75982280946531,0.0474484705259967,-0.856205700666302,-1.7909909484526,-4.84072222261736,2.72985794649488,-0.400472428890461,-0.81645440860168,-0.109987274132979,4.86418522868144,-0.401938728411458,0.958318826869642,-0.883811432379735,0.00150045128368634,0.0510379824522243,-0.645524338041706,0.236187014773265,-0.231627522577693
85.17,-1.30394889056052,0.661981075283515,0.123057993856905,1.07119937108913,-3.70439390617862,5.09820268174884,-0.82000539630586,0.0339877597591465,-0.926659135186757,-2.17039728890589,-4.94040295899244,2.79112569765913,-0.330290695142513,-0.836570594699271,-0.225939646589214,5.19742631390736,-0.260851200818005,0.85053093386069,-0.940043207847528,0.039810504463519,0.042355583265053,-0.590582029407891,0.243328044843564,-0.165973807356727
85.175,-1.43174755944873,0.593976844300572,0.167759051915065,1.15115309166208,-3.4630816022187,5.40118667243777,-0.899428534523201,-0.0217320274992453,-0.982362370296271,-2.54963340713818,-5.00374156500351,2.82925182603888,-0.269047738234769,-0.840572054853644,-0.326871342044106,5.34137128471917,-0.136374275450046,0.724105775635006,-0.998320316477117,0.0825086306458368,0.0340198459783407,-0.560313806383167,0.246035175612049,-0.089102778668408
85.18,-1.61028264082577,0.572726288978155,0.204472765830467,1.19143438057335,-3.1927994080447,5.70730169193123,-0.955389514006928,-0.0831601577512121,-0.997452268010678,-2.79012269982893,-5.02993589388546,2.83479186484975,-0.212648996195048,-0.824915102194964,-0.40377716067612,5.2596131678358,-0.0462877992787499,0.568354090573464,-1.04958467660766,0.11139885818497,0.0319279301456227,-0.550343749937615,0.246506303923385,-0.0274164384143103
85.185,-1.71894554236383,0.520753200374991,0.241537342695294,1.12744646093024,-2.91626718696323,5.88273453659685,-1.03685762721587,-0.180049070567505,-1.0704983347618,-2.99327389402749,-5.04445158022292,2.8375939665494,-0.21719997966592,-0.757203715400029,-0.503200133645419,4.99590961375602,0.0783517335837792,0.372266331474646,-1.12079098724855,0.126330810208196,0.0365737929188313,-0.537840311682317,0.230504046315787,0.0576224695100693
85.19,-1.85772263387854,0.308295817263404,0.329375583296143,1.0190074313948,-2.59707345054616,6.05215264343969,-1.10236061374073,-0.209843377103628,-1.14623934397024,-3.14335284024464,-5.06879945404021,2.83611606163014,-0.153599809060298,-0.65958157472763,-0.476323372466395,4.21689212244309,0.0666086290123144,0.226573800294467,-1.17261689218023,0.127668118463078,0.0364656979511707,-0.588104074136978,0.207734583579488,0.12728310945506
85.195,-1.95702946799638,0.143496612990402,0.395006290267461,1.04151658816049,-2.35553245277475,6.14954444058254,-1.1387300616949,-0.212680522806867,-1.28685037625845,-3.21810533226383,-5.09309073710248,2.81217926577199,-0.1871006450434,-0.535035730852067,-0.493196943943908,3.61146925115705,0.0378720236839383,0.105329146619533,-1.22254034592714,0.112836436270171,0.0414919078276846,-0.686166927359313,0.159539778429697,0.19835508432211
85.2,-2.10944532584836,0.0291539354648318,0.493429998547817,1.1179446723649,-2.12290067169836,6.18255194531479,-1.18891434914289,-0.222798104534675,-1.37428370033016,-3.28768645075911,-5.14579715209771,2.74955143185502,-0.226598379231582,-0.416839529943825,-0.490459219271208,2.99986327304538,0.00299283548473113,0.0385080728660815,-1.25686468959743,0.0900386276330656,0.0489257336048267,-0.795807360047318,0.0881869717428489,0.253918822711237
85.205,-2.25821558271821,-0.0292028497232436,0.563464470098044,1.23114862047827,-1.98065707276489,6.19046196029098,-1.16014364579498,-0.229405572199648,-1.46409400781194,-3.3690915882224,-5.15286255708516,2.67400127472686,-0.2768307796876,-0.280484752286019,-0.479622569353973,2.15572315075463,-0.0389295008446631,0.00756124389058815,-1.27432164459565,0.0545670840936171,0.0508879377658118,-0.915143408837795,-0.0196399260782968,0.298366185711423
85.21,-2.47528078673562,-0.103602652652088,0.634093056315433,1.3174529283873,-1.9279349408127,6.14238874522978,-1.20861335768022,-0.287659404114361,-1.54899569422237,-3.36864958542279,-5.14114704924028,2.67769428105205,-0.330574877448707,-0.194028807547296,-0.447783399367736,1.42597696216754,-0.0918600556185536,-0.00902205861282416,-1.27703947536812,0.027595267364274,0.043516856886084,-1.04483217304608,-0.105088229805252,0.322621275402402
85.215,-2.57740093626254,-0.177784662551364,0.657418812745273,1.33471357822418,-1.92013671818533,5.99696200112755,-1.24282584213845,-0.302419756519497,-1.63164597238522,-3.28904359708708,-5.07811429940216,2.60903894259289,-0.389895471901014,-0.121373206532067,-0.419749166667516,0.632266010383678,-0.177582931530996,-0.0684742384544875,-1.25309117364307,-0.00560393468859534,0.0389544360967714,-1.21099539252699,-0.228561538504268,0.340164193114889
85.22,-2.6066028785684,-0.296837984622822,0.646990020504848,1.33806958865311,-1.93693117748016,5.78986430970926,-1.32414894431935,-0.350404365506837,-1.67547803181932,-3.12091094505377,-4.99576971140204,2.52663948976218,-0.42848315511584,-0.0763584979722514,-0.402596726251723,0.0513937888577797,-0.246027549528242,-0.156872356619289,-1.21970974084224,-0.037343719996391,0.0334750168770643,-1.33728284987333,-0.296567712856663,0.355935855567403
85.225,-2.6046430408358,-0.450159944990863,0.613613859132217,1.36214826356804,-1.95767797129373,5.52210507054567,-1.2783627883988,-0.347504935462537,-1.72666608885264,-2.95632875684091,-4.90366816214013,2.41426615099563,-0.46489684808846,-0.0396081090126726,-0.399920914100343,-0.480501907208674,-0.366273032200834,-0.291231995224528,-1.18793217540804,-0.0709359203556856,0.0207449885803746,-1.42452505126715,-0.369227569929152,0.380055902693146
85.23,-2.60526684781949,-0.577928781960913,0.567285936569929,1.40417325103869,-1.95144463102175,5.20218331760996,-1.32426986429165,-0.457139783020374,-1.68827816337338,-2.57596159384264,-4.73894480848396,2.31154127358955,-0.520855451296901,-0.0239529020266788,-0.391487166280758,-0.911392462476124,-0.113489792797029,-0.159573009621836,-1.14812981886584,-0.10756317098885,0.0156718668534506,-1.43917294737965,-0.410182086816582,0.395630671407308
85.235,-2.63100659970235,-0.656661715852617,0.54508712261095,1.49567789474337,-1.92804497387665,4.78865936079903,-1.3899276047465,-0.580832349817437,-1.67566675032533,-2.17930161922458,-4.68656286108375,2.3268501780415,-0.594382636485927,-0.0260554339372897,-0.388518575481963,-1.24240816657818,-0.496585349095489,-0.759250246870124,-1.1090988887244,-0.136358879993097,0.0132550126459925,-1.43339879899575,-0.452763227545463,0.401105288460401
85.24,-2.6820732822421,-0.658057979053864,0.544481283596781,1.57282506413446,-1.93525701864271,4.41778699247763,-1.40053430572237,-0.596495473564672,-1.6635807836171,-1.7743475473417,-4.60796572351038,2.28128604820849,-0.661557950942898,-0.0415434820062033,-0.378760012006432,-1.35187301693919,-0.551656731409036,-1.01314188048805,-1.06024836661547,-0.15929628076567,0.00709471957575275,-1.40391902809688,-0.492631251659579,0.420219983307053
85.245,-2.74306374725249,-0.60599200689781,0.544362489328247,1.59235099235645,-1.94217551797007,4.05134236460345,-1.38966892810323,-0.562309752905392,-1.68006398174155,-1.16851496709338,-4.4259189307987,2.16648948815896,-0.723121775299041,-0.0679156738695649,-0.371411274892435,-1.28494647757556,-0.592182009841627,-1.21857340164612,-1.02762734015538,-0.17319461682577,0.001630684750553,-1.38838958598913,-0.516664172725044,0.428640741063368
85.25,-2.78219234317099,-0.554934357734983,0.506282773877561,1.55883367278006,-1.96242855382865,3.68523559919055,-1.38895043614831,-0.547307771373072,-1.69229497452083,-0.850836355887702,-4.30141804967348,2.07916427668879,-0.766566047386384,-0.0888379578229407,-0.367505893549449,-1.02859881169211,-0.612056812221423,-1.44340656455232,-0.99823684011801,-0.186068865491107,-0.00155453824346629,-1.38143862928076,-0.523201138726582,0.428196916172066
85.255,-2.77148146009812,-0.581757029583122,0.461002130357813,1.53394543429727,-1.94359563249579,3.47215598471074,-1.4089134597923,-0.518806640682832,-1.70636219306384,-0.420144222362397,-4.09491247699894,2.01390470715879,-0.816322447894182,-0.0883598800279116,-0.355508661476066,-0.759722440521908,-0.61024454870684,-1.61497436210268,-0.96780868247331,-0.195172319139904,-0.00399690470305123,-1.41030818131954,-0.507421910365587,0.423122198406385
85.26,-2.74400622380736,-0.646649959865606,0.411014573735008,1.54486209984664,-1.88685704223714,3.03141028618202,-1.430751496691,-0.516316426481832,-1.70867986193877,-0.116105711827974,-3.93711719948185,1.97318128605926,-0.86549566495425,-0.0827526007899564,-0.35084981358739,-0.498449766804285,-0.590654783145072,-1.7677198327981,-0.934336725330573,-0.202907906009345,-0.00170415666428446,-1.45480243939985,-0.481995936742862,0.411594908229388
85.265,-2.74988449044807,-0.726582889894946,0.372531204704044,1.64184478442268,-1.82604163977739,2.79570758960548,-1.45256840115305,-0.553383093935349,-1.7136249041532,0.247270185309789,-3.73909927301331,1.93256300048779,-0.913860901272119,-0.0611433079763289,-0.341432593388771,-0.308431699674482,-0.564380134127815,-1.8987513395006,-0.903142448322242,-0.199088707441704,-0.00366892029940504,-1.51084245022649,-0.458973944502823,0.395643196170431
85.27,-2.7548080096194,-0.824007111226043,0.299927503911365,1.80993822505562,-1.79508020182834,2.59089750049193,-1.44739838704323,-0.576102820732926,-1.73953438359199,0.559927965530822,-3.52960230772001,1.88365515221638,-0.966322847585916,-0.00426849369391136,-0.301699829410044,-0.1911122400661,-0.534217707021027,-2.05309922397523,-0.860541838433189,-0.203742214064904,0.000923310171466928,-1.5852961086519,-0.417657970813266,0.380170489523718
85.275,-2.72150136801078,-0.925192246673701,0.119833867465057,2.03863193387516,-1.74640044266896,2.33786317424946,-1.40025448261523,-0.576960474608436,-1.74765951586216,0.728032032091984,-3.33231603200903,1.83963460051164,-1.00776503865233,0.0750920556527723,-0.250510248314311,-0.198588715150746,-0.518744704558474,-2.17385148708793,-0.830095236327038,-0.198192120201871,0.010304558861254,-1.62619832517606,-0.372498132033994,0.375592971971053
85.28,-2.66774114113792,-0.979227529435875,-0.0341317536903926,2.251252954347,-1.64706994974103,2.10594057033635,-1.31959279440543,-0.564619979837371,-1.71333660173514,0.925383794024875,-3.06342605844524,1.76045998798723,-1.04264316953439,0.145585207856622,-0.184503244981294,-0.267314211531922,-0.538829114848268,-2.27932437147861,-0.805974415309808,-0.192419909788167,0.0212234372458611,-1.65451668690203,-0.321519092250153,0.371887420021274
85.285,-2.58551300252223,-1.00469449944291,-0.238484650095022,2.46350189474118,-1.44298298582551,1.7849932649382,-1.21491580309056,-0.532356173117737,-1.66976740065216,1.06886964670778,-2.79636805203106,1.67104422730438,-1.06749492878286,0.197168615673707,-0.133966765418813,-0.385622568130403,-0.586210665702784,-2.35556476275121,-0.798071740423927,-0.18689129414753,0.0336632314169155,-1.67204609328459,-0.29544482831162,0.369978848928034
85.29,-2.51894676146956,-1.0000569502974,-0.389231808618758,2.55272392080943,-1.24140364745983,1.51843875209206,-1.0613703115974,-0.487864005631902,-1.58846483074306,1.22843081207429,-2.44591964264769,1.54577948976105,-1.09068326366314,0.243245083986562,-0.0818323143635249,-0.544365325047242,-0.66625076870076,-2.38859414626854,-0.78360265912465,-0.189381583037565,0.0593988485941614,-1.67522896639622,-0.283169845118553,0.365717911695107
85.295,-2.45373289474476,-0.977793487515074,-0.515485683477491,2.54207127821954,-0.985242527718704,1.23955993336907,-0.943987239180714,-0.453169228647276,-1.52158581301378,1.26749180372019,-2.15518274202285,1.44750672268675,-1.10931123465445,0.277952619078181,-0.0515285122847283,-0.753767982469424,-0.7868689725573,-2.34645935557374,-0.781841251515173,-0.184483430845533,0.0760535032011975,-1.66006506733035,-0.300394449923747,0.363221728209754
85.3,-2.37180720039546,-0.952370372794264,-0.616117361383484,2.44055302036231,-0.654970103489946,0.919216242921302,-0.844280186342817,-0.431612311132766,-1.45041882949748,1.23129632438907,-1.81855396414553,1.34743994024439,-1.12644108907637,0.299107124324461,-0.0428207622420008,-0.926697324814602,-0.907666285495892,-2.24164729478292,-0.783245081365106,-0.192159784014052,0.0929998062228873,-1.62429560762234,-0.339288291749195,0.370736081496653
85.305,-2.26613580381992,-0.963022726228803,-0.690185074308694,2.29843117861738,-0.323154978153244,0.644874094472056,-0.773887441598457,-0.451621927880597,-1.37996471841072,1.14061148371404,-1.50909424364029,1.24535123990299,-1.14308556901305,0.331152423504694,-0.0439536599080324,-0.997335752706583,-1.03776289188372,-2.02632058389583,-0.790995509473322,-0.20467065488333,0.101070980364065,-1.56971153184441,-0.397725616170822,0.377281374964612
85.31,-2.13392643786308,-0.997281724164167,-0.747068787771187,2.14634870867432,0.0380834620823733,0.425366984204106,-0.74513602462046,-0.51644087168406,-1.32736046395976,0.973118184250941,-1.17914420509389,1.12314807721038,-1.15702581722358,0.370512385150535,-0.0480307249795004,-0.943983680106571,-1.11310691403605,-1.78227304497314,-0.805865937078186,-0.220774022117652,0.108735262968469,-1.48957617950135,-0.462790885628657,0.390737184415982
85.315,-1.94912211864045,-0.989625285098587,-0.80002094719518,2.02261743871698,0.457474407733865,0.229579530276582,-0.698130992298378,-0.607190431076508,-1.22642875571257,0.817066329206475,-0.820187495514791,0.969603010604112,-1.1753518127306,0.407283946818856,-0.0504998813544784,-0.841816912137205,-1.16983339418337,-1.46259958359494,-0.809416397297175,-0.232815163342311,0.116346469814749,-1.40436507521117,-0.521340107901093,0.406017100808223
85.32,-1.74764323615079,-0.894168914420382,-0.861750146128101,1.90374257902752,0.895915764239409,0.0319440923504474,-0.662012416445723,-0.670465726373717,-1.10573311557489,0.708430703451971,-0.534327336462458,0.826579080773866,-1.19721328078263,0.465044049222059,-0.0366236624228933,-0.731335709353482,-1.18935328746787,-1.07026947254216,-0.812836921383401,-0.247098209470705,0.112634161141178,-1.33267363014287,-0.5503764236007,0.41327490614552
85.325,-1.58711379321908,-0.794969677763476,-0.93881687327174,1.61427443317254,1.47685493846733,-0.183291709466009,-0.626688266549725,-0.680651085125335,-0.972123548244122,0.580018877132331,-0.206030709593218,0.64057677557483,-1.20436295324094,0.531517539834954,-0.0171266305757598,-0.641742378622033,-1.18184097692509,-0.701397576157776,-0.815856611164952,-0.265328368122306,0.104850722119461,-1.29157006314941,-0.554374792622842,0.42320422515022
85.33,-1.41466983890561,-0.707095644875339,-0.962991806803131,1.2342754476186,2.084516677379,-0.356786716744273,-0.604133779548368,-0.787065761163875,-0.820533740934094,0.479598315542074,-0.00061613174885794,0.49835478170944,-1.1659890139899,0.614336765640211,0.0394984707097469,-0.540117313012784,-1.13208524607802,-0.272579205281868,-0.824997020880052,-0.286933463611972,0.0876694374925828,-1.25647739920829,-0.536576310398469,0.423439250077761
85.335,-1.35123280978415,-0.420691395113634,-0.849507697062317,0.636827778870377,2.729493096233,-0.500964947125482,-0.574764063719798,-0.8336063525013,-0.669178525042706,0.316154803349966,0.238778695262774,0.324797216068621,-1.08397882768452,0.704074580901483,0.129807798110551,-0.425648930042965,-1.03924327383565,0.15732020895046,-0.822071155736094,-0.30413484414191,0.0760288294490463,-1.24770143336204,-0.495727480142704,0.427371221795879
85.34,-1.42645613855085,0.239403734153198,-0.600809001166071,-0.217963156282435,3.08471952413742,-0.715793934748829,-0.587286353341741,-0.74915112051294,-0.527871897065715,0.177430468104906,0.461746383184173,0.171576133346989,-0.917694809724208,0.765858764397191,0.22656344950327,-0.293458751299414,-0.922661795995173,0.50410436684665,-0.811303201647518,-0.309714341484197,0.052675656825508,-1.2337556462987,-0.429075874018067,0.425097806165135
85.345,-1.80696778627255,0.881597232000261,1.06338614119318,-4.7838132177439,3.08721500330085,-0.856782632912847,-0.648284051264589,-0.465223261202332,-0.360525635457652,0.163344613638659,0.647139778626274,0.0565506728032489,-0.699444682973713,0.767633862014236,0.31291017665124,-0.159565170243374,-0.806435438676323,0.747887851380944,-0.802090220310599,-0.307730285979017,0.0374188191997505,-1.2192010315626,-0.377809205045173,0.423715472221375
85.35,-1.44497346455699,-0.384150414168579,3.38344851253467,-12.825327569109,2.69143187824509,-1.59972231767136,-0.773021229843302,-0.0819671888771241,-0.13026029993224,0.197212526279778,0.74940245357924,0.0930334590969182,-0.449908199528517,0.651729788164188,0.388778209549746,-0.11957395699339,-0.68427264037225,0.821234093153124,-0.783105735164752,-0.306136387231488,0.0200619715097499,-1.15666276463927,-0.281804159509889,0.425241309843274
85.355,-1.83387160830813,-1.25421444875619,5.43112894395899,1.48533351934179,-1.26435845295257,-0.24266362882693,-0.913744982641262,0.372745244989523,0.254243181368608,-0.165214702583967,0.898209105649783,0.213631789717864,-0.343033585636764,0.385521537335767,0.44316710146607,-0.434921537602175,-0.613825415742472,0.518583429166892,-0.767334633777929,-0.287150274459796,0.000356690441892537,-1.09450035429747,-0.199935686357581,0.429823935031891
85.36,-2.52313976876681,0.553036115179848,4.44406075083815,-10.5719547991078,-2.48717387400267,-3.48707500660452,-1.2568830725897,1.02811853525968,0.798286803992124,-1.02512905302894,1.22941023689562,0.257147345481374,-0.287147554786031,0.00493172088553774,0.514968117894254,-0.69588938446685,-0.44037009424313,0.0430863935870453,-0.739383278551726,-0.281057332208076,-0.0134258402974268,-0.98652679675225,-0.085378894053829,0.406258513642045
85.365,-0.622366445956664,-0.669725969888046,2.71489458647785,-0.444208390865939,-4.91040327181333,-1.44674594075787,-1.9515514469185,1.13505288690404,1.4673928080501,-1.19061083777163,1.6557040572838,-0.209913495489174,-0.32046708502508,-0.37693833108731,0.467365044264649,-0.934292304658193,-0.224481360023647,-0.507925066194252,-0.738146956122976,-0.218387034514118,0.00569631972847555,-0.875933989594441,-0.0215284796566898,0.389783429081972
85.37,0.894363596490894,-1.25606213860077,-0.172279343638003,2.24574122872359,-4.53600868758085,-2.21185228207305,-2.58099603062614,0.423228957982946,1.29177672498893,-2.02898155132194,1.27252832075692,0.00215184898581375,-0.74517755687835,-0.812110082332955,0.481088578432457,-1.30332104355965,-0.0685791624151846,-1.36233172359336,-0.770094487436644,-0.158187551720464,-0.0103470709903207,-0.906866356008688,-0.077258914026962,0.457972857746841
85.375,-0.926801985319567,2.39531806542822,-0.750922653648095,-3.00844779401442,-2.08535756981749,-3.04347376705793,-2.71444408958899,-0.539522444901105,0.27700495585743,-3.51550479842028,0.474271969052104,0.227078710394136,-1.4897323469751,-1.02548582484269,0.536993662120301,-1.17483399423427,0.154466515000216,-2.10773651744774,-0.863721781815866,-0.116906343305905,-0.0203092943179029,-0.908996713263841,-0.0890144062655563,0.484155096685896
85.38,-2.60556089287994,2.5700095546805,-0.126992046343804,-4.12026854121642,-0.657737103930406,0.195157678739222,-2.12931810738681,-1.21971386168378,-1.2995468456222,-4.17072363075505,-0.104715386391296,0.316791758767435,-1.96493797795194,-1.06732105250026,0.677234023198222,-0.664580863273948,0.428475706608283,-2.68147824798852,-0.887606614901462,-0.0752031995170759,0.00928458654454637,-0.785227855058286,-0.1626017513021,0.458918014293241
85.385,-1.9295401033579,-1.14366951773408,1.34836657746982,-3.57768789500609,-0.15284283721249,1.19022372752516,-1.48256371478894,-1.26734740979674,-1.76851001732804,-3.83862174357634,0.219369800609342,0.318745846975408,-2.01394738231726,-0.808371089514369,0.799608377151711,0.516209333703742,0.851786004561716,-2.76003594158599,-0.980717857268689,-0.0259088156480668,0.0279087608658179,-0.651128207520319,-0.256233767311544,0.421721380511736
85.39,-0.189949536014872,-2.31970398055149,1.69443427223372,-2.33554239081534,-0.580040409224404,-0.0979845824943448,-1.37095110951327,-1.0981374610981,-0.737181046892946,-3.23327091441083,1.58372834230233,-0.0633154992219584,-2.00996523616342,-0.153037021358607,0.72490733301538,1.51739748440725,1.01039008254371,-2.27165367064026,-1.12647503845433,0.0594628771558809,0.0200757078791247,-0.456604132018675,-0.411985312096549,0.37668311558151
85.395,-0.0387175130662253,-1.06814261462021,1.29506568927702,-0.932632182094916,-0.726182472050313,-0.47959210199511,-1.64616096711085,-0.998160146681411,0.462721528132649,-3.01599931186557,2.28934466092993,-0.671624285948281,-2.00471523098382,0.490606980720838,0.564483446692789,2.93632607481593,1.14906647740917,-1.60866122439841,-1.28782110886564,0.133624039848435,-0.00257882348690576,-0.324700790060334,-0.45825270763786,0.351443289751171
85.4,-0.388371207753627,0.847777391321262,0.747324097438459,-0.0252025056414942,-0.568840097103656,-0.00281363242324303,-1.65662378275946,-0.713713147796966,0.624175228215505,-2.99838191280469,1.81844720189557,-0.768725433353358,-2.00120231891441,0.750964409991382,0.409249276733834,4.33549497845658,1.2219465557387,-1.02768974186425,-1.39658903516436,0.21290450927882,-0.0387907336159198,-0.232301747801522,-0.436890522984006,0.339847668013544
85.405,-0.607547362887367,0.795127686363227,0.695624843755797,-0.494008997236879,-0.240042037549983,0.345535344896477,-1.18055028105225,-0.385453410345785,0.236490459878268,-2.43700548003847,1.03332973048635,-0.288467612454748,-2.00010625704969,0.66599175529962,0.314076191740923,5.17931257107846,1.17544226277568,-0.462559757397584,-1.40454511809043,0.267592960546128,-0.0633699839486892,-0.20770402475729,-0.422555361267068,0.320449224433782
85.41,-0.497927299678371,0.0248411712254589,0.927684017984813,-0.741219412579981,-0.0286265652629509,0.260839952092898,-0.802970371258033,-0.204706586337105,-0.079873284988151,-1.70001524837839,0.844759282366183,0.190871933601817,-1.77438002218862,0.380217457028843,0.164318468653127,5.35450315904574,1.00209262558578,0.442138639238142,-1.33658316904931,0.35353822793985,-0.0879685014926,-0.237857288228035,-0.475527675018221,0.285970057776429
85.415,-0.444220538547784,-0.10321866434312,0.972865037877465,-0.579577533333422,-0.00624021458457539,0.231789558879121,-0.670758070449799,-0.0939092237109571,-0.254551108319558,-0.942077756153467,0.908918932651406,0.321543251144777,-1.30018630879186,-0.130265810100201,-0.0925196198747795,4.94178817472964,0.810626039522446,0.926768319360673,-1.27212916641037,0.464049829547407,-0.126437910051893,-0.436264411338789,-0.596230788209273,0.293556207808599
85.42,-0.492457477444118,0.171309532322556,0.879522840307583,-0.156799690396428,-0.0370482609184754,0.203841261006206,-0.641181628997402,0.0590371275717852,-0.244371724231711,-0.519880477815304,1.05015270370987,0.147374215425179,-0.93961786388397,-0.538211412582455,-0.30236524051356,4.51301261843069,0.583783700029958,1.2296126584837,-1.25601502000825,0.55688029702815,-0.16044605169328,-0.66091783468449,-0.683057649906724,0.34666911272228
85.425,-0.475619879950268,0.5082473326464,0.783660043735308,0.131999753793481,-0.0486276659251411,0.226807845360224,-0.722514901254748,0.14826292248227,-0.153775915995434,-0.211046381999083,1.12214915400167,-0.0615270996058004,-0.566749496725454,-0.849941909776962,-0.605362618026693,4.05241250747711,0.21611967468145,1.4283853138557,-1.2937642029606,0.625435291906232,-0.174203805720933,-0.862228241505634,-0.680301689551592,0.395567010336641
85.43,-0.454196087274469,0.419307681808659,0.81702042307113,0.00926994546427916,-0.027805531944934,0.187684474570417,-0.854560781579435,0.187006505873876,-0.140554468556205,0.0668448776189408,1.09261709029628,-0.155297531152095,-0.356257240585669,-0.759569569407339,-0.809273467252459,3.84311270703259,0.00136425519027396,1.26838910924602,-1.38622218858797,0.67330747988543,-0.166580648900595,-1.02452870320168,-0.502722096117338,0.430915002152977
85.435,-0.482744325830956,0.251459692618993,0.844657661863392,-0.0780444737809442,-0.00498352679251557,0.140357270845328,-0.999061852134292,0.241984937875429,-0.205122516683496,0.361039098990321,0.975749673608816,-0.0987396083225212,-0.173566383077646,-0.558085365775695,-0.917982615618887,3.57537752904768,-0.126302880621419,0.772171716984615,-1.4725776578617,0.659574832754488,-0.160379218009014,-1.13084179699519,-0.239501842058413,0.430451777191608
85.44,-0.499131751606893,0.258939991243352,0.823199242233739,0.00791792528497918,-0.00408800359291044,0.0932528167897859,-1.06586206168307,0.356149371766616,-0.248588299175021,0.393955216229407,0.868732368656362,-0.025028092810965,-0.136244694195991,-0.454168420265253,-0.915086914809195,3.15376464869981,-0.12515564989787,0.311590843965427,-1.59210090250782,0.572408741010281,-0.156670232874008,-1.18533844628708,0.0705117522987224,0.405530259148257
85.445,-0.503702794223309,0.396824303717055,0.810995004966975,0.0836560980897843,-0.0130515161155862,0.077640499006423,-1.11257350771338,0.495925267824809,-0.291716570164733,0.269920841437234,0.818433039673524,-0.0233857624200105,-0.178226070883954,-0.400882529996556,-0.892746784922642,2.44251732603993,-0.0819753584805236,-0.0424277384999234,-1.61676743163489,0.494198093936329,-0.15562221574413,-1.20185402808985,0.260628814999663,0.389508936757366
85.45,-0.475194295798685,0.426724499372171,0.814798278637597,-0.0186314529732856,-0.0220313633492855,0.0188131685209315,-1.11956193279417,0.460374627400929,-0.226993010255703,-0.0432206341886983,0.738335263683681,-0.163409878955672,-0.282590624746186,-0.37074834624558,-0.819329346115687,1.20938816437268,-0.0073837258641346,-0.29394050510815,-1.60808732199679,0.335769258837885,-0.157914711079532,-1.24790919881374,0.378834133478532,0.373263629401798
85.455,-0.446427527156762,0.378959755871913,0.830331634810661,-0.106790388291235,-0.0358184548124181,-0.0278166853932393,-1.11126172684657,0.321692638803947,-0.176647667560968,-0.289195054623908,0.674482037774968,-0.302254134535653,-0.395317028416379,-0.341432777824517,-0.714040894313555,0.114843362886073,0.0927646172506017,-0.421989745133759,-1.57094605526869,0.205317280435883,-0.143607277674987,-1.34111584313766,0.316877699328657,0.349963624435492
85.46,-0.440435234849868,0.328940482510177,0.830590478366159,-0.159970772347447,-0.0421022249005104,-0.0498782754440595,-1.09998835383845,0.111147868871129,-0.155906443170853,-0.378362986009802,0.590324919492134,-0.34941324979776,-0.516653898421923,-0.312740431512632,-0.483185675727355,-0.881013323836893,0.0258137595420578,-0.592382897555435,-1.4964837552379,0.0562634530998336,-0.0951160845727229,-1.4621923037668,0.157331722167286,0.308431427232732
85.465,-0.463882797896719,0.291180481265266,0.842956482032256,-0.169845296004182,-0.0436209582240475,-0.0635524068679347,-1.07961771929309,-0.0516355594506963,-0.188939400369734,-0.270618737867495,0.497321438375829,-0.284013633412119,-0.668486788738433,-0.330734657739244,-0.302055650674389,-1.52228035544583,-0.239793485665134,-0.745810281270385,-1.41109691625318,-0.0601619979997976,-0.0296916807176362,-1.53218223425287,-0.0405336721571557,0.269763859326315
85.47,-0.456958490977006,0.259398860071352,0.850804137037441,-0.211128178669149,-0.0124597479958779,-0.0802469998598099,-1.0629752842502,-0.169891493879997,-0.242007679810937,0.0274048017105566,0.438641001651685,-0.165089817530312,-0.78958597390056,-0.334882260064406,-0.0885256778458148,-1.96879648455794,-0.322944868315918,-1.00374795198665,-1.28452222309439,-0.155007561726718,0.0489484338548837,-1.52282536650763,-0.276731554708314,0.227001391313546
85.475,-0.450599993006791,0.247072986763638,0.852065290018373,-0.226446306635346,0.00052546087887532,-0.0791062336854857,-1.06750822606652,-0.181605374858003,-0.245744998861469,0.271508733226658,0.376067331139799,-0.0968404462863891,-0.914616592067441,-0.360424846399259,0.197172306620431,-2.09883144881343,-0.452532996951685,-1.26720704241797,-1.17499046114073,-0.212455940553088,0.114144387505181,-1.48485562783614,-0.40774051445663,0.211785165721094
85.48,-0.490864721497476,0.374735198556678,0.808013182559839,-0.167886981791904,0.00203176045336353,-0.0638660109206613,-1.0624754739658,-0.168886216319946,-0.189160134961927,0.492640991903576,0.274796870106047,-0.0396340837382213,-1.01582186306328,-0.373582689474892,0.375679754642983,-1.88354047933367,-0.525335603874619,-1.45020521569063,-1.0417257143258,-0.272550872889886,0.178971048093394,-1.44936112239813,-0.52746283588427,0.208383763514363
85.485,-0.417085648612698,0.234876113767479,0.853904099516669,-0.1208206104039,-0.0100443300761348,-0.0353162432384478,-1.0556436379921,-0.0963107610859538,-0.141062454945605,0.580850669226105,0.232595528302555,-0.0379279342447806,-1.13933991818913,-0.377435155602194,0.541808692201671,-1.55476922353076,-0.520894046969459,-1.57061905573691,-0.923540198212131,-0.306963256300114,0.211859018435231,-1.45426267063794,-0.59242310800295,0.195637228302306
85.49,-0.431458540704905,0.268354997844736,0.839118634831956,-0.0359170149454986,0.00245680603270853,-0.0313902189434837,-1.04304825291312,-0.00503048552847352,-0.0695634722022768,0.623721113829984,0.178701157359114,-0.0342254307191501,-1.27901303524417,-0.364399741099809,0.717106068058633,-1.10980537950148,-0.385703955260811,-1.65217859373307,-0.792047980445483,-0.326806004533216,0.231896066191968,-1.51221483079857,-0.602746020192864,0.223987559020164
85.495,-0.403843825358391,0.268873315687392,0.853146458623339,0.00727986503350075,0.00295528611845936,-0.00848215967940702,-1.04458893055325,0.0375576998850209,-0.0259080054816413,0.59982256932307,0.135979423945705,-0.0103153422243496,-1.35969470432088,-0.331301793345126,0.794104838726636,-0.694880725281207,-0.222729424533377,-1.64441705140878,-0.707450419032107,-0.343338974748287,0.234867479383392,-1.4899997728438,-0.553970473155053,0.275762013368903
85.5,-0.407733531764792,0.247124376106802,0.850713339242844,0.0446191877149857,0.0302848594707576,0.0177009553161358,-1.04504277166353,0.105764499134092,0.0112169359200722,0.475123854791296,0.0658561955822063,0.0466431797692349,-1.36986053128171,-0.286838527501158,0.772886356296938,-0.217153449303248,-0.0807477515681648,-1.51238101699746,-0.632251225642817,-0.312718422816937,0.219933643345942,-1.38585914009681,-0.549336751186313,0.350401612537657
85.505,-0.424149214121715,0.244728400327869,0.849218558012566,0.109829207909446,0.0495361355003801,0.0490180942827624,-1.04896528958048,0.170322180885193,-0.00448298926373734,0.278036675812014,0.0144084068951666,0.0932914778579275,-1.29433797781645,-0.250585767708976,0.696225865466371,0.169777628470689,-0.00792240370331468,-1.29909629529157,-0.556200415106405,-0.234960163122141,0.183352796717131,-1.44189213345438,-0.563708812506469,0.354209317317453
85.51,-0.436631990126115,0.247695025165495,0.847097574539944,0.153929917942535,0.0643765961622915,0.0864984107639472,-1.05165245067514,0.212570969908555,-0.0458681267720505,0.0356477636461773,-0.00541189407236345,0.114523966784004,-1.1715564582798,-0.234237611302989,0.591007217728981,0.571263142359128,0.01648113372773,-1.04248385262115,-0.504475263520467,-0.199611009137691,0.14404535683092,-1.43168213528218,-0.54625894013297,0.357159200682452
85.515,-0.431052738291476,0.265229817289734,0.847663426463138,0.178246345328576,0.0617463642648952,0.11029433655514,-1.0500617602467,0.245093355869093,-0.0743430211441577,-0.31301398134783,-0.0117728395434142,0.122689022019431,-1.04874860751844,-0.244446905259062,0.461852152305478,0.921263217935228,0.00337546640693807,-0.832745737873185,-0.495049151773517,-0.160897504472668,0.1152068327617,-1.26533709130604,-0.426949094669473,0.373589109443086
85.52,-0.426174753816685,0.293230994159862,0.837630258961374,0.178144808925388,0.0654695006551244,0.125828978791314,-1.0546442973306,0.25585781663826,-0.0685494718867215,-0.611922680028267,-0.0160414786697666,0.10972193403833,-0.959296113737837,-0.263914581932894,0.347982345338015,1.08888745857626,-0.0127737745148118,-0.725907603418926,-0.50599971719898,-0.123994408132747,0.0981789590632486,-1.08431748426097,-0.274501783556255,0.376958032160201
85.525,-0.43250728754151,0.315992593995505,0.827006443537707,0.141685861910798,0.084335471662742,0.133462180913195,-1.06674873423682,0.249637646298186,-0.0486636174856266,-0.911796396921152,-0.0336880718211947,0.0937683624492634,-0.888178209356546,-0.271727870512885,0.253416527926889,1.04840648266391,0.00400790881670816,-0.713916599750519,-0.537197856255945,-0.0833590930557721,0.0780558627114305,-0.94695847376396,-0.13916936663382,0.369876442751739
85.53,-0.444476624493364,0.334273608118783,0.828536829205199,0.0869128678272926,0.094342583868918,0.132825210848001,-1.04416598589432,0.190825201187868,-0.0438125557831395,-1.11943191402622,-0.0910526755658272,0.0957341929768203,-0.866542678542322,-0.247724119333972,0.190746495983925,0.954022093721481,0.0365037271105584,-0.737672750999704,-0.580476528747629,-0.0507281103194342,0.0753596631333188,-0.839594811430555,-0.0167467332592025,0.363186660839441
85.535,-0.437049546738519,0.341096647422901,0.829836671090233,0.00790989388991834,0.10283084702514,0.114942987442908,-0.991758830925076,0.129048298645851,-0.0565779395606945,-1.17882895327734,-0.127296688635582,0.10412047395248,-0.859657021498622,-0.196590001239314,0.131167644352404,0.87391917957728,0.0804800582795523,-0.758587653050264,-0.652009349866126,-0.0157834769756165,0.0751560616411011,-0.713795150270927,0.132166123818617,0.361116824249953
85.54,-0.430246456948316,0.324875985317582,0.82881765017018,-0.0596492469915887,0.0916436316460689,0.0936110081651091,-0.940383241002026,0.0580248386909275,-0.0602014451042267,-1.14035122491337,-0.121458369232318,0.0969499146377533,-0.867686440166915,-0.145934650495395,0.077071656644561,0.846826566442583,0.13422261219202,-0.767552872950204,-0.710810222464586,0.00358087630686216,0.0651483333639846,-0.649230051451326,0.20278545844978,0.339930055676472
85.545,-0.435126982883897,0.31703277238018,0.823440351977222,-0.112900368007192,0.0734462508360307,0.066675257076645,-0.908466430506826,0.00449249042459359,-0.0510790169057376,-1.01461555147013,-0.1017199569257,0.0843945618014801,-0.884437826282761,-0.101590985477286,0.00516920081833622,0.814254909886787,0.205274797703119,-0.763825576061946,-0.810929244728691,0.0271382910130062,0.0672720954306658,-0.46627616336935,0.239947984351011,0.346210939186384
85.55,-0.432855582173186,0.317323136585215,0.829928486509115,-0.145699647221837,0.048473426757913,0.0449143998907617,-0.904661345418218,-0.0144525454785755,-0.0382724174601521,-0.777565865310806,-0.0778500599143754,0.0662452336609716,-0.879695234903157,-0.0776971909110094,-0.0661089536211318,0.728173555229553,0.294206446949939,-0.754683975195369,-0.89374378318435,0.0257387902286675,0.0522675804575004,-0.320695146095848,0.280440325925893,0.330283703787184
85.555,-0.4308915114792,0.297777910789958,0.836470541908218,-0.163843694369958,0.0290833814988501,0.0219405002733398,-0.916998709402101,-0.0157857442535121,-0.0351789707793375,-0.446224773657164,-0.0606781859809115,0.0705257072767685,-0.867529993464518,-0.0619951663607598,-0.152054799778496,0.570643196679039,0.394801378471269,-0.791764339906939,-0.96998628183112,0.0435446672023779,0.0277147515439536,-0.151042462757536,0.209668500772438,0.314523174177339
85.56,-0.438008415655462,0.293763303295273,0.831812200119973,-0.141837362982573,-0.00289206812561946,-0.000424128002896792,-0.927409096366398,0.0117672816125692,-0.0220879685469836,-0.164797581914365,-0.0522641222367165,0.0837886501660468,-0.86575235723639,-0.0542234136472154,-0.211681723904421,0.405834765044821,0.440093512666568,-0.863396454925466,-1.02881683825076,0.0565045813266734,0.012350725666055,-0.1276498368169,0.164382257360103,0.275432637600478
85.565,-0.43367432864396,0.303672243165569,0.824258378847464,-0.107682223653034,-0.032556462762228,-0.0205563300120195,-0.964299002065482,0.0529682292788936,0.0154541779009616,0.155247388608027,-0.0623660804216604,0.0909689710231901,-0.876888612575064,-0.0499172350168695,-0.27441206880617,0.191929872727944,0.438626088147559,-0.984606084576057,-1.0649604694339,0.0608735107950518,0.0104848144324956,-0.167999435954749,0.210337722906972,0.217463394701201
85.57,-0.432393769397564,0.308170631539537,0.829264767038309,-0.0651285252287736,-0.0545762312621156,-0.0267455685421761,-0.98308606868981,0.0893180128820254,0.0418105626409491,0.361851339921823,-0.103640981652994,0.0767535385931893,-0.908018030116776,-0.0561584495571581,-0.303320999885196,0.0292414343970633,0.392445142525382,-1.07505572496738,-1.10889091078427,0.0404137836416529,0.00559062317639196,-0.130427345486838,0.256141177313735,0.165195304281603
85.575,-0.428240189515896,0.295055972713913,0.834375821785638,-0.0288281046871914,-0.0681360960006714,-0.0313400418557717,-0.986570516544061,0.120291039170085,0.0523613443630787,0.471223210298893,-0.128599757304621,0.0710762155893129,-0.966129448939243,-0.0691939750439522,-0.32341029234359,-0.150543087701626,0.313899510448004,-1.1648709069931,-1.10712346188068,0.0454838877445322,0.0236192977113383,-0.10456303906688,0.264591704453212,0.116838065263975
85.58,-0.427780161546098,0.279140263513162,0.844192669574133,0.0101589111669751,-0.066298890391329,-0.0359629003806218,-0.986322415518447,0.163322748334922,0.0585569596015404,0.546819863016863,-0.141880026195248,0.0664323447359056,-1.0349497839651,-0.0809181581761458,-0.325922980897724,-0.291620512646862,0.240223454887078,-1.20450789185476,-1.09873816457414,0.0338883650264295,0.0424715589231428,-0.177655864417394,0.312028516372404,0.0649783020041357
85.585,-0.434397605285218,0.272345192663907,0.841722413907359,0.0563380384368193,-0.0680295492601955,-0.0315923089002442,-0.978407312245427,0.187323830378405,0.0676119152281297,0.567743949079931,-0.133065387382869,0.064412393671222,-1.09532142566062,-0.0875946352387776,-0.314498507504484,-0.385155593101482,0.168124159952493,-1.21230303445267,-1.10428201958898,0.0398866598846092,0.0643482384418968,-0.137287628556624,0.371028177699357,0.066868177494583
85.59,-0.430050388041816,0.28096421223605,0.843258260593309,0.0673239979579926,-0.0752494909342797,-0.0354778634935591,-0.970294303050531,0.20136661429343,0.0629214037205736,0.528076407838931,-0.0963546292848918,0.053958417890968,-1.15723634989559,-0.0916928228636519,-0.278124714691236,-0.461219271082116,0.100463573587307,-1.16195366328988,-1.10482874442699,0.0416324814808136,0.0931771736356435,-0.117299104082962,0.403579771518707,0.0748262456822386
85.595,-0.428167471138564,0.292460541089675,0.838329682726075,0.0728716595562156,-0.0765755992073578,-0.0386532002048827,-0.960408875637411,0.208508920066862,0.0598707039566471,0.416701060234399,-0.0552405887223248,0.0411692177546658,-1.20635517000183,-0.0934714572343242,-0.212354382608164,-0.496485303405043,0.00516974495697661,-1.04685993311193,-1.09718094894566,0.0444353424334343,0.116449683823426,-0.021675553768334,0.366422053029335,0.112120717281997
85.6,-0.422191536201428,0.292614041106035,0.839951423285726,0.0559519165348246,-0.0738969042050782,-0.0381862596111851,-0.965796470744814,0.205212260264,0.063273080871562,0.290593258659612,-0.00717360561198974,0.0353829944676804,-1.20976580930029,-0.0924677516607694,-0.131855933350518,-0.449509274093755,-0.0941850438564427,-0.908054739752988,-1.07688637051144,0.0540905610203513,0.125645365872869,0.0749208703702742,0.270217335571154,0.151307158256187
85.605,-0.41287097465625,0.286249693754275,0.849394999005572,0.0193467211390784,-0.069388425226166,-0.0435195903133438,-0.88413386337408,0.284056406905201,0.155223484946299,0.133735408115473,-0.0676974955466319,0.0776151967863578,-1.18262159377632,-0.0974548660695539,-0.07092524133116,-0.362506810520145,-0.18920858488646,-0.78332688468954,-1.0341724254962,0.076815136750274,0.125770223590139,0.199090327808499,0.114244632974166,0.204393281377742
85.61,-0.416207702761611,0.283138334422758,0.853088860452842,-0.020401683804568,-0.0611522053705744,-0.0422013287729476,-0.891306286200764,0.22670681712209,0.0942255264180532,-0.0241927144960286,0.0762446181309179,-0.0397607674393404,-1.15197593425529,-0.0953204063642464,-0.0260430496195088,-0.311178543119386,-0.250064007843158,-0.712189541502846,-1.00143927138805,0.0831758107294241,0.128213136798575,0.272399580570148,0.0381061962424629,0.249670246361388
85.615,-0.422650296540707,0.290542344711216,0.847027448708924,-0.0714092419614139,-0.0441226593988159,-0.049387310099347,-0.976553774846441,0.158033736840942,0.054266361534708,-0.162820981226969,0.0102789747121265,0.088094009053209,-1.13993945390316,-0.089787220837345,0.0107311974422456,-0.282320984277393,-0.282801993481141,-0.655967903630486,-0.989987461403015,0.0981720534459304,0.130224446624267,0.357489231375627,-0.0180274677219747,0.284854241923084
85.62,-0.432538224606842,0.300404607047043,0.836085986181965,-0.0992087844195605,-0.0401773548219523,-0.0521480217576027,-0.982353564550641,0.150272239225531,0.0363641598627169,-0.250015000307161,0.0377875273688667,0.043912008607837,-1.11608498730483,-0.0861749843956124,0.0553478551706582,-0.277152359485626,-0.284532205411158,-0.579627540250239,-0.979067811309414,0.114505212507631,0.126868637942872,0.386534705660941,-0.0604359903973861,0.302294164507398
85.625,-0.424950372554057,0.311884508145796,0.830010709918099,-0.122118025808397,-0.0295918499574471,-0.0556631098531587,-0.965317680101458,0.122702700837816,0.0250114199262465,-0.241859680054135,0.102502572533699,-0.00636670614582345,-1.09712474643152,-0.0910819465868665,0.101834795355266,-0.24375097662334,-0.262804393454897,-0.489544037885941,-0.966625171696189,0.132032503019607,0.124892618083119,0.368252470043764,-0.103034994203516,0.30764011215827
85.63,-0.419431412262619,0.314314302849855,0.838052890119967,-0.14906262047594,-0.0420695254387431,-0.0594894604148208,-0.979882019152378,0.11531419712171,0.0345907229019575,-0.235315213590207,0.181907832654816,-0.0413496456919231,-1.06617348925884,-0.105588264324268,0.155093694452126,-0.149837373832296,-0.240953036709313,-0.357338774890597,-0.964822893750118,0.139353708945967,0.124814320234019,0.280338596041483,-0.11658188690288,0.30278991991629
85.635,-0.416097217941578,0.292582757957009,0.840382307325398,-0.160277275740071,-0.0415477579690053,-0.0655866637825966,-0.971676598359526,0.123547912124163,0.0598383615353843,-0.186913730496683,0.177543922770354,-0.0333622466542007,-1.03455580406551,-0.100494388365214,0.19220323298862,-0.0291235880865182,-0.202537065794153,-0.253503810241257,-0.955935827501561,0.153976492525406,0.120588555470026,0.122409017561585,-0.112160993759711,0.275473308147199
85.64,-0.421138699063369,0.304174770500951,0.839288479750449,-0.14020877616101,-0.0571829478765583,-0.0714844895735372,-0.968835748431026,0.131496871894073,0.0617443301685023,-0.0966780477792017,0.180724530768755,-0.0161478342151088,-1.01401952346097,-0.0966923002195205,0.222836290079814,0.11066364022646,-0.170106628248694,-0.156436583363552,-0.947882977062778,0.159566630282884,0.12172025002589,-0.0209148884360399,-0.0789111887171693,0.245423521637296
85.645,-0.424838932412297,0.317795638326685,0.837606252109734,-0.122399827056942,-0.0655220051181678,-0.0809565855778349,-0.939514553883978,0.15082098139367,0.0397790519198838,0.0332296586825338,0.147888424635654,-0.017332978690975,-0.989779797614469,-0.089941065019321,0.239318941032602,0.198411041732302,-0.137563598611646,-0.110213869120316,-0.946899891258967,0.159617451247107,0.120868201892849,-0.13196259222283,-0.0426239335087511,0.210258451697235
85.65,-0.420822716340218,0.315045927826486,0.829204538507414,-0.102372089878632,-0.0806013198232406,-0.087390722136654,-0.958628142650751,0.152459095035868,0.0240579087609596,0.114371615159508,0.187927484070843,-0.0403589766703505,-0.982246228892763,-0.0778838248215072,0.250478304087235,0.243023328210582,-0.0966847353477862,-0.105815144996928,-0.949185537486215,0.148953934506266,0.118721036007234,-0.228559395147327,-0.00827965789647281,0.169659803969177
85.655,-0.409676548695812,0.326534799610128,0.831118048262269,-0.0817321091331336,-0.0971054392945601,-0.0935685256986994,-0.96675154240741,0.160392060164119,0.0232584127999672,0.179366940550433,0.152472590265293,-0.0312892417743297,-0.976461955398094,-0.0558514235637017,0.244196194041466,0.26528000831604,-0.0543461499363059,-0.122446741989167,-0.96023300935535,0.127911548114696,0.12037749686713,-0.293094649113918,-0.0106309864042031,0.1426356587132
85.66,-0.41399977601029,0.328138004592044,0.832025213402645,-0.0666376840800081,-0.107457211521973,-0.0988669320367961,-0.971180673058679,0.175179480905987,0.0333256141099677,0.209457732747498,0.155226657011363,-0.0510022307126376,-0.97081500683423,-0.0307107798402295,0.228834968752949,0.244917348690226,-0.0156675677550585,-0.156519712650832,-0.971243167641592,0.105641570548221,0.118798889565635,-0.355247073981962,-0.0175745177129368,0.107993983277991
85.665,-0.421955750647494,0.321717248459389,0.837838080292235,-0.05575819131204,-0.112094187740217,-0.0974194954500796,-0.976249086520149,0.178979992809057,0.0233331211029161,0.218679651618004,0.14107713720379,-0.0747528435109783,-0.978234419711211,0.0051047168879608,0.206804999595745,0.187116428874979,0.0101135355744327,-0.203229658554796,-0.979027960648382,0.0903798133234324,0.115946243131859,-0.405517054741589,-0.0375978604147207,0.0815437515204103
85.67,-0.429809674343121,0.296295356511849,0.837354723571643,-0.05874656215214,-0.115042195481881,-0.09881908223081,-0.985130991405503,0.171939468033668,0.0119941805586681,0.165543088775789,0.130861972747327,-0.0778595302458541,-0.99027250985323,0.0258069493979387,0.18729078561077,0.145742767412283,0.0162313412874937,-0.226831545721532,-0.999948884315236,0.061361573173491,0.113008338771961,-0.432982435946289,-0.0475101263832236,0.0669776531765121
85.675,-0.431621279426082,0.281081329380374,0.844271924976168,-0.0567965023219585,-0.113162281168583,-0.0956134310161175,-0.984198070772787,0.164447324584363,0.00942911913574345,0.0959204633430205,0.13683821258604,-0.0803240563776695,-1.00230878759735,0.0413720610742126,0.165997426164613,0.115390493518256,0.0112577128197967,-0.246647103800515,-1.01288917467806,0.0392589537171596,0.108676960036813,-0.453079510230011,-0.0232838570392225,0.0528389003141324
85.68,-0.434287418419614,0.281554147708188,0.842797515773744,-0.0576330719356645,-0.107867932673935,-0.0916936915049769,-0.999467526433445,0.125689357806225,-0.0300946732511017,0.0260976278134555,0.155277688106229,-0.0879201268600904,-1.01908741250981,0.04459603712854,0.139766299585864,0.0882874445207098,-0.00350217645823329,-0.264697537793431,-1.02546135984493,0.0113427680303726,0.106678374667542,-0.414966326986796,0.0207513428783239,0.0476543840559662
85.685,-0.432958502963617,0.285056282973493,0.849677593853508,-0.0661888747276814,-0.0989507433052837,-0.0831260263314196,-1.01269942228313,0.0896943255443126,-0.0239623661120707,-0.0374195862672682,0.169825310508979,-0.0801773937893356,-1.02800565132686,0.0419113754730858,0.108934912874107,0.0546729714722061,-0.0236304170530291,-0.287058631679205,-1.0354204882009,0.00131481540330835,0.110949085006224,-0.367399402584977,0.0555172570479055,0.0412994714281822
85.69,-0.418787067031202,0.266037165103398,0.854106872098001,-0.102118215437786,-0.0734036633314785,-0.0749397684604971,-1.03442769352987,0.0669995386887698,-0.00875771979507362,-0.117057767286528,0.173434729644785,-0.0790766687176216,-1.03130821547119,0.0239722356942274,0.0790419468242166,-0.0199711545528089,0.184358542305029,-0.179889343526753,-1.05721415351694,-0.015239182030167,0.112342578182947,-0.341854866668035,0.120911430539038,0.0249211013210596
85.695,-0.42197825582106,0.246231477809689,0.857413710665365,-0.124945842902856,-0.0624259612134782,-0.0706062199269746,-1.03462355394903,0.0564813060711088,-0.0186811571506003,-0.162299230579283,0.162945710118208,-0.0743241012717616,-1.02355605980321,0.000856106238442473,0.0328343084468036,-0.0935217452430529,-0.0363015234470367,-0.310193465912463,-1.05896164088332,-0.0239596431464476,0.109140293357801,-0.297119630886121,0.164681453786509,0.00509340128317403
85.7,-0.434419052884643,0.255492650230695,0.846015366318208,-0.125968804784633,-0.0472645993495717,-0.0622489325426736,-1.03620748957102,0.0527431830395603,-0.0281342410454916,-0.18273679296077,0.167628714203168,-0.0657308359866709,-1.0102820468622,-0.0186585627760597,-0.00650973660068718,-0.148394976787759,-0.0285181448302112,-0.317016981948982,-1.06980737944124,-0.0238624642069105,0.105725077863385,-0.242155940406711,0.199379442685344,-0.0195822962159893
85.705,-0.435081643190027,0.271143250576117,0.84013918577438,-0.129344415880472,-0.0383475003468689,-0.05590837733526,-1.02880680903146,0.0598638160357455,-0.0299365442676823,-0.180616641734463,0.157920813228599,-0.0707944564839937,-0.988315501108829,-0.056369471146671,-0.0552374282563447,-0.241886961475768,-0.0271568279059494,-0.318087607622147,-1.0767116266811,-0.0200278222836856,0.100920359242291,-0.174471298022357,0.207828930199806,-0.0440456046429927
85.71,-0.416020692385588,0.278195918519597,0.851915027856754,-0.119695435151603,-0.0337311520173165,-0.0469198455235813,-1.0182822302597,0.0645353041464663,-0.0190927755541373,-0.170612161425704,0.157125770707934,-0.0721081179184366,-0.973302436194927,-0.0800173696490755,-0.0870541632871336,-0.315659119268018,-0.0269035886186197,-0.333400652520073,-1.07802177683432,-0.00890735834345553,0.0963845815704006,-0.105177714793427,0.192207455287883,-0.058358426646715
85.715,-0.415006424872149,0.274955670571811,0.851169166041662,-0.1075389006779,-0.0363720506429672,-0.043015364640981,-1.00258444407642,0.0791722164494474,0.00491029251378008,-0.135559204541065,0.162908720084983,-0.0700099630731781,-0.958072426856031,-0.106458528431056,-0.115676361646805,-0.419308376443621,-0.0321643100401471,-0.368180549220171,-1.07378331696713,0.00836860085592482,0.0823574918598822,-0.034070514778015,0.161425606256276,-0.0677718160180206
85.72,-0.409866966425953,0.270928566728394,0.855885675130516,-0.0916420558155979,-0.0345906916144623,-0.0363683567371752,-0.99622509880189,0.0813971471885188,0.0210861565322165,-0.101046974661471,0.161341864685188,-0.0623674859173836,-0.948580949942094,-0.128463084738806,-0.133807030697188,-0.518253403778986,-0.0466324258148686,-0.431582780597022,-1.0603576831459,0.0331972568390788,0.0721441151160009,0.0604293556578383,0.12188653622543,-0.0780529803966159
85.725,-0.417440898143825,0.265692702392358,0.848947215743246,-0.0721816463240938,-0.0361401755107568,-0.0337232285536474,-0.978226138287797,0.0974197146951068,0.0174147317894996,-0.0669146124887644,0.145349015819544,-0.0629012187185314,-0.953481750242752,-0.139013145133991,-0.141776378703766,-0.593307950201423,-0.057070329785347,-0.474960473324485,-1.04669725532328,0.0570150789934341,0.065895440354843,0.156826987352636,0.0902232748228262,-0.0859690976614031
85.73,-0.417017988709276,0.275396225207012,0.849500576114731,-0.0488977328833222,-0.028161143485245,-0.0315213643181345,-0.973316340768357,0.105005252002925,-0.00410443425501858,-0.0207538423924249,0.137766410256276,-0.0694956116121427,-0.969472588747539,-0.140771880835543,-0.148055730195774,-0.643362179846814,-0.0555805246716675,-0.510221172206492,-1.02001847847232,0.083990133430422,0.0666102583352228,0.26290812817386,0.0624039374432248,-0.0901685964245954
85.735,-0.420529594779905,0.272264609909713,0.851011412822562,-0.0290088090901698,-0.0290418714284897,-0.0363325609961014,-0.9701656728875,0.112971269289022,-0.00699173368196862,0.00517820430346512,0.151492042828859,-0.0718922142136939,-0.983616524153583,-0.146103314071226,-0.140260987002921,-0.675276441356807,-0.0521835535764694,-0.524818296257979,-0.999625413594931,0.100409711109582,0.0766465677610139,0.358726412412798,0.0597536198111981,-0.0987567373242082
85.74,-0.415354441805079,0.265881755843703,0.857820804578906,-0.0173749420392522,-0.0262836756777517,-0.034729484322628,-0.976091083971941,0.111712935722864,-0.00624612483855912,0.0246399117763039,0.159042983346997,-0.080942260791282,-0.997392701704167,-0.151661465934536,-0.116905302333823,-0.666541185908852,-0.0492877079907418,-0.519275132513937,-0.979545022147517,0.122565389325416,0.086488931200562,0.458819322322943,0.0681242715431786,-0.106996809376784
85.745,-0.417204321189208,0.253518663544049,0.860167099193391,-0.00753508167238249,-0.0203468801135565,-0.0373445452804113,-0.994427102255309,0.108961929258439,-0.0065847605968859,0.041717235311771,0.160576510757189,-0.094633717402721,-1.00775385227271,-0.154347282042693,-0.100800157453258,-0.636366592032212,-0.0472967736423016,-0.493444997417533,-0.975473276406722,0.127892932820294,0.0965071264470839,0.547180409328441,0.0636850908057999,-0.119789601765418
85.75,-0.420754998308964,0.254999530541607,0.855806225148595,0.00789270086162868,-0.0149224501888286,-0.034983689914878,-1.00583687974349,0.102250089427884,-0.00911423332505447,0.0520205559382428,0.164804112669871,-0.102837101552706,-1.02098804023458,-0.150409918031049,-0.0728166620150631,-0.587792917985842,-0.0469230601727778,-0.450762974567118,-0.969095634364701,0.137715062982015,0.111655030700639,0.620743835985629,0.0381275796236373,-0.140428484457855
85.755,-0.42253357408912,0.273390580313053,0.852425141477395,0.0108600221755717,-0.0118791524573342,-0.0398720678194539,-1.01334368374931,0.0995017514555301,-0.0088179699442145,0.0627193314481925,0.173694234794091,-0.112203850108875,-1.03517226958937,-0.142349251377466,-0.0450108056032631,-0.558346526123391,-0.0427029498147501,-0.389559198311883,-0.969607602884076,0.137297530501754,0.125401727198727,0.662440684586573,0.00107436758755555,-0.158445068189727
85.76,-0.41816802523834,0.28449567555508,0.844314560347841,-0.00139359226512655,-0.00884707702019136,-0.0443175224830628,-1.00844031770316,0.104382887370658,-0.00922699684895265,0.0645792822448904,0.182818108428895,-0.114663806673229,-1.04469922860812,-0.141794418149388,-0.0173920749451818,-0.545712333097056,-0.0312413878539577,-0.321603142997196,-0.971578639409434,0.1286588329182,0.140692339835046,0.686479929257473,-0.0476731099969558,-0.175494634399517
85.765,-0.414336998625443,0.288056015523995,0.8516465193524,-0.0241901730123352,-0.0226123566662759,-0.0487748013024697,-0.995311999656623,0.102212348119698,0.000840697188296251,0.0718009265517596,0.17888248545633,-0.12136704683638,-1.04352399791298,-0.146326786939101,0.016545713975646,-0.548554866928622,-0.0157811878243089,-0.265886128094313,-0.978666288222207,0.126382166387219,0.161139324826659,0.708575248799822,-0.100807504546779,-0.193989629739845
85.77,-0.415884631772511,0.277050765184988,0.852871974990584,-0.0406138790491351,-0.0101088338655318,-0.0597787820033678,-0.992029447840658,0.118511204653634,0.0010145261395669,0.0605549419473063,0.184409221696977,-0.120899680489658,-1.03866857181003,-0.154282894530737,0.0462521764317359,-0.549202738454005,-0.0197117784564,-0.216906345806138,-0.98454084997981,0.11988286917429,0.172698209376894,0.701027970967142,-0.119822336548725,-0.208047397970712
85.775,-0.416665145043539,0.283786899575803,0.855221068403883,-0.0476172166792759,-0.0113296789250826,-0.0625111170260178,-0.981741290314949,0.130887807513996,-0.00742391101631116,0.0587110869348066,0.17615955555164,-0.118913684617864,-1.03590012473572,-0.163836893260792,0.0825919631441434,-0.535734250132797,-0.0205864296482917,-0.160845710670874,-0.98509249167586,0.116044307110343,0.174554769488189,0.686189994914782,-0.123292052736239,-0.219358851987606
85.78,-0.417307476770777,0.282110556147275,0.853134259887856,-0.0519097186625004,-0.00893925795022476,-0.0698072511942245,-0.980884369450589,0.135717059073967,-0.0217341095673141,0.0692421359593087,0.157487238910864,-0.124025307880503,-1.03347727668317,-0.170016426173154,0.118236004483498,-0.514841899690395,-0.0285633457300623,-0.108638116600213,-0.977296385134489,0.110519386105443,0.174710486983113,0.656280911391153,-0.116648288079501,-0.22960096307704
85.785,-0.415540031115679,0.281182336144192,0.852435637017365,-0.0555079866774316,-0.00447436210064785,-0.0766487318448787,-0.987784452888178,0.139092727975272,-0.0284193457885188,0.0682409438486654,0.157029389143622,-0.12882815718693,-1.02705917588899,-0.176007670040934,0.154097271871729,-0.494174893317171,-0.0417861870378819,-0.0726598700411298,-0.976976512853998,0.0949768352491615,0.171934175009211,0.614507336922487,-0.0992011069195348,-0.233960492689784
85.79,-0.425218931870896,0.275473781312826,0.850736555233947,-0.0507938575601917,0.000278785824775696,-0.0803610516101779,-0.996273476473771,0.13378190342145,-0.0381903049302466,0.0594040447825263,0.163417400252384,-0.133201288952148,-1.02005179737913,-0.185683390483426,0.172079403634309,-0.45941083260215,-0.0551247962920039,-0.0742350836940565,-0.980644767172258,0.0803827492115968,0.165716348292617,0.542913622490927,-0.0683614764122558,-0.240430157720443
85.795,-0.421233747715707,0.269433010877622,0.853175298952573,-0.0362799534949705,0.00091722025372454,-0.0858273736227842,-1.01093392409414,0.130276133336527,-0.0500252355268192,0.0572895840054924,0.154531500479991,-0.141396546898226,-1.0097080661727,-0.198840011475529,0.18077296451857,-0.432977025902037,-0.0653174214604863,-0.0758873217347631,-0.995250621053544,0.0696768282925719,0.15390436741622,0.485842434437583,-0.0523418244017081,-0.244169366824499
85.8,-0.413630104678657,0.276233627269523,0.854641592796466,-0.014999738975433,0.00789278450933491,-0.0903167201081659,-1.02257765626932,0.126486975383909,-0.0547405048277177,0.0676039677550136,0.140601233524815,-0.154189733461907,-0.991717852193731,-0.222403515727266,0.182910144768952,-0.41092463036747,-0.0748377269319375,-0.0854076272062142,-1.00831623319892,0.0607091215034482,0.152026428307593,0.43184013708733,-0.0418070515012695,-0.250686781433609
85.805,-0.410160887947515,0.280006889204161,0.853762508321601,0.00349069157887795,0.0161281883299147,-0.0887662306010519,-1.03364005311079,0.109774160115877,-0.055348000045097,0.0788296678850875,0.129681723830818,-0.169274749201299,-0.978591606262534,-0.240620086864359,0.17549149839302,-0.388599884236195,-0.0768206678211527,-0.100691387146479,-1.03974625636199,0.0541458899548072,0.149490671218713,0.34787736739083,-0.038602670791614,-0.260597851403278
85.81,-0.423302832006385,0.288346972730404,0.837446838266245,0.0189485605806112,0.0199053884394658,-0.0882393327755712,-1.03268772931971,0.0871736518457174,-0.053180370428529,0.104611296178299,0.120265993709536,-0.177877877989189,-0.966082595797308,-0.253142485518459,0.165033629692275,-0.367196918417691,-0.0836559947607451,-0.131237572566571,-1.07543083508631,0.0375824210171766,0.144444453118133,0.292925258291402,-0.0592068007832231,-0.261714057559057
85.815,-0.435053938275972,0.288356600388394,0.836087700475357,0.0195914567877414,0.024264003037884,-0.0925921371060857,-1.02249848973822,0.0604873506698933,-0.0613145910219572,0.139623985992231,0.107654360377608,-0.176136084691563,-0.959280356622332,-0.263331497322448,0.146953447363392,-0.353988425642145,-0.0966873430906127,-0.150039255671297,-1.10017916673448,0.026442861457866,0.12741868202837,0.237802831899894,-0.0843944133296097,-0.257831904116349
85.82,-0.432571017083298,0.279709361259027,0.841842834824121,0.0154801192707958,0.0189749022934488,-0.0958453628098974,-1.0018355172426,0.0313084913993024,-0.0644514506301457,0.170709512650326,0.0995038961357353,-0.171018253338981,-0.952737541597277,-0.270829811630327,0.120528744874699,-0.349986862604402,-0.107842653346022,-0.161136033365784,-1.13031626315864,0.0118937006430528,0.111942119872473,0.201766858628272,-0.109874215130438,-0.253815317344486
85.825,-0.414395464701657,0.258079854303378,0.851376880229967,0.0188842095305623,0.0162251670042573,-0.0994080056493828,-0.987520123283792,0.0152070765474109,-0.0449080867491722,0.21105508697256,0.094383432869136,-0.162318609275372,-0.947324747227606,-0.270978086194641,0.0963751695872858,-0.329924139927534,-0.121885656055283,-0.175870062414216,-1.13618504345637,-0.00608342542817576,0.0785546382325617,0.169994144647076,-0.137866547570769,-0.235057004753946
85.83,-0.416072527504372,0.239477977979678,0.848859504425223,0.0175135260267027,0.01826808637929,-0.0831170699925448,-0.994178075557896,0.000670113735425567,-0.0404971615995273,0.207286117976063,0.0885714669750722,-0.144221145290263,-0.946000130219163,-0.262546390342962,0.0749251874187909,-0.305560061780821,-0.123041830956936,-0.19191393891151,-1.13085742969264,-0.024856016517533,0.0531725033237543,0.142114512034277,-0.138224689932204,-0.216348345723643
85.835,-0.42547599241791,0.245271395414517,0.849757240583175,0.0208095848760458,0.0199398274276934,-0.0746069659535354,-0.993678843794708,0.0106519236539138,-0.0403479291036779,0.225814750082491,0.0713748167136676,-0.132020577864759,-0.948197228129976,-0.255281028102234,0.0600335008966473,-0.269136491889174,-0.118320840838398,-0.208350797819199,-1.10608956137251,-0.0356291465364076,0.0235434779290525,0.109194745365169,-0.126692910514225,-0.196488068112304
85.84,-0.433236610280528,0.263985707658502,0.849829199920645,0.0129865518161492,0.0325425553015446,-0.0707612011677246,-0.993130095085647,0.0227509513562628,-0.0489570261510468,0.23117521168042,0.0497790863659834,-0.124606960902379,-0.945558229840372,-0.24648154296669,0.0465478338875737,-0.205338384557981,-0.105787503720335,-0.235771018476052,-1.07139696766886,-0.0440098724443436,-0.00313880994849357,0.0823113892626979,-0.111183311399511,-0.175823359604815
85.845,-0.42551535102705,0.267160688929714,0.850475898377998,0.0236863474063071,0.0272678132665415,-0.0640669871251444,-0.991759902643389,0.0520699593231296,-0.0464919150699784,0.200508753752875,0.0550021303368683,-0.0991052126929831,-0.935343197301862,-0.23950204489526,0.0360395077213078,-0.142461557055648,-0.0720848428722867,-0.24956526975806,-1.015189055763,-0.037785457551129,-0.0206172142429415,0.0646785392147715,-0.0941207413860412,-0.15975393320089
85.85,-0.423842986272154,0.266543472668912,0.846693468177118,0.0216450649986893,0.0304840891076369,-0.0522319683677481,-0.998134313026468,0.0730254828577844,-0.0351989814485506,0.167245481246451,0.0410992617561362,-0.0918439631706116,-0.929330572085976,-0.240728060731673,0.0254050323924054,-0.0679058275549665,-0.0260420642266879,-0.269479567751334,-0.986452834358837,-0.031254961943253,-0.0238257917412159,0.0407462704188658,-0.0738870190525128,-0.151003306840088
85.855,-0.421870797824397,0.276319495249805,0.843767390211319,0.0325704407490114,0.0283166836300458,-0.0428326118983243,-1.0222753213247,0.0794318269027547,-0.0363754661414418,0.122146180185395,0.0251536920660641,-0.0824738999039713,-0.922329621384408,-0.245772447217558,0.0212716927220918,-0.0393703881704164,0.0185819865085142,-0.274910761243702,-0.964091205520782,-0.0174284082207956,-0.0190147856324635,0.0288312115626911,-0.0403990883694626,-0.141992778173148
85.86,-0.421176648997634,0.28136168085359,0.844567051883333,0.0332910176938445,0.023474382933732,-0.0334881225566875,-1.00480071417304,0.0835180062247809,-0.0345339899758883,0.0540554388936966,0.0249396300284534,-0.0801770212694658,-0.915455905807439,-0.249615538707426,0.0205620404079921,-0.0328134633600712,0.0633181851010503,-0.276549994945526,-0.956441820638136,-0.000675227879378665,-0.00968631369934278,0.0185920092009342,-0.00383415893824847,-0.134334097706702
85.865,-0.414237166771868,0.280056002410679,0.843778080968897,0.0299711218718101,0.0258524481226775,-0.026192033856492,-0.993445399791979,0.087312357301034,-0.0266971237554867,0.0274654293783694,0.0201078311588449,-0.0308467397204279,-0.913395968122435,-0.255486462632083,0.0181321048500267,-0.0459049489129513,0.1114678647246,-0.273931685597258,-0.954576405419806,0.0256479268873454,0.00916503977837522,0.00919681452007776,0.0451776490450977,-0.114205175781742
85.87,-0.420886023095627,0.275926411566124,0.844186185253027,0.0292886434231636,0.0210962531399952,-0.0128191901188732,-0.983824901759064,0.0794923334577313,-0.0165106995941466,-0.0352155254052934,-0.0113212345954277,-0.0301992626096165,-0.923689901490647,-0.255709079163213,0.0192764878992506,-0.0704644116380462,0.138016584242751,-0.268801088413018,-0.953701517700988,0.0460565323194216,0.0329922997742575,0.0152458388093526,0.0604799966368967,-0.09657845091912
85.875,-0.419018037847988,0.267477452281489,0.848386321180629,0.0207827441759216,0.0204252642719083,-0.0106136899252438,-0.9920267481441,0.0844307496570329,-0.028236452788089,-0.064272664628799,-0.00696369795347781,-0.0438342439076239,-0.932707655873969,-0.256937112424007,0.0297597696289754,-0.117959756015701,0.15918454685401,-0.255933107702632,-0.948020835175125,0.0617641533293607,0.0493408674634948,0.0168423526977054,0.0728442402664709,-0.0764918859831715
85.88,-0.419414817328704,0.265129476871636,0.850850657698828,0.0201702564954758,0.0247126817703247,-0.00938871409744024,-0.99099626080749,0.0814745581085481,-0.0428570327715919,-0.092166413047045,0.000835781912288084,-0.049541032707548,-0.944707840374896,-0.258186742306908,0.0418247440959129,-0.161781836536684,0.182063031888663,-0.242023870506756,-0.945151010630612,0.0831780818091521,0.0676436320057325,0.0212830912859907,0.0615887201744707,-0.0543004048868057
85.885,-0.425261774644846,0.272748289056717,0.848298645115164,0.0214954545707368,0.0259195895399792,-0.00931478265643617,-0.99030599069365,0.0783613048936265,-0.0420732877885783,-0.11584762917713,0.00729320116348631,-0.0418693366685524,-0.958448628402663,-0.256447378488991,0.0476819926672752,-0.188409906977992,0.197188460015432,-0.239996716039282,-0.934319003465602,0.098826998366625,0.0811386952694879,0.0299973917396303,0.0341833966425388,-0.0414296847286319
85.89,-0.430623348494619,0.27972620368385,0.845974706977834,0.0265850132140581,0.0240409221926898,-0.0046237610473788,-0.996225516930018,0.0835599809301576,-0.0471221762143248,-0.100578143471357,-0.0135723059870196,-0.0394741743803024,-0.981365608348423,-0.250522155032576,0.0561480214757987,-0.163723809934173,0.204406864061632,-0.243822401494544,-0.925417903900769,0.110192144199828,0.0893555269582921,0.0384816111882735,-0.00591513240518657,-0.0291026850075192
85.895,-0.431086638888151,0.283473146308586,0.83946722551719,0.0190112847073269,0.0235537108656832,-0.00945143729283332,-1.00071403949747,0.0853772289244928,-0.0443972576355611,-0.0728984502634041,-0.00660742523349168,-0.0414288436451084,-1.00002758815558,-0.247421036821726,0.0608693054076459,-0.146041559676843,0.210221099057172,-0.240471695561103,-0.906709343250155,0.125615865263051,0.0970592622816557,0.0439019251798431,-0.0380390087343037,-0.0107286118893851
85.9,-0.432642756420534,0.288617973439487,0.840101664118281,0.0107691937344353,0.0228324700781111,-0.011550514927089,-1.00172587387403,0.0924456640212399,-0.0440310060093847,-0.0472556879554663,-0.000148103834315513,-0.04598658446055,-1.01712909816864,-0.241108630873076,0.0617253516799444,-0.135971342253789,0.205125385039651,-0.219481793231501,-0.886658054381937,0.136363113762891,0.0967801281472282,0.0445101455148056,-0.0597902204450044,0.00328948542185715
85.905,-0.432646505754407,0.289227786316364,0.836660441809306,0.00287502492240022,0.0115293829987799,-0.0242086368897598,-0.995399118115094,0.102815605023969,-0.0376536543941037,-0.0262503713472683,-0.0145102377556816,-0.0519792457351861,-1.02387728410019,-0.222808423962277,0.0630593374668421,-0.135633594013644,0.199089932813944,-0.187335330031128,-0.862340343294934,0.148582456178808,0.0961360374599216,0.0456531662858653,-0.0586164627374396,0.0101941529808137
85.91,-0.427016417399861,0.29783872563737,0.838274265354064,-0.00323576346837838,0.0162508652031294,-0.0315280163159371,-0.986389396737676,0.109961324307705,-0.0328442430701086,0.0321576173099792,-0.0177184995111542,-0.0584816464111664,-1.02439285443697,-0.203433998298302,0.0611796245653892,-0.144734653968901,0.188023921929793,-0.160117620836264,-0.841634913147632,0.14765785801403,0.105296953181817,0.0487161810436398,-0.0639402893436817,0.0216683111275351
85.915,-0.421249066422697,0.302558739956078,0.837177128024677,-0.00447326182435397,0.00200651648748335,-0.040210579561583,-0.984368739472541,0.114608634791985,-0.0258549251265629,0.0615991047439042,-0.0186508436978587,-0.0600385347916901,-1.02057440832785,-0.18437420730683,0.0620038549626915,-0.168955933810563,0.166508874369651,-0.14488099931682,-0.839758231152129,0.1482349827434,0.104901285010026,0.0538409280717773,-0.0714097743300403,0.026664761826396
85.92,-0.421953095592841,0.299558614331328,0.841277253786416,-0.00792871788144112,-0.00700989057355221,-0.046640022818578,-0.976669821636094,0.123206412646186,-0.0181192800555398,0.0963745085632242,-0.0286397772447608,-0.0726327108250701,-1.01437522799004,-0.170075290621031,0.0637314666443246,-0.330517844855866,0.0330692306897191,-0.137344012439248,-0.845812079511809,0.138814470943329,0.112952536488681,0.0525653724094708,-0.0659935837384968,0.0315707177036931
85.925,-0.429056228521423,0.298498030444908,0.842387503713665,-0.012815497815609,-0.0193575325812343,-0.0535481426787848,-0.975152596322224,0.124171781992611,-0.0216732150292865,0.132302663854578,-0.0348302265309007,-0.084515390568756,-1.01105072045134,-0.155329381872513,0.0671551054473032,-0.229100904130788,0.111614931685185,-0.140096959389071,-0.856070155801374,0.127314084525417,0.123363127473588,0.0490072200517459,-0.0601295292995484,0.0388053328951499
85.93,-0.427760065932701,0.293638012036112,0.83804720260876,-0.0115091403517107,-0.0239131739772752,-0.062332830429336,-0.970685246937677,0.120840182711346,-0.025308650579637,0.148919532413742,-0.0261071594948086,-0.0819024246595145,-1.00962986833791,-0.154104689676463,0.0664548581761946,-0.244533934601151,0.0845101962226418,-0.148519677571505,-0.876322452548984,0.106154297623591,0.131404349082797,0.0470979486673903,-0.0444849611512042,0.0365159128094143
85.935,-0.430271445368139,0.285230373514179,0.841232220659271,-0.013021003289317,-0.0208696683057417,-0.0706275743169433,-0.974837044544454,0.113332577225584,-0.0283759633126513,0.163703396916389,-0.0217356611667853,-0.0864738539306303,-1.01476456244638,-0.149286025662431,0.0666550071045037,-0.251427842369145,0.0579068379772508,-0.15730562879557,-0.904237558115795,0.0872684962925176,0.143155588635668,0.0486236557737246,-0.0173977081771296,0.0339949280023575
85.94,-0.429337533773321,0.276687861740472,0.843978825042022,-0.0112565272965273,-0.0257322648491572,-0.0787426323987967,-0.98134778456262,0.100050097228841,-0.0227582789566765,0.172183698392213,-0.0193255414764829,-0.0849563069077743,-1.02188380649648,-0.146144752544416,0.063054471657855,-0.266037439146088,0.0383415381988621,-0.158814545649149,-0.935225778554479,0.0629400979455378,0.150547665199979,0.0364311040356481,0.0141464565294381,0.0300783556554403
85.945,-0.423704989141144,0.272193724908176,0.853163053690688,-0.00682844730716055,-0.0374116020276978,-0.0804594909462028,-0.99198753054927,0.0908623477841145,-0.0138263196505912,0.190459782745319,-0.0211099021519321,-0.100317132211743,-1.03099952175667,-0.139261915358525,0.0491513352844018,-0.288589429449016,0.0134092666276586,-0.154191187322378,-0.970456148354437,0.039175413291922,0.154412369337766,0.0184922010026351,0.0416943816788637,0.0222212540755531
85.95,-0.423950429653854,0.272620186217622,0.845831341985438,-0.0112526897987893,-0.033333567165363,-0.0898221889432757,-0.99264800916976,0.0835968932877972,-0.00738926185204875,0.185164282038668,-0.00343048587935991,-0.0918276871461022,-1.03214148253323,-0.130876944732656,0.0349865204172448,-0.294837216821344,0.00310569713067515,-0.151087911781862,-1.00443744889284,0.0159801787922143,0.154689461072522,-0.0285227181532292,0.0814454085633502,0.00846578351230759
85.955,-0.428306893944259,0.272276692941777,0.846890551280165,-0.0142484182334117,-0.0386746200001531,-0.0931099960349151,-0.991669085977771,0.075490887314549,-0.0120702350308406,0.184084673430483,0.0033173101185195,-0.0889974625273081,-1.03083630004713,-0.124740995494418,0.0196022933027394,-0.285167580369101,-0.00589332136979276,-0.14583580399707,-1.035815487653,0.000941692417362876,0.14874741942943,-0.0762665129430433,0.112001592379242,-0.0027778919489554
85.96,-0.42592930807512,0.275034584588912,0.846199430634725,-0.0148884890344267,-0.0382479073030072,-0.0946235702148237,-0.991082484369253,0.070327558126092,-0.0117779148546766,0.190703225861369,0.00824712297291169,-0.088616736796901,-1.02293954331074,-0.122316011766957,0.004275539596473,-0.271130347489548,-0.00698085501790047,-0.135129634943821,-1.06255989594812,-0.0264352233295351,0.137342284369887,-0.145603268051447,0.145195683340712,-0.0173712342137651
85.965,-0.424531033663193,0.270962243154826,0.849913730385847,-0.0213312125300381,-0.0247334519192845,-0.0997941121459007,-0.985193766966545,0.0697038890951726,-0.00400120223603554,0.186214155151322,0.0132761656531936,-0.0892325676910238,-1.01080924179811,-0.119163375931893,-0.0109982304080407,-0.244012395788363,-0.00181889615381014,-0.125799993683428,-1.08318656178463,-0.0413725139274566,0.13040560394364,-0.196225701810736,0.162495908309497,-0.0284696273428576
85.97,-0.418406383890635,0.280709917366402,0.845637013967561,-0.0201456621289253,-0.04337906781656,-0.0988246766388954,-0.988872699490435,0.0678021201424951,0.00524627479350469,0.200130731632264,0.0307159323125719,-0.0810117870569229,-1.00339956491604,-0.118743597550335,-0.0235304586241075,-0.216677822420379,0.00635653255687487,-0.114878642537607,-1.10072168544824,-0.0515968813337659,0.119044311268117,-0.256059185608477,0.176505867687953,-0.0519516593510668
85.975,-0.40794118321954,0.284282328332638,0.848867168168062,-0.0225671503286055,-0.041269770276618,-0.0937075399436134,-0.986165598611953,0.0784424385100797,0.0243402441624078,0.203418168699091,0.0327622671078458,-0.0797706850669413,-0.996758444469876,-0.119314709932445,-0.0246269925263817,-0.196524775895914,0.0176147964853831,-0.100791984274308,-1.10993611096134,-0.0549972173439758,0.104874227304598,-0.29800941966158,0.183784733781222,-0.0659581326299071
85.98,-0.398193253218922,0.288852950501402,0.852683091869845,-0.0287122888337608,-0.0400371253490448,-0.085722476173783,-0.99228360076242,0.0868141415369938,0.0286633001865183,0.176968046882502,0.0377579412260506,-0.0776355970380374,-0.985910544591721,-0.123934955530993,-0.023977663181209,-0.164892442225108,0.0352805756866738,-0.0858639251456146,-1.10807619126168,-0.0554054560904915,0.0911101307653356,-0.32222868191497,0.187826570829055,-0.0844997374389448
85.985,-0.410391330362334,0.28422670586084,0.842610699064641,-0.0407900056350597,-0.0187000820255601,-0.0789941891682239,-0.998196494969366,0.101711598434818,0.0181649664300364,0.154463934458819,0.041489768296345,-0.0702187676167961,-0.979536462577221,-0.13696786911015,-0.0200106673698085,-0.151126182769678,0.0498559364440489,-0.0831389564097611,-1.10293066142165,-0.0492161540391198,0.0811075130970884,-0.345369275719393,0.195579452638939,-0.101015928735108
85.99,-0.41199466360131,0.294046654093185,0.846400082182507,-0.0353403751685532,-0.0447331909393539,-0.077459952395738,-0.992825954435807,0.102554769164845,0.00954160652251932,0.123799981612984,0.0292015560978246,-0.0761250108480453,-0.970241472953379,-0.153963145076304,-0.0132748196551256,-0.147277488997501,0.0659371427270592,-0.0791941590171001,-1.088819610001,-0.0434936424188418,0.0779261586126659,-0.34150219926514,0.194506479363583,-0.113277536538392
85.995,-0.406507214843621,0.296393716895609,0.84750958977497,-0.0335843004286289,-0.0447817456118008,-0.0752891456778715,-0.991703730264528,0.0972127493193864,0.00648886806563558,0.0839623696813157,0.034873578296792,-0.0767807023749362,-0.962153028737812,-0.173374180416418,-0.000443957599098256,-0.15322178088164,0.0842432448856666,-0.085286576069856,-1.07285916827843,-0.0380003658964005,0.078104962001198,-0.321118588190205,0.208931207866487,-0.126176527245701
86,-0.406670593480785,0.284925251959329,0.846619541561721,-0.0483654415059517,-0.0443281553839012,-0.0713670610691043,-0.998078815174714,0.0952721737615925,0.00149985750393761,0.0494001800852872,0.0439386304708748,-0.075457028101264,-0.960060583689916,-0.178645603544304,0.0097714087782174,-0.169291529062887,0.100430641041949,-0.0905495127837385,-1.06670722671348,-0.0247111396830951,0.0805304251982368,-0.299212609946864,0.221093390708722,-0.128969182345119
86.005,-0.405500388838287,0.274558145016861,0.851140252662043,-0.0471764633053546,-0.0483970898664322,-0.0630281349223269,-1.00412126041529,0.0727287347167684,-0.0095700189928127,0.00397838228739626,0.046440521755147,-0.0664943027605671,-0.956536387544134,-0.178441801099222,0.0284847440589837,-0.175610454385932,0.110937559265988,-0.09616303038327,-1.05293874401871,-0.0200678488329329,0.0873257486341656,-0.278554913996676,0.233345628110225,-0.128574167800081
86.01,-0.417060198484607,0.267156122404312,0.850527165904343,-0.0532550559855685,-0.0367628364966934,-0.0571238520447822,-1.00567352531435,0.0603971253464557,-0.021456195212535,-0.0242085110505589,0.0377395994300691,-0.0682872904828813,-0.961068620733784,-0.180435195439141,0.0411908641894614,-0.17219685516816,0.124631524696673,-0.103810362653539,-1.03338818705647,-0.0107543723404684,0.0905512273763771,-0.256407477848576,0.228426120924063,-0.129326948131926
