Header,foot_Accel_X,foot_Accel_Y,foot_Accel_Z,foot_Gyro_X,foot_Gyro_Y,foot_Gyro_Z,shank_Accel_X,shank_Accel_Y,shank_Accel_Z,shank_Gyro_X,shank_Gyro_Y,shank_Gyro_Z,thigh_Accel_X,thigh_Accel_Y,thigh_Accel_Z,thigh_Gyro_X,thigh_Gyro_Y,thigh_Gyro_Z,trunk_Accel_X,trunk_Accel_Y,trunk_Accel_Z,trunk_Gyro_X,trunk_Gyro_Y,trunk_Gyro_Z
95.015,-0.539132729254109,0.305367360236334,0.76529852964366,-0.258063854026838,-0.253437977712767,-0.270598461058389,-1.17959123397668,0.985240104309697,-0.235774570637926,-0.741541593667602,1.42695358195389,-0.415313514078195,-0.572600554091611,-0.581014447694343,0.438632851685682,-5.05950071971495,-1.70947052123115,-1.09001394147152,-0.807963232414247,-0.0750291675755641,-0.0102001743229293,0.644736066854385,0.247998113960485,-0.523178462635819
95.02,-0.517529638554359,0.278306242516613,0.762461077859726,-0.308629235261048,-0.240187512851294,-0.293965915881352,-1.25595488627273,0.868032814622844,-0.229831890359001,-1.6442237082796,1.29295373933462,-0.388213394028585,-0.652206857455827,-0.512999629253656,0.907597255082695,-4.78223842313572,-1.6389976296737,-1.30943820720557,-0.813378069718227,-0.0575309741201576,0.0502571321939231,0.622205667354794,0.225268327637841,-0.58803463230496
95.025,-0.50190226122352,0.261427754237575,0.786013440067201,-0.359233634455545,-0.233805244503902,-0.314989329355743,-1.21821687819155,0.736076865027341,-0.222247038028822,-2.294749474091,1.21252003919839,-0.181611334990018,-0.690934218974513,-0.486284280572568,1.20154088938701,-4.29558815805839,-1.44768081847992,-1.50744446745989,-0.826452067714034,-0.0419907812193159,0.096540753127696,0.617247879505157,0.211357436628393,-0.665162653475682
95.03,-0.488504587907077,0.251589012315983,0.793630829678406,-0.399316317131235,-0.22991495076436,-0.317432279049058,-1.07490774487374,0.583910889482984,-0.206139793645809,-3.10413383212889,1.06278168078416,0.00686942363556678,-0.740001775807747,-0.492592454737297,1.40607113507389,-3.58495143328103,-1.18945121467033,-1.71933517813658,-0.83657692123842,-0.0410181935287599,0.118294252512136,0.650077762494074,0.22338152201398,-0.710754118074709
95.035,-0.482116176070858,0.228011462422263,0.803255258065813,-0.424749612298666,-0.223850120233992,-0.316119655485835,-0.952672664360313,0.446053748820457,-0.171042944497292,-3.70587341830928,0.949692629864128,0.0876742402549502,-0.794034918080749,-0.52908348260138,1.49089333554896,-2.73508158763766,-0.923495690817014,-1.87961590175925,-0.85774524144817,-0.0581698271526327,0.126093313489936,0.824081382087818,0.271578201292652,-0.754159425670563
95.04,-0.463404579087603,0.198119675240036,0.800900265439672,-0.432992651549824,-0.220729634165764,-0.308959685612232,-0.909001441922747,0.31954192445079,-0.139878379350088,-3.87724372881333,0.883252934993046,0.117007518610537,-0.820343514778256,-0.559899747694975,1.48281936071703,-1.85794180224707,-0.71180999970609,-1.97156440935066,-0.88683333429758,-0.0655261983303592,0.10958901918703,0.999840075697004,0.340032882784086,-0.739753293406075
95.045,-0.44525109892244,0.142437735338845,0.824637436112348,-0.393228292453498,-0.214666357742069,-0.280027233821984,-0.896286424588101,0.118064583182311,-0.138562106295038,-3.6953074761721,0.834406717240816,0.200533907803601,-0.909889688288052,-0.548961038920985,1.36289034906906,-0.706353612288111,-0.435124581784091,-1.93636754606326,-0.902669746391381,-0.0784874320234089,0.0920371620397536,1.13918561093824,0.396009326454083,-0.629584873425701
95.05,-0.447531131871423,0.104532230760686,0.830167184747364,-0.327046327538557,-0.19176853250401,-0.22928182089113,-0.91186614240216,-0.0247275121273976,-0.133385459835793,-3.33290579258466,0.777372207187782,0.269066726321236,-1.13133872220018,-0.500008664698841,1.17155869712162,0.150743805099747,-0.170018700119748,-1.68341523515556,-0.934403199489137,-0.11833926732969,0.0671190369996253,1.24304201109649,0.400137960191439,-0.487272615987757
95.055,-0.463311852875397,0.0981989705416355,0.839653192958216,-0.262905000087979,-0.172032187301664,-0.17232797134973,-0.954771974142585,-0.127128588899874,-0.133294155719547,-2.61559672608555,0.708097930728376,0.28780404289064,-1.32844784629508,-0.441331439933732,0.891070401907666,1.05851057846473,0.132426742626839,-1.08842572440113,-0.994609846259024,-0.162012860559496,0.0326331600112121,1.36797937611886,0.349891339884742,-0.340976764310696
95.06,-0.458350343381907,0.115383085690552,0.845686085528627,-0.177224686995446,-0.139378176160446,-0.117214947512135,-1.01537030832015,-0.144597817163411,-0.104349258779206,-1.79059460701397,0.65068880500049,0.270989680075705,-1.21595637254395,-0.365583891157407,0.647677635202251,1.76314794167258,0.252292377503147,-0.545028531480012,-1.05635201871302,-0.185028452467046,0.00578312788970791,1.43289608508542,0.271368645551113,-0.230198911640733
95.065,-0.450979634714481,0.130756359609724,0.83520455987401,-0.105689802608524,-0.123515121677692,-0.0870769442774543,-1.06200205960999,-0.0978582560990786,-0.0586301895751517,-0.897224925888005,0.665392102907016,0.223501138585339,-1.18778862098126,-0.211675086852294,0.381780145384493,2.1336480241054,0.341240724349324,-0.550961370175531,-1.12154856965288,-0.201035640673814,-0.0318481306568254,1.46827084057895,0.169499628031693,-0.14979471911804
95.07,-0.444750738646462,0.142794598988342,0.832764416093882,-0.0372384305314868,-0.0961070107125018,-0.0645115680421011,-1.09407440586352,-0.0123795568380113,-0.0285924849957753,-0.397196775542255,0.714112937640456,0.0592788462709176,-1.29584840627583,-0.0527289773911294,0.191571235278615,2.08706805543791,0.439429470806799,-0.710682025895815,-1.18201343026657,-0.200566796614256,-0.0685761274055668,1.50809664030614,0.0880461563236377,-0.0981744909097446
95.075,-0.448686353877578,0.145727628020321,0.830962303346344,0.024343167135225,-0.0736288172978629,-0.0469526266705133,-1.10337434293213,0.0137085444387529,-0.0309408265931829,-0.0258079232293889,0.628583019833456,-0.157906423021529,-1.35435093628376,-0.0192279445456951,-0.030470340413157,2.13547586144156,0.612691015840056,-0.820443305514223,-1.22790311787708,-0.206365491045425,-0.096819166492501,1.51971651048875,0.0577421992103309,-0.0676387042536093
95.08,-0.465496063360099,0.157727809865609,0.827553993516933,0.0734290729323209,-0.0545017392845864,-0.022304919210968,-1.07883632252335,-0.04856533657755,-0.0568024705510839,1.03721773242305,0.535300576064821,0.0231831251811458,-1.2954038586578,-0.0277683052205643,-0.166807346275647,2.42158788872873,0.744187264431887,-0.866310494406183,-1.25020202317536,-0.205350690005882,-0.106943931096461,1.51038749274591,0.0509008081262719,-0.047108532954684
95.085,-0.465734274340976,0.181172915769926,0.824606274269447,0.106368861947475,-0.0360893377693318,-0.00599801144633561,-0.999445741198252,-0.00779799526381645,-0.0409811988085657,2.14789455658457,0.591820939497945,0.358640083526493,-1.20331463947053,-0.00534269852243573,-0.34915216969208,2.27623051786957,0.745934189428825,-0.790263217509959,-1.25785880861731,-0.208424763530336,-0.100330191858286,1.45856192869739,0.0408759346061073,-0.00305302219426677
95.09,-0.462091060870854,0.177642131057396,0.818348956796288,0.146593188949164,-0.0220246071200869,0.00958961652276737,-0.938298529398419,0.215406862908298,-0.0149251072230615,2.60298835269771,0.64680191443842,0.338753308396924,-1.08603799688339,0.0189311006212079,-0.395426696806595,1.67909343048843,0.694276719969157,-0.816666698772329,-1.25465063558566,-0.225482777400975,-0.090743871219381,1.41381534577375,0.0157481910040192,0.0689190036309805
95.095,-0.457384873218417,0.162305617451008,0.818243290747807,0.188540927151094,-0.0183350709511358,0.0252740979413038,-0.942912993836825,0.390963830812972,-0.00346150538778172,2.38744370006666,0.586531662630289,0.165313382851444,-0.994499796483071,0.0471000234107958,-0.353923240281496,1.09071581628599,0.601929472556648,-1.01302019182931,-1.23835935217592,-0.250706056096973,-0.0923967831113734,1.42963817827431,-0.0258787731923592,0.106074899435043
95.1,-0.455810403340659,0.166412894276855,0.82767857835836,0.219223838909523,-0.0175202119552683,0.0463165329305594,-0.981272829977532,0.45468452962749,-0.00355116842553004,2.0727485686749,0.563193606893361,0.128588525293006,-0.937425049336644,0.0680823543828157,-0.281347616236922,0.668724365118474,0.445221729310013,-1.19291721153108,-1.21290045632423,-0.251543671793236,-0.105832765123019,1.49437756770839,-0.0723703136404426,0.089729143716073
95.105,-0.462186802085827,0.212617329931633,0.822863401832197,0.238899046216731,-0.00259572808918941,0.0551457091824965,-0.968230303397533,0.458130336165436,0.0182438967523313,1.72945947174119,0.522661047421353,0.113531042940823,-0.887882581422082,0.078232926205669,-0.234368472869177,0.437008305787503,0.298252939614251,-1.1454953753039,-1.17058480776786,-0.232196765882573,-0.116174031819963,1.4506691566744,-0.068472857835944,0.0811663871987332
95.11,-0.46054583822571,0.224399356558253,0.817441980964329,0.233021388435597,0.0157476823647543,0.0591111779330415,-0.958360684153034,0.458594371866152,0.029512913246516,1.38805259446113,0.481557923666776,0.104878535106366,-0.858325709455558,0.0994795208196414,-0.166859852512787,0.0869515227058938,0.137964476293187,-1.04090599427665,-1.12689832209671,-0.202714213876451,-0.123253547927989,1.40414784929772,-0.0431863746932607,0.117106620431158
95.115,-0.460863306475662,0.23130059650729,0.807017277001066,0.227912683637271,0.0195222189988582,0.0615155557523228,-0.941974656922403,0.45099740562027,0.0109519329151033,1.10706212442194,0.446826968278703,0.175628980160865,-0.86784718580374,0.12804912639621,-0.106364092142099,-0.352160912361256,0.0181250336355808,-0.969158355401299,-1.08119594512324,-0.178542607140237,-0.128083675944352,1.34898377970744,-0.0180108444089662,0.155862023450339
95.12,-0.463078349486264,0.240176048293875,0.803366477747979,0.217196476752627,0.0140100194996221,0.0571559033025538,-0.923240676573891,0.454371474443674,0.0212588248891374,0.81973625645529,0.475626132789111,0.204387221438925,-0.886544946628283,0.147137268715887,-0.0138023268951121,-0.96023287145093,-0.0647818106351632,-0.968821197048951,-1.04047974267494,-0.155159351572896,-0.1250547199439,1.3206660420884,-0.01887487484544,0.168066734999781
95.125,-0.463475092505884,0.248763289568584,0.813007370740685,0.202432119392083,0.0211658719927073,0.06192646920681,-0.939045734594295,0.442392064787854,0.0333311940346098,0.656396791025897,0.501173555850983,0.208256504038084,-0.894759478046951,0.140784706119723,0.0451076810789963,-1.28266226926722,-0.0771631971027486,-1.05097920732146,-1.00910074571412,-0.136626581342909,-0.106973791014582,1.36905580914713,-0.0493112230507651,0.159171318822698
95.13,-0.460326424823726,0.260800442546663,0.808168299548038,0.185538318128964,0.0224264589767703,0.0587750017466524,-0.961996357728582,0.435416856684456,0.0192187840746954,0.612161405459348,0.500569983775564,0.251879045076639,-0.916990266558564,0.116261984392995,0.144722355342602,-1.72392661609387,-0.0683355624221296,-1.23326017074284,-0.983209273048966,-0.120482174445545,-0.0882094661628964,1.41894235430191,-0.0813556245549697,0.122529143575211
95.135,-0.460491793708723,0.249988278350956,0.810704164568446,0.177025245624893,0.0273911310027101,0.052036130923145,-0.959416685394481,0.453364605126091,0.00386034989175819,0.533921586020836,0.495430305412583,0.255862550162342,-0.954706532140424,0.0795734014658854,0.26204503734479,-2.02296967686423,-0.0727761533769887,-1.34102600094342,-0.962366780739606,-0.103476877598862,-0.0719651502805319,1.52540436652686,-0.110792537886736,0.0835913009420146
95.14,-0.468200327003986,0.246238953996493,0.811502454066151,0.169782748497269,0.0372807916944313,0.0470914646865477,-0.947417223328082,0.4772376498442,-0.00901450425983315,0.345550176683921,0.469433218315027,0.155030010334592,-0.97835202801652,0.0086852098793779,0.180330017359427,-2.128760275409,0.00668928601320491,-1.37106097220279,-0.949670041529624,-0.0834455932344386,-0.0617463399900483,1.57935110340953,-0.114523206783228,0.0636638811783747
95.145,-0.464694627856984,0.253994933326897,0.80546681697105,0.169232204802156,0.0500316185122749,0.0383308896240582,-0.94219184048199,0.49140962178542,-0.00968129951856665,0.135760239162404,0.473704072470625,0.0220489133658588,-0.986306940539837,-0.00663609751257312,0.264953117358785,-2.2152628696299,-0.0233597319733079,-1.26846291483423,-0.950766097159461,-0.074665687590206,-0.0538436330057501,1.68336443652398,-0.124262742133545,0.043091835809061
95.15,-0.465921818832754,0.259059320823742,0.801616181775064,0.167358169033612,0.0670017541439979,0.0338274985551834,-0.940104221639231,0.488249130990657,-0.00736058921658392,-0.0636419894416643,0.46308944131739,-0.11705200965883,-1.01496101903203,-0.0429037491791022,0.398397310548398,-2.5157226282074,-0.0983842176356264,-1.20194678618653,-0.94716334524575,-0.0773800260237777,-0.0546898802960056,1.77621170513245,-0.113890857533249,0.0325773123710628
95.155,-0.465403541052284,0.260642249923004,0.799533823138965,0.180744740336683,0.0673465003704375,0.0167861471959648,-0.937406195923606,0.46529225041343,-0.0129236258519078,-0.1364847567048,0.446270123938649,-0.192738910602342,-1.01502516425013,-0.0666978091558272,0.469902859346479,-2.54329576126163,-0.106540794513316,-1.28276512715064,-0.943877896665054,-0.0819182026888705,-0.0546518240870231,1.89583266412399,-0.102085611375229,0.0197061901468172
95.16,-0.465612179843787,0.244075145451348,0.805402091081602,0.193594959831743,0.0662756016605323,0.00506465299635688,-0.932908995048916,0.384706730662834,-0.0272942820715279,-0.031600272780679,0.444856266665184,-0.183437426293039,-1.01605587434436,-0.0202323078478582,0.393243898484104,-2.46589407957866,0.0105011397184531,-1.28731513349175,-0.93947404519626,-0.0837516396389016,-0.0489136073138497,1.98030899041656,-0.0868784403238134,0.00418930105111615
95.165,-0.468729438747861,0.220622055596179,0.808725596194162,0.22114687678069,0.0718330693765227,0.00392910728947398,-0.927223315994903,0.331692406067246,-0.0443852557169722,0.115556341628847,0.44407901751814,-0.118198276827683,-1.02536372727959,-0.0646124739946917,0.359600187540432,-2.35570209295132,0.227827362294659,-1.30785009104408,-0.932270415530102,-0.078087952220987,-0.0557494632879544,2.04755555520579,-0.108281797452383,-0.00957252120604964
95.17,-0.46702620699214,0.213680958574907,0.815032755349344,0.251150480269212,0.0743137544039713,0.00575354669456395,-0.930089865529794,0.274311267131807,-0.0592175575507739,0.345748381029989,0.443509281572163,-0.0669109728070011,-0.988009267471354,-0.120077788186797,0.403999668559617,-1.8976472639371,-0.0101561895434796,-1.45934925107519,-0.933401561825156,-0.0582041888748116,-0.066095114150415,2.12423582840542,-0.140402689429324,-0.00373889769255753
95.175,-0.459627338763633,0.202988065170577,0.818550049377705,0.280099545365412,0.0805437452304237,0.022514665766266,-0.938271378617438,0.249043088657036,-0.0639569551890767,0.499500065581304,0.446609297325848,-0.057347197421048,-0.972656320273278,-0.138169553274051,0.401845445558718,-1.43615763553032,-0.0221978035653522,-1.58022812829488,-0.924584234413672,-0.0538699412262405,-0.075300800596043,2.18794042911834,-0.176829111295715,0.0279904422340541
95.18,-0.461817677651076,0.198680358313206,0.826110781749559,0.32389065332444,0.122501156998548,0.050996586861751,-0.949935330916705,0.251050984171916,-0.0557362483635531,0.541513855468576,0.441366988504243,-0.0895876621432813,-0.99375780306845,-0.106721834341343,0.322616794298741,-1.21181037326434,-0.0740008644811299,-1.66452768511741,-0.924344605527296,-0.050574753036779,-0.0759445557045674,2.25781110345802,-0.211414417975003,0.0489388310649544
95.185,-0.458610349369579,0.204162299513874,0.823211157508102,0.355144348528889,0.11488796714896,0.0649115011411049,-0.972270560842035,0.262409669955034,-0.0590100442606521,0.555056500544071,0.420172371920982,-0.123622265139197,-0.992567173597763,-0.101864438360909,0.266544224923648,-1.13119897159368,-0.111465929471238,-1.66674390596426,-0.931927302004891,-0.0493133450929042,-0.075297300396915,2.36252211887854,-0.255140269371694,0.0208142963806071
95.19,-0.477281015744477,0.201511946424938,0.816660817308745,0.384604684781252,0.128856368337285,0.0862256281979597,-0.979275003816545,0.250586460633394,-0.0710366358162089,0.631475268559284,0.392459507397294,-0.116318433753178,-0.986973257986729,-0.10712060045265,0.20273385041466,-0.952333202321415,-0.137780683813519,-1.6546396563071,-0.948761571854243,-0.0337485809747876,-0.0758631168003926,2.43498536522599,-0.286540381688022,0.00276632765158113
95.195,-0.484369207598504,0.209127439613125,0.813197257048587,0.396505317962776,0.147824056302828,0.109036313444833,-0.981023297652738,0.226781849813707,-0.0734639454870983,0.840838639341271,0.393957788843807,-0.0641405680103965,-0.998965988842632,-0.0997677921043278,0.170559350969938,-0.856185727680898,-0.167616355960695,-1.6417264947292,-0.967824871727334,-0.0321173378170537,-0.0817184567986918,2.4623767767231,-0.298687788389435,0.0145403290106466
95.2,-0.471059187004419,0.204981484470711,0.816501845148649,0.408173855151708,0.180944763608824,0.137868845471702,-0.968420334658222,0.214010374223911,-0.0625946140505061,1.07561227304546,0.405930768195879,-0.0128973861846333,-1.02096493258274,-0.0874584967891296,0.142851040959594,-0.949425784370816,-0.227705203744885,-1.65653603518431,-0.998489701886754,-0.0476732591723034,-0.0893171829123018,2.57503649710063,-0.321936304633931,-0.0489204931586581
95.205,-0.473704471311867,0.224292122538826,0.818694711220873,0.414532446194544,0.173358330485184,0.14820841510587,-0.972787272282094,0.237976590366433,-0.0572925678906262,1.28430736059993,0.411726348912502,0.012237647207701,-1.02692472330811,-0.0812343405293506,0.12332707567515,-1.10918155087645,-0.270148466922208,-1.67592923297972,-1.01636570078839,-0.0190069885419429,-0.0998273332200567,2.60850825931182,-0.335767309907809,-0.0943978367058664
95.21,-0.467660564988101,0.227701454272857,0.817895183264632,0.424986826032982,0.182928953761363,0.157813565519324,-0.975033552489426,0.295878954453919,-0.0546092576898679,1.47534656718244,0.401421162757582,0.0192784485469707,-1.02652071495734,-0.0636529306225369,0.0962265538489557,-1.29931958779217,-0.298555456809016,-1.67211164739884,-1.02334932055801,-0.0186514210964885,-0.114478205106779,2.52358947280679,-0.326783105110839,-0.0519433531856071
95.215,-0.475834970385502,0.233354542391616,0.817174875947811,0.441648864981305,0.193930922390966,0.163165036780157,-0.971188296242163,0.333259114088286,-0.0508759546307699,1.59046204047897,0.388533875583118,0.0153946332284268,-1.02414412705093,-0.0495988901795024,0.0857916290421987,-1.48299629265899,-0.318939476476172,-1.65663827416321,-1.03054217297798,-0.0426783419804396,-0.118177679772589,2.42996912880543,-0.318915247535808,-0.0136511586606503
95.22,-0.469195882347717,0.244207229287862,0.812891135264178,0.453698636489103,0.203392768244581,0.159597219910676,-0.962969033466218,0.357118843139388,-0.0551416005606218,1.6562339996696,0.371588073167779,0.00633875148250912,-1.0119375527526,-0.0512596366635228,0.0938073066356395,-1.67389957008238,-0.323384248118816,-1.65098728159821,-1.03820493040518,-0.0538953903760219,-0.111534737215052,2.43400575792841,-0.320960001640848,-0.0629628940448867
95.225,-0.476788742572874,0.249316942720668,0.803037745633178,0.472259538342172,0.213394748801049,0.156581695523715,-0.952700415917705,0.374563583143458,-0.0506141661100181,1.68685493574921,0.357110303597468,-0.0196038301673936,-1.00142925216846,-0.0530943220483676,0.121031760317855,-1.85309088611256,-0.319499805411874,-1.65926037159443,-1.039332968853,-0.0262290628723629,-0.112939600973498,2.36497193407431,-0.29977365459622,-0.0580346807058076
95.23,-0.479882102345436,0.258997289192668,0.797175141756407,0.482619465690228,0.215965623485284,0.147364390937429,-0.950398159552112,0.386896736728544,-0.0451373714754796,1.67295008515552,0.35027674540302,-0.0444675246662565,-0.981697169969958,-0.0487585920032434,0.13728750933484,-1.9855246450328,-0.297192079932947,-1.65217583255378,-1.02724602877537,-0.0349868281249901,-0.105884382428528,2.27338173574922,-0.297963949800859,-0.0120740720223253
95.235,-0.473385011801619,0.274048411239399,0.795256693109417,0.485573219057049,0.212407762547889,0.144813012165879,-0.944047407290633,0.394481031721468,-0.0356995169345553,1.60888901719641,0.354486746943604,-0.0776291616701556,-0.96762347699575,-0.0442319528199104,0.173114334881446,-2.21701810558651,-0.25877712579516,-1.60401554706809,-1.01158651251781,-0.0542571025234152,-0.099808441440785,2.20247519824668,-0.313637402544738,-0.00964890186717898
95.24,-0.473030435086895,0.280422164746975,0.801189215456071,0.48618306583986,0.234103889026371,0.136831390854108,-0.939688798176384,0.400408046342667,-0.0228312007656347,1.46254110369285,0.368434859393324,-0.121913297875882,-0.964436929014646,-0.0406384165235493,0.224373402087427,-2.38934303882064,-0.22898066231478,-1.55008015979619,-0.979102749521083,-0.0733557150577134,-0.0602502128481286,2.15401434019455,-0.334545100457579,-0.0434626119034173
95.245,-0.476541256578064,0.284513459936438,0.788011791782131,0.472527621000759,0.219663953320801,0.124232895672321,-0.926959927689412,0.420561259627529,-0.0220096582889467,1.3144342886786,0.37470445193907,-0.143563591447921,-0.967836870249695,-0.0438856020951742,0.263146102373161,-2.53186812610021,-0.188854289173819,-1.46531266026946,-0.9557451660898,-0.0826612024092525,-0.0393070893308436,2.1130332307562,-0.33976746404488,-0.070071885477313
95.25,-0.479936236487122,0.294548959831489,0.786611906242758,0.455439465288188,0.223637816338297,0.116244023104748,-0.925599153638164,0.420517606013187,-0.0206404927234907,1.21906409988403,0.397600228381157,-0.146490213239193,-0.972711444580963,-0.0533964576150075,0.294665948519689,-2.65799553340883,-0.153989209681193,-1.35939146574336,-0.93036139476945,-0.0710904350396934,-0.0187825006410468,2.02483862212641,-0.333875826121045,-0.0538839513884381
95.255,-0.477397958248428,0.296354959507517,0.780975674828306,0.434448371494904,0.225700448685462,0.0976719451918016,-0.913247281295982,0.412369396860579,-0.0133206819295334,1.11635970316184,0.42972127778737,-0.129299461624877,-0.982203582230333,-0.0809525085510775,0.3379953975318,-2.75619556413645,-0.128365435457513,-1.22511743382741,-0.904113439951021,-0.0836230845356514,-0.00725070851386203,1.8733295879612,-0.30396985229606,0.0225982849790563
95.26,-0.469492077641488,0.298443766137729,0.783643720903724,0.416716555432972,0.236106243277258,0.087648810775821,-0.915533967661464,0.400269449499941,-0.00841763829542938,1.0539641892721,0.434095769657932,-0.111212579073871,-0.985412896190989,-0.111354707974065,0.359492327261347,-2.76407842971082,-0.101471615542278,-1.131516089712,-0.885151005336776,-0.107863290957267,0.00632646351381598,1.81207939153036,-0.274884489728014,0.0635744639229564
95.265,-0.480388125658035,0.307671635901425,0.779864855563137,0.395325356759654,0.232605520194896,0.0611858989207038,-0.928354157815064,0.394687197639374,-0.00539607071252243,0.988169194595141,0.45746305216114,-0.100117823725797,-1.00156899099304,-0.145281982665949,0.366811820756626,-2.71070029550749,-0.0837455817618794,-1.03753571777677,-0.872193032999393,-0.108491484252709,0.0220565198546539,1.82793419538343,-0.248096244554073,0.0830932439677201
95.27,-0.477694474613007,0.29237785764376,0.784994102237449,0.387273490428925,0.238179974050981,0.0503293977526661,-0.94022742903482,0.385114770816584,-0.00974024177340345,0.896545037625026,0.481999135340751,-0.0857173352971235,-1.0067979409645,-0.178944700677262,0.359448191517595,-2.55390696711859,-0.0709993833282084,-0.931080977181791,-0.866822015169476,-0.0974295051946909,0.0341594894290806,1.84782636181018,-0.212877850181874,0.108747539418816
95.275,-0.478723768317632,0.291664613008745,0.780467686917501,0.372887181641729,0.243032670842802,0.0325705015911877,-0.945373484705532,0.370642577731182,-0.0130530495532476,0.843443938410191,0.500814990645691,-0.0796509935822394,-1.00728951030973,-0.194895113197381,0.341686532197788,-2.33337663797159,-0.0629693867377704,-0.857622956467535,-0.876172031465943,-0.0882885378062717,0.0277312233502973,1.85931066353626,-0.193608572472756,0.132972170192361
95.28,-0.477302846719944,0.310962378286963,0.778883607040396,0.366211271781364,0.244735985994339,0.015331366462326,-0.948100094909431,0.347225382453213,-0.00857923329898347,0.829924491497883,0.527955727407259,-0.0783571520082676,-1.00227375805354,-0.207308265452425,0.317528579396038,-2.01100972630474,-0.0586224018376402,-0.805020744247183,-0.881707359973055,-0.0729341067719647,0.00449712028036748,1.85085997191376,-0.187367505849516,0.156273963724079
95.285,-0.474597247806493,0.307996715547463,0.776902451634736,0.333544545490968,0.262229854451664,0.00433095472679552,-0.952633943560439,0.32289102211818,-0.00295971735815005,0.853084406374926,0.548697072450499,-0.0711819421193113,-0.996821545763771,-0.217857637819963,0.290417227758208,-1.62031621160588,-0.0575155173348984,-0.754598414925513,-0.890617278224282,-0.0669009971023711,-0.012696678071434,1.83472546554692,-0.189415094180057,0.185367059240813
95.29,-0.477405649215737,0.302605038130035,0.783628532732158,0.317676453401116,0.271600072989425,-0.0161828865359902,-0.957128339921773,0.319783245677797,-0.00974596000653704,0.886020543575155,0.580565372778845,-0.0684274100626076,-0.994937177099093,-0.22076169844815,0.257119677445547,-1.27162482210848,-0.0612240289293348,-0.728334021393297,-0.891647987658746,-0.0488023081068434,-0.0235889851621815,1.82250057361341,-0.203313758084132,0.206061414365699
95.295,-0.480259462412914,0.305546706788528,0.779794184243312,0.299769286950822,0.283250147250374,-0.029273158907995,-0.958451209157124,0.320681033677831,-0.0248215458068287,0.909331827633034,0.599904515198023,-0.0482681327838133,-0.991374678472143,-0.217623519088994,0.229442958904433,-0.916027570905437,-0.0611252341781381,-0.6757027333823,-0.897930430777964,-0.0369075274428614,-0.0184181518321633,1.80145623047911,-0.232043607090938,0.20882603585951
95.3,-0.478733848677651,0.28653282954048,0.790802353314185,0.290985549958668,0.303653432980153,-0.0481264445008169,-0.956010335742994,0.32233058899482,-0.053376452639821,0.927963491764819,0.608727979771261,-0.0399187101069929,-0.990760652932533,-0.208568338523398,0.212864129372917,-0.659242319186262,-0.0643532217957525,-0.626380078813018,-0.911337483562092,-0.026068346818756,-0.00311118604486944,1.78782257976443,-0.252125839122672,0.208620721087016
95.305,-0.489743959138972,0.272894839518193,0.787804331781254,0.301085474637268,0.321055577757338,-0.0526896703299447,-0.961705055147514,0.3043309317357,-0.0758184070592307,0.953821076719264,0.623500787710986,-0.0372513188294385,-0.98679148041872,-0.191298351892823,0.184108276554457,-0.500791995172224,-0.0476126307208808,-0.563072127469982,-0.923525491362918,-0.0271094115510192,0.0173956766178975,1.78950037757436,-0.278773207286066,0.203810468316078
95.31,-0.491273722244766,0.279955038723276,0.782245142832024,0.297486789079246,0.344249258690364,-0.0535001691704113,-0.966222912456333,0.283404924838144,-0.0903719685544379,0.981241365041242,0.637600886939725,-0.0446836998702199,-0.982546076692132,-0.169072398333977,0.15517842948326,-0.458519201977845,-0.0361838219365811,-0.528868477735153,-0.929612379392019,-0.0239442202196693,0.029499022109219,1.79923514166539,-0.287439535469998,0.198468317744214
95.315,-0.496501036673431,0.282721411992722,0.789170009551231,0.28556883441467,0.362704110088252,-0.0534729852258086,-0.974705854212608,0.275027287095788,-0.0873752305919235,0.97996991674548,0.663341645390877,-0.0391575766012072,-0.983908975285079,-0.154645697204049,0.130589803835864,-0.486491896231893,-0.0284313071319635,-0.482728218678389,-0.939081897988777,-0.0247083784494759,0.0429448299083519,1.80079572536097,-0.308109324731429,0.187654254518286
95.32,-0.482254435400348,0.273331313483938,0.767077228801648,0.271194196158616,0.385212517195909,-0.0554661375195482,-0.973750973848136,0.278288102575797,-0.0870986841371386,0.959750179474575,0.684344713910745,-0.0326216654990559,-0.980651642883107,-0.132146472636352,0.108007980624936,-0.542601436916687,-0.0312530555844977,-0.43576549538642,-0.942604226378903,-0.0248550393175562,0.0525231560417194,1.79748804129171,-0.345680633974863,0.175239223275283
95.325,-0.517877817204968,0.288656982350517,0.763849536498459,0.257576807963226,0.39394036551447,-0.0608242664111196,-0.96722444669702,0.30753234603376,-0.118128205483701,0.891236424004958,0.702427854390473,-0.0226235680743025,-0.968812233580979,-0.115082594297818,0.0769826789993936,-0.608751445108262,-0.0380021616637572,-0.386839309534437,-0.951372556024952,-0.0243637230896569,0.0655629068857667,1.75179907407002,-0.372705897836168,0.155298714266082
95.33,-0.487496785358285,0.287999848851102,0.779854965906307,0.226157819705234,0.41743923867933,-0.0654257683134343,-0.959403052208917,0.328820124564294,-0.115725468746562,0.802398691589621,0.718017943973122,-0.0149181853931927,-0.962052571850973,-0.0900070175338986,0.0538139509507808,-0.734547325099117,-0.0461022236969489,-0.3592525420477,-0.947676301914728,-0.0217624916150501,0.0745622347605936,1.72769724314294,-0.405045769670923,0.139889620554889
95.335,-0.483396417896383,0.297242874072731,0.783171314465654,0.219545805056429,0.422513006655398,-0.073957413064995,-0.954138269866804,0.318199773564263,-0.110963527254413,0.665091192043619,0.734909928379581,-0.0136404129408875,-0.963582945580631,-0.0764924266027898,0.0360257624886854,-0.854254395294199,-0.0654290495116426,-0.34261804791672,-0.942799365410771,-0.0266499410644739,0.0911629978597606,1.70975037159014,-0.429393742255282,0.126715579027542
95.34,-0.487129633317846,0.283257134349943,0.769975163796326,0.19628463524052,0.435623698941912,-0.0662503238456161,-0.959811947079691,0.30804535703708,-0.130890726196074,0.542515859730947,0.739497368415974,-0.016698124499678,-0.955228585035756,-0.0721147591407117,0.0185971132709928,-0.963934302279855,-0.0871196892002765,-0.322280910164905,-0.938249118383688,-0.0372657613526951,0.112147571132515,1.70244532379838,-0.437918261992794,0.103823592470364
95.345,-0.502837558234629,0.295296066401488,0.770697666808532,0.176589920755983,0.452074387959621,-0.0610866945750706,-0.963475256428522,0.307549541140531,-0.138912835362852,0.458103098459874,0.753374822493019,-0.0112998968231006,-0.950468629546703,-0.073898915816988,0.00420356804289881,-1.0423337058553,-0.0925603788538982,-0.316291965070396,-0.926827461203565,-0.0365137422099754,0.124937134062974,1.70603591092299,-0.436523206767273,0.0735362099442453
95.35,-0.495060585983644,0.295113942131843,0.775555743724557,0.158791130184864,0.466454407517469,-0.0596639874354558,-0.953428970917706,0.307224712491617,-0.139028026632947,0.374445586705984,0.768519524460283,0.00502550511478887,-0.938005244021156,-0.0945580329081732,-0.00859665427868175,-1.13329513025786,-0.0984945558460631,-0.317293900619321,-0.928039695143085,-0.040792796573577,0.128997940363136,1.7190694099689,-0.432018704761788,0.0423845044646452
95.355,-0.49313526697127,0.305681274287873,0.779947899688916,0.148721978085268,0.484725496490257,-0.0569479391105686,-0.9500430757094,0.308262353089559,-0.135143494358725,0.311974777978858,0.771152984376591,0.0107617261431992,-0.935936144076309,-0.126051996469006,-0.0141792547242997,-1.18441978614614,-0.109519053215708,-0.338090590546704,-0.930421517639874,-0.0431565788510267,0.121146121475321,1.74940308994323,-0.420905221750419,0.0137405951338802
95.36,-0.496629165747521,0.298588669557918,0.789854298439808,0.140522365873981,0.500020233712936,-0.0614335113324809,-0.958255465672164,0.303446950390697,-0.150892586504917,0.247566222934145,0.768757595229349,0.0137247332992879,-0.938449089279446,-0.165035051486248,-0.015287298817823,-1.27381382623534,-0.134224736153705,-0.36231371323074,-0.933555362789295,-0.0367624719745936,0.114544680112435,1.75732215933966,-0.424029343853974,-0.00724821788307415
95.365,-0.50042751904433,0.292043142997661,0.774382560149016,0.131727341166919,0.530599385858736,-0.0567024764558855,-0.966548139270158,0.297987269984096,-0.160940893347437,0.20328953877098,0.776652168631417,0.0113531156285836,-0.937732254101441,-0.195764907077517,-0.015698415836664,-1.32452360098167,-0.164537139040704,-0.401120494652947,-0.936338045443265,-0.0356998089916168,0.113014753588836,1.71567532632109,-0.436804383510082,-0.04856677585555
95.37,-0.51593657214163,0.274732816248414,0.770377365395052,0.127490836848767,0.563159928099671,-0.0652552628373005,-0.978566710630315,0.293567427149896,-0.172550419486903,0.169460069628731,0.777840596536525,0.0101210006931722,-0.94177174998069,-0.215951814383649,-0.018362672847185,-1.32891792161122,-0.196835679518355,-0.437462864390481,-0.939439292134539,-0.0291207135669485,0.112270371369471,1.68319488652458,-0.448781423238419,-0.0766837739850627
95.375,-0.500134887915213,0.268387487566876,0.776383444898337,0.131348431118068,0.574435918499689,-0.0700165331363678,-0.986658846144899,0.274461092001371,-0.187959071685466,0.151520978490951,0.772778670646642,0.0198577190148332,-0.948692433950872,-0.231407705977467,-0.0221678189595631,-1.31232773661788,-0.228329041870363,-0.460470380227774,-0.936218911598919,-0.0154418862798875,0.119863977060035,1.65934291801932,-0.445901117528417,-0.10243688684014
95.38,-0.506883176944412,0.310833875039233,0.778108422495889,0.14763904496043,0.599325680891897,-0.057716719001526,-1.00492155770275,0.250696113840698,-0.192915243910199,0.181229162291079,0.768732870443222,0.0296563687672416,-0.951503657855152,-0.247361521654442,-0.0231898418886946,-1.29759077513875,-0.253277952803118,-0.456300816360419,-0.937985212782479,0.000485969056301743,0.124857242385512,1.62151103702433,-0.439664316935944,-0.136065206195657
95.385,-0.519416247304858,0.28038982161551,0.760623000697722,0.131379059477378,0.626023975988826,-0.0490211902050879,-1.00337756982795,0.234622687976467,-0.193708695031806,0.22560021487298,0.772420619199152,0.0419687745656133,-0.953333373518896,-0.255730436172028,-0.0163228036761076,-1.31669970263777,-0.275836643642535,-0.458946163662863,-0.943691854789084,0.017276226951513,0.136604075125746,1.57582761238564,-0.403441449891375,-0.17652568017358
95.39,-0.516303093944749,0.277381834149632,0.765492018302175,0.117704283449911,0.648815272377398,-0.0463378251396905,-0.996749456369596,0.23505002837862,-0.208128690649489,0.288154001390003,0.776089351018459,0.0541279045013557,-0.955085119488128,-0.254028727927453,-0.00646638914571852,-1.35498635099553,-0.29154973604143,-0.473371247837087,-0.942259668241201,0.0379507602997599,0.151568544641876,1.57643674279476,-0.363393613315088,-0.198625257275109
95.395,-0.513138388395535,0.269486961624875,0.766523594567613,0.108605016969519,0.669977133485479,-0.0410013981543769,-0.986556681885607,0.243696538722798,-0.210119908945554,0.32804014001952,0.779614652096303,0.0526517483394533,-0.957599565719296,-0.257231730117694,0.00891719857211065,-1.43637437373425,-0.305325995696726,-0.486202546395394,-0.945129988388672,0.0543778643474253,0.161793747785485,1.57827043662764,-0.317399531784856,-0.21510814768399
95.4,-0.510604404222149,0.273283030884448,0.75976719679676,0.103715083448404,0.682447088221127,-0.0368428622963653,-0.983725134626721,0.253705621230809,-0.22383560968982,0.36979588823986,0.778482930917141,0.0589956933572566,-0.94763431815853,-0.273544939716019,0.0227749136031944,-1.53195328610324,-0.316986640390551,-0.502144624689556,-0.942203892658315,0.0644316759842774,0.175890501553559,1.57295581203569,-0.284640902639864,-0.232613444214071
95.405,-0.52897842611601,0.281277600075372,0.752816867868453,0.0959763715859448,0.700172432246972,-0.0316854286834467,-0.983714637531807,0.273296792175518,-0.227608409144239,0.413399809558949,0.7769544093886,0.0529400038989156,-0.939563756995406,-0.298968507840232,0.0428571319246639,-1.63458968577152,-0.325381292723662,-0.494473443604463,-0.949858758912176,0.0743663784829175,0.210432041030218,1.56055980254941,-0.227761650577225,-0.258218029450833
95.41,-0.522234354353636,0.291626752839596,0.752861149698223,0.0866876731999048,0.717092273395244,-0.0402074429672639,-0.981043267381839,0.300707212516045,-0.214769977329977,0.441652822451661,0.784602618181505,0.0516939751499738,-0.933051864085293,-0.330453665331786,0.0779882536707696,-1.74205910855089,-0.327158720318393,-0.492132118753228,-0.957938512246422,0.0685362764644713,0.232092715084475,1.54805299153215,-0.186062011197597,-0.262809051833369
95.415,-0.526836445442686,0.303082062526614,0.749280868438191,0.0836124890994007,0.729757865293819,-0.0488466325548367,-0.975460779580704,0.319776623928618,-0.206712671178416,0.442268345556371,0.782173857169844,0.0587141699206248,-0.918297208858012,-0.362359563913209,0.102162128618042,-1.78352006275733,-0.315219457408807,-0.493675224426729,-0.967217692060227,0.0632525434607341,0.256999806248565,1.5619348655581,-0.14372387343625,-0.261127130797874
95.42,-0.523504159434004,0.292705926382163,0.747802767477081,0.0882067979142969,0.750765949374364,-0.0617441943503096,-0.965766481711274,0.348485242803925,-0.218875279197938,0.402428982655664,0.79181839918889,0.0639656134444635,-0.910691491230949,-0.383475996761122,0.1320874597783,-1.84989100741067,-0.294318521688591,-0.48317030772367,-0.966579881565612,0.0456741407406497,0.274866224145554,1.59537492029184,-0.105247401932368,-0.239658912534807
95.425,-0.532542949771497,0.295850174664358,0.746653968194972,0.0970906709077689,0.762214718365341,-0.0721393088222907,-0.947549266095965,0.353814287308765,-0.225098142537459,0.371620167120535,0.76846755827331,0.0736865103244781,-0.904845549387028,-0.390233062516203,0.161662584732664,-1.86955604069743,-0.280904212095738,-0.485719466956898,-0.979246912731524,0.0317783551508527,0.27865394529369,1.62180693665524,-0.104219071031891,-0.214265461455048
95.43,-0.539901887227393,0.3040196912435,0.736014034365487,0.104864977952494,0.770174927962417,-0.0776225420278463,-0.937603736446689,0.359547806740854,-0.22174059899236,0.334662258081807,0.761380467157847,0.0743008508643758,-0.893927440193724,-0.382897705751379,0.189773128936199,-1.82876316427869,-0.253123489188555,-0.454044916814622,-0.976488666011473,0.00374308150314282,0.284025529052263,1.64915296721539,-0.114326628963376,-0.182311987899516
95.435,-0.539568658106091,0.311381908287496,0.729425005523759,0.112664210624707,0.77440738447998,-0.0910529029494738,-0.922165248861871,0.354672862079641,-0.216638406446619,0.30978359767535,0.7589510679245,0.0774522410406279,-0.88993320288321,-0.367017240963075,0.220648933582955,-1.76191914886699,-0.223039128899455,-0.438134392741153,-0.974573089953701,-0.0250624687468382,0.290483848784965,1.67506258777045,-0.129505472897702,-0.15113777856029
95.44,-0.542642402933683,0.339800515905124,0.725957951302825,0.103731722000584,0.782411891053888,-0.107015030686144,-0.91722289705156,0.35702161751167,-0.208676782887498,0.292673701350972,0.762598277654796,0.0834362229547728,-0.888935011920018,-0.359708714689288,0.247403539171735,-1.70016313644033,-0.201878392514554,-0.436474116557197,-0.966683855943173,-0.0497298280061049,0.280232294740745,1.68118321561922,-0.119947830994109,-0.134180139939103
95.445,-0.546290164619211,0.330863358137264,0.72235906632955,0.100906616507024,0.790246637477157,-0.129706684115352,-0.912616742981859,0.373157157292225,-0.220710664706078,0.270115973469445,0.731070417461271,0.0861106185401205,-0.890543319161196,-0.354321874463983,0.263302633950154,-1.62825173559004,-0.190115139728473,-0.435834961261516,-0.94957772989372,-0.0749337529882958,0.26832493704342,1.68248588195493,-0.0878598987225949,-0.119710167907967
95.45,-0.549520446754439,0.32115795982088,0.721199399328349,0.105679068999666,0.795714878354935,-0.143922902353026,-0.914895303880625,0.386727217858098,-0.228937276636054,0.252104059423471,0.711361322844194,0.0967859864111796,-0.89133328425619,-0.348368375732795,0.271487949896027,-1.51859683094476,-0.170779876259592,-0.43345964837364,-0.944148371870334,-0.0865132151040771,0.250805711702869,1.68170282540547,-0.0646404560411624,-0.117279522860614
95.455,-0.556117126662351,0.316024359708778,0.716024709641019,0.0890037884099206,0.803198560155725,-0.154878244117497,-0.911383165091306,0.38263770329616,-0.247267962245977,0.237930414404942,0.699071538115255,0.104847986103927,-0.886362627723591,-0.350605713948405,0.265946731198705,-1.41040060924544,-0.159234472671513,-0.433257755533238,-0.942983230869139,-0.0907532844390175,0.230882608591677,1.64953803954492,-0.052798489665255,-0.116712798690978
95.46,-0.562932103374032,0.32147607288507,0.710719760070861,0.100142940759392,0.800615051803466,-0.165289847103704,-0.900184894086952,0.373720703069561,-0.246443051296019,0.236410185694695,0.710928078436405,0.105479566274121,-0.875317566524621,-0.352941598219313,0.258310416406292,-1.30585100922477,-0.147892291076238,-0.427078749526046,-0.934321831747622,-0.0835491688404553,0.216761739850268,1.60303363567754,-0.0585566228475069,-0.121939051441644
95.465,-0.567630834391014,0.31211551777206,0.711876195737857,0.104464837753382,0.806403158508978,-0.173564690340367,-0.900497145737669,0.357140912517405,-0.260279957026719,0.275798715827949,0.681048000191884,0.110702959911837,-0.86845068677535,-0.350347324694941,0.246120176827915,-1.24000272283966,-0.14171420742076,-0.426906985749785,-0.926923217570106,-0.0879500021419476,0.212946938557518,1.55287481233475,-0.0466536961083333,-0.153552661323601
95.47,-0.573793936504928,0.302260591559165,0.707216871597664,0.113613925874233,0.81162737880406,-0.179969042539597,-0.898074086636825,0.357232671791267,-0.264458826335851,0.316605601883278,0.676862341524991,0.105845170646135,-0.867430578404453,-0.349212307142753,0.223570979004388,-1.15464368197436,-0.135425385362489,-0.431705176830292,-0.920770178678224,-0.0722722474011808,0.22643623565779,1.48866415841955,-0.0251938660752539,-0.243731807468632
95.475,-0.560784738449549,0.316493512588255,0.709611262011248,0.118275269983916,0.83687093533954,-0.180901317047035,-0.904071653375173,0.367554061579533,-0.263953240809823,0.376203472274344,0.669767379760742,0.10389043590631,-0.874304854348237,-0.346452442841117,0.202493434047054,-1.10729368021687,-0.134298857592255,-0.435108486272186,-0.915696751645229,-0.0704894636389223,0.234040629619182,1.4423747519243,-0.0186472679163794,-0.330761648384201
95.48,-0.574231159183908,0.322986435176046,0.707710888616277,0.12955688287508,0.825122063133509,-0.192240161768022,-0.909583545877103,0.372124234298409,-0.264419489068897,0.437268250649983,0.663756360929323,0.107835457037023,-0.883042673780882,-0.339842672314375,0.17772097191675,-1.05875379878677,-0.12356553158702,-0.446998057903489,-0.905716805269944,-0.064071620595095,0.246440598020642,1.41742973080787,-0.0098645202412866,-0.403029789943627
95.485,-0.58073552203917,0.330371734596849,0.711723200553625,0.144148488323113,0.842693508217585,-0.204619396109527,-0.91626893271124,0.372555809457046,-0.265584083220062,0.502602371407599,0.651132938761236,0.109747973001789,-0.892177659579254,-0.330610883055092,0.15465674019137,-1.03810630335635,-0.105628648963319,-0.445467467210954,-0.909906387819977,-0.069727589515729,0.258289321329087,1.43284657786066,0.00544004463958408,-0.426764213058903
95.49,-0.579565307748348,0.316301861138095,0.707749874324991,0.157710982225196,0.862670074001819,-0.211733102798462,-0.923512479106643,0.366999907933422,-0.266363208784234,0.575798247449272,0.641130452264627,0.1182540614242,-0.914641074269942,-0.316013154096023,0.128191103350016,-1.05090613800892,-0.088473725007501,-0.435570429666319,-0.934950498966048,-0.0689475481651709,0.251363012052988,1.48988430246323,-0.0158083975791707,-0.402849144386555
95.495,-0.582614179896911,0.30175797063306,0.70683235528356,0.173609020314717,0.900506499188104,-0.225032056088135,-0.928408683378644,0.360292694614789,-0.268795308352807,0.649388101882433,0.633716327398545,0.126797002266272,-0.936523844644088,-0.309238408626844,0.110049238189134,-1.0727325107525,-0.0730515118127043,-0.43812022065878,-0.952204095528223,-0.0601537049892631,0.247942038740722,1.53872737108834,-0.0581114903670618,-0.379154356568629
95.5,-0.580018224719592,0.314043044196049,0.706543863475993,0.186915591359138,0.913840386003449,-0.236489114147745,-0.945078504155092,0.347182581903694,-0.264368233022047,0.752437349053104,0.626982331460474,0.131149068132316,-0.965914286923603,-0.307360767686197,0.0843845867986067,-1.12355639015012,-0.0574053965926921,-0.421305611731427,-0.962666700319219,-0.0421390384478564,0.234541935360985,1.56870148580002,-0.0963775796893222,-0.362611388367307
95.505,-0.585287178701653,0.315420109894313,0.711447250254823,0.190213414742072,0.946415804851586,-0.252671115697616,-0.963639428646341,0.336944082218613,-0.25885526166987,0.834786125748901,0.623955850299793,0.137521053079494,-0.971650103634166,-0.30714089008927,0.0664163416391804,-1.17433327878909,-0.0610876594984888,-0.417562057793084,-0.989600393469683,-0.0289512507121922,0.222671570179746,1.57035323029882,-0.0960630967358274,-0.344974951937581
95.51,-0.5910820337987,0.318930936546597,0.709528691749878,0.195360177510897,0.968479737229552,-0.265523428084961,-0.975581346490651,0.334879558245274,-0.252814168775747,0.924335367865422,0.627597854866971,0.139643935778138,-0.975680668095955,-0.297449921834274,0.0534777620956341,-1.24010007134143,-0.0707352512448696,-0.394375514239967,-1.00577462756957,-0.0185811296426572,0.207798553382268,1.53734840290835,-0.067207866973188,-0.326269591335323
95.515,-0.593754861106911,0.327829789491701,0.69860997730853,0.188002094181376,1.02118547352254,-0.272409779168143,-0.975847461016887,0.331398597387976,-0.245893912330285,1.01193461250867,0.639472794994052,0.145434856829457,-0.984929965355663,-0.281789884253669,0.0569661681060558,-1.30777236137687,-0.0849057426991342,-0.361374011831117,-0.999049947624173,-0.00875215750559144,0.200430567986842,1.49467676891328,-0.035814885164797,-0.313457604478314
95.52,-0.594597922333435,0.333313062395132,0.700488836858097,0.186798334015972,1.02959147995583,-0.293850470393414,-0.978963534957028,0.330773753003319,-0.245136860122682,1.07233322826695,0.641685477021254,0.159244879325547,-0.970155152432435,-0.267121433265005,0.0405732504374504,-1.39855708615919,-0.0982935698445606,-0.353516727685928,-0.996986929225106,-0.00103797977408506,0.205807483672068,1.4788020110039,-0.00480117790024138,-0.30816602159446
95.525,-0.593963321301689,0.322691175613825,0.696402298521005,0.182028815150261,1.05624548041702,-0.311299818847589,-0.966780450332651,0.335697304073155,-0.244468387619032,1.15000826309513,0.646177242672853,0.170006889435691,-0.952726119448219,-0.248965094070485,0.0301353844512218,-1.50662369226163,-0.12313115256878,-0.356675278748005,-0.988792136952655,-0.0042022436444436,0.213967278232064,1.42780668355422,-0.00362809275893163,-0.307625014909856
95.53,-0.601917317369758,0.318536658115421,0.687634187890751,0.182623199186534,1.08014458362289,-0.332053548655719,-0.954317024059321,0.32766103110002,-0.248433414966979,1.23083265742652,0.648431209229503,0.183771624658819,-0.939921627577849,-0.229415050814519,0.0216885030976048,-1.57537098402406,-0.138913232833085,-0.357279205911638,-1.00156865357025,-0.00225776223511132,0.224903019900575,1.44024400772412,-0.0133402585057685,-0.321366821736318
95.535,-0.607189514675536,0.315038656845662,0.679607906828855,0.171004871587743,1.11247611440311,-0.343042539166859,-0.949321864906957,0.321152044618508,-0.249816478821211,1.30232417307007,0.659518973232585,0.190969184041023,-0.940703319414893,-0.205086589229628,0.0143730338513147,-1.66699318229325,-0.162369757882893,-0.359970793526605,-0.969063653436106,0.00616521853150731,0.218614688315643,1.46633225657925,-0.0142369132935036,-0.337810913131036
95.54,-0.610504192117589,0.315419554268036,0.678803025831013,0.168266563695332,1.14815072015045,-0.35717948348013,-0.940626035160065,0.32401439549422,-0.263095288967542,1.38878430740728,0.66508031356825,0.197085981727793,-0.93204652353711,-0.184597547280201,0.00882969792592517,-1.72861650856452,-0.176541080039873,-0.367921774103558,-0.961748221085071,0.00301773992531608,0.22446855730351,1.50213655918385,0.00759808198340107,-0.352509171686442
95.545,-0.618778807892084,0.306738054402248,0.673910112549233,0.158414946561845,1.17422544905161,-0.35809976056335,-0.932658688438179,0.315252029189831,-0.276714323771029,1.45164045611479,0.690959720881571,0.199379858317645,-0.924235103566564,-0.182426923941389,0.00397058630479868,-1.83064637227866,-0.194168826554853,-0.360350103274195,-0.948023681171884,0.00559891270920846,0.230557775216457,1.5949209371562,0.0390626681932552,-0.391080562985053
95.55,-0.615227477389078,0.301090390832301,0.670059441956369,0.160637512929836,1.19863371217839,-0.35487886459351,-0.924439187524944,0.313524039041812,-0.275358730514307,1.53121463432714,0.682672267690226,0.201844148395024,-0.910498831226279,-0.183699216094359,-0.000796748791041394,-1.91790238788946,-0.203583652083115,-0.354034001261332,-0.93951533188249,-0.00182162516361972,0.233999050222048,1.63516429003186,0.0599173821247198,-0.398973729881704
95.555,-0.62991485222512,0.303348062292389,0.66107541366485,0.153929829597473,1.23284399964721,-0.359747167786769,-0.919866887850806,0.312212454910029,-0.279012572679765,1.5872008722586,0.694032693832477,0.197823940839872,-0.895052164523751,-0.196736060209441,-0.00501282628312411,-2.04145372094944,-0.21500344066666,-0.33856553836227,-0.912241122462279,-0.0173308040808103,0.257184049127581,1.7225697474343,0.113005392482318,-0.444189845432739
95.56,-0.631474889784065,0.31090865856217,0.663289771897238,0.146669437865625,1.24162703202192,-0.363199967492993,-0.910412393474298,0.319118243177482,-0.282047274280737,1.64236697064006,0.702569169881997,0.192338097362046,-0.890154985410939,-0.216726673921292,-0.00269339374329732,-2.15726857065427,-0.225087383276602,-0.328355560803492,-0.879723103948214,-0.0422797157535032,0.280657296568598,1.82198178325502,0.167253429935795,-0.529555077984065
95.565,-0.636212281237502,0.313892437765772,0.660435291420261,0.13813511964848,1.26504745866883,-0.367302884365743,-0.908341959674923,0.323798455289383,-0.285988577393087,1.69722332895589,0.72076868279347,0.195236217518237,-0.899906100121429,-0.237836413924807,0.00993277265385741,-2.24846859007465,-0.226885870099068,-0.31863924259434,-0.873521502266898,-0.0334272039165609,0.310585289043596,2.04901472682538,0.259359502135919,-0.648283088193889
95.57,-0.636035481516997,0.314406650284966,0.651516561500043,0.139821116995167,1.29507847690904,-0.371775090694427,-0.908184618338759,0.329534121795325,-0.295595629881906,1.73768677903749,0.728369583132657,0.203772493722021,-0.90275692682545,-0.262441456235981,0.0248865524591203,-2.32578273545395,-0.227970750637175,-0.29732843714357,-0.879214900217648,-0.0130413881615888,0.317627622379102,2.03748551799081,0.356845083517026,-0.546005488313431
95.575,-0.628238178305745,0.311357218999633,0.655747166581514,0.122876820590992,1.33333887623559,-0.363241417605966,-0.912995070572975,0.323733000562599,-0.302738878407532,1.78525006834457,0.740455537887024,0.202376195168622,-0.911887230424973,-0.281246829317047,0.0494083182267598,-2.41477757314378,-0.236173353423432,-0.274835733583915,-0.88708455297539,-0.0558250639154176,0.334334391935906,2.05252430888944,0.342310177848844,-0.559043637854084
95.58,-0.641118913010525,0.304822948027218,0.650539615378993,0.126955008448687,1.36408687471974,-0.374218463897705,-0.916829012387468,0.322127125429254,-0.308038235570992,1.82313575988299,0.753968442400121,0.19589857310453,-0.93738388138872,-0.287728662232632,0.0811820261909716,-2.52143135106175,-0.225104090436253,-0.25760936423464,-0.898142733183755,-0.060027942703814,0.331100781932551,2.12962985059858,0.264382493974548,-0.659729255238062
95.585,-0.658109989146912,0.294086286809685,0.650131991752242,0.119168729073387,1.39492226805663,-0.37388445243957,-0.924169474247162,0.314617200912137,-0.317418188914124,1.88157822244949,0.762968422784662,0.200784408245548,-0.933251696156527,-0.269191014312469,0.0911006890934204,-2.53428544874534,-0.203741389775033,-0.255750769731145,-0.872162517781015,-0.0849207358874365,0.302423236457353,2.16681667692088,0.222234795793051,-0.73023435223421
95.59,-0.660541362861102,0.303166876166578,0.65621765281744,0.121579613160459,1.43301259267704,-0.369183647210168,-0.925566628595171,0.318529929801324,-0.307025058799154,1.93762458398435,0.773000839565124,0.211127641654147,-0.920054223039502,-0.254870121762564,0.0805044378244977,-2.49691699322965,-0.182686346435519,-0.238385803666636,-0.893287203457156,-0.0908903797847283,0.305827823197871,2.23152190305028,0.237312889507162,-0.806505747053559
95.595,-0.662862272405274,0.303085484544102,0.645623508222582,0.113634085899726,1.47546924661435,-0.36092677812907,-0.928455624347293,0.302693427451925,-0.314348415467102,1.99918315753038,0.776658310212527,0.214181378483772,-0.91422465676604,-0.233395953598581,0.0542276919378841,-2.45309173320359,-0.166508927666853,-0.212963318203494,-0.885070054030144,-0.0460039331961297,0.288146674519317,2.20772285899959,0.270692169802101,-0.815644584670933
95.6,-0.647584828455608,0.293837260570857,0.640777350017125,0.104015891122212,1.51009242656897,-0.35060506953863,-0.929588918762758,0.265576812371689,-0.3319514715831,2.03602362278997,0.794376856713455,0.226399984653537,-0.93293633169368,-0.2139338203269,0.025130434591131,-2.43123759343391,-0.164599270962596,-0.192451265665357,-0.847431894672705,-0.0381516815147366,0.276833955116476,2.05950777154085,0.282591570060363,-0.779321269051051
95.605,-0.668788090487042,0.265816976724728,0.635780667525536,0.109764132065351,1.56204061610195,-0.326531479328725,-0.928354738521119,0.264091878684714,-0.350869196746407,2.12787977619485,0.79193079115008,0.229755709482477,-0.911322970865396,-0.202073156617138,-0.017253459606709,-2.41555099080128,-0.15794539881236,-0.178984955055414,-0.867165318744257,-0.0369598531239697,0.30880907438256,2.09780801345632,0.243500766997424,-0.835784678706156
95.61,-0.6900822398352,0.276877291585929,0.64902007913802,0.101992409118297,1.59993427748191,-0.301861007710098,-0.926215041419136,0.238168843793307,-0.356958450315959,2.21455742584702,0.799868468294631,0.233108233415419,-0.904987434984373,-0.171325389564158,-0.0473073020641482,-2.41607472501888,-0.150360036114346,-0.172315573325185,-0.866920838857566,-0.0259694467242265,0.317340552332494,2.125425961285,0.20876232600034,-0.851445596199072
95.615,-0.682353446256554,0.251001274258612,0.656564790800927,0.0830951621882557,1.64963746672117,-0.271969923995362,-0.93289215103519,0.20280980134713,-0.337902084487688,2.35243677871341,0.797942887139541,0.229485462897461,-0.926141103633621,-0.152250560979833,-0.0692335080179758,-2.47299037018428,-0.142995472572485,-0.168225701473394,-0.878504947470305,-0.0285163140626156,0.309956175385905,2.14458019901426,0.223941225817343,-0.87261103202268
95.62,-0.688848047255032,0.266261917321594,0.658859878318577,0.0548812812358909,1.7329661131065,-0.233608635160892,-0.95412206567802,0.171766460478768,-0.331583038427286,2.48858721005232,0.804026258622729,0.227620020508766,-0.952077314054775,-0.143250182179968,-0.0751004903663223,-2.55363047627141,-0.144946153547805,-0.172533592753493,-0.889893241580535,-0.0535795184080241,0.290128191236969,2.17126161578801,0.254793807211462,-0.882033427471459
95.625,-0.670440896001594,0.274231259094348,0.660247925425269,0.0219868347048759,1.82304166780781,-0.190023080676525,-1.0053725200614,0.172831646724397,-0.313042251948678,2.6679093201298,0.81402575806836,0.201110803910067,-1.01187195330208,-0.158265230497223,-0.0725446851635311,-2.66614148303298,-0.151295252379798,-0.176216606937065,-0.966271156686209,-0.0759119669409635,0.266898228527148,2.27605731119851,0.294991508749672,-0.880855752840086
95.63,-0.677172186930086,0.279328598108158,0.653569737402003,0.0121518480703245,1.92737024627042,-0.168881650847817,-1.05122755958805,0.173026228364289,-0.29932846339268,2.80739843357604,0.826607354789454,0.175467241270814,-1.07656728416217,-0.17558166196484,-0.0435325775637102,-2.81773613006223,-0.148604521408122,-0.169035282842215,-1.06847023445315,-0.10450356368361,0.244937106247157,2.33879432973711,0.318653457659635,-0.856657458746128
95.635,-0.644664234528643,0.344798962512842,0.695735920245117,-0.00227458711780357,2.05325790185984,-0.148656291542981,-1.11117003224967,0.185564686360204,-0.29006953389885,2.97536909937641,0.840063099131816,0.155963082020411,-1.13276701511166,-0.181947466144336,-0.00631695770271648,-2.95986699404056,-0.15064537740466,-0.124595317893431,-1.13140184774534,-0.146230536713126,0.214066152341337,2.32361063487306,0.312191824198222,-0.76039690521386
95.64,-0.691296426504156,0.277209514687031,0.661642945621735,-0.0259576935255042,2.18968946764704,-0.126905627630214,-1.15237506354743,0.182346946898377,-0.268965860838832,3.09961742224328,0.860521017094574,0.150653257966042,-1.14750129747019,-0.181297421255512,0.034629973387659,-3.11969037221173,-0.1321260377345,-0.0583129580613372,-1.20554208762877,-0.167478081343814,0.167180457276743,2.31679395265879,0.252769779681735,-0.715454929854569
95.645,-0.68755290622014,0.295922011000709,0.633122835643802,-0.0401879074762829,2.34635053390321,-0.104676878780044,-1.1879532718685,0.167984599553418,-0.257916116133146,3.22755100414057,0.89156381705235,0.147669471486252,-1.17952742882672,-0.168538813035989,0.0619551005909352,-3.16649297618259,-0.105101539717436,-0.0120773462386528,-1.24701418900167,-0.199794119493484,0.110873847609353,2.32494322830893,0.199896568880885,-0.680441043449307
95.65,-0.697976184792345,0.321374827577004,0.622951338563571,-0.0494852286026378,2.45884918576007,-0.109046232434084,-1.20798532777946,0.15988791688617,-0.236623737810969,3.36579147652692,0.927943232936378,0.137275351236689,-1.15965245229232,-0.139441005215523,0.0918132091483365,-3.19100862026757,-0.0684071455518073,0.0982638626849222,-1.2856225201862,-0.200283987071826,0.035725865993773,2.32100651323711,0.183632959525256,-0.659688810263757
95.655,-0.733035104301931,0.323106268126415,0.603375868755908,-0.0498221181187782,2.59559306426114,-0.156773502062697,-1.20939161987565,0.155395452960735,-0.208185333865574,3.48954520025982,0.956273710053909,0.131407919248321,-1.17181377446114,-0.114628374562008,0.110617791197657,-3.17355746267343,-0.0356850422982522,0.184767246770985,-1.31914306675026,-0.195721565772358,-0.0211008075057397,2.32157807422462,0.18175989457475,-0.677659103187137
95.66,-0.700034966968414,0.340262749733501,0.598670266297889,-0.0610557575447039,2.7195990915846,-0.205508611130703,-1.2032297842575,0.166662813210977,-0.181976274137218,3.5960931498473,1.01870674775568,0.139364630809308,-1.17148929216032,-0.108669697573484,0.134574304012275,-3.14506401541304,-0.00513217373343346,0.27151099594089,-1.31016583189477,-0.171635854752523,-0.0642792892678373,2.26699151226062,0.18500119589591,-0.671062947739412
95.665,-0.710579594352793,0.329014821826072,0.581674082476809,-0.0891772345969337,2.84186688743655,-0.24644544024297,-1.1713388197398,0.191357034757468,-0.172728319019735,3.64874671172538,1.0574738799153,0.149082736644342,-1.10543770551235,-0.0885580801011338,0.155630387346799,-3.07931673193244,0.0137110537465445,0.390146904817756,-1.32570026044698,-0.106552976981806,-0.0903967844362847,2.09139732678935,0.203545875590907,-0.625206123627539
95.67,-0.70567932065009,0.315996916955537,0.595518929832032,-0.0940619592558211,2.96518909991812,-0.273714179135773,-1.14045866677074,0.221812515525491,-0.172122326701205,3.68144617376324,1.12083552044732,0.159662337162069,-1.10541706379474,-0.0985164179387671,0.169152852464921,-3.00598657132633,0.0247523922441832,0.463793782543715,-1.25570618139296,-0.0906519736610426,-0.0897308015279816,1.99687680333884,0.202652383148073,-0.61323577757975
95.675,-0.695687267118994,0.307794730461714,0.603354463666777,-0.101314882246805,3.11417234590827,-0.290566604221137,-1.12239872014438,0.22338927003502,-0.149671221640344,3.64302544529643,1.18081888639589,0.156963973455902,-1.10334509026336,-0.126328055527835,0.193358805057078,-2.94127472546671,0.020206315804039,0.564127832482241,-1.24572431065326,-0.0508169615032369,-0.0737371220262682,1.92712539120373,0.248938809170294,-0.580992727524747
95.68,-0.711686067730251,0.290513113066507,0.597320268899185,-0.0659254977158826,3.26774742918158,-0.296512072565902,-1.11311288779945,0.21884899805013,-0.137096731672632,3.53044877386197,1.24282574075167,0.120710630446102,-1.08130091792243,-0.156508713801203,0.226671606448174,-2.87860162330522,0.00835282169486833,0.676233441219739,-1.21889689841296,-0.0545629485167571,-0.0453402754689176,1.88499345623298,0.341224114555048,-0.519688246538619
95.685,-0.721096471351331,0.284288225011852,0.581050722898415,-0.0424674091183559,3.41501586574543,-0.291694537618443,-1.13269112052766,0.208591487666659,-0.118604734881035,3.42392278422175,1.28273361353837,0.0937980952414877,-1.10481709138058,-0.201172472696052,0.250298272444092,-2.85576140002051,-0.0155033887321799,0.820652859358065,-1.2355254026286,-0.066051980945806,-0.0139005740536041,1.93018144530082,0.506259458581936,-0.48931467192406
95.69,-0.75123152689857,0.289081602969699,0.58769099412398,0.00235562679063273,3.58185470145368,-0.282254074925876,-1.16310239027421,0.207292097023957,-0.111853549008076,3.25528936233323,1.32841846850842,0.0445822122741585,-1.12263881127791,-0.249739647747135,0.272232046240642,-2.8075107098689,-0.0440954118994492,0.93431873604479,-1.26680585318383,-0.144551310843344,-0.00878075718825959,1.97625355512888,0.609812543227784,-0.465816062440482
95.695,-0.764650495154182,0.268197956160367,0.596387453401268,0.0439038689157157,3.74503564674096,-0.300324052371627,-1.19735733347688,0.213891589152775,-0.124476286781929,3.10690263801172,1.34488432670525,0.0145899863338323,-1.18950775822932,-0.292842955547971,0.289029443309423,-2.67489751730859,-0.0675119137369889,0.999046078894688,-1.33319400971101,-0.216104904745704,-0.0145308578932183,2.06808720409941,0.678633792882186,-0.480140640933278
95.7,-0.760825391593424,0.280830865301206,0.595397126616546,0.124126011232206,3.90949497674089,-0.312263632962575,-1.24245295302013,0.22438655758438,-0.161396305766829,2.8935455562595,1.37363301062884,-0.0315534005830337,-1.22990182190474,-0.340773728287394,0.294714741247916,-2.52445413311154,-0.0956053197646043,1.05742282529022,-1.4054041136149,-0.270599304337691,-0.0468586072688633,2.07394114181163,0.728683517188064,-0.468992777479687
95.705,-0.808835804396834,0.221767528241965,0.579440285835164,0.225480863192123,4.10126208362261,-0.31737889186726,-1.27724882266019,0.230571369925566,-0.191334108715423,2.63995019090498,1.39441828920971,-0.0716522953607026,-1.26175968686434,-0.414068986899585,0.287236985335885,-2.28468438164649,-0.11216885288256,1.07374477565133,-1.43240717737788,-0.35650003936539,-0.0736699597514845,1.98360334704907,0.751701173647436,-0.403775960680527
95.71,-0.824637618789355,0.224224972016382,0.56488844011674,0.339889589846385,4.25087811901539,-0.289846516450118,-1.28575790014335,0.218416854478954,-0.245830918054139,2.40167896619481,1.40294225209483,-0.107138975917545,-1.27758235013729,-0.4702027297911,0.279961580880134,-2.12896929800412,-0.122154824515959,1.13068419283315,-1.40063455433793,-0.416237815941044,-0.10353581941367,1.93837851539915,0.745363154192256,-0.3435441228433
95.715,-0.859638360850078,0.204450178040149,0.545872770181529,0.475403155405332,4.38666495969809,-0.270428094229374,-1.27597732140225,0.190207537550201,-0.295116249850784,2.12466332349734,1.4174340365989,-0.15228557539856,-1.2298703685808,-0.523236131218642,0.251320228515861,-1.95339748477318,-0.117548535602726,1.19698905659769,-1.35955405016358,-0.449623412417859,-0.135077543050124,1.95959973966487,0.694663529832854,-0.277126628156715
95.72,-0.865604080230245,0.236268438210433,0.523253143551372,0.625517294838813,4.50889560245057,-0.226265472359861,-1.25991207992242,0.167107107098395,-0.321986431789899,1.93529546789067,1.42226493601056,-0.178045343489965,-1.19400036601498,-0.556153286454187,0.2086589409915,-1.78852046223335,-0.121732089249416,1.26193773186166,-1.30197483240201,-0.444498473998202,-0.184028572569506,1.95847473197262,0.627503463273655,-0.216245289058279
95.725,-0.951787987791681,0.201447099008306,0.492883893390855,0.871151491415346,4.60889940189184,-0.145355250193654,-1.21857172881643,0.132047776759566,-0.36097370531351,1.74082889624601,1.4632449783144,-0.201391779084306,-1.18318252812345,-0.535856581326425,0.148180002822597,-1.52823037183981,-0.118362464684225,1.34728140520244,-1.2162114549665,-0.405286543385935,-0.232760564477001,1.86473093944616,0.56752481329612,-0.163114376182124
95.73,-1.03059996376936,0.209021796966112,0.453319797440063,1.25032342591455,4.70799154169548,-0.0471688567203935,-1.18308430645937,0.117233146473907,-0.404867142333106,1.62769201054058,1.51858526034964,-0.214548382471576,-1.14936245999831,-0.498148347826651,0.102988952538029,-1.26756336596318,-0.127041579612065,1.41350841714312,-1.16236731239989,-0.360887884281775,-0.26461880769095,1.76577397245476,0.529842626771501,-0.114214046179908
95.735,-1.10264510351043,0.300644623542765,0.406495373328315,1.58439338513297,4.79337455070928,0.0775347730006617,-1.1510412461712,0.116024990951036,-0.453706145942549,1.53941363655082,1.34416231898922,-0.236910931866049,-1.13217740517987,-0.489087426258303,0.0469807018628438,-0.982015782512484,-0.131242276631569,1.46098469816324,-1.12114069856096,-0.306963433317079,-0.276311600629856,1.66477495944607,0.494634710891412,-0.077881872850891
95.74,-1.28849939325218,0.0398678688453102,-0.0841639793980204,2.25648524072083,4.95327216558262,0.176038442041628,-1.12548856313786,0.119371811654827,-0.467880968774741,1.51049700734477,1.341595736619,-0.258688408843583,-1.13633245093115,-0.490760616381856,0.0021142209881901,-0.754590720239583,-0.13761822812295,1.49457126587772,-1.07749962722673,-0.242137575804655,-0.26339155624174,1.56478614653462,0.469445697871995,-0.0385747359136142
95.745,-0.990999957376583,0.81003133200541,0.134106791555478,3.09679656426017,5.36610034906613,0.433596885785959,-1.08088203698578,0.126935037947786,-0.542030789981838,1.48632157854214,1.3188002435352,-0.27276312892025,-1.12505052455924,-0.5032550089038,-0.0375903372155154,-0.656407943935785,-0.156700208134535,1.54718705433805,-1.08937678758273,-0.183290991286199,-0.220211206698686,1.46934873259726,0.431940978217988,-0.00265590474009514
95.75,-1.19347881263157,0.414513190010059,0.482585979070304,3.38664599378396,5.28502829885582,0.41646343206851,-1.02613839759389,0.224595811722927,-0.598770244631203,1.54987191247085,1.2821067461848,-0.275582141324076,-1.0949115984598,-0.50716680641077,-0.0936654904762245,-0.530580734320897,-0.181474365312986,1.58437360214944,-1.08076971553264,-0.119198383668316,-0.162034715944062,1.45141201789009,0.338348653038304,-0.000858160519562796
95.755,-1.13339719989463,0.48753973895202,0.507694128037044,3.53919795448409,5.1175755825379,0.227009885208243,-0.96228251307659,0.330472093554793,-0.582103663110574,1.78335288613968,1.23120272622217,-0.264496381078313,-1.0900328114535,-0.513849661941844,-0.157849342067281,-0.407677566752675,-0.193670410951977,1.60846464913286,-1.06410317765708,-0.0710568258798754,-0.123202986248077,1.47613252790803,0.256124066712063,0.0072629860748045
95.76,-1.04836563979758,0.610851975261748,0.510040061437397,3.45696455882632,4.93134932031966,0.0242797159576826,-0.936406828057859,0.424284325335632,-0.642507818582464,1.90077888542511,1.16861517911364,-0.191184312933255,-1.09514554190685,-0.5179751763413,-0.231424962661673,-0.259912966781607,-0.192843444714642,1.63627755898371,-1.0642143991971,-0.0367383365758397,-0.0905550297726901,1.52341915466909,0.194675561110815,-0.000275497238465018
95.765,-1.26380900249673,0.615196530863303,0.469487587157533,3.188475050099,4.62014328627586,-0.205995529641846,-0.896390439307391,0.463446578578065,-0.73251011884556,1.86750490594347,1.09185910501919,-0.0606923631571052,-1.08279431981592,-0.532244784077897,-0.291602367484224,-0.189860984218251,-0.193874118315157,1.63307811499525,-1.04290964483666,-0.0367084500541494,-0.0777064135880452,1.65183171234607,0.153530929908108,-0.0138504328719061
95.77,-1.36799321142653,0.553469516057045,0.463694152045648,2.77013429037171,4.2796709423591,-0.521444192685986,-0.818120201901951,0.477458220338154,-0.830016005198892,1.84920415419538,1.05895853973535,0.0140969791375612,-1.09103295328893,-0.537832034185241,-0.333404509695022,-0.201916906066687,-0.191220024592308,1.60478130232788,-1.00819182496236,-0.0482914903615387,-0.0786357150160885,1.77265214614659,0.171009213824523,-0.0107572710137428
95.775,-1.40831001527273,0.442360846909384,0.289144627144465,2.54239199883599,4.04867950871244,-0.837669842838212,-0.765534225373153,0.464606274238739,-0.858224831009384,1.91209956379971,1.05460119247437,0.0549690068000948,-1.09699787461606,-0.542782641099191,-0.363709740946772,-0.28067692781308,-0.191402671316358,1.59625361619303,-0.978916149752294,-0.0693009197117814,-0.0735721066522923,1.80437034509625,0.214073279059208,-0.00186275253272305
95.78,-1.28846984567776,0.493480523499965,0.158396720988706,2.59946139911966,3.86111794324672,-1.17932872628296,-0.744316900011913,0.451110141645376,-0.834732313194342,1.92243828829022,1.04740551574675,0.0974927216866836,-1.09820414824054,-0.540247494998583,-0.380288013822279,-0.381467613086839,-0.183195222120554,1.61033889629254,-0.954011873953126,-0.0839477296014738,-0.0683631459581205,1.73756784930504,0.25529226028944,0.0109281860601029
95.785,-1.16811643924993,0.584020219733029,0.0936904464817765,2.73571621046106,3.71925642497695,-1.33659376504446,-0.763858084203235,0.439091383381475,-0.816221331887385,1.82426504060343,1.03016341903631,0.163807075739447,-1.09745256681875,-0.541440168503227,-0.396709626159304,-0.516164708019854,-0.167522104202529,1.64462168926051,-0.935461837217573,-0.109216763555197,-0.0625235712131508,1.64354607452869,0.285196738522199,0.0713339204724062
95.79,-1.07768647455493,0.620554602352884,0.0593883385124027,2.9451724583421,3.57210777622941,-1.4520137005949,-0.786641590382863,0.454453369340476,-0.759165878606617,1.66684343548743,1.00324578217413,0.240531976348662,-1.09682611660104,-0.534569391405031,-0.416380312011083,-0.622389394945252,-0.153995258161801,1.66926682399039,-0.911095609470639,-0.126593579064645,-0.0627227494249734,1.54227459742213,0.318921874793433,0.120900089144758
95.795,-1.02560106670873,0.606978453647546,0.0174359660398505,3.13448147335144,3.43791145095986,-1.58124894380973,-0.803881452606514,0.485401150215683,-0.676359260520474,1.51575326524479,0.928243029705754,0.338668318428785,-1.09078820324993,-0.515193881803664,-0.4443510090324,-0.751585544683138,-0.13660055904617,1.69853510902243,-0.898044572252811,-0.13607508382444,-0.0552092688161144,1.44149309807111,0.375052094456152,0.156794502879765
95.8,-1.03591504021644,0.595903914961419,0.053678851319579,3.32421440907849,3.3060965124564,-1.67615054600347,-0.795427476140939,0.504161996705874,-0.62641708697931,1.37443117872138,0.819449279479843,0.455495060925406,-1.06712236696647,-0.47372866081939,-0.482389685378503,-0.924907888909503,-0.111152777658488,1.75080716084296,-0.881907568032871,-0.13948268026818,-0.0544223303689524,1.37440786047874,0.442553125203367,0.208013112181836
95.805,-1.07682639034884,0.585637709205308,0.0732668260284084,3.45286141626252,3.121241901368,-1.83021755253438,-0.74515537723109,0.500651419489772,-0.667082097004252,1.23383199523285,0.683123723571954,0.608288681726955,-1.04582159122292,-0.441298450486935,-0.508299626702075,-1.04743178326749,-0.0700989610114563,1.78845649452737,-0.883043741107688,-0.169812194533706,-0.0514451764418448,1.34094737292228,0.524914390746304,0.268514001204825
95.81,-1.09855994478635,0.55313890670117,0.0532949915105183,3.62527513752938,2.97410632635666,-1.93855693889735,-0.700026162767077,0.465911405572261,-0.70128456690495,1.17716535369668,0.607846848461804,0.704247144996742,-1.025847220153,-0.406884517353756,-0.52175629558119,-1.20702414664374,-0.0330802338523642,1.80382710061127,-0.887089569544502,-0.196987175607139,-0.0525376078994597,1.37998538333283,0.572882105184385,0.268842775404169
95.815,-1.12521721011315,0.48692975189742,-0.0480185946878974,3.93408085233889,2.77067636142089,-2.05408774682011,-0.653564958390286,0.37391348101022,-0.738240130756336,1.22259776268607,0.540043784277865,0.754044958037116,-1.00303043390498,-0.381413238846175,-0.522494264345719,-1.38944986491494,-0.00606029531875702,1.80477742855058,-0.901503483756218,-0.210930434122075,-0.0634768958418689,1.46416290503531,0.629741898438008,0.2432238473769
95.82,-1.1620425781173,0.409654955231712,-0.0761928245140417,4.33506939609922,2.64218149052675,-2.16668385617743,-0.627699717414849,0.305479061488501,-0.767610880575253,1.3184663359367,0.526829123497009,0.769963944699697,-0.98308868142444,-0.363512460505478,-0.510717535242224,-1.55823790894567,0.00749225262782779,1.78240650787992,-0.912184899409184,-0.217056294631037,-0.0846046235965977,1.49047603704488,0.662723596723602,0.240291232964804
95.825,-1.18824247797294,0.463123507174291,-0.0183141031732185,4.69567745644206,2.4232845186462,-2.22509084600237,-0.608133671192193,0.232192362344938,-0.78915412904934,1.48606962072808,0.53220026236922,0.766579082422967,-0.961376427959058,-0.354635355594155,-0.4966041930328,-1.73007607433167,0.0201037055879538,1.76151208779608,-0.936028818110696,-0.233148721624683,-0.102902432613488,1.48689336623895,0.690013079509969,0.240894268389882
95.83,-1.23128202178817,0.461028505271623,-0.0026747472228263,5.0868737778463,2.16360317158348,-2.30005836705831,-0.589201574416783,0.193977749206093,-0.835089901074781,1.76482421236178,0.565133197221286,0.777310829744885,-0.942987189605935,-0.349181349010583,-0.474162896692953,-1.91947261452008,0.0145609528708931,1.73534839366472,-0.943310600140948,-0.252347161649635,-0.115080435332308,1.49822031690508,0.708762508573498,0.216192747549256
95.835,-1.30141629021154,0.575980412818667,0.129536266493394,5.28158805733528,1.86818588370492,-2.34262154732359,-0.574900797227346,0.171546035376013,-0.866658884681345,2.04291531496478,0.600296569305702,0.795139522157661,-0.932879595497391,-0.347204112937488,-0.456358401619888,-2.05920976119724,0.00482303663730729,1.72295090520924,-0.949048727247271,-0.268584229017794,-0.123462250385569,1.55002086272983,0.70451902524854,0.163291422248181
95.84,-1.29340253331819,0.716931269441002,0.298696075660833,5.55004501151458,1.38373001404701,-2.34277965961044,-0.560982006428204,0.164957778687551,-0.8579420967626,2.45448110320329,0.626909941190665,0.823684267244847,-0.923423203206082,-0.346497525005221,-0.442354891078547,-2.20572146658786,-0.0115319223849504,1.70659591655517,-0.962009501271919,-0.276191882708274,-0.125457629156889,1.60273672111779,0.691693578994487,0.102345422380951
95.845,-1.29257922428152,0.717276288472542,0.371156243322778,5.55674620445992,1.11065039734461,-2.36547646116972,-0.549960083340436,0.17369847868234,-0.8386081886606,2.67402180421686,0.638935026991049,0.861352020616585,-0.915072136805134,-0.355999810904838,-0.437100094689095,-2.29579688804164,-0.0201694975924984,1.68931469008699,-0.962980392087565,-0.266163286268643,-0.125103502837459,1.57758065520364,0.664852122909062,0.0589311026242944
95.85,-1.30506748189963,0.644083406247991,0.537595444103338,5.62480872827632,0.527989620780662,-2.37779310050915,-0.554007666272767,0.208808071791197,-0.782059755323272,2.96290620784039,0.628717437234349,0.916963079857822,-0.915607774238691,-0.371632328737043,-0.429751493929453,-2.39433800698467,-0.0358933899030718,1.66445321415048,-0.960540954262324,-0.261795183277161,-0.118102666171205,1.51614560357141,0.624663406445946,-0.00346791950657434
95.855,-1.35552873975813,0.600065281979142,0.709611843735523,5.90997170755294,-0.063749378638237,-2.36232500362753,-0.557324770981221,0.267326723612682,-0.76007702247221,3.19908611544465,0.608567570335423,0.971262521243607,-0.911682493575464,-0.388297393466396,-0.427559037880055,-2.49397122556121,-0.0511498128454559,1.63774416386129,-0.949294615113435,-0.25378360183117,-0.106886987189421,1.47498572768367,0.582055438353979,-0.0522118079755635
95.86,-1.597630984504,0.263820674849157,1.43693024151624,6.80380077796167,-0.949303709309835,-2.24406358132352,-0.552864178155796,0.335821115935462,-0.589335790523347,3.47422604852266,0.560229856489922,1.06163808701263,-0.906605123164789,-0.421427403834788,-0.421072458108983,-2.58684853983963,-0.0639270615862457,1.60627989095491,-0.932271798956519,-0.255574048489589,-0.0913488549278822,1.46291459905568,0.533860272224167,-0.110811305377595
95.865,-1.57057338909725,-0.914109869434095,2.454931667851,9.593228043886,-2.89176988838063,-2.78807428443498,-0.512073776041268,0.444710097261477,-0.60238250284973,3.91700693366474,0.461765192674078,1.1443997197735,-0.89548503495069,-0.448678945752729,-0.408568746660415,-2.68678554674206,-0.0800869322982863,1.53703144098372,-0.932664184658557,-0.243272712386987,-0.0763266827177736,1.48689037184913,0.480081615480343,-0.176950134372967
95.87,-1.17158342277153,-0.723056031442991,2.2079536785571,10.8921335027118,-5.00004722894219,-3.63533574343803,-0.510578732839615,0.393159424018154,-0.665898377920301,3.77557540124626,0.387781079290549,1.29516951695202,-0.893113384997612,-0.451546400558437,-0.406571749372972,-2.72583789421366,-0.0853231051661051,1.51044736592362,-0.916497512307047,-0.222155572375545,-0.0698348377767345,1.51742128304993,0.449209554468018,-0.233233005311601
95.875,-1.29793544478214,0.50715224820074,1.30409448590383,10.2567455285384,-6.07783051803884,-3.49198974344005,-0.511588341980731,0.32211048414181,-0.24804835879343,3.82322212824007,0.203603180060257,1.36845395825002,-0.90645510890845,-0.467743400513794,-0.405944332903933,-2.8203834798306,-0.0921861178201557,1.48440181951246,-0.92013777458007,-0.198417429930307,-0.0590033090829101,1.52740968403719,0.432083889429875,-0.269804368326758
95.88,-1.51310247897469,1.07978739584067,0.608813130369977,9.03100050153492,-6.46450352450714,-2.73701023637725,-0.515978428928319,0.253380997195275,-0.197275175283574,4.09729312479539,0.11240017700475,1.35305904913262,-0.917267099464218,-0.473118073790346,-0.388713063744672,-2.91236915220465,-0.112628641864118,1.44125575745149,-0.909123924133642,-0.175369794152091,-0.0462691980523368,1.52507317670771,0.414628021078817,-0.306645608932408
95.885,-0.951281956985674,0.968144258729479,0.407351968727933,7.23630429437662,-6.75898414831708,-2.69597678759464,-0.531159953143436,0.171415073935318,-0.124929036713263,4.18277117717786,-0.030562886745366,1.43204969879387,-0.923265775323204,-0.470147121983806,-0.375242864826542,-2.88515990133526,-0.133182281956444,1.39761784294661,-0.90350951748912,-0.166953100995819,-0.0414218956578505,1.5468408663862,0.405087775769249,-0.343152419753936
95.89,-0.817571804848818,0.88192678584347,0.307126841091723,5.68782318415063,-6.82194252054986,-2.89521440579214,-0.532648970449548,0.121956955700998,-0.105644075187244,4.37010796383711,-0.1396688865657,1.50250847459613,-0.940148147525369,-0.46586154806868,-0.376265635196726,-2.7874673822395,-0.140614473030852,1.3795000915726,-0.899636852055405,-0.157646095407016,-0.0303090982893549,1.58940407121252,0.390073801217327,-0.374955273154246
95.895,-0.588099197085559,0.623080827932231,0.0516348621472895,4.52926794161842,-6.79062049394033,-2.92213739465125,-0.529783293036832,0.0779785416632654,-0.0828145232945462,4.45979783909134,-0.239664696439039,1.60035114647766,-0.953058893475504,-0.456825859007743,-0.372583375592872,-2.7527736260002,-0.152309585122929,1.39093275988048,-0.901106160658654,-0.149186506243717,-0.0294032037815965,1.62159674713651,0.37745255280598,-0.389577362607665
95.9,-0.370892384669222,0.400086280342547,-0.235755700616542,3.90293775208258,-6.53579381829108,-2.87613853464076,-0.524575260170529,0.0642801957412986,-0.0374083279090765,4.28796859589607,-0.352551857612851,1.74100141740423,-0.961023768091439,-0.442634929072361,-0.367889405301342,-2.78971440681723,-0.188805079707642,1.38526099091129,-0.901424356591972,-0.136010851813987,-0.0274932716391084,1.63892819331689,0.375480800867081,-0.378521027043375
95.905,-0.218707727908903,0.339051548326409,-0.454532593909647,3.67834379305194,-6.14454210087557,-2.69974731537426,-0.487594383414359,0.0222954119400008,-0.0266151474827445,3.9784169273962,-0.450925706632014,1.85071810110026,-0.966823108516931,-0.433200492155574,-0.359373733069274,-2.85226019649842,-0.224084855065507,1.36077220902186,-0.907010960152661,-0.134514198972271,-0.026512900240203,1.63059839282579,0.355108583896738,-0.361093576585676
95.91,-0.180180922487222,0.268855956915596,-0.598775493186906,3.56937464544117,-5.60544581473968,-2.41361823264875,-0.438212906001251,-0.0896241511013822,-0.0296089205497592,3.61014582030367,-0.558077239040321,1.90302310029358,-0.963753484241919,-0.433596360435771,-0.349291372951461,-2.91803593046065,-0.264478418454057,1.33536565604052,-0.915387777695941,-0.129584849687088,-0.0329468258855609,1.60964625518747,0.343068668212592,-0.343051814556044
95.915,-0.0999390513989684,0.163325001693033,-0.58242184867665,3.5565527091351,-5.01298261198661,-2.10473288624669,-0.419071944311554,-0.207847620682048,-0.0547116591346464,3.31241700828119,-0.67075362530402,1.87905092841884,-0.954139906161225,-0.437911713933614,-0.325714965735792,-2.9963142720583,-0.317241802097133,1.30968818841149,-0.920682281899358,-0.134660333219337,-0.0335337184743239,1.60356105178107,0.329866520794622,-0.330881333520787
95.92,-0.0408744228528152,0.145017736541334,-0.497260723965725,3.64310771677427,-4.41240424289623,-1.8414486852728,-0.423223315455501,-0.265462979124667,-0.105554045890158,3.19799099991607,-0.755093415486893,1.83768456147243,-0.939114207247166,-0.449873352823684,-0.297534070520552,-3.06331949246204,-0.373145191192703,1.27713711604868,-0.919603321140272,-0.134389238840742,-0.0408779038035703,1.58500747869702,0.331033383700014,-0.325369832045491
95.925,-0.0683543925641582,0.233468972776433,-0.41182442577459,3.70233631917253,-4.05638569669086,-1.65740616120868,-0.421141056523704,-0.275114905901836,-0.164080480340832,3.26101536735695,-0.846167317003422,1.80458970376435,-0.921423216060018,-0.466029798050006,-0.260307459851058,-3.12987259866617,-0.424447804162448,1.21611594884119,-0.930760180826293,-0.138793302810388,-0.0459267771311834,1.58277006892492,0.329631610062352,-0.321518182754517
95.93,-0.103268691736597,0.276733416115021,-0.366084869150918,3.74427376119562,-3.72823329965771,-1.46497693334412,-0.411783401518602,-0.257651893605501,-0.184571178464704,3.44661675830103,-0.903097911715522,1.78482489839313,-0.894760318229349,-0.483462560480126,-0.218526471868159,-3.16507059795333,-0.478771339728602,1.14334530406359,-0.93735858717961,-0.139638428245241,-0.0553444628854457,1.58128573417604,0.338797258271591,-0.314936084846056
95.935,-0.157893345158694,0.30693238732838,-0.261005846400118,3.75169861071581,-3.3601899134662,-1.22851534451823,-0.394577020806919,-0.239213501840948,-0.193900698144602,3.72854449017098,-0.97223987368433,1.7717228747635,-0.872131968763358,-0.495847113637852,-0.187048995847917,-3.13994651907182,-0.510904603150391,1.08344472719353,-0.939812591266389,-0.151930494718701,-0.063236429070546,1.56628879172636,0.352376459284016,-0.313128111786898
95.94,-0.208061783005632,0.29091386724033,-0.116982218124869,3.74841751908653,-3.08952214872804,-1.0318488746513,-0.384689625505717,-0.216564628759807,-0.209478452572873,3.98247899530034,-1.03793509065949,1.7706148325868,-0.845374407561018,-0.508928654670391,-0.155739609213551,-3.06218197408955,-0.536622092021666,0.989086582988691,-0.939393275904968,-0.168974598508434,-0.0709859340436773,1.551486148621,0.37047220220655,-0.314379934408077
95.945,-0.245262206396794,0.24241823858439,0.0502515001944758,3.77956707587985,-2.90580835671513,-0.840879437809795,-0.382885126570383,-0.206538269458245,-0.269307629583167,4.22438530857709,-1.11714501144179,1.7971173596592,-0.825456449641108,-0.510654077112906,-0.137872045609043,-2.95566245130979,-0.532880518042389,0.927837823204568,-0.944244508150551,-0.180021216621225,-0.0778451551639702,1.5587292178461,0.377952625437992,-0.321073022118918
95.95,-0.317322008481681,0.189969252014295,0.241410446782247,3.90954524795831,-2.78927901234711,-0.616578548376991,-0.381313031477004,-0.196336212044758,-0.308105328204579,4.3856028870897,-1.17567326489997,1.7982432352587,-0.803070510467516,-0.508924596867788,-0.125325493583559,-2.84236899463382,-0.516323903005294,0.849541693383145,-0.938931042496504,-0.195987990668542,-0.0819308938070052,1.54144055771433,0.388623631882887,-0.315516851777817
95.955,-0.419428422929061,0.17277883014648,0.42888223591077,4.10470499185251,-2.77680371109225,-0.371406374924492,-0.396576848967337,-0.177005230398414,-0.352983653212432,4.53648219838048,-1.22651339170445,1.80265610838085,-0.784103761433352,-0.506260234568317,-0.111831307699604,-2.74402380530315,-0.491203693288156,0.778516616002808,-0.939363116340742,-0.215127835279598,-0.0794727056086514,1.51253082130765,0.393333030280409,-0.314837622202197
95.96,-0.507005918944242,0.177427261807017,0.559147390382173,4.29468455254113,-2.8625466795971,-0.159807909633725,-0.416362056039793,-0.152834366295483,-0.392229426783585,4.62207172760948,-1.2789514831077,1.83225099209422,-0.771402695780262,-0.500211902039147,-0.102296191235122,-2.66367039756592,-0.460226799425472,0.723513695411045,-0.940570813242411,-0.233925635742288,-0.0780758058445481,1.48990250684748,0.393692899826006,-0.307424439445458
95.965,-0.560077871793316,0.181721540415603,0.626193003120211,4.44567117284688,-3.05973253791509,0.0792960009110854,-0.443537383336274,-0.131642372808849,-0.389367049642175,4.59673499683867,-1.33731549764843,1.90213391847343,-0.76122459731988,-0.486875838664295,-0.0947840034042111,-2.59943663742846,-0.427564300139455,0.691670427999077,-0.941414759987791,-0.243803980488978,-0.0545605216420666,1.46154522424372,0.399137822650265,-0.2935256558584
95.97,-0.576298690191959,0.170457032585628,0.649373151097419,4.45549231958575,-3.18335991222113,0.252326077710098,-0.470474769216965,-0.102108638804692,-0.383329659950034,4.47754399766155,-1.39768029499183,1.97008791423383,-0.756269789871622,-0.46930376789298,-0.0855937840319021,-2.54608477092181,-0.38874549102668,0.671782942771335,-0.9517166702687,-0.254414652399484,-0.0321077236465843,1.44448402566631,0.405963829285145,-0.271636945962924
95.975,-0.593304293934089,0.103103792288956,0.643595740704216,4.35557889384571,-3.3059320866317,0.441862143837803,-0.508320833221679,-0.0650296544093599,-0.373111513750854,4.27242646271896,-1.46469563736782,2.04272058107425,-0.757178721293876,-0.453655294584247,-0.0769837675575349,-2.51490343794716,-0.362957320099119,0.663171807339194,-0.953865654651282,-0.263378988580161,-0.018407025982343,1.4464123388768,0.411306894055904,-0.252552340447403
95.98,-0.595047640910596,0.0284889034749202,0.632372786301491,4.20379932377056,-3.38442517399469,0.573769951719269,-0.543347063944873,-0.0246202672422793,-0.352020506594742,4.01080842798213,-1.522786612394,2.11949441935737,-0.764613510407313,-0.430605163995284,-0.0624139010284162,-2.48659853971408,-0.340953079839379,0.653401663908528,-0.950011391198463,-0.276869908411361,-0.00709259991108526,1.45251363878637,0.416551783662482,-0.233454402207787
95.985,-0.597225498681976,-0.084150242449776,0.597146540240323,4.04007029434237,-3.42624272768308,0.650370811475836,-0.579174600018665,-0.0220542192403255,-0.354873558105725,3.54017818909149,-1.5890110498859,2.21948451798314,-0.775339155266084,-0.417883257532505,-0.0490325527637222,-2.47498509518392,-0.326315376366718,0.653536435067911,-0.949494836470001,-0.278513753665164,0.00491411495522277,1.46438676550169,0.429425344205741,-0.22282447156947
95.99,-0.568385401882167,-0.207248364956061,0.549070436130817,3.90846872584652,-3.43867301940918,0.706704587586943,-0.600411209615794,-0.0476265709277108,-0.348806514738202,3.10018153369143,-1.64626589851964,2.27919808348566,-0.789075436399089,-0.404351335038417,-0.0407675400502497,-2.45254138672396,-0.310080183503541,0.640493754080649,-0.95983733947291,-0.281024577116297,0.0173423691449191,1.48203877757013,0.451581274622425,-0.202134169766407
95.995,-0.522345547514768,-0.319920725698902,0.485296404459448,3.85567561788198,-3.42074615729883,0.719863463351306,-0.616892427142481,-0.119514888250913,-0.346258428887522,2.5203246136859,-1.7052347944818,2.32791423207261,-0.806322566878824,-0.392413028054676,-0.0362160782665997,-2.42452327856357,-0.288702705809825,0.621883557445045,-0.964822984792887,-0.282273891076037,0.0242045064372903,1.51410100112577,0.479350308768805,-0.187807774436241
96,-0.476603029219279,-0.426151028964107,0.430768409772656,3.86224815301455,-3.3344742588882,0.730243415942487,-0.621600658847107,-0.187261606111528,-0.346492713192342,2.00346032119457,-1.76623054099487,2.33870816230774,-0.823681940690733,-0.382598296741204,-0.0315547443519122,-2.37775468291697,-0.266743839862083,0.59319497123742,-0.984641125816202,-0.276731393728804,0.0318518421816784,1.5526388031359,0.508648547952912,-0.175488315495432
96.005,-0.461672883172126,-0.455324620630258,0.405308988467525,3.88178896428467,-3.239588312021,0.731358366132423,-0.63802400324809,-0.245674358829983,-0.360818087323378,1.5760698545523,-1.82227785975145,2.32081297922609,-0.831446129807321,-0.37887243267631,-0.0279609197306978,-2.32033531677641,-0.23771755268696,0.555577820599305,-0.99409654462087,-0.280404507924338,0.0390732966427875,1.56993979143549,0.521753506473172,-0.166367000360181
96.01,-0.486995909961928,-0.44345625059324,0.396437158420192,3.85410387594652,-3.13976681898001,0.724639308216549,-0.646965341503356,-0.304605794511456,-0.381958073561992,1.13528715073031,-1.87480306007311,2.29475349106131,-0.839096476618333,-0.373096002291865,-0.0205647883305564,-2.2157385572658,-0.205718646228869,0.497340315104959,-1.00483009291703,-0.280158966270742,0.0346408527035288,1.59824507580332,0.506925397989971,-0.148061079687772
96.015,-0.472294466357501,-0.415125130627076,0.429167912563627,3.72928101866659,-3.00394426021402,0.739605053014913,-0.65069213530808,-0.372973415154175,-0.407970683062746,0.739665161798911,-1.92805318903578,2.24780477495669,-0.836740043728636,-0.369779605777947,-0.0139435996391606,-2.12091620969342,-0.171829712506013,0.436023107544234,-1.00985434917695,-0.271775330707111,0.0287684133542161,1.60887432501692,0.478121277433731,-0.130774661006557
96.02,-0.640291883070163,-0.466029579244787,0.438933421891304,3.64388818778756,-2.88099810979019,0.788070340154065,-0.659672223307355,-0.424537586991142,-0.437924011230917,0.492863846163526,-1.97401163172733,2.18837923084964,-0.830805510251399,-0.367867351240582,-0.00631766327277054,-1.98470058628626,-0.125734917209688,0.333988792837086,-1.01515612850614,-0.255433372118866,0.0187629798524941,1.61377976761487,0.43229508432517,-0.113721051855548
96.025,-0.654191352639931,-0.437188030992263,0.49646114171773,3.52338911148532,-2.74752396700664,0.764304370210908,-0.679077054693259,-0.469544321888901,-0.477465058987691,0.331450283624682,-2.03017421065854,2.09163998763571,-0.826854651378879,-0.367033387963416,-0.00105550676751908,-1.86779966875032,-0.0885904309760674,0.250245557473517,-1.01843906264954,-0.239832677818223,0.00459657343443763,1.61579910182776,0.38929369297768,-0.100023244379026
96.03,-0.705714519789435,-0.471649472925141,0.56865609763778,3.48612637405354,-2.6395622291567,0.810890379515364,-0.694889350756988,-0.516498795391668,-0.531858069213369,0.264499680891472,-2.07844540276732,2.02348367852408,-0.816281146307577,-0.364118150270026,0.00153561676902891,-1.74683902918729,-0.0441241229563284,0.151584272627047,-1.01985119123335,-0.218240856068356,-0.00677508622368839,1.60848236805854,0.347578090549377,-0.0891522449803187
96.035,-0.755611999102509,-0.501498610119891,0.647403480515787,3.51426894378272,-2.56475360845235,0.876525750240059,-0.710756396817901,-0.556893509512599,-0.565581772301482,0.302936764569478,-2.11462561304526,1.92525073577197,-0.810659484808107,-0.359564472236531,-0.000352366658778274,-1.65924028852068,-0.00969502704963161,0.059313969902178,-1.02527337014098,-0.205590121234619,-0.00928789013629055,1.5934067245003,0.329081344174979,-0.0798240376101709
96.04,-0.793531076334211,-0.500562099518106,0.688579134443735,3.54786131242898,-2.5541660785675,0.926113264131547,-0.725468280812027,-0.58147681673184,-0.573443628966186,0.440343709043943,-2.14516710917177,1.83506126752447,-0.809663572266598,-0.358450763653152,0.0040340340157439,-1.61293696433999,0.0135435993171318,-0.00712558880688775,-1.02709422155203,-0.192831369862847,-0.014217168166091,1.5632374374313,0.308096626074544,-0.0668466349144611
96.045,-0.827914958217764,-0.483797220649458,0.732827665892724,3.53658151026335,-2.54733657536788,0.942117789523645,-0.748527584554939,-0.581650494628827,-0.568385056065523,0.664762369679316,-2.17734046679616,1.7771427010932,-0.812002992779316,-0.346676550606306,0.00152488072248568,-1.55372364068269,0.0305830053262493,-0.0709129848852964,-1.02264687622272,-0.18951167107766,-0.0148928907686342,1.53461703032177,0.292452733204347,-0.0606437286390204
96.05,-0.846816285476791,-0.461744085003991,0.763162942542677,3.46600329238802,-2.53472297799924,0.92168740834224,-0.776058248809847,-0.569040688236389,-0.573184925592134,0.979125134257809,-2.2096657054525,1.7223572153441,-0.811872953484648,-0.333331015023745,0.00310520731597691,-1.49374560719399,0.0420560408070849,-0.101764365935367,-1.01393273774128,-0.186372126186424,-0.0155172271675455,1.50690301823401,0.276271160513983,-0.05609041746875
96.055,-0.891351910183455,-0.457802030356415,0.77121228360236,3.34791728999948,-2.56347791854899,0.83068279337281,-0.797807704807193,-0.53925034105689,-0.585070791681501,1.32260438118259,-2.22597046723806,1.6890143017072,-0.816742282221325,-0.315476829052068,0.000233650146266654,-1.38944664074912,0.05952735475076,-0.111728571815039,-1.00986647543605,-0.19806180892298,-0.0136092434103781,1.48735978616422,0.267546711489799,-0.0473804729792681
96.06,-0.924437165538387,-0.485269300726848,0.73975492349627,3.28786471577312,-2.58701248246355,0.745380964173344,-0.820209711479994,-0.523494365783511,-0.590073932193418,1.60856214817975,-2.23524324662371,1.66156208363943,-0.822829013627157,-0.296926581181623,-0.00573722389661074,-1.25925940685488,0.0812190487137697,-0.105934387085045,-0.999754499723857,-0.199084517975398,-0.0133909469959905,1.4744151684307,0.270035387229151,-0.0343373099619764
96.065,-0.934351224451177,-0.453215618728364,0.720677935656079,3.19140117855684,-2.57231589390262,0.653065790832,-0.84723767502312,-0.50685461245041,-0.556281635889959,1.92580787795101,-2.23186279089314,1.64396186632345,-0.830399503287596,-0.282436779311725,-0.00884081105231294,-1.09997098312914,0.116570332597225,-0.0836595544516997,-1.00032278034348,-0.207335073787998,-0.0117579125541251,1.48194583438934,0.295228802912813,-0.0198212430635155
96.07,-0.970251475757191,-0.386609865203477,0.690835413641074,3.07032815680987,-2.56663908497727,0.544933328239869,-0.859296494510571,-0.504154162197309,-0.62705104470218,2.13064455047083,-2.21422176328775,1.63385367021904,-0.840358382403408,-0.272323795096996,-0.0163671783753763,-0.864080625264099,0.163541866827168,-0.0687462299203971,-0.994057891211349,-0.212219306903275,-0.0108492821611624,1.50709684208436,0.310148255909505,0.0032370898887864
96.075,-1.00978621281422,-0.347007392439655,0.654660922233116,2.99485690312183,-2.54360822677611,0.500127336749044,-0.877088253772318,-0.511232898704096,-0.663235795929084,2.39050803721003,-2.18173028173107,1.62135417242743,-0.852883787362655,-0.268679887005481,-0.0205868362554868,-0.697216867558507,0.198410096067003,-0.0632110032075567,-0.991305848368214,-0.214916023892319,-0.0103422606972786,1.53781854459642,0.324126470642984,0.019248283820054
96.08,-1.0137425419719,-0.326315586026182,0.564334119201954,2.93197896608075,-2.48184906813409,0.505458977372664,-0.901039073466953,-0.503220444962154,-0.676659151717821,2.54492207550348,-2.15871551351855,1.61310832534954,-0.8708015464361,-0.26156391249518,-0.0242267085501943,-0.53380454719441,0.243688885923591,-0.067432010118714,-0.983639884797496,-0.209015126559313,-0.0133823107617725,1.57617460368783,0.340050817090693,0.0421384561748707
96.085,-0.994076263800921,-0.331831908080816,0.504562682724733,2.89787451338088,-2.374104511585,0.531038391831914,-0.907160661530775,-0.481766821701341,-0.687078584194933,2.73329820169743,-2.11947074185889,1.58437573474063,-0.881989759304669,-0.255238319847803,-0.0254083890372611,-0.449145739766231,0.265998574909222,-0.0879990937123655,-0.981470289709445,-0.208169496913833,-0.0158710584419314,1.62096852576771,0.339473676403492,0.0622253577114557
96.09,-0.980735731237314,-0.352184270509363,0.449327112163869,2.8668662572719,-2.18994183323615,0.563953576371076,-0.921342430378103,-0.459860172914818,-0.693082269110161,2.8037893645897,-2.08271941271061,1.56598976525156,-0.900913572752505,-0.245850715684312,-0.0189474075006825,-0.388613978965511,0.280936620149135,-0.118606472853481,-0.975278937171016,-0.206120399097906,-0.0152409371700539,1.63472288766251,0.335720282898363,0.0774376628389423
96.095,-1.00763606915122,-0.350565101815447,0.449959693837761,2.86296711646009,-2.02940687101832,0.575309983864325,-0.925089743015065,-0.403654058034507,-0.711683738000105,2.82273745536804,-2.03328997764093,1.53396139992681,-0.914683261627081,-0.23429121710048,-0.012588170833527,-0.366135163614075,0.289751563104657,-0.139101250553768,-0.976877576833074,-0.203380391569779,-0.0158666113693093,1.62933096640457,0.305725654331124,0.0899959541342247
96.1,-1.05767278007496,-0.312567702833481,0.465113904848223,2.86988927124934,-1.84943353011591,0.60261141414781,-0.917408117314602,-0.355586884011967,-0.72965619953067,2.79523649846291,-1.98341922440169,1.49921945210872,-0.930904087961752,-0.21965667642688,-0.0053008058002587,-0.358007194135667,0.28637448024603,-0.165854211599716,-0.980610554099735,-0.200638359530052,-0.0218281079212562,1.60532444977689,0.286770792126297,0.0996703679975988
96.105,-1.04507098587431,-0.294594083724687,0.426786629416377,2.87363803599088,-1.70385541461822,0.630922687214279,-0.907222295434562,-0.326864096821002,-0.711831810755235,2.66239702408674,-1.92300032806855,1.46471533854478,-0.946240449718022,-0.210299367720489,0.00132476817809906,-0.382736460553619,0.273879295563605,-0.174338578097855,-0.980410756570325,-0.189624909531182,-0.020403862008093,1.53992747845273,0.241132952243464,0.106074899435043
96.11,-0.966894661136039,-0.321596919669505,0.344568899229504,2.86716110723503,-1.54264403924754,0.649331061365555,-0.895390850765022,-0.312537740217043,-0.676402923743251,2.43295020078155,-1.86462604290309,1.41814682676471,-0.960409246840303,-0.199627359633963,0.00733859034440273,-0.429418222579467,0.26681767750288,-0.170908161161318,-0.985181300054456,-0.182290722260565,-0.0139971760276091,1.48963131960795,0.204863886332007,0.107117610878205
96.115,-0.890704383917358,-0.340038761928906,0.289865771374238,2.81517417255514,-1.29754462414624,0.660014336275834,-0.885756600076991,-0.303951070852195,-0.650747019134629,2.18293166277274,-1.81340668880152,1.36417924781149,-0.971213912821176,-0.188719969529053,0.00882049064142869,-0.499303007135712,0.25539521970795,-0.164958499098236,-0.987233136024409,-0.177175816142916,-0.00944487914472854,1.43619631804204,0.167543585867791,0.109346596221038
96.12,-0.844726697409444,-0.323957497564987,0.249381562539971,2.69464926254863,-1.07713996030774,0.632080309976932,-0.89777794552754,-0.28413771798577,-0.617114939574458,1.79223689965548,-1.75277715379586,1.27694955311596,-0.979120697486368,-0.176473776455246,0.00745516939496084,-0.563576525403558,0.24260590014058,-0.15234338196066,-0.988596321320192,-0.16585746708753,-0.00981479809785355,1.39504797818828,0.142160984956095,0.109739989042282
96.125,-0.794243096434485,-0.27480516549364,0.231764369811153,2.42446090560628,-0.778500828734486,0.550114294773326,-0.895932436365091,-0.259633410573884,-0.574909906745484,1.48868547733055,-1.71615255097415,1.22449952000174,-0.978145444931937,-0.160836488086105,0.00222556973272024,-0.670834859576205,0.22271811646602,-0.153598550988104,-0.980240501058538,-0.157336151492265,-0.00468180410213924,1.36370957257161,0.112613374462045,0.119513541460037
96.13,-0.776747755043733,-0.255900668020767,0.273970869792541,2.15546963592888,-0.538504104088655,0.466074346248426,-0.902937932449496,-0.23987125327605,-0.55859977765103,1.13483125217324,-1.67717525756322,1.17151211592383,-0.972665400156391,-0.133329593781134,0.00380287325063019,-0.748501471183977,0.210489354617032,-0.173260567462018,-0.979583494328136,-0.152034410072032,-0.00675703115678389,1.33847611691547,0.111594766378403,0.123516684368303
96.135,-0.793352542296316,-0.232806131678522,0.400390126610646,1.87020195954491,-0.27639382425004,0.374464247502942,-0.909848685084225,-0.223406361238157,-0.564593941843335,0.791799239018469,-1.64855027113451,1.11846281363669,-0.963581251460683,-0.0902362223072369,0.00959839819944147,-0.850114683549223,0.193297243457154,-0.192837512481844,-0.972833557876486,-0.147482299108129,-0.0041106578383976,1.30982855172932,0.113243720206005,0.130936057761646
96.14,-0.815666941761392,-0.203172781975682,0.473908008119696,1.72521597881309,-0.123507950691274,0.314118119810943,-0.91249775500991,-0.208675835928628,-0.550859409483084,0.516301807155723,-1.63563097215354,1.06838908431261,-0.946676762754954,-0.0383018293751358,0.0152850705323407,-0.931723637654771,0.177816471274392,-0.207845790150975,-0.962641800900904,-0.143443131680884,-0.00188356677840426,1.29941554170804,0.106133269436063,0.145281728392155
96.145,-0.866479979310135,0.0254141906581097,0.548569674694352,1.53463059535776,-0.0105173168371336,0.245995835085341,-0.905254802168271,-0.208472867095431,-0.564907573582884,0.248657868759489,-1.6175997951419,1.01567666115005,-0.93089740920186,0.00910012967819128,0.00987202430565745,-1.01673992804212,0.168860134134169,-0.224610106752357,-0.954424980240283,-0.137759647085409,-0.00743615174811701,1.27628725543333,0.103464550910208,0.160294337621582
96.15,-1.15422064052821,0.692447617383728,1.07738548772866,-0.748818687606295,0.131917923260853,0.0304580641041486,-0.906292325084854,-0.174858598588512,-0.850907572519686,0.0880523519444082,-1.58942999978022,0.971287545787794,-0.907154349960651,0.0698327894615042,0.00552270092278434,-1.11099637815632,0.161330045131793,-0.254600719133566,-0.951968091810222,-0.132313612106238,-0.00505251942654083,1.26054435621714,0.103441671376703,0.170425943190577
96.155,-2.54335778398146,-1.32993592604431,2.73691773659293,-5.51603157325391,-0.526644728700313,-0.512729068609794,-0.873327388187365,0.0186214590292011,-1.40159506662915,0.360455194841955,-1.52302900020762,0.979124930976034,-0.898882268320624,0.135895414398192,5.64045065939534e-05,-1.14987097260949,0.153637436570337,-0.277121537127488,-0.949317362979472,-0.132936974652627,-0.00512000276458016,1.24046492424053,0.0905911002456609,0.174936163754911
96.16,-3.33764879316155,-5.01666698514174,1.38484505477676,-5.0883870714455,-2.68826846299127,-1.95431736360239,-0.770271585571133,0.106996114996139,-1.39529078750578,0.439621963289839,-1.42919194995742,1.01647301602063,-0.896407646826227,0.218318655408814,-0.00906254790568416,-1.18091513460251,0.129593252564844,-0.270313673770158,-0.946637896149284,-0.140189803086368,-0.00688749831968896,1.23323952859408,0.0793818304341063,0.178990166126919
96.165,-2.24699372635078,-2.5706437929846,0.280476953508049,0.0546964393179941,-2.82613122848884,-2.69739629549348,-0.781121453709248,-0.359474402839242,-1.39865912842514,-0.384135923414551,-1.21036058486984,0.914760558201486,-0.905394263100731,0.297452458974106,-0.0190714558068209,-1.21339790764605,0.115926962886195,-0.258564612025699,-0.939506547705871,-0.153093885165222,0.000735792488793553,1.2197282044336,0.0633636170109162,0.179602418722025
96.17,-1.48642974191107,0.550766481427732,-0.00578954535455276,1.90764049152917,-2.651664718911,-2.14193915827188,-0.95850722957843,-0.655295265072938,-1.23060770968405,-1.61229138041993,-0.984021235106399,0.836806098075895,-0.926657663000027,0.3456614094318,-0.0335462818720397,-1.23846844515776,0.106794290604029,-0.235380017426308,-0.944319903668446,-0.157261324412695,-0.00284141397944073,1.20504566539246,0.0543470322823505,0.18112316520598
96.175,-1.30905955806589,1.38080542154882,0.0092553665599127,0.946499046309547,-2.17286033554571,-1.17689665540613,-1.19435232308873,-0.883074796444267,-0.850434086418644,-1.5132144292274,-0.820804947178662,0.471712912420801,-0.938625865681954,0.343661297568333,-0.0499102578499689,-1.23803556793808,0.108078236981495,-0.250291252619588,-0.947537569822192,-0.162308656058429,-0.00598945354216804,1.18729280141727,0.0496729491532373,0.182640085874377
96.18,-0.961424934977137,0.545238230456922,0.853715927542861,0.499910073458356,-1.90850952683573,-0.694229944737362,-1.409843691713,-0.977233821603679,-0.55833242399973,-0.0134465864345482,-0.756480928000884,-0.0159707496240557,-0.93820911209048,0.28536753894081,-0.0586709885485805,-1.27729430922762,0.0997302268459277,-0.360510776818475,-0.955778049765949,-0.17020103139826,-0.00314547090236024,1.17497316851431,0.0603455986234749,0.186390456580484
96.185,-0.504401776324391,0.0649334821310983,1.21284023637626,0.359705429059863,-1.86473960769365,-0.829882835700215,-1.46350963335576,-0.677585556187685,-0.224018499615584,1.17598019069476,-0.745158929233538,0.0486018648656175,-0.952364782775613,0.197676340266435,-0.050818167663769,-1.40215149339717,0.0491075712392002,-0.563931548623765,-0.96182031504846,-0.180387346639562,-0.00997726415603412,1.1664104454266,0.073100498146147,0.194636863398988
96.19,-0.166480213067446,-0.00480747451148658,1.31294150835519,0.5173098091191,-1.85653172964971,-0.858062116454347,-1.27815149132635,-0.34789288635874,0.0456487053541304,1.45517478617777,-0.752254940073002,0.46571338223761,-0.983176249316232,0.0858405261755949,-0.0352405192172203,-1.69657709381352,-0.0104135121563334,-0.775186576815359,-0.973632066179888,-0.179761898722846,-0.014160335776378,1.15265851878697,0.0857979003851236,0.206806979744083
96.195,0.02472219294844,0.218391143565107,1.27495844912112,0.23659869414522,-1.7839636884831,-0.572323628279208,-1.04634441748063,-0.333033884856553,0.104631014529881,1.08577356736534,-0.812114382867618,0.542492547960667,-1.01061694868983,-0.041694014961842,-0.0222363934811033,-2.10836535791273,-0.0892013172698519,-0.960675573880208,-0.98997845388003,-0.174820842989843,-0.0218362523127048,1.13001467436964,0.0959964009354978,0.216311063439967
96.2,-0.0425321780414201,0.441959610018021,1.18916165024397,-0.0598327101600043,-1.74564815451936,-0.280793641148532,-0.785717046720129,-0.488513547038258,-0.00603902930802136,0.514997009365656,-0.865396286075603,0.205170857918916,-1.02609976549854,-0.167781581878111,-0.0222014957533703,-2.58395061124076,-0.153709992166185,-1.15277537456348,-1.00840710696199,-0.168224770466359,-0.0266572889350279,1.10657721147261,0.100499284128211,0.224328684898198
96.205,-0.521808494663406,0.147980271636422,0.886358401329031,0.0906827738818958,-1.75404239016099,0.138328833568368,-0.711762187180325,-0.540968997782146,-0.141470152986716,0.455205515786862,-0.931461776465545,0.0619365275321202,-1.02591067580848,-0.278264154507918,-0.0465231501261241,-3.08279279441138,-0.194505081964293,-1.41305879186879,-1.01232658565376,-0.155693477644063,-0.027771573202199,1.08293718988197,0.103087639466963,0.227258053842895
96.21,-0.797296483979731,-0.106359780447881,0.743698715630466,0.360404954824949,-1.7417368139494,0.288554184707473,-0.647841879235046,-0.62097485403732,-0.366578909459814,0.789477896464369,-0.989841421141735,0.021286493247639,-1.03343244731311,-0.330998092380083,-0.0778624413315371,-3.30062800423743,-0.19962637463098,-1.58202070013935,-1.02160576897896,-0.151514360154064,-0.0307028932723017,1.04786592373726,0.0951807891754138,0.227748462450623
96.215,-0.955386092337655,-0.0954704978395338,0.673183476129274,0.475107855480096,-1.64745464446188,0.321130820356573,-0.64365761662311,-0.655158576948182,-0.462240302296647,1.33235537598956,-0.99837132186851,0.0649750224850705,-1.03663663461866,-0.36364475696269,-0.12533658115983,-3.30912105314419,-0.189126708520249,-1.70636070207524,-1.04103305583615,-0.144781477146673,-0.0330015720202091,1.01465399331545,0.0818409585435543,0.222938566188072
96.22,-0.891025997082141,-0.0193259779580082,0.734827056690268,0.561546371188211,-1.5242651408646,0.366999861117988,-0.740108992647808,-0.582520744889062,-0.437162064913981,2.03488973131173,-0.975824275601408,0.0638851055378949,-1.04525176055549,-0.380516961595354,-0.17411826204263,-3.10214008003372,-0.17478951381849,-1.73163662959596,-1.05276110286858,-0.138602685452562,-0.0354858346334678,0.981552425275154,0.078539437855313,0.204784611592275
96.225,-0.647095839685031,0.00186454491298589,0.816662589327109,0.599589619801206,-1.40561318382853,0.418616046237177,-0.90202642852746,-0.425984292229016,-0.327385950994569,2.18656362186743,-0.931416950846847,0.0234252707195553,-1.02997228039843,-0.391905762369999,-0.205739276460852,-2.73537564440404,-0.169710070312942,-1.67616645306824,-1.05430464960155,-0.124528005204437,-0.0496162706156982,0.939950249569192,0.0762837526446988,0.188339659349034
96.23,-0.496735124001804,0.0887113343429933,0.843624772885262,0.621273727532221,-1.37520534909723,0.498815844235809,-1.09673148089923,-0.172898430103595,-0.222343134245712,1.90903765126689,-0.917409258810281,-0.00296072803739799,-1.01953506330319,-0.377384140302236,-0.223951105741225,-2.25133380313972,-0.169613736968272,-1.5508110787606,-1.06043293945414,-0.111842449136884,-0.062505117338028,0.898642573656928,0.0844819663983322,0.163428429524856
96.235,-0.549115559517117,0.145600791021013,0.825943933891701,0.609780186329734,-1.33709743413427,0.573810055316017,-1.23365147804338,0.0685074313426162,-0.155791228286774,1.35020148714263,-0.921242828051524,0.00327528523584603,-1.01041913618361,-0.330202407532274,-0.214220140486657,-1.86603471227023,-0.165655103941595,-1.42868835527141,-1.06682461241851,-0.104759015846742,-0.0660064513121792,0.876587874055122,0.091686986531662,0.145109272609018
96.24,-0.535683001374862,0.216769351988157,0.813342457786103,0.489159860473741,-1.27550573655028,0.625735605273138,-1.26050349184202,0.184608623648946,-0.124674704788311,0.776104708774727,-0.944159218728614,0.047112064798916,-1.00087795012728,-0.237426799158484,-0.167472819535342,-1.4959284006384,-0.151565219196594,-1.31410315005705,-1.05830669252132,-0.0975219023824539,-0.0755764569548771,0.865611926652603,0.0979761182264115,0.140342352690148
96.245,-0.54586611767195,0.207149716176627,0.803708989633746,0.449183604572628,-1.23595685024825,0.650280314291026,-1.2185277952722,0.192333901475989,-0.12009600978045,0.0207297498423922,-0.955386561287775,0.101681412572965,-1.00572208557427,-0.152984244913086,-0.123220132116602,-1.2856803112272,-0.112621300332616,-1.25280889273133,-1.05750317269363,-0.0867221215591125,-0.0796333416533983,0.860303043276192,0.089195336690225,0.135628519202946
96.25,-0.58077561088544,0.204698883441,0.792983641258436,0.352506686951202,-1.16904545068564,0.664916616872224,-1.16253832505227,0.13722802094201,-0.141379663342276,-0.564057255931169,-0.954538614399794,0.118931306380916,-1.02477675648817,-0.0799590709840458,-0.0799737437971745,-1.11766340182435,-0.0497899533223513,-1.2042092776242,-1.04670886663892,-0.0751414973065935,-0.0814587601026408,0.840478005575231,0.0702588812422494,0.13661727309227
96.255,-0.59022731870844,0.214292636513708,0.784275901801345,0.27395912367453,-1.10772491014997,0.683480797350243,-1.13502248205704,0.0742755950566664,-0.190576154228643,-1.16128502228389,-0.935613295423582,0.0925712228673026,-1.03650542538671,-0.025376316942948,-0.0462809342921472,-0.947101302592252,0.0352789638684289,-1.14911065015407,-1.04760048443037,-0.0668423334443176,-0.0759533151632299,0.817215168972303,0.0321268051287958,0.13161887401226
96.26,-0.610489282488812,0.21543930849755,0.771695218367713,0.229938357303534,-1.05302471848484,0.671650802517634,-1.13943141906056,0.0506027184349724,-0.213286230040952,-1.56360173176654,-0.910537487406489,0.043311929500267,-1.05936098156832,-0.00284022892064093,-0.0217955814186541,-0.819238359950617,0.121135298290017,-1.10258053469703,-1.03466040278936,-0.0647178556075015,-0.0749054969194645,0.781789506339764,-0.0103062599414617,0.12274363039707
96.265,-0.613600955580796,0.248723636720359,0.767164515362987,0.15316240460539,-0.993909239140215,0.64382627031304,-1.15094456750602,0.0539030436971634,-0.198704716912236,-1.83411618123766,-0.879638560173639,0.0162617174511123,-1.07720667851688,0.00344515368423653,-0.000695268426086754,-0.663416479747051,0.226438374354851,-1.0757055763595,-1.02724846573914,-0.0576287377837,-0.0650029868758799,0.759196271364522,-0.048431974863596,0.117961891024058
96.27,-0.572706890088558,0.273525292194079,0.775493434293362,0.0676788683445513,-0.931267632370512,0.633652355199371,-1.15629829050982,0.0333918112710842,-0.174378746537415,-2.02239514048415,-0.847890018483058,0.00168473749482942,-1.10071646243987,0.00152711128043025,0.0203229656666399,-0.553321442653754,0.286017863069713,-1.07850370952039,-1.01923343072741,-0.0477936473674756,-0.060908533008323,0.727550684093936,-0.0952714162674659,0.105106958940329
96.275,-0.536384751792558,0.294607990351054,0.778868534770316,-0.019362652075831,-0.886936968704138,0.637023462655925,-1.12086443437438,-0.00807368128509595,-0.12777312615457,-2.15434751131422,-0.814285076982913,0.00326480959704735,-1.11322314158982,-0.00626297631744505,0.0407506906354979,-0.470978449546485,0.332139605381546,-1.1285734214544,-1.01142819911013,-0.0431549521184829,-0.0536776495148315,0.697425281252546,-0.126266214613144,0.0877211472231742
96.28,-0.535208521435978,0.324001313747151,0.773519628386322,-0.107880282828625,-0.834427063342849,0.620932852168197,-1.0770349921221,-0.0420607451380669,-0.101576250050729,-2.20316480113408,-0.801192042381007,0.0174101303540704,-1.1099422448203,-0.0248469661511351,0.0577838821860204,-0.422786421063298,0.362228760141544,-1.18722816113316,-1.01145729474963,-0.0456051663287007,-0.0405662291354081,0.658437656536179,-0.153337635512224,0.0771422986125412
96.285,-0.545645323620479,0.34116645213681,0.755635933437651,-0.16130741366069,-0.803117456834221,0.602376068732527,-1.03293622666557,-0.0598578281013102,-0.0816243886015384,-2.15499283325593,-0.814171417938284,0.0253313222060112,-1.09821724723481,-0.0327536136829752,0.0736550891270555,-0.41888122841428,0.383682581539544,-1.24452966983678,-1.01024324368554,-0.0444099936569974,-0.0231527653948755,0.614254097776167,-0.168732575634976,0.066327153933382
96.29,-0.542793719328121,0.343222908572137,0.743364425827488,-0.197696428768906,-0.752672572376588,0.592737161086266,-0.981345192251656,-0.0719912459883577,-0.0917260070581049,-1.97260089218886,-0.82069993019104,0.0244175914567404,-1.0727285998919,-0.042531699743616,0.0878974682919872,-0.411274894833782,0.403355999950835,-1.31002130142887,-1.01173130816606,-0.0528084784573171,-0.0127941730465292,0.543349841662749,-0.191746485938823,0.0622744160464792
96.295,-0.544411414481711,0.343154562242028,0.738191991792577,-0.223005072682362,-0.709175752233278,0.582663199406197,-0.967759798472214,-0.0649953859001589,-0.103470973175224,-1.73438145619404,-0.826071240709975,0.00137466035437017,-1.0474444472841,-0.0392219896610714,0.0916721225290731,-0.379958907290107,0.412530477978147,-1.37720688457505,-1.0075764491107,-0.0583562910981014,-0.000391034386240691,0.498029186258023,-0.190594635545529,0.060872208327055
96.3,-0.542011064159646,0.335087837451488,0.766047058625307,-0.245692368097216,-0.674047137670823,0.581898611081603,-1.00253924804346,-0.047019398559437,-0.105973322467223,-1.34012393077796,-0.809383984212894,-0.0364734890989691,-1.02477975951236,-0.0361808970768907,0.0912748884533275,-0.305311083097189,0.40250858572516,-1.41228234951907,-1.00252492490493,-0.0692753250410714,0.0153717118120935,0.464196386592427,-0.189030269697702,0.0714705836591934
96.305,-0.529948221133084,0.322759795391853,0.752604026102426,-0.248247054455766,-0.638939952287389,0.56336331446016,-1.04514272652796,-0.0257402900554179,-0.100572379430135,-0.994699167439836,-0.788935899734497,-0.0502975092212685,-0.999940042260519,-0.0295010151001379,0.0809017902570784,-0.161702218910096,0.378848349639486,-1.4403271413715,-0.999426206106195,-0.073535956886628,0.0232948257676648,0.444182614046774,-0.178337917707575,0.0855379646332338
96.31,-0.528012439972915,0.345914348794701,0.750174291969602,-0.245564267039299,-0.606741363058249,0.539989872980336,-1.07978895916383,0.0145850811621588,-0.0985368935826757,-0.600178678969852,-0.782900306152083,-0.0539587020408372,-0.991227006549509,-0.0208281171727116,0.0621743970656149,-0.02963416709656,0.348778653794219,-1.448550701514,-1.00009499070792,-0.0826536228254162,0.0197803587422159,0.44979635564302,-0.169671624218306,0.0946852124532741
96.315,-0.521970618265831,0.358360468527338,0.749420280676272,-0.231397398670157,-0.580072358764477,0.496389462016228,-1.09917886800773,0.0527483956329498,-0.0847092097669195,-0.296130994416538,-0.77311458805788,-0.0495055409705378,-0.987720510270198,-0.00803916290818915,0.0320322041915839,0.140800794503404,0.326047363648325,-1.42271961378718,-0.993526747857618,-0.0910940148176247,0.00826898103479515,0.453941632941453,-0.155898029413843,0.103269625610538
96.32,-0.512222364634938,0.38236368703233,0.768427144444534,-0.224226025383843,-0.566057933857652,0.458901831551877,-1.09930071603722,0.114392289021371,-0.0755164968423044,0.036963157629523,-0.785323073277853,-0.0459574197257166,-1.00704454879744,-0.00767488311187087,0.0109782442377778,0.276227071630969,0.299941232248909,-1.39225009025307,-0.98676661750973,-0.0858050490169443,-0.00260474342307119,0.437510855341196,-0.137406224767542,0.101494893120189
96.325,-0.491406214571756,0.354626401368659,0.76363365719655,-0.197419146021618,-0.549003114559504,0.396803253831625,-1.09134175447481,0.150701138363182,-0.0635608945530936,0.212338079941547,-0.793538914580602,-0.0286285449825325,-1.02557262361493,-0.00780842620609858,-0.0139001021523751,0.388842164744334,0.28588863400291,-1.34883860819399,-0.983048300920618,-0.0846429363193437,-0.0181104682238637,0.422865192998915,-0.136231504074257,0.0951240671310678
96.33,-0.494634400232128,0.354003260062091,0.769623118434191,-0.173771696898584,-0.544478714466095,0.339726395638195,-1.07892022009639,0.175658297067045,-0.061637999123357,0.332915980039609,-0.798097170603997,0.00221270122981208,-1.03496320054623,-0.00559780573428338,-0.0461660249394643,0.497283486491271,0.284721998638202,-1.27736602725641,-0.974465892821055,-0.0877558210825913,-0.0453183037537313,0.397715443866212,-0.126993252111635,0.0792125638583924
96.335,-0.495354730155781,0.353254891407551,0.766542051545423,-0.148127434731524,-0.554915225438134,0.268067309501769,-1.05903196275009,0.187619846319045,-0.0596452290953041,0.368035758952013,-0.799940709126811,0.0409509841633828,-1.035835034511,0.00449163602008821,-0.0732158024861235,0.535779103462145,0.303834155027315,-1.2087444529902,-0.97094547665798,-0.0944379356892568,-0.0631807400074518,0.372727671262794,-0.120899879898184,0.0627874583765071
96.34,-0.494326936132282,0.348374181565713,0.776070841398233,-0.136699781228677,-0.552896872895793,0.207594055783562,-1.03893743970902,0.189925501988213,-0.0543764202698675,0.345369665941804,-0.810811982134757,0.0686053625511934,-1.03279950679867,0.0102392147539095,-0.10007227183855,0.511735856828283,0.33671334993194,-1.13363411503111,-0.969304337050948,-0.104376365049691,-0.0786148882068996,0.340748396959262,-0.112560126352815,0.0425921748791198
