Header,foot_Accel_X,foot_Accel_Y,foot_Accel_Z,foot_Gyro_X,foot_Gyro_Y,foot_Gyro_Z,shank_Accel_X,shank_Accel_Y,shank_Accel_Z,shank_Gyro_X,shank_Gyro_Y,shank_Gyro_Z,thigh_Accel_X,thigh_Accel_Y,thigh_Accel_Z,thigh_Gyro_X,thigh_Gyro_Y,thigh_Gyro_Z,trunk_Accel_X,trunk_Accel_Y,trunk_Accel_Z,trunk_Gyro_X,trunk_Gyro_Y,trunk_Gyro_Z
0,5.70509207576407,-4.40411551412797,-1.17383558599295,0.000408130706162526,-0.00714067077772895,-0.0044987621538325,0.944392734825897,0.437951067662354,-1.78196075222723,0.0051100862691903,0.00327211252838446,-0.000128812416321245,-1.49058668132261,-2.00422907529986,-0.64433823492177,0.00950774684775641,-0.00287575851289475,0.013711055089472,-9.33493446873217,-5.30809503463738,-0.56754317590736,0.0283892628641255,0.00897484380655276,0.0138739469480514
0.005,5.69982196870944,-4.40014486836895,-1.17208373312451,0.000278124890677162,-0.00733682132364962,-0.00455249304334322,0.942729605071463,0.437646379301086,-1.78055210792121,0.00499929172443133,0.00346301123940973,-0.000137985165197372,-1.49010667319021,-2.00278440872353,-0.643771590421228,0.00949824122451057,-0.00296785001734633,0.0140962643643105,-9.3277176939016,-5.30358395076323,-0.566963349087388,0.0287017354989607,0.00896047518488939,0.0141160289308084
0.01,5.69455186165482,-4.39617422260997,-1.17033188025607,-2.87435621745226e-05,-0.0077179399486333,-0.00462086048808426,0.941066475317484,0.437341690939832,-1.77914346361521,0.00468716209969423,0.00386796950433082,-0.000161047234087958,-1.48962666505804,-2.00133974214725,-0.643204945920687,0.00937709198246627,-0.00315426770822719,0.0148497551422624,-9.32050091907081,-5.29907286688908,-0.566383522267387,0.0291466495171043,0.00884317958068158,0.0145457550344308
0.015,5.68928175460019,-4.39220357685099,-1.16858002738741,-0.000420841590932216,-0.00807267235939609,-0.00461923782232114,0.939403345563278,0.437037002578577,-1.77773481930916,0.0042049717242678,0.00430568170541797,-0.00019061312979313,-1.48914665692587,-1.99989507557092,-0.642638301420144,0.0090589279067887,-0.00333951008126578,0.0155546648446619,-9.31328414424024,-5.29456178301493,-0.565803695447414,0.0292155414663933,0.00854818943339492,0.0148484334121432
0.02,5.68401164754556,-4.38823293109198,-1.16682817451897,-0.000879433492137471,-0.00838712520616391,-0.00456386820791157,0.937740215809299,0.436732314217323,-1.77632617500313,0.00357748672176109,0.00475091145781845,-0.000222227371684209,-1.48866664879347,-1.99845040899464,-0.642071656919603,0.00856381662063813,-0.00351282819847779,0.0161857335183447,-9.30606736940922,-5.29005069914078,-0.565223868627442,0.0288941286979691,0.00807424176032588,0.0149936846835168
0.025,5.67874154049093,-4.38426228533299,-1.16507632165053,-0.0013849837647819,-0.00864500479731721,-0.00447151689589608,0.936077086055093,0.436427625856055,-1.77491753069708,0.00283525397357962,0.00518435437306748,-0.000253818639142813,-1.4881866406613,-1.99700574241831,-0.64150501241906,0.00792180701492315,-0.00366880091406049,0.0167311937859943,-9.29885059457865,-5.28553961526663,-0.564644041807469,0.0282065155599564,0.0074377356067206,0.0149719434793394
0.03,5.6734714334363,-4.38029163957401,-1.16332446878187,-0.00192119321568377,-0.00883777147258012,-0.00435631467691847,0.934413956300659,0.436122937494787,-1.77350888639108,0.00200953508360772,0.00559352465824657,-0.000286127955207281,-1.4877066325289,-1.99556107584198,-0.640938367918517,0.00716734941972781,-0.00380768347831563,0.0171921340362743,-9.29163381974786,-5.28102853139245,-0.564064214987496,0.0272092826791212,0.00666914266738872,0.0147969615551494
0.035,5.66820132638168,-4.376320993815,-1.16157261591343,-0.00247706861015874,-0.00896093566363867,-0.00422155357265169,0.93275082654668,0.435818249133533,-1.77210024208503,0.00112298823869343,0.00596837899381563,-0.000322297954652895,-1.48722662439673,-1.99411640926564,-0.640371723417974,0.00632661975923527,-0.0039327526402709,0.0175722147708518,-9.28441704491729,-5.2765174475183,-0.563484388167524,0.0259595570322293,0.00580199804532205,0.014491166439138
0.04,5.66293121932705,-4.37235034805605,-1.15982076304499,-0.00304601851167913,-0.00900716529879755,-0.00405925236254824,0.931087696792474,0.435513560772264,-1.77069159777901,0.000187379867443407,0.00629990214924506,-0.000366741749400145,-1.48674661626455,-1.99267174268937,-0.639805078917433,0.0054136757429155,-0.00404819308328876,0.0178729962644236,-9.2772002700865,-5.27200636364415,-0.562904561347551,0.0244981989172218,0.00486642144662257,0.0140736966816776
0.045,5.65766111227248,-4.36837970229703,-1.15806891017655,-0.00362524045731599,-0.00896659602663837,-0.00385666908332984,0.929424567038495,0.43520887241101,-1.76928295347298,-0.000792723662048969,0.0065851413670223,-0.000424486811545663,-1.48626660813193,-1.99122707611303,-0.639238434416891,0.00443604152029268,-0.00416008198192461,0.0181009690889386,-9.26998349525593,-5.26749527977,-0.562324734527579,0.0228616862290498,0.00389165603804267,0.013563439158302
0.05,5.65239100521779,-4.36440905653805,-1.15631705730789,-0.00421230856383236,-0.00882645353217713,-0.00359718379168993,0.927761437284062,0.434904184049742,-1.76787430916696,-0.00181607838261081,0.00682313100060412,-0.000500070012352452,-1.48578659999976,-1.98978240953676,-0.638671789916348,0.00339775040126226,-0.00427424417921285,0.018263325844195,-9.26276672042536,-5.26298419589583,-0.561744907707578,0.0210811481561186,0.00290633746971236,0.0129766475286947
0.055,5.64712089816322,-4.36043841077907,-1.15456520443945,-0.00479869528779943,-0.00856900377485992,-0.00325861401086793,0.926098307530083,0.434599495688488,-1.76646566486093,-0.00288011451895878,0.00700158637842273,-0.000595434011998556,-1.48530659186758,-1.98833774296043,-0.638105145415807,0.00229986636092339,-0.00439010336431419,0.0183507309725996,-9.25554994559457,-5.25847311202168,-0.561165080887605,0.0191619688296349,0.0019326244794687,0.0123136417021188
0.06,5.64185079110854,-4.35646776502008,-1.15281335157101,-0.00536886334362066,-0.00818034680563929,-0.00282541560668808,0.924435177775877,0.43429480732722,-1.76505702055488,-0.00397324347261959,0.00709985996999435,-0.000708917462837995,-1.48482658373518,-1.98689307638415,-0.637538500915266,0.00114940278691069,-0.00450062319770546,0.0183411290498479,-9.24833317076377,-5.25396202814753,-0.560585254067632,0.0170942799670763,0.000986076830756188,0.0115619228067842
0.065,5.63658068405397,-4.35249711926107,-1.15106149870212,-0.00590465036136567,-0.00766574832417756,-0.00230789528275849,0.922772048021898,0.433990118965966,-1.76364837624885,-0.00506742738522481,0.00710594880123611,-0.000835620845154464,-1.48434657560301,-1.98544840980782,-0.636971856414723,-2.72579233810679e-05,-0.00459805920606654,0.0182224861285797,-9.24111639593298,-5.24945094427338,-0.56000542724766,0.0148907318186762,8.24553329916236e-05,0.0107152010330202
0.07,5.63131057699928,-4.34852647350209,-1.14930964583368,-0.00638779399158735,-0.00705104617982645,-0.00174083615172842,0.921108918267464,0.433685430604697,-1.76223973194283,-0.00612098932472597,0.0070195628652694,-0.000968259206836087,-1.48386656747061,-1.98400374323154,-0.63640521191418,-0.0011858510778021,-0.00467597714708811,0.01799806474357,-9.23389962110241,-5.24493986039923,-0.559425600427687,0.0125933626593618,-0.000760304323551814,0.00977955884320936
0.075,5.62604046994471,-4.34455582774311,-1.14755779296524,-0.00680506033836645,-0.00637197922528717,-0.00116398614016409,0.919445788513258,0.433380742243443,-1.7608310876368,-0.00709525934748448,0.00684583507195532,-0.00109984637254318,-1.48338655933844,-1.98255907665521,-0.635838567413638,-0.00228342470418042,-0.00472994278993015,0.0176784251773422,-9.22668284627161,-5.24042877652508,-0.558845773607715,0.0102515405929542,-0.00152671769026178,0.00877024553505125
0.08,5.62077036289003,-4.34058518198412,-1.14580594009658,-0.0071571001276511,-0.00566906668376131,-0.000610409681351718,0.917782658759279,0.433076053882175,-1.75942244333078,-0.00797035795588418,0.00659719597345539,-0.00122733072635195,-1.48290655120604,-1.98111441007893,-0.635271922913097,-0.00329442961326786,-0.00476141911639298,0.0172826740132346,-9.21946607144105,-5.23591769265093,-0.558265946787742,0.00791350133818572,-0.00220689988346003,0.00771615742694084
0.085,5.61550025583546,-4.33661453622511,-1.14405408722814,-0.00745630027618013,-0.00498683070173024,-0.000105003432716632,0.916119529005073,0.432771365520921,-1.75801379902472,-0.00874272331395065,0.00628935757415825,-0.00135172242753658,-1.48242654307387,-1.9796697435026,-0.634705278412554,-0.00420913131670813,-0.00477682970074123,0.0168340890287467,-9.21224929661025,-5.23140660877678,-0.557686119967713,0.00562561948418194,-0.00279569229803763,0.00665793066893206
0.09,5.61023014878083,-4.33264389046616,-1.1423022343597,-0.00771412761350828,-0.00436865455276323,0.000335531246780694,0.914456399250867,0.432466677159653,-1.75660515471873,-0.00941125196040928,0.00592786984191268,-0.0014749203159149,-1.4819465349417,-1.97822507692632,-0.634138633912011,-0.00502291260195696,-0.00478072150645944,0.0163446844453793,-9.20503252177969,-5.22689552490263,-0.55710629314774,0.00342307750182807,-0.00329097812641242,0.00563294841055019
0.095,5.6049600417262,-4.32867324470715,-1.14055038149127,-0.00793762115290061,-0.00385002056705339,0.00069560006751207,0.91279326949666,0.432161988798399,-1.75519651041267,-0.00997212844932753,0.00551108421373059,-0.00159790984777084,-1.48146652680907,-1.97678041034999,-0.633571989411468,-0.00573076822901459,-0.0047744833081626,0.0158168080895967,-9.19781574694889,-5.22238444102845,-0.556526466327767,0.00132822785098161,-0.00369304578309258,0.00466802850536817
0.1,5.59968993467157,-4.32470259894816,-1.1387985286226,-0.00813655926782457,-0.00345505945486291,0.000949247794076935,0.911130139742681,0.43185730043713,-1.75378786610665,-0.0104237818847785,0.00504803815175147,-0.00172125729505344,-1.4809865186769,-1.97533574377366,-0.633005344910927,-0.00632841100072201,-0.00476135871956748,0.0152613833808871,-9.19059897211832,-5.2178733571543,-0.555946639507795,-0.000639309398214383,-0.00400446180626164,0.00378476770443685
0.105,5.59441982761695,-4.32073195318918,-1.13704667575416,-0.0083262300908114,-0.00319632759568576,0.00106328707469219,0.909467009988475,0.431552612075876,-1.75237922180062,-0.0107710979768571,0.00456155706787979,-0.00184605372037216,-1.48050651054473,-1.97389107719738,-0.632438700410384,-0.00681587905041031,-0.00474817322928017,0.0147012013476625,-9.1833821972873,-5.21336227328015,-0.555366812687822,-0.00246026302832805,-0.00422935507314504,0.00300299159573848
0.11,5.58914972056232,-4.31676130743017,-1.13529482288573,-0.00852213230321952,-0.00307657020111644,0.00101430445111189,0.907803880234042,0.431247923714622,-1.7509705774946,-0.0110243236384382,0.00407268786400711,-0.00197450694007471,-1.48002650241233,-1.9724464106211,-0.631872055909843,-0.00719987496211055,-0.00474197749239022,0.0141550605934698,-9.17616542245673,-5.208851189406,-0.55478698586785,-0.00412325141783417,-0.00437212785002614,0.00233809431863809
0.115,5.58387961350769,-4.31279066167119,-1.13354297001706,-0.00873348170691606,-0.00309143504167917,0.000798659063786865,0.906140750480063,0.430943235353354,-1.74956193318855,-0.0111935893101379,0.00358738534492296,-0.00210975022185576,-1.47954649428016,-1.97100174404477,-0.631305411409302,-0.00749071678336325,-0.00474670298252122,0.0136252354926921,-9.16894864762617,-5.20434010553186,-0.554207159047877,-0.00562685987848258,-0.0044367753364293,0.00179835580364033
0.12,5.57860950645306,-4.3088200159122,-1.13179111714862,-0.00896154883246476,-0.00322843137323954,0.000433849140754629,0.904477620725856,0.430638546992085,-1.74815328888252,-0.0112871809480702,0.00309649703717743,-0.00225556593850195,-1.47906648614776,-1.96955707746844,-0.63073876690876,-0.00770019359596102,-0.00476309336151398,0.0130985410002122,-9.16173187279537,-5.19982902165768,-0.553627332227876,-0.00697665544267744,-0.00442786867046575,0.00138482680723139
0.125,5.57333939939844,-4.30484937015319,-1.13003926428019,-0.0092020158891967,-0.0034620391208424,-3.91875480045194e-05,0.902814490971878,0.430333858630831,-1.74674464457649,-0.0113161291524572,0.00258239025204425,-0.002416723261129,-1.47858647801559,-1.96811241089216,-0.630172122408217,-0.00784485149634222,-0.00479069015931096,0.0125530706700996,-9.1545150979648,-5.19531793778354,-0.553047505407903,-0.00818425784040291,-0.00435228687850504,0.00109237380516594
0.13,5.56806929234381,-4.30087872439421,-1.12828741141152,-0.00944536757944476,-0.00375578211783523,-0.000562171816427586,0.901151361217444,0.430029170269577,-1.74533600027047,-0.0112922751909931,0.00202305945564,-0.00259826551756099,-1.47810646988341,-1.96666774431583,-0.629605477907674,-0.00794291401637096,-0.00482826844661461,0.0119628952271507,-9.14729832313401,-5.19080685390939,-0.552467678587931,-0.00926254604610583,-0.00421935956314069,0.000911023854191573
0.135,5.56279918528918,-4.29690807863523,-1.12653555854308,-0.00967815345682104,-0.00407416856839536,-0.00108479939493158,0.899488231463465,0.429724481908309,-1.74392735596444,-0.0112196814905744,0.00139967212125856,-0.00280311169174726,-1.47762646175102,-1.96522307773955,-0.629038833407133,-0.0080032926091445,-0.00487365118281672,0.0113070805396648,-9.14008154830344,-5.18629577003524,-0.551887851767958,-0.0102177700140333,-0.00403955646190659,0.000828344619651433
0.14,5.55752907823455,-4.29293743287624,-1.12478370567464,-0.00988953403476359,-0.00439229608013343,-0.00159009441068598,0.897825101709259,0.429419793547055,-1.74251871165839,-0.0110936864712367,0.000710273630998047,-0.00303043402009907,-1.47714645361862,-1.96377841116322,-0.62847218890659,-0.00802146903524484,-0.00492563077151432,0.0105840276145181,-9.13286477347265,-5.18178468616108,-0.551308024947986,-0.0110482486055986,-0.00382355897412847,0.00083240240084369
0.145,5.55225897117992,-4.28896678711723,-1.12303185280621,-0.0100747750620749,-0.00469436920885132,-0.00208828894018297,0.89616197195528,0.429115105185787,-1.74111006735237,-0.0109079831553893,-2.8161202958368e-05,-0.00327669005387803,-1.47666644548622,-1.96233374458694,-0.627905544406048,-0.00798658394238604,-0.00498535150766016,0.00981293057187355,-9.12564799864185,-5.17727360228693,-0.550728198128013,-0.011748366308696,-0.00358151897731215,0.000912542307584634
0.15,5.5469888641253,-4.28499614135825,-1.12127999993754,-0.0102317203897973,-0.00496546569940785,-0.002585940541966,0.894498842200846,0.428810416824518,-1.73970142304634,-0.0106613791889301,-0.000792628852439514,-0.00353808152704815,-1.47618643735404,-1.96088907801061,-0.627338899905505,-0.00789161708303046,-0.00505526547938473,0.00901961520885405,-9.11843122381106,-5.17276251841277,-0.55014837130804,-0.0123119577492991,-0.00332209535660432,0.0010577922763238
0.155,5.54171875707067,-4.28102549559927,-1.1195281470691,-0.010357998557783,-0.00518527760492554,-0.00306559672057898,0.89283571244664,0.428505728463264,-1.73829277874032,-0.0103618006251598,-0.0015629049108084,-0.00381209324901724,-1.47570642922187,-1.95944441143433,-0.626772255404964,-0.00773993246692222,-0.00513816066930707,0.00822618287354209,-9.11121444898049,-5.16825143453863,-0.549568544488039,-0.0127348771342549,-0.00305235940659067,0.00125584594774733
0.16,5.53644865001604,-4.27705484984028,-1.11777629420067,-0.0104504283626516,-0.00532744554069782,-0.00348544171868361,0.891172582692661,0.428201040101996,-1.73688413443426,-0.0100257139910889,-0.00232170906270523,-0.00409740124538898,-1.47522642108947,-1.957999744858,-0.626205610904421,-0.00754477521258584,-0.0052369999901119,0.00745066450201181,-9.1039976741497,-5.16374035066448,-0.548988717668067,-0.0130144794114066,-0.00277901335362831,0.00149275263748719
0.165,5.53117854296141,-4.2730842040813,-1.116024441332,-0.0105030766373144,-0.0053653068631435,-0.0037912350579031,0.889509452938455,0.427896351740742,-1.73547549012827,-0.00967036617461829,-0.00305578353332119,-0.00439275757482313,-1.4747464129573,-1.95655507828172,-0.62563896640388,-0.00732083652750956,-0.00535393884014552,0.00670782644522727,-9.09678089931913,-5.15922926679031,-0.548408890848094,-0.0131450296750543,-0.00250912786343374,0.00175297141391853
0.17,5.52590843590679,-4.26911355832229,-1.11427258846356,-0.0105103362811159,-0.00528440787314485,-0.00394509938499418,0.887846323184476,0.427591663379474,-1.73406684582224,-0.00930628627898011,-0.00375823587593721,-0.0046961863353574,-1.4742664048249,-1.95511041170539,-0.625072321903337,-0.00707675464327194,-0.00548911814023753,0.00600749164722815,-9.08956412448833,-5.15471818291617,-0.547829064028122,-0.0131234741527153,-0.00224764189313489,0.00202458376505168
0.175,5.52063832885221,-4.26514291256331,-1.11252073559513,-0.0104763119049528,-0.00509419392752555,-0.00395728668279996,0.886183193430043,0.42728697501822,-1.73265820151619,-0.00893796826230518,-0.00442768518642338,-0.00500513854230886,-1.47378639669273,-1.95366574512906,-0.624505677402794,-0.00681623513695331,-0.0056406997601104,0.00535356274922231,-9.08234734965777,-5.15020709904202,-0.547249237208149,-0.0129669076071576,-0.00199340328816444,0.00230755674430063
0.18,5.51536822179753,-4.26117226680432,-1.11076888272646,-0.0104155159615632,-0.00482578994094044,-0.00388362862505832,0.884520063676064,0.426982286656965,-1.73124955721016,-0.00856642467755049,-0.00506536770711894,-0.0053163150763378,-1.47330638856056,-1.95222107855278,-0.623939032902253,-0.00654047934243617,-0.00580517854074145,0.00474575002612397,-9.07513057482697,-5.14569601516784,-0.546669410388176,-0.0127133179337886,-0.0017394843684591,0.00261213919949595
0.185,5.51009811474296,-4.25720162104534,-1.10901702985802,-0.0103438852894843,-0.00451578365254993,-0.00378934876666549,0.882856933921857,0.426677598295697,-1.72984091290414,-0.00819155058842132,-0.00567154989222137,-0.00562534954837775,-1.47282638042793,-1.95077641197645,-0.623372388401711,-0.00624994389035418,-0.00597790653026087,0.00418298264973227,-9.0679137999964,-5.14118493129369,-0.546089583568204,-0.0124037446796519,-0.00147760958349176,0.00294725178696063
0.19,5.50482800768833,-4.25323097528636,-1.10726517698959,-0.0102738392738751,-0.00419237348307017,-0.00372003009665119,0.881193804167651,0.426372909934429,-1.72843226859811,-0.00781686285543664,-0.0062418964858031,-0.00592737276020469,-1.47234637229576,-1.94933174540012,-0.622805743901168,-0.0059486310845937,-0.00615444021955448,0.00366654220653583,-9.06069702516561,-5.13667384741954,-0.545509756748231,-0.0120714441097959,-0.00120162958432659,0.0033116124721699
0.195,5.4995579006337,-4.24926032952735,-1.10551332412069,-0.010211761089854,-0.00387534437420242,-0.00369790798379725,0.879530674413445,0.426068221573175,-1.72702362429206,-0.00744697353859192,-0.0067668376549344,-0.00621663102400732,-1.47186636416359,-1.94788707882384,-0.622239099400627,-0.00564121302816432,-0.00633040189663512,0.00320105056528565,-9.05348025033481,-5.1321627635454,-0.54492992992823,-0.0117362045789392,-0.000909085447817181,0.003690029575638
0.2,5.49428779357902,-4.24528968376836,-1.10376147125226,-0.0101523286044502,-0.00358402321581153,-0.00372921585633617,0.877867544659239,0.425763533211907,-1.72561497998603,-0.00707610833811744,-0.00723360132342676,-0.00648443018937441,-1.47138635603119,-1.94644241224751,-0.621672454900084,-0.00532118506264482,-0.00649921970827025,0.00279366444565559,-9.04626347550425,-5.12765167967125,-0.544350103108258,-0.0113939992716496,-0.000602530165472059,0.0040503991641901
0.205,5.48901768652445,-4.24131903800938,-1.10200961838382,-0.0100776093177779,-0.00334081644310188,-0.00380982941752311,0.87620441490526,0.425458844850652,-1.72420633568004,-0.00668410956675266,-0.00762858106067752,-0.00671893141099087,-1.47090634789902,-1.94499774567123,-0.621105810399541,-0.00496691501793246,-0.0066515303987103,0.00245263159881567,-9.03904670067345,-5.12314059579707,-0.543770276288285,-0.0110157257713532,-0.000289632450998485,0.00434628931829065
0.21,5.48374757946976,-4.23734839225037,-1.10025776551538,-0.00996868635976916,-0.00316451925762471,-0.00393001293541831,0.874541285151054,0.425154156489384,-1.72279769137398,-0.00625035374854227,-0.0079419458493813,-0.00690996789636549,-1.47042633976662,-1.94355307909495,-0.620539165899,-0.00455668238243983,-0.00677890655247743,0.00218345816806743,-9.03182992584289,-5.11862951192293,-0.543190449468312,-0.0105693565803505,2.05521814839288e-05,0.00453550890053602
0.215,5.47847747241519,-4.23337774649139,-1.09850591264671,-0.00982050642394,-0.00306055686708609,-0.0040798627394746,0.872878155396847,0.42484946812813,-1.72138904706796,-0.00577228780807085,-0.00817289579574777,-0.00705497605547561,-1.46994633163445,-1.94210841251862,-0.619972521398457,-0.00408880276316077,-0.00687841147303531,0.00198388657230598,-9.02461315101209,-5.11411842804878,-0.54261062264834,-0.0100486606590808,0.000322832986466065,0.00460367538025196
0.22,5.47320736536051,-4.22940710073237,-1.09675405977828,-0.00964155294169295,-0.00302175472633674,-0.00425053044808957,0.871215025642641,0.424544779766862,-1.71998040276191,-0.00526512467532463,-0.00832811456034265,-0.00715817815809636,-1.46946632350227,-1.94066374594235,-0.619405876897916,-0.00358137303986285,-0.00695196861430324,0.00184434939231723,-9.01739637618152,-5.10960734417463,-0.542030795828339,-0.00947324466836898,0.000615431393058926,0.00456261731043251
0.225,5.46793725830594,-4.22543645497342,-1.09500220690984,-0.00943969815220482,-0.0030395819146673,-0.00443008439294836,0.869551895888662,0.424240091405608,-1.71857175845591,-0.00474422162597318,-0.00841422960499991,-0.00722400677872711,-1.46898631536988,-1.93921907936601,-0.618839232397374,-0.00305293772787782,-0.00700155474822687,0.001754356989154,-9.01017960135073,-5.10509626030047,-0.541450969008366,-0.00886134092165479,0.000893440705922146,0.00442417703719449
0.23,5.46266715125131,-4.22146580921444,-1.09325035404117,-0.00921197265818607,-0.00311312394964877,-0.00459938988123568,0.867888766134456,0.423935403044339,-1.71716311414986,-0.00421224253942624,-0.00843257770576917,-0.0072526019271219,-1.4685063072377,-1.93777441278968,-0.618272587896831,-0.00250814554093696,-0.00702608645773262,0.0017078063354623,-9.00296282651993,-5.10058517642631,-0.540871142188394,-0.0082093338940153,0.00114329430144436,0.00417995471042603
0.235,5.45739704419668,-4.21749516345542,-1.09149850117274,-0.00894632440414997,-0.00324855709189765,-0.00473364777111923,0.866225636380022,0.423630714683085,-1.71575446984383,-0.00366090939171354,-0.00837961119151297,-0.00724044537054378,-1.46802629910508,-1.93632974621335,-0.61770594339629,-0.00193920295891762,-0.00702217902410414,0.00170388817294238,-8.99574605168914,-5.09607409255216,-0.540291315368393,-0.00749404565699729,0.00134506540028119,0.00380295040305532
0.24,5.45212693714205,-4.21352451769644,-1.0897466483043,-0.00863533509162121,-0.00344818170269815,-0.00481464454629765,0.864562506626044,0.423326026321817,-1.71434582553781,-0.00308597956341277,-0.00825259630157159,-0.0071857652602165,-1.4675462909729,-1.93488507963707,-0.617139298895747,-0.00134136111259877,-0.00698866422302873,0.00174479173748916,-8.98852927685857,-5.09156300867802,-0.53971148854842,-0.0066968462075531,0.00148845069898675,0.00327228346478048
0.245,5.44685683008743,-4.20955387193743,-1.08799479543563,-0.00829248206216518,-0.00369691819553893,-0.00484677143288421,0.862899376871837,0.423021337960563,-1.71293718123178,-0.00250478884031526,-0.00805644890091059,-0.00709477613352457,-1.46706628284073,-1.93344041306074,-0.616572654395204,-0.00073114545044164,-0.00693172538977234,0.00183269872282549,-8.98131250202778,-5.08705192480387,-0.539131661728447,-0.00583257618379119,0.00159294357342008,0.00260353366714487
0.25,5.4415867230328,-4.20558322617845,-1.0862429425672,-0.00795207344351164,-0.00396230410503868,-0.00485777584758588,0.861236247117859,0.422716649599295,-1.71152853692575,-0.00195661958838719,-0.00780350154088034,-0.00698113356767056,-1.46658627470833,-1.93199574648446,-0.616006009894662,-0.000146923108668131,-0.00686429035766843,0.00196939334599365,-8.97409572719721,-5.0825408409297,-0.538551834908475,-0.00495050769749791,0.00170771833749032,0.0018493972704736
0.255,5.43631661597817,-4.20161258041946,-1.08449108969876,-0.00765374994622206,-0.00420781433504003,-0.00488383256881637,0.859573117363425,0.422411961238041,-1.7101198926197,-0.00148660969213681,-0.00750675639907142,-0.00685938453961566,-1.46610626657616,-1.93055107990813,-0.615439365394121,0.000367540059828799,-0.00680042053252534,0.00215847078526399,-8.96687895236664,-5.07802975705555,-0.537972008088502,-0.00410817622610289,0.00189121514311868,0.00107126493962051
0.26,5.43104650892354,-4.19764193466048,-1.08273923683032,-0.00743103489585213,-0.0044033072487648,-0.00495753511432609,0.857909987609446,0.422107272876772,-1.70871124831368,-0.00113351366504634,-0.00717520101576007,-0.00674055719385466,-1.46562625844376,-1.92910641333179,-0.61487272089358,0.000775587630952994,-0.00675154525646012,0.00240678003945474,-8.95966217753585,-5.0735186731814,-0.53739218126853,-0.00335151644387846,0.0021948745013176,0.000317501292598224
0.265,5.42577640186892,-4.1936712889015,-1.08098738396166,-0.00730959567086183,-0.00452713372153977,-0.00510505222710185,0.85624685785524,0.421802584515518,-1.70730260400765,-0.000927630275731055,-0.00681350067166759,-0.00663186577460593,-1.46514625031159,-1.92766174675552,-0.614306076393037,0.00104960167303697,-0.00672609925090331,0.0027238592482302,-8.95244540270528,-5.06900758930723,-0.536812354448557,-0.00271189068910226,0.00265914902490617,-0.000379919146715985
0.27,5.42050629481429,-4.18970064314249,-1.07923553109322,-0.00730828832202588,-0.00456540353244842,-0.00534617457644858,0.854583728101034,0.421497896154264,-1.70589395970163,-0.000891818039792811,-0.00642296507374955,-0.00653748559600952,-1.46466624217942,-1.92621708017919,-0.613739431892494,0.00116961101950859,-0.00672996551582595,0.00312048217012813,-8.94522862787449,-5.06449650543308,-0.536232527628584,-0.00220848380902802,0.00331339879198835,-0.0010026714689938
0.275,5.41523618775966,-4.1857299973835,-1.07748367822478,-0.00743980578755607,-0.00451132748079361,-0.00569405772827903,0.852920598346827,0.421193207792996,-1.70448531539557,-0.0010421204864834,-0.00600246000081563,-0.00645918100113389,-1.46418623404702,-1.92477241360291,-0.613172787391953,0.00112222714618791,-0.00676674078640933,0.00360700300644927,-8.93801185304369,-5.05998542155893,-0.535652700808583,-0.00185037694030393,0.00417526758866646,-0.00154350078791069
0.28,5.40996608070503,-4.18175935162452,-1.07573182535612,-0.007710944605814,-0.00436471483369726,-0.00615460588740348,0.851257468592621,0.420888519431742,-1.70307667108958,-0.00138795634988834,-0.00554931197577531,-0.00639684106097335,-1.46370622591462,-1.92332774702658,-0.61260614289141,0.00089997346375654,-0.00683788175072885,0.00419153180717319,-8.9307950782129,-5.05547433768479,-0.535072873988611,-0.00163825940512941,0.00524940651518869,-0.00200390179456504
0.285,5.4046959736504,-4.17778870586554,-1.07397997248768,-0.00812242924318832,-0.00413162186310937,-0.00672548255037571,0.849594338838642,0.420583831070473,-1.70166802678355,-0.00193183278559973,-0.00506020295264214,-0.00634888465568195,-1.46322621778222,-1.9218830804503,-0.612039498390867,0.000501038756943734,-0.00694268790704177,0.00487790851645156,-8.92357830338233,-5.05096325381064,-0.534493047168638,-0.00156575466889801,0.00652554852537794,-0.0023920326593385
0.29,5.39942586659583,-4.17381806010656,-1.07222811961924,-0.00866831922895846,-0.00382414607880034,-0.00739467217418219,0.847931209084436,0.420279142709219,-1.7002593824775,-0.002668607948434,-0.00453207932345839,-0.00631257180567572,-1.46274620965005,-1.92043841387397,-0.611472853890325,-7.05533039764982e-05,-0.00707816462537721,0.00566352040542439,-8.91636152855153,-5.04645216993649,-0.533913220348666,-0.00162039306727334,0.00797586669610354,-0.00272090777150926
0.295,5.39415575954115,-4.16984741434754,-1.07047626675057,-0.00933505791768095,-0.00346032455544005,-0.00813848240614574,0.846268079330457,0.419974454347951,-1.69885073817147,-0.00358437786110847,-0.0039630872866149,-0.00628427894315736,-1.46226620151788,-1.91899374729769,-0.610906209389782,-0.000804405857399724,-0.00723883810000546,0.00653704329824812,-8.90914475372097,-5.04194108606232,-0.533333393528693,-0.00178430343632647,0.00955153569385675,-0.00300693375974547
0.3,5.38888565248658,-4.16587676858856,-1.06872441388214,-0.0101001776838784,-0.00306408000051295,-0.00891899214611538,0.844604949576024,0.419669765986697,-1.69744209386542,-0.00465503155745378,-0.00335354049320331,-0.00625973632122914,-1.46178619338548,-1.91754908072136,-0.610339564889241,-0.00168287558658933,-0.00741652627636122,0.00747614178871451,-8.90192797889017,-5.03743000218817,-0.53275356670872,-0.00203467809193435,0.0111785768894357,-0.00326874863886447
0.305,5.38361554543195,-4.16190612282958,-1.0669725610137,-0.010930690372487,-0.00266518236831364,-0.00968106963931996,0.842941819822045,0.419365077625429,-1.69603344955942,-0.00584449931683547,-0.00270695117594256,-0.00623422240005905,-1.46130618525331,-1.91610441414502,-0.6097729203887,-0.00267987697005944,-0.00760006425030844,0.00844515979545907,-8.8947112040596,-5.03291891831402,-0.532173739888748,-0.00234405346548531,0.0127532011325791,-0.00352627235493724
0.31,5.37834543837727,-4.15793547707057,-1.06522070814526,-0.0117812464251407,-0.00229917121076265,-0.0103491382680643,0.841278690067838,0.419060389264175,-1.6946248052534,-0.00710274593773405,-0.00203113543747316,-0.0062027423472776,-1.46082617712113,-1.91465974756875,-0.609206275888157,-0.00375939695298865,-0.00777502119723441,0.00939285817738753,-8.88749442922881,-5.02840783443988,-0.531593913068747,-0.00268046656383619,0.0141369346525298,-0.00379989580438928
0.315,5.37307533132264,-4.15396483131158,-1.0634688552766,-0.0125967958154496,-0.00200405889892849,-0.0108344023440317,0.839615560313632,0.418755700902906,-1.69321616094734,-0.00836736659064818,-0.00133882328302836,-0.00616080232103417,-1.46034616898874,-1.91321508099247,-0.608639631387616,-0.0048762321323725,-0.00792488290445501,0.0102549030084881,-8.88027765439801,-5.02389675056571,-0.531014086248774,-0.00300904078909448,0.0151674223891077,-0.00410550526263167
0.32,5.36780522426807,-4.1499941855526,-1.06171700240816,-0.0133291220528794,-0.00180788239035842,-0.0110735782295775,0.837952430559426,0.418451012541638,-1.69180751664132,-0.00957647830647681,-0.000646829546339526,-0.0061069534755934,-1.45986616085656,-1.91177041441614,-0.608072986887073,-0.00598390715996251,-0.00803659554978309,0.0109705862114736,-8.87306087956722,-5.01938566669155,-0.530434259428802,-0.00329797695356976,0.0157160931197266,-0.00443697693202028
0.325,5.36253511721338,-4.14602353979362,-1.05996514953972,-0.0139580443459415,-0.00171389913553581,-0.011077877229112,0.83628930080522,0.418146324180384,-1.69039887233529,-0.0106855730727829,2.49394271449393e-05,-0.00604581974933566,-1.45938615272416,-1.91032574783986,-0.607506342386531,-0.00704499910897224,-0.00810751883759987,0.011504795070661,-8.86584410473665,-5.01487458281741,-0.529854432608829,-0.00352588875357728,0.0157613187047946,-0.00474499537567575
0.33,5.35726501015876,-4.14205289403463,-1.05821329667083,-0.0144894181870527,-0.00170147654224869,-0.0109294414830465,0.834626171051241,0.417841635819116,-1.68899022802927,-0.0116657613987852,0.000652011544405512,-0.00598786069612206,-1.45890614459177,-1.90888108126353,-0.606939697885988,-0.00802945022089201,-0.00814493531205872,0.0118471161200455,-8.85862732990608,-5.01036349894325,-0.529274605788856,-0.00368159402376025,0.015384324237041,-0.00493757335021966
0.335,5.35199490310418,-4.13808224827562,-1.05646144380239,-0.0149337206511448,-0.00174264969307214,-0.0107285229994146,0.832963041297035,0.417536947457862,-1.68758158372322,-0.0124885280282923,0.00120575761376309,-0.00594556720949641,-1.45842613645959,-1.9074364146872,-0.606373053385447,-0.00890541610148835,-0.00815878587238687,0.0119920188536415,-8.85141055507529,-5.0058524150691,-0.528694778968884,-0.0037562671374375,0.0146918231961318,-0.00490645105088657
0.34,5.3467247960495,-4.13411160251664,-1.05470959093395,-0.0153007764985858,-0.00181921197182166,-0.0105595592549279,0.831299911542828,0.417232259096608,-1.68617293941719,-0.0131299437886213,0.00166497884243745,-0.00592933512350495,-1.45794612832719,-1.90599174811092,-0.605806408884904,-0.00964569416013738,-0.0081579761598234,0.0119372726975252,-8.84419378024472,-5.00134133119494,-0.528114952148911,-0.00373621357879041,0.0137639914356893,-0.0045634624936146
0.345,5.34145468899493,-4.13014095675766,-1.05295773806529,-0.0156122932031934,-0.00193296651202792,-0.010492359818616,0.829636781788622,0.416927570735339,-1.68476429511119,-0.0135909341056893,0.00203111618726908,-0.00594501094542354,-1.45746612019502,-1.90454708153459,-0.605239764384361,-0.0102450979663032,-0.00815184521063887,0.0117010252164176,-8.83697700541393,-4.99683024732079,-0.527535125328939,-0.00359964295106517,0.0126533982901747,-0.00386891565189757
0.35,5.33618458194024,-4.12617031099867,-1.05120588519685,-0.0159015514614719,-0.00210463863497986,-0.0105817996983303,0.827973652034416,0.416622882374085,-1.68335565080514,-0.0138971732204877,0.0023262952626056,-0.00599410797309889,-1.45698611206262,-1.90310241495831,-0.60467311988382,-0.0107203650383154,-0.00815010280774648,0.0113210618596352,-8.82976023058336,-4.99231916344662,-0.526955298508909,-0.00331859788168929,0.0113896643911513,-0.0028310758033409
0.355,5.33091447488567,-4.12219966523966,-1.04945403232841,-0.016198570446217,-0.00236048348185257,-0.0108519388269254,0.826310522280437,0.416318194012817,-1.68194700649909,-0.0140810120116364,0.00257677817256544,-0.00607669492191893,-1.45650610393045,-1.90165774838204,-0.604106475383277,-0.0110964620606674,-0.00816082142586005,0.0108330102136296,-8.82254345575257,-4.98780807957249,-0.526375471688937,-0.00286872949663247,0.00997498603039017,-0.00148105740864645
0.36,5.32564436783105,-4.11822901948068,-1.04770217945975,-0.0165202171881766,-0.00271857672759123,-0.0112809206262832,0.824647392526003,0.416013505651549,-1.68053836219306,-0.0141715785996592,0.00280164249623192,-0.00619390066089048,-1.45602609579828,-1.9002130818057,-0.603539830882736,-0.0114000124817325,-0.00818944208605416,0.0102546677775231,-8.81532668092177,-4.98329699569834,-0.525795644868964,-0.00224044534059054,0.00838271138144312,0.000146141079053396
0.365,5.32037426077642,-4.11425837372167,-1.04595032659131,-0.0168638331686406,-0.00318619033402483,-0.0117998979983833,0.822984262772025,0.415708817290295,-1.67912971788706,-0.0141868758579505,0.00300906619505159,-0.00634683033784504,-1.45554608766588,-1.89876841522937,-0.602973186382192,-0.0116518588216207,-0.00823685156768813,0.00958244054987708,-8.80810990609098,-4.97878591182418,-0.525215818048991,-0.00143891032741475,0.00655981650957307,0.00201295048914082
0.37,5.31510415372179,-4.11028772796271,-1.04419847372287,-0.0172043826501936,-0.00376398841450095,-0.0123104940110082,0.821321133017818,0.415404128929026,-1.67772107358101,-0.0141246387646684,0.00319578975862324,-0.00653404328531772,-1.45506607953371,-1.89732374865309,-0.602406541881651,-0.011856285596346,-0.00829759589433691,0.00879528538479225,-8.80089313126041,-4.97427482795003,-0.524635991229019,-0.000474522660775512,0.00443557413606484,0.00407668819274115
0.375,5.30983404666716,-4.10631708220373,-1.04244662085443,-0.0175142416999864,-0.00444672299564204,-0.0127292002957426,0.819658003263839,0.415099440567772,-1.67631242927499,-0.0139761964574407,0.00335499401560781,-0.00675276239691679,-1.45458607140108,-1.89587908207676,-0.60183989738111,-0.0120098628542737,-0.00836506415946878,0.00787428016733834,-8.79367635642961,-4.96976374407586,-0.524056164409046,0.000644163290667183,0.00195133505001923,0.00629707429867545
0.38,5.30456393961254,-4.10234643644472,-1.04069476798577,-0.0177943736013164,-0.00521971557379355,-0.013036345295053,0.817994873509406,0.414794752206504,-1.67490378496893,-0.0137556610818921,0.00348841530933342,-0.00700224292277452,-1.45410606326891,-1.89443441550048,-0.601273252880567,-0.0121245365499327,-0.0084401660747746,0.0068286454456115,-8.78645958159905,-4.96525266020171,-0.523476337589074,0.0019110025847094,-0.000900467763791062,0.0086475137631855
0.385,5.29929383255791,-4.09837579068574,-1.03894291511733,-0.0180730792573411,-0.00605634394509046,-0.0132731252983772,0.816331743755427,0.41449006384525,-1.67349514066294,-0.0135015684645336,0.00360684922870114,-0.00728234748962643,-1.45362605513674,-1.89298974892415,-0.600706608380024,-0.0122288737759763,-0.00853023312837533,0.00569758874331988,-8.77924280676825,-4.96074157632756,-0.522896510769101,0.00331794538595161,-0.00406885167943898,0.0111086603941855
0.39,5.29402372550328,-4.09440514492675,-1.03719106224889,-0.0183717317172164,-0.00691693977638493,-0.0134887706693851,0.814668614001221,0.414185375483981,-1.67208649635688,-0.0132486055101292,0.0037190520745915,-0.00758759150149452,-1.45314604700434,-1.89154508234782,-0.600139963879482,-0.0123449917987992,-0.00863843533602868,0.00452791421288676,-8.77202603193768,-4.95623049245341,-0.5223166839491,0.00484751490987991,-0.00746873819760759,0.0136441262069154
0.395,5.28875361844865,-4.09043449916774,-1.03543920938023,-0.018678446280203,-0.00774641343414337,-0.0136984145949155,0.813005484247014,0.413880687122727,-1.67067785205086,-0.0130063699372897,0.00382381880320146,-0.00790283076647088,-1.45266603887217,-1.89010041577154,-0.599573319378941,-0.0124712524496721,-0.008756033309044,0.00335722610980241,-8.76480925710712,-4.95171940857925,-0.521736857129127,0.00646487985964957,-0.010997723786167,0.0161797578130002
0.4,5.28348351139408,-4.08646385340876,-1.03368735651179,-0.0189418925429847,-0.00847072825567865,-0.0138721374936655,0.811342354492808,0.413575998761459,-1.66926920774483,-0.0127558393293864,0.00390920225180294,-0.00820191099039877,-1.45218603073977,-1.88865574919521,-0.599006674878398,-0.0125791417221606,-0.00886067447225214,0.00221216004070208,-8.7575924822761,-4.9472083247051,-0.521157030309155,0.00811153981863823,-0.0145321191236218,0.018593506169136
0.405,5.2782134043394,-4.08249320764978,-1.03193550364335,-0.0190775989337962,-0.0090023680646821,-0.013943994734542,0.809679224738602,0.413271310400205,-1.66786056343881,-0.0124529292854239,0.00395445794988479,-0.0084491874644591,-1.4517060226076,-1.88721108261893,-0.598440030377855,-0.0126159888309547,-0.00891865665900513,0.00111181363037139,-8.75037570744553,-4.94269724083094,-0.520577203489182,0.00970628106539528,-0.0179217134404364,0.020721168068339
0.41,5.27294329728477,-4.07852256189079,-1.03018365077469,-0.0189951480928723,-0.00927167253304024,-0.0138466818405274,0.808016094984623,0.412966622038951,-1.66645191913278,-0.0120419022386688,0.00393580363073246,-0.00860757913932276,-1.45122601447542,-1.8857664160426,-0.597873385877312,-0.012517496221529,-0.00889428025961714,7.2826318272406e-05,-8.74315893261473,-4.93818615695679,-0.51999737666921,0.0111629431549505,-0.0210027276561614,0.0224003827791301
0.415,5.26767319023014,-4.07455191613181,-1.02843179790625,-0.0186330118381589,-0.00926613511989742,-0.0135538311515089,0.806352965230417,0.412661933677683,-1.66504327482673,-0.0114737707275633,0.00383447190536054,-0.0086487091002586,-1.45074600634302,-1.88432174946632,-0.597306741376773,-0.0122254461636587,-0.00876152402098896,-0.000884990396171576,-8.73594215778417,-4.93367507308264,-0.519417549849237,0.0124131807553582,-0.0236175675743333,0.0235281468864057
0.42,5.26240308317557,-4.0705812703728,-1.02667994503781,-0.0179631489212894,-0.0090244767798458,-0.0130808732741004,0.804689835476211,0.412357245316429,-1.6636346305207,-0.010712742135936,0.0036410071666975,-0.00855425817254683,-1.45026599821063,-1.88287708288993,-0.59674009687623,-0.011693725354099,-0.00850626219625296,-0.00173527820611967,-8.72872538295337,-4.92916398920849,-0.518837723029264,0.0134087114916238,-0.025617160978485,0.0240647965213494
0.425,5.25713297612094,-4.06661062461382,-1.02492809216938,-0.0169765928675997,-0.00858194518909512,-0.0124457546491216,0.803026705722004,0.41205255695516,-1.66222598621468,-0.00974210685385791,0.00335990104727529,-0.00831381806387959,-1.44978599007845,-1.88143241631371,-0.596173452375687,-0.0108937716927083,-0.00812508922118095,-0.00244106559440861,-8.7215086081228,-4.92465290533434,-0.518257896209292,0.0141152546801921,-0.0268702559484652,0.024003681228921
0.43,5.25186286906631,-4.06263997885483,-1.02317623930071,-0.0156872561112643,-0.00793304333761588,-0.0116450165115588,0.801363575967798,0.411747868593906,-1.66081734190865,-0.00858172416874524,0.00301616286413151,-0.00792927236072442,-1.44930598194605,-1.87998774973732,-0.595606807875145,-0.00983273198190258,-0.00763037850476816,-0.00295294299407627,-8.71429183329201,-4.92014182146018,-0.517678069389291,0.0145229016135262,-0.0273055875764158,0.0233718798137222
0.435,5.24659276201169,-4.05866933309585,-1.02142438643227,-0.0141439702476461,-0.00706059722527635,-0.0106721635360486,0.799700446213819,0.411443180232638,-1.65940869760263,-0.0072909647967969,0.00264935532357569,-0.00741815421380508,-1.44882597381388,-1.87854308316111,-0.595040163374602,-0.00856095857374669,-0.00705035349412089,-0.00322504732994767,-8.70707505846144,-4.91563073758603,-0.517098242569318,0.0146581534430141,-0.0269534973810683,0.0222448123595221
0.44,5.24132265495706,-4.05469868733684,-1.01967253356383,-0.0124275322259604,-0.00599449540522961,-0.00954904009146074,0.798037316459386,0.411138491871384,-1.6580000532966,-0.00594738453652319,0.00229538915166494,-0.00680883242292445,-1.44834596568148,-1.87709841658472,-0.594473518874061,-0.00715666798785938,-0.00641838032304982,-0.00324144797996154,-8.69985828363065,-4.91111965371188,-0.516518415749346,0.0145777794816285,-0.0259494046810561,0.0207354604587091
0.445,5.23605254790243,-4.05072804157786,-1.01792068069517,-0.0106322836611983,-0.00482423052614133,-0.00832860779415882,0.796374186705407,0.410833803510116,-1.65659140899058,-0.00462496340114415,0.00197676039452779,-0.00613181630647563,-1.44786595754931,-1.87565375000844,-0.593906874373518,-0.00570415507955157,-0.00576283606073234,-0.00302087283782475,-8.69264150879985,-4.90660856983772,-0.515938588929373,0.014346584362908,-0.0244868246529179,0.0189609601396724
0.45,5.2307824408478,-4.04675739581884,-1.01616882782673,-0.00884267132922919,-0.00366174288350401,-0.00707067539550809,0.794711056951201,0.410529115148861,-1.65518276468453,-0.0033827941579094,0.00170568949352019,-0.00541178616214578,-1.44738594941714,-1.87420908343211,-0.593340229872975,-0.00427656626057825,-0.00510275935583855,-0.00259791902258014,-8.68542473396906,-4.90209748596357,-0.5153587621094,0.0140109773867721,-0.0227433033263774,0.0170051006267286
0.455,5.22551233379318,-4.04278675005989,-1.01441697495829,-0.00712083820121923,-0.00260665927362677,-0.00582225328978032,0.793047927197222,0.410224426787593,-1.6537741203785,-0.00226310018678467,0.00148939068247001,-0.00466447094471573,-1.44690594128474,-1.87276441685583,-0.592773585372434,-0.00292912538004306,-0.00444806529310859,-0.00200648822630427,-8.67820795913849,-4.89758640208942,-0.514778935289428,0.0135880769865489,-0.0208391493219881,0.0149054067734765
0.46,5.22024222673855,-4.03881610430091,-1.01266512208963,-0.00551124257373169,-0.00172330573577448,-0.00461039888350389,0.791384797443015,0.409919738426339,-1.65236547607245,-0.0012991802787424,0.00133505143969557,-0.00390170142450018,-1.44642593315257,-1.8713197502795,-0.592206940871893,-0.00170535884090671,-0.00380622195901694,-0.00127266048761712,-8.6709911843077,-4.89307531821525,-0.514199108469455,0.0130828002535506,-0.018854636477319,0.0126828019814119
0.465,5.21497211968392,-4.03484545854189,-1.01091326922096,-0.00405154949790894,-0.00102180841423527,-0.0034400271777932,0.789721667688809,0.409615050065071,-1.65095683176645,-0.000525880470483399,0.00125462484608917,-0.00314017019354283,-1.44594592502017,-1.86987508370322,-0.591640296371351,-0.000647028592102497,-0.00319193705514579,-0.000411497102270908,-8.66377440947713,-4.8885642343411,-0.513619281649454,0.0125145443924494,-0.0168668096968362,0.0103848273990899
0.47,5.20970201262929,-4.03087481278291,-1.00916141635253,-0.00277650659254993,-0.000464987047884273,-0.00230045114215925,0.788058537934603,0.409310361703817,-1.64954818746043,2.07762132593339e-05,0.00126373985835694,-0.00240349145119192,-1.44546591688777,-1.86843041712689,-0.591073651870808,0.000205669293344444,-0.00262871996716602,0.00057047284933372,-8.65655763464656,-4.88405315046695,-0.513039454829482,0.0119211112080411,-0.0149569606699158,0.008091419019819
0.475,5.20443190557467,-4.02690416702393,-1.00740956348409,-0.001711701826976,-2.80333699412424e-06,-0.00118208377442009,0.786395408180397,0.409005673342548,-1.64813954315437,0.000317482776282044,0.00137396016920425,-0.0017151492337782,-1.4449859087556,-1.86698575055055,-0.590507007370267,0.000826457616415376,-0.00213988303294172,0.001667280207399,-8.64934085981577,-4.8795420665928,-0.512459628009481,0.0113429358945153,-0.0131900730750458,0.00588431382351867
0.48,5.19916179852004,-4.02293352126495,-1.00565771061565,-0.000866612515439204,0.000399408659190045,-9.08675690970921e-05,0.784732278426418,0.40870098498128,-1.64673089884835,0.000366281016654468,0.00158607954259856,-0.00109125503450629,-1.4445059006232,-1.86554108397428,-0.589940362869724,0.00121424465746889,-0.00173960632740106,0.00286662243042166,-8.6421240849852,-4.87503098271864,-0.511879801189536,0.0108129858921433,-0.0116006151723605,0.00382513631055715
0.485,5.19389169146541,-4.01896287550593,-1.00390585774721,-0.000236421355848687,0.000756993299443096,0.000950847892112447,0.783069148671984,0.408396296620026,-1.64532225454232,0.000191751662553847,0.00188933669661057,-0.00054007177983633,-1.44402589249103,-1.864096417398,-0.589373718369181,0.0013894830387502,-0.00143195414529856,0.0041475509740312,-8.63490731015418,-4.87051989884449,-0.511299974369564,0.0103512054245767,-0.0101921878180386,0.00195570836977154
0.49,5.18862158441084,-4.01499222974695,-1.00215400487855,0.000190628776352855,0.00107464853374012,0.0019116653690469,0.781406018918005,0.408091608258758,-1.6439136102363,-0.000170818549290722,0.00226453800343715,-6.57566100576789e-05,-1.44354588435863,-1.86265175082167,-0.588807073868638,0.00138206102841326,-0.00121499059881319,0.00548167742006667,-8.62769053532361,-4.86600881497034,-0.510720147549577,0.00995764809133695,-0.00894145003194988,0.000304104520630135
0.495,5.18335147735615,-4.01102158398797,-1.00040215200988,0.000429790248441284,0.00135448884597054,0.00275740054045492,0.779742889163799,0.407786919897504,-1.64250496593024,-0.000682341488778785,0.00268992660613428,0.00032993846749811,-1.44306587622646,-1.86120708424534,-0.588240429368097,0.00122550834564056,-0.00108393384639669,0.00683916734777457,-8.62047376049281,-4.86149773109618,-0.510140320729576,0.00961785427171481,-0.00781070562518146,-0.00111238778180114
0.5,5.17808137030158,-4.00705093822896,-0.998650299141445,0.000500071691910255,0.00160007113679768,0.0034596264981816,0.77807975940982,0.40748223153625,-1.64109632162422,-0.00130386362973495,0.00314981027530243,0.000648696550550538,-1.44258586809428,-1.85976241766906,-0.587673784867555,0.000955277270328934,-0.00103254903535098,0.00819906486437415,-8.61325698566225,-4.85698664722204,-0.509560493909618,0.00932092252556605,-0.00676899764047614,-0.00228856394225632
0.505,5.1728112632469,-4.00308029246997,-0.996898446273008,0.000421997395702046,0.00181495593905959,0.00400621705250894,0.776416629655387,0.407177543174981,-1.63968767731822,-0.00200317159466155,0.0036385950195402,0.000895281884140932,-1.44210585996188,-1.85831775109273,-0.587107140367014,0.000602705693721618,-0.00105443537196379,0.00955321513591499,-8.60604021083145,-4.85247556334788,-0.508980667089631,0.00906779443890159,-0.00580372040305733,-0.00323262260863089
0.51,5.16754115619233,-3.99910964671099,-0.995146593404343,0.00021524856854451,0.00199708386435446,0.00439973793087174,0.77475349990118,0.406872854813727,-1.63827903301217,-0.00275532935818322,0.00415356055683775,0.00107558891907286,-1.44162585182971,-1.85687308451645,-0.586540495866471,0.000192299881832838,-0.00114281258937486,0.0108969803059165,-8.59882343600088,-4.84796447947373,-0.508400840269658,0.00886251470426548,-0.00491362389755078,-0.0039609292831589
0.515,5.16227104913764,-3.99513900095201,-0.993394740535905,-9.84706610185774e-05,0.00213547970143014,0.00464184701509479,0.773090370147202,0.406568166452473,-1.63687038870614,-0.00353176508106073,0.00468445356593422,0.00119622059801563,-1.44114584369731,-1.85542841794012,-0.585973851365928,-0.00024956302481213,-0.00128820346443014,0.0122174753763554,-8.59160666117009,-4.84345339559957,-0.507821013449671,0.0087060029478424,-0.0040979251996954,-0.00448929369154405
0.52,5.15700094208302,-3.991168355193,-0.991642887667467,-0.000491869705173356,0.0022140994534456,0.00472287828548095,0.771427240392995,0.406263478091205,-1.63546174440009,-0.00429190388310656,0.00521154920831463,0.00126507218165073,-1.44066583556491,-1.85398375136384,-0.585407206865387,-0.000686454227481813,-0.00147738631277606,0.0134912918288338,-8.58438988633952,-4.83894231172542,-0.507241186629699,0.00859979283825904,-0.00335501766777562,-0.00482855154881723
0.525,5.15173083502839,-3.98719770943401,-0.989891034798802,-0.000935483476320866,0.00222282335009291,0.00463013410787341,0.769764110638789,0.405958789729937,-1.63405310009409,-0.00499204330692694,0.00571284073102584,0.00129011837778479,-1.44018582743274,-1.85253908478751,-0.584840562364844,-0.00107946733651784,-0.0016963766708992,0.0146918639357233,-8.5771731115085,-4.83443122785127,-0.506661359809726,0.00854508151402765,-0.00268820568936935,-0.00498486751745963
0.53,5.14646072797382,-3.98322706367503,-0.988139181930364,-0.0014055188406388,0.00216748010169962,0.00436419520832892,0.768100980884583,0.405654101368668,-1.63264445578804,-0.00560314942843931,0.00617325655124439,0.00127715637181454,-1.43970581930034,-1.85109441821123,-0.584273917864303,-0.00140326853611427,-0.00193506842255997,0.0157999239605601,-8.56995633667793,-4.82992014397711,-0.506081532989739,0.0085359961995277,-0.00210955811238929,-0.00496206848140102
0.535,5.14119062091913,-3.97925641791602,-0.986387329061927,-0.00188822972863686,0.00206620637779844,0.00394403853503743,0.766437851130604,0.405349413007414,-1.63123581148201,-0.00611837838474041,0.00658931486430601,0.00122941835675597,-1.43922581116817,-1.8496497516349,-0.58370727336376,-0.00165218320726033,-0.00218911249750168,0.0168103894673997,-8.56273956184737,-4.82540906010296,-0.505501706169767,0.00856152540129851,-0.00163428399764426,-0.00476598444162629
0.54,5.13592051386456,-3.97528577215706,-0.984635476193375,-0.00237874833578065,0.00193478897938005,0.0033997846356929,0.764774721376398,0.405044724646146,-1.62982716717599,-0.00654703591369012,0.00696643287584683,0.00114887464067341,-1.43874580303577,-1.84820508505862,-0.583140628863218,-0.00183422144025579,-0.00245815140347531,0.0177306527504904,-8.55552278701657,-4.82089797622881,-0.504921879349794,0.00861366621284973,-0.00126972556664643,-0.00440816520739106
0.545,5.13065040680993,-3.97131512639805,-0.982883623324938,-0.00287678554528737,0.00177753406257611,0.00276442151021764,0.763111591622192,0.404740036284892,-1.62841852286996,-0.0069040781268228,0.00731016560147257,0.0010369314010538,-1.4382657949036,-1.84676041848229,-0.582573984362675,-0.00196284515747686,-0.00274258860823309,0.0185694450463005,-8.548306012186,-4.81638689235464,-0.504342052529822,0.00868738468775956,-0.0010121320885309,-0.00390400524726528
0.55,5.12538029975531,-3.96734448063907,-0.981131770456386,-0.00338368799666499,0.00159151035614762,0.00207051157773278,0.761448461867985,0.404435347923638,-1.62700987856391,-0.00720516550675833,0.0076214383869141,0.000894244329025131,-1.43778578677143,-1.84531575190601,-0.582007339862132,-0.00205356466711216,-0.00304223025413295,0.0193298481728347,-8.54108923735521,-4.81187580848049,-0.503762225709849,0.00877580209750704,-0.000851801725975165,-0.00326852180242722
0.555,5.12011019270068,-3.96337383488009,-0.979379917587835,-0.00390268649813339,0.0013756863357448,0.00135133734106536,0.759785332113779,0.404130659562369,-1.62560123425789,-0.00746901821445927,0.00790013986434245,0.000720660926778621,-1.43730577863903,-1.84387108532968,-0.581440695361593,-0.00212542698911255,-0.00335731815749179,0.0200134417397413,-8.53387246252464,-4.80736472460634,-0.503182398889862,0.00886999294276366,-0.000777207561727717,-0.00251606470450534
0.56,5.11484008564605,-3.95940318912108,-0.977628064719283,-0.00443653024735561,0.00113253858521441,0.000640909032914622,0.7581222023598,0.403825971201115,-1.62419258995189,-0.00771462498576076,0.00814368444494233,0.000515717218365723,-1.43682577050663,-1.84242641875335,-0.58087405086105,-0.00219880184573068,-0.00368749623292471,0.0206177687165014,-8.52665568769385,-4.80285364073218,-0.50260257206989,0.00895906553378818,-0.000777202946860425,-0.00166126306958306
0.565,5.10956997859142,-3.95543254336209,-0.975876211850846,-0.00498050440003349,0.000865096085001931,-3.10394083865321e-05,0.756459072605367,0.403521282839847,-1.62278394564584,-0.00794971990267788,0.0083400192168444,0.000280166854914866,-1.43634576237446,-1.84098175217707,-0.580307406360507,-0.00228578424262263,-0.00402818049973782,0.0211268108365506,-8.51943891286328,-4.79834255685803,-0.502022745249903,0.00903131512180954,-0.00084491094009381,-0.000719051864713097
0.57,5.1042998715368,-3.95146189760311,-0.974124358982294,-0.00551898024646332,0.000578889834082549,-0.000644550055473547,0.754795942851388,0.403216594478593,-1.62137530133981,-0.00816530760267496,0.00847041507696843,1.78964386251322e-05,-1.43586575424206,-1.83953708560074,-0.579740761859965,-0.0023833520446618,-0.00436972322396111,0.0215156208811166,-8.51222213803226,-4.79383147298388,-0.50144291842993,0.00908214424157045,-0.000979543916092245,0.00029306771273002
0.575,5.09902976448217,-3.9474912518441,-0.972372506113743,-0.00603161392028888,0.00028458682612335,-0.001190595880658,0.753132813097181,0.402911906117325,-1.61996665703376,-0.0083448761600953,0.00852242414405022,-0.000263805538159972,-1.43538574610989,-1.83809241902446,-0.579174117359424,-0.0024782221962636,-0.00470136151788525,0.0217691821984788,-8.50500536320169,-4.78932038910973,-0.500863091609958,0.00912201802781831,-0.00117861059004916,0.00135132542581779
0.58,5.09375965742754,-3.94352060608514,-0.970620653245192,-0.00650236257709746,-4.8347640265187e-06,-0.00166821567815798,0.751469683343203,0.402607217756071,-1.61855801272776,-0.00847735532279749,0.00849836533712751,-0.000555550769751497,-1.43490573797749,-1.83664775244813,-0.578607472858881,-0.00255718072706773,-0.00501522006485793,0.0218947953317316,-8.4977885883709,-4.78480930523557,-0.500283264789985,0.00917590686638655,-0.00142528649272673,0.002423251680484
0.585,5.08848955037291,-3.93954996032613,-0.968868800376754,-0.00691989078577487,-0.000277947543428075,-0.00207619805151045,0.749806553588996,0.402302529394802,-1.61714936842171,-0.0085597082429855,0.00840697041252754,-0.000847225676709313,-1.43442572984532,-1.83520308587185,-0.578040828358338,-0.00261259019795381,-0.0053050010543796,0.0219105735586616,-8.49057181354033,-4.78029822136142,-0.499703437969984,0.00927039301935863,-0.00168679065357925,0.00346692861567133
0.59,5.08321944331828,-3.93557931456715,-0.967116947508202,-0.00727263100476489,-0.000522245159286648,-0.00240045382680979,0.748143423834563,0.401997841033548,-1.61574072411568,-0.00859435503170284,0.00824832700927678,-0.00112949369338276,-1.43394572171314,-1.83375841929552,-0.577474183857795,-0.00264525368977127,-0.00556247404842696,0.0218233001804011,-8.48335503870953,-4.77578713748727,-0.499123611150011,0.00941459711319489,-0.00192492209960467,0.00443239475181432
0.595,5.07794933626366,-3.93160866880814,-0.965365094639651,-0.00754698746487831,-0.000718235262574725,-0.00261159100134373,0.746480294080584,0.40169315267228,-1.61433207980966,-0.00858761867099106,0.00801144264539929,-0.00139458233298117,-1.43346571358074,-1.83231375271924,-0.576907539357254,-0.00266387155781926,-0.00577735641176531,0.0216242022840878,-8.47613826387897,-4.77127605361312,-0.498543784330039,0.0095959240816136,-0.00210409194480603,0.00526499997084031
0.6,5.07267922920903,-3.92763802304918,-0.963613241771213,-0.00772713024020523,-0.000842643505309131,-0.00268067123968075,0.744817164326378,0.401388464311026,-1.61292343550363,-0.00854263921596512,0.00768067427276488,-0.00163523303668086,-1.43298570544857,-1.83086908614291,-0.576340894856713,-0.00267467260662941,-0.00593882936493182,0.0213002518347931,-8.46892148904817,-4.76676496973896,-0.497963957510066,0.00979654432189857,-0.00219084812559888,0.00591062211399426
0.605,5.0674091221544,-3.9236673772902,-0.961861388902662,-0.00779960602138515,-0.000878902583004229,-0.00259705002659885,0.743154034572399,0.401083775949758,-1.61151479119761,-0.0084563447859318,0.00724477591617816,-0.00184458956638224,-1.43250569731617,-1.82942441956658,-0.57577425035617,-0.00267475361815861,-0.00603856496309165,0.0208478092310067,-8.4617047142176,-4.76225388586481,-0.497384130690079,0.0100102223462929,-0.00214982091984088,0.00632602192693181
0.61,5.06213901509977,-3.91969673153119,-0.960109536034111,-0.00776334176455,-0.000822858034892899,-0.00237218749232954,0.741490904817965,0.400779087588504,-1.61010614689155,-0.00832915067852265,0.00670681382779831,-0.00201839228800914,-1.43202568918377,-1.8279797529903,-0.575207605855628,-0.00265971128487152,-0.00607543588882649,0.0202832052467565,-8.45448793938681,-4.75774280199066,-0.496804303870107,0.010244253021563,-0.0019409609937336,0.00648952884716854
0.615,5.0568689080452,-3.91572608577221,-0.958357683165673,-0.00763117490225546,-0.000682337560772407,-0.00203088847668998,0.739827775063986,0.400474399227235,-1.60869750258553,-0.00817020531863171,0.00608146852080336,-0.00215603926857103,-1.4315456810516,-1.82653508641397,-0.574640961355087,-0.0026303616064601,-0.0060554607781366,0.0196379369603675,-8.44727116455601,-4.7532317181165,-0.496224477050134,0.0105098791294982,-0.00152192361139722,0.00639932105917644
0.62,5.05159880099052,-3.9117554400132,-0.956605830297121,-0.00742426604192579,-0.000472494941363416,-0.00160196914884549,0.73816464530978,0.400169710865981,-1.6072888582795,-0.00799459739756765,0.00538611219579306,-0.00226018953638253,-1.4310656729192,-1.82509041983769,-0.574074316854544,-0.0025925543547047,-0.00598878121639243,0.0189474609746819,-8.44005438972545,-4.74872063424235,-0.495644650230162,0.010816325298733,-0.0008564518215392,0.00606721407495486
0.625,5.04632869393589,-3.90778479425421,-0.954853977428684,-0.00717158810073268,-0.000209551096851046,-0.00111643205968364,0.736501515555801,0.399865022504713,-1.60588021397348,-0.00782401200283995,0.00464244423372503,-0.00233700624322481,-1.43058566478703,-1.82364575326136,-0.573507672354001,-0.00255788195070014,-0.00589009180771739,0.0182516383520596,-8.43283761489465,-4.74420955036818,-0.495064823410175,0.0111743528396148,7.71641261933757e-05,0.00552107092016771
0.63,5.04105858688132,-3.90381414849523,-0.953102124560132,-0.00690739523352548,8.88273622810082e-05,-0.000606557080741283,0.734838385801368,0.399560334143459,-1.60447156966745,-0.00768430495124245,0.00387449510655,-0.00239522177593408,-1.43010565665463,-1.82220108668508,-0.572941027853458,-0.00254239372419772,-0.00577680362200906,0.017590427129691,-8.42562084006408,-4.73969846649405,-0.494484996590202,0.0115922885264308,0.00128392994831343,0.00480193052015189
0.635,5.03578847982664,-3.89984350273622,-0.951350271691695,-0.0066610412678297,0.000396502991735401,-0.000100196500161502,0.733175256047161,0.399255645782191,-1.6030629253614,-0.00759529428073305,0.0030936206573807,-0.00244319089182663,-1.42962564852246,-1.82075642010875,-0.572374383352917,-0.00256076979916856,-0.00566166141743606,0.0169846218207712,-8.41840406523329,-4.73518738261988,-0.49390516977023,0.0120583829784046,0.00275422055057497,0.00394866174817827
0.64,5.03051837277206,-3.89587285697726,-0.94959841882303,-0.00645041787031736,0.000676874971746851,0.0003822535117317,0.731512126293183,0.398950957420936,-1.6016542810554,-0.00756418780221179,0.00229110052854974,-0.00248693875956483,-1.42914564039029,-1.81931175353247,-0.571807738852375,-0.00262190548876939,-0.00554860162360303,0.0164262240307547,-8.41118729040272,-4.73067629874572,-0.493325342950243,0.012533006203583,0.00446527779072298,0.00298885005113369
0.645,5.02524826571738,-3.89190221121828,-0.947846565954478,-0.00628508076128204,0.000893455468078263,0.0008217946032907,0.729848996538976,0.398646269059668,-1.60024563674935,-0.00758804647670194,0.00145156489730108,-0.00253061813322683,-1.42866563225789,-1.81786708695614,-0.571241094351834,-0.00272745816537854,-0.005437137619695,0.015895075350188,-8.40397051557193,-4.72616521487159,-0.49274551613027,0.012970467453468,0.00638370428793864,0.00194655036253785
0.65,5.01997815866281,-3.88793156545927,-0.94609471308604,-0.0061721880657711,0.0010232717976689,0.00119136881419466,0.72818586678477,0.3983415806984,-1.59883699244332,-0.00765834668867434,0.000572409966424325,-0.00257768303659853,-1.42818562412572,-1.81642242037981,-0.570674449851291,-0.00287072483763606,-0.00532922206127157,0.0153830431589571,-8.39675374074136,-4.72165413099742,-0.492165689310283,0.0133505596177566,0.00846807896458382,0.000855636580590947
0.655,5.01470805160812,-3.88396091970029,-0.944342860217489,-0.00611682499158354,0.00105527540403561,0.00145390100201151,0.726522737030564,0.398036892337146,-1.5974283481373,-0.00776000446231523,-0.000334152862733734,-0.0026308871630429,-1.42770561599309,-1.81497775380348,-0.570107805350748,-0.00303583012513652,-0.00522941137525505,0.0148940745528651,-8.38953696591034,-4.71714304712329,-0.491585862490311,0.0136772798989994,0.0106637673543033,-0.000237415714653383
0.66,5.00943794455355,-3.87999027394127,-0.942591007349051,-0.00611701497230569,0.00097549275620271,0.0015681443125538,0.724859607276585,0.397732203975877,-1.59601970383127,-0.00786549468356621,-0.0012552603412776,-0.00269125767812854,-1.42722560786092,-1.8135330872272,-0.569541160850205,-0.00319763254129112,-0.00513876647516255,0.0144212419730687,-8.38232019107977,-4.71263196324912,-0.491006035670338,0.0139452402181158,0.0128900517377982,-0.00128139335151971
0.665,5.00416783749887,-3.87601962818232,-0.9408391544805,-0.0061605788884637,0.000760570165520796,0.00149581684380397,0.723196477522379,0.397427515614638,-1.59461105952525,-0.007933104606056,-0.0021860853134275,-0.00275751371631036,-1.42674559972875,-1.81208842065087,-0.568974516349664,-0.00332322269858188,-0.00505134958071065,0.0139338353413364,-8.37510341624898,-4.70812087937497,-0.490426208850351,0.014120868155738,0.0150360332919782,-0.00222801998282663
0.67,4.9988977304443,-3.87204898242331,-0.939087301611949,-0.0062274654714071,0.000392901435277315,0.00121211728289791,0.721533347767945,0.397122827253369,-1.5932024152192,-0.00791733055208652,-0.00312420942243429,-0.00282645624464305,-1.42626559159635,-1.81064375407459,-0.568407871849121,-0.00337832739603974,-0.00495765208842214,0.0133927428748997,-8.36788664141841,-4.70360979550081,-0.489846382030379,0.0141660505816626,0.0169831783781765,-0.00303871264155865
0.675,4.99362762338961,-3.86807833666433,-0.937335448743511,-0.00629393663917623,-0.000118000408109029,0.000717379283890004,0.719870218013966,0.396818138892115,-1.59179377091317,-0.00778311155315279,-0.00405994173061799,-0.00289379258612734,-1.42578558346418,-1.80919908749826,-0.56784122734858,-0.00333514981886943,-0.00485033522128173,0.0127749446659896,-8.36066986658784,-4.69909871162666,-0.489266555210406,0.0140756663521379,0.0186365505012361,-0.00369103685872294
0.68,4.98835751633504,-3.86410769090534,-0.935583595874959,-0.00633272193683285,-0.00073656012105304,3.59860294698723e-05,0.71820708825976,0.396513450530847,-1.59038512660715,-0.00750427530108868,-0.00497476435227759,-0.00295468526167968,-1.425305575332,-1.80775442092198,-0.567274582848038,-0.00317056679061188,-0.00472508662942137,0.0120744874980699,-8.35345309175705,-4.6945876277525,-0.488686728390419,0.0138778735205437,0.0199187898930298,-0.00417651119964314
0.685,4.98308740928042,-3.86013704514636,-0.933831743006408,-0.0063114102467885,-0.00142196350788523,-0.000794876198066027,0.716543958505781,0.396208762169579,-1.58897648230112,-0.0070519777142494,-0.00584844989019877,-0.00300405860797339,-1.4248255671996,-1.80630975434565,-0.566707938347495,-0.00285937463686872,-0.00457722360072491,0.0112838612337763,-8.34623631692648,-4.69007654387836,-0.488106901570447,0.0136023910562607,0.0207413588441292,-0.0044919297228976
0.69,4.97781730222579,-3.85616639938735,-0.93207989013797,-0.00619911161443048,-0.0021393035148375,-0.00172664110965837,0.714880828751348,0.39590407380831,-1.58756783799507,-0.00640310405874144,-0.00666801764281373,-0.00303782464992086,-1.42434555906743,-1.80486508776937,-0.566141293846954,-0.00238294486894202,-0.00440168720252768,0.0103912100159189,-8.33901954209568,-4.6855654600042,-0.48752707475046,0.0132707203665672,0.0210253559161092,-0.0046386864983128
0.695,4.97254719517116,-3.85219575362837,-0.930328037269419,-0.00597839623726877,-0.00285520413712861,-0.00269038846762143,0.713217698997369,0.395599385447056,-1.58615919368907,-0.00556427102150574,-0.00743280726241221,-0.0030547620357799,-1.42386555093503,-1.80342042119304,-0.565574649346411,-0.00174863783833153,-0.00419701828317223,0.00939561129561042,-8.33180276726489,-4.68105437613005,-0.486947247930502,0.0129132842224866,0.0207592719870366,-0.00462981522073683
0.7,4.96727708811653,-3.84822510786938,-0.928576184400981,-0.00564673438699049,-0.00353382958134072,-0.00360003003108257,0.711554569243162,0.395294697085802,-1.58475054938302,-0.00457361139948287,-0.0081504473829642,-0.00305631523937886,-1.42338554280263,-1.80197575461671,-0.565008004845868,-0.000990461371737368,-0.00396632192249506,0.00831212125666091,-8.32458599243409,-4.67654329225589,-0.486367421110515,0.0125731569716443,0.0200045647594453,-0.00449183316015573
0.705,4.9620069810619,-3.8442544621104,-0.92682433153243,-0.00520858400022975,-0.00413650119426246,-0.00437844054262129,0.709891439489184,0.394990008724534,-1.58334190507699,-0.00347902126617568,-0.00882530083780766,-0.00304335490790606,-1.42290553467046,-1.80053108804043,-0.564441360345326,-0.000149279123941415,-0.00371426249006617,0.00716716448776358,-8.31736921760353,-4.67203220838174,-0.485787594290542,0.0122941960426509,0.0188561316970955,-0.00426336956298108
0.71,4.95673687400728,-3.84028381635139,-0.925072478663878,-0.00467160728279205,-0.00462002227735398,-0.00498466584657636,0.70822830973475,0.39468532036328,-1.58193326077097,-0.00232383457508301,-0.00944901751873074,-0.00301306509037509,-1.42242552653806,-1.7990864214641,-0.563874715844785,0.000741593240365024,-0.00344511335392832,0.00600042648624879,-8.31015244277273,-4.66752112450757,-0.485207767470555,0.0121160426296119,0.0174249151500896,-0.00399774356198817
0.715,4.95146676695265,-3.8363131705924,-0.923320625795327,-0.0040474314725538,-0.00493826475848205,-0.00541262420239775,0.706565179980544,0.394380632002012,-1.58052461646494,-0.0011473649641544,-0.0100006824919757,-0.00295958400303876,-1.42194551840589,-1.79764175488782,-0.563308071344244,0.00165542259415032,-0.00316314639188962,0.00486349393606646,-8.30293566794217,-4.66301004063344,-0.484627940650583,0.0120712844460601,0.015831483881491,-0.00376063944957527
0.72,4.94619665989802,-3.83234252483339,-0.921568772926776,-0.00335417623127299,-0.00505095385895593,-0.00566649882482763,0.704902050226565,0.394075943640743,-1.57911597215892,7.24268095472053e-06,-0.0104580048937628,-0.00287829115325882,-1.42146551027349,-1.79619708831149,-0.562741426843701,0.00256079228521517,-0.00287361675451146,0.00380616657923416,-8.29571889311137,-4.65849895675927,-0.484048113830596,0.0121785651978542,0.0141913311429292,-0.00361719801408216
0.725,4.94092655284339,-3.82837187907444,-0.919816920058338,-0.00262050744526499,-0.0049326209489759,-0.0057432203302006,0.703238920472359,0.393771255279489,-1.57770732785286,0.00108418292043112,-0.0108105983294545,-0.00276958910243925,-1.42098550214132,-1.79475242173521,-0.562174782343158,0.0034100900349162,-0.00258338979357564,0.00286450435634607,-8.2885021182808,-4.65398787288512,-0.483468287010623,0.0124412464711668,0.0126122757914081,-0.00362019219361665
0.73,4.93565644578877,-3.82440123331543,-0.918065067189787,-0.00188358964429866,-0.00457498955454041,-0.00563463654173245,0.701575790718152,0.393466566918235,-1.57629868354684,0.00201875933737823,-0.0110611464986507,-0.00263818472804276,-1.42050549400915,-1.79330775515888,-0.561608137842617,0.00414360551625558,-0.00230022188661548,0.00206101863954436,-8.28128534345001,-4.64947678901098,-0.482888460190651,0.01285170387496,0.0111944223336824,-0.0038090409733418
0.735,4.93038633873414,-3.82043058755644,-0.916313214321235,-0.00117980796732785,-0.00398477901360253,-0.00533825745497805,0.699912660963946,0.393161878556967,-1.57489003924081,0.00275363163558736,-0.0112157182609796,-0.00248925256391989,-1.42002548587675,-1.7918630885826,-0.561041493342074,0.00470731935624168,-0.00203090613116605,0.00141093263089273,-8.27406856861944,-4.64496570513681,-0.482308633370678,0.013394333392918,0.0100184158628149,-0.00421506675187819
0.74,4.92511623167951,-3.81645994179746,-0.914561361452797,-0.000538521921122997,-0.00318158358943909,-0.00486364620573874,0.698249531209967,0.392857190195713,-1.57348139493479,0.00324965082542023,-0.0112769785163078,-0.00232607479811348,-1.41954547774458,-1.79041842200627,-0.560474848841531,0.00506461416895612,-0.00178018800324782,0.000925974907570314,-8.26685179378842,-4.64045462126266,-0.481728806550692,0.0140461408425784,0.00913735649106824,-0.00486394441190165
0.745,4.91984612462494,-3.81248929603845,-0.912809508584246,1.78014202847857e-05,-0.00219683870347497,-0.00423237785234183,0.696586401455761,0.392552501834444,-1.57207275062876,0.00348573994567444,-0.011244502426753,-0.00215032867801968,-1.41906546961218,-1.78897375542994,-0.559908204340989,0.00519626249857113,-0.00155106383117621,0.000614572608962266,-8.25963501895785,-4.63594353738851,-0.481148979730719,0.0147763302924722,0.00857912312299134,-0.00577330378753458
0.75,4.91457601757025,-3.8085186502795,-0.911057655715808,0.000471501096210129,-0.0010722295310479,-0.00347570125550095,0.694923271701555,0.39224781347319,-1.57066410632271,0.00345520193323128,-0.0111172787993652,-0.00196326739417075,-1.41858546147978,-1.78752908885366,-0.559341559840448,0.00509668918368175,-0.00134563031536745,0.000481204675917191,-8.25241824412728,-4.63143245351436,-0.480569152910746,0.0155460030380295,0.00835087507161668,-0.00694837795364019
0.755,4.90930591051568,-3.80454800452048,-0.909305802847257,0.000808050223590252,0.000142418063045765,-0.00263261811549994,0.693260141947349,0.391943125111922,-1.56925546201671,0.00316279651687661,-0.0108953601007613,-0.00176678838285083,-1.41810545334761,-1.78608442227733,-0.558774915339907,0.00477099325645628,-0.00116592031875703,0.000525921283619301,-8.24520146929649,-4.6269213696402,-0.479989326090774,0.0163080922104714,0.00844175005318517,-0.00837776014371355
0.76,4.90403580346106,-3.8005773587615,-0.907553949978819,0.0010152240179279,0.00138958506402658,-0.00174967461404418,0.691597012193142,0.391638436750668,-1.56784681771066,0.00262397986753101,-0.0105799622469948,-0.0015640399263959,-1.41762544521521,-1.78463975570105,-0.558208270839364,0.00423403225964714,-0.00101440611200478,0.000743848117359007,-8.23798469446592,-4.62241028576605,-0.479409499270787,0.0170069026446303,0.00882358577173894,-0.0100303288204603
0.765,4.89876569640637,-3.79660671300252,-0.905802097110268,0.00108334775861444,0.00260227332663892,-0.000882557673804566,0.689933882439163,0.3913337483894,-1.56643817340463,0.00186661087742212,-0.0101726211558288,-0.00135944724948391,-1.41714543708304,-1.78319508912472,-0.557641626338821,0.00351189308325911,-0.000893981454030398,0.0011245115381478,-8.23076791963513,-4.61789920189189,-0.478829672450814,0.0175776310556007,0.00945019078961075,-0.0118533182413905
0.77,4.8934955893518,-3.79263606724351,-0.904050244241716,0.0010065153910574,0.0037013961305794,-9.84777131392966e-05,0.688270752684957,0.391029060028146,-1.56502952909858,0.000934296434494182,-0.00967489482561957,-0.00115841424232356,-1.41666542895064,-1.78175042254844,-0.557074981838278,0.00264492364700035,-0.000807491277377679,0.00165056850524696,-8.22355114480456,-4.61338811801774,-0.478249845630828,0.0179470873205003,0.0102566580320986,-0.0137708322536532
0.775,4.88822548229717,-3.78866542148452,-0.902298391373165,0.000783706899666533,0.00460039470967048,0.000527789825426758,0.686607622930751,0.390724371666877,-1.56362088479258,-0.000114545482596901,-0.00908940625867981,-0.000967311799277316,-1.41618542081846,-1.78030575597211,-0.556508337337737,0.00168667922868931,-0.000757527421229769,0.00229723653752239,-8.21633436997377,-4.60887703414359,-0.477670018810855,0.0180384375678317,0.0111623091251131,-0.0156865214791533
0.78,4.88295537524249,-3.78469477572554,-0.900546538504727,0.000418703908325602,0.00523028922279442,0.000935545469093914,0.684944493176545,0.390419683305623,-1.56221224048656,-0.00122111496106412,-0.00842310511172275,-0.000794171944474259,-1.41570541268629,-1.77886108939583,-0.555941692837195,0.000690138937563772,-0.000747208813933625,0.00303506068600465,-8.20911759514297,-4.60436595026944,-0.477090191990868,0.0177860219217833,0.0120831991772068,-0.017498316509706
0.785,4.87768526818786,-3.78072412996656,-0.898794685636062,-7.98438702982298e-05,0.00556857078228432,0.00110211542487159,0.683281363422566,0.390114994944355,-1.56080359618051,-0.00234275146896386,-0.00769131648436933,-0.000649138121700794,-1.41522540455389,-1.7774164228195,-0.555375048336652,-0.000308012837152686,-0.000780733803757197,0.00383322410777803,-8.20190082031218,-4.59985486639528,-0.476510365170896,0.0171540112947872,0.0129471934568539,-0.0191161951359755
0.79,4.87241516113329,-3.77675348420757,-0.897042832767625,-0.000697926513604134,0.00563395575289923,0.00103764534220956,0.68161823366836,0.389810306583101,-1.55939495187448,-0.00345014529362754,-0.00691643103964043,-0.000543364276645498,-1.41474539642172,-1.77597175624322,-0.554808403836109,-0.00128475294862432,-0.000862353522423142,0.00465930314051144,-8.19468404548161,-4.59534378252113,-0.475930538350923,0.0161376368938007,0.013695024254681,-0.0204643286940866
0.795,4.86714505407861,-3.77278283844856,-0.895290979899073,-0.00141781330110475,0.00545892563199856,0.000763708496026727,0.679955103913926,0.389505618221847,-1.55798630756843,-0.0045178992744505,-0.00612031756943524,-0.00048624322596372,-1.41426538828932,-1.77452708966689,-0.554241759335568,-0.00222114249558732,-0.000994600901669965,0.00548135348353293,-8.18746727065081,-4.59083269864696,-0.47535071153095,0.0147511968603092,0.0142768581789351,-0.0214834561220492
0.8,4.86187494702403,-3.76881219268958,-0.893539127030635,-0.00222050646389065,0.00507782099783413,0.00030678190165947,0.678291974159947,0.389200929860579,-1.55657766326243,-0.00552642687691855,-0.00531842628571496,-0.000482729150067217,-1.41378538015692,-1.77308242309056,-0.553675114835027,-0.00310314972371076,-0.00117703851574224,0.00627383635045532,-8.18025049582025,-4.58632161477283,-0.474770884710964,0.013024220223937,0.0146579062393755,-0.022145910181685
0.805,4.85660483996935,-3.76484154693057,-0.891787274162084,-0.00308611684134652,0.00452660603841482,-0.000301518453063334,0.676628844405741,0.388896241499324,-1.55516901895638,-0.00646298687302238,-0.00451934218511718,-0.000533065026068768,-1.41330537202475,-1.77163775651428,-0.553108470334484,-0.00392266370724656,-0.00140607487037906,0.00701802008621091,-8.17303372098945,-4.58181053089868,-0.474191057890991,0.011000003065435,0.0148192632280164,-0.0224550138830112
0.81,4.85133473291478,-3.76087090117161,-0.890035421293533,-0.00399534893032291,0.0038461558821208,-0.00102782047598296,0.674965714651762,0.388591553138042,-1.55376037465035,-0.00732290606661188,-0.00372681581366658,-0.000633565493148742,-1.41282536389235,-1.770193089938,-0.552541825833943,-0.00467856626331784,-0.00167556936002979,0.00770180526387433,-8.16581694615888,-4.57729944702452,-0.473611231071004,0.0087327292049455,0.0147600773244694,-0.0224372725380802
0.815,4.84606462586015,-3.7569002554126,-0.888283568425095,-0.00493358981270402,0.00309271867491252,-0.00183499907316372,0.673302584897328,0.388286864776802,-1.55235173034433,-0.0081203177387034,-0.00294209134190352,-0.000776778652177925,-1.41234535576018,-1.76874842336167,-0.5519751813334,-0.00538559619436408,-0.00197784341495028,0.00832610371889334,-8.15860017132832,-4.57278836315037,-0.473031404251046,0.00629139142664223,0.014511561455574,-0.0221524593100077
0.82,4.84079451880552,-3.75292960965362,-0.886531715556544,-0.00589083534050059,0.00233783553533202,-0.00267804458672464,0.67163945514335,0.387982176415534,-1.5509430860383,-0.00888683379343384,-0.00216594420177829,-0.000953578284986872,-1.41186534762801,-1.7673037567854,-0.551408536832858,-0.00607332437336375,-0.00230529180996736,0.00890271864583915,-8.15138339649752,-4.56827727927622,-0.472451577431059,0.00375798696026783,0.0141300335555428,-0.0216852403295829
0.825,4.8355244117509,-3.74895896389461,-0.884779862687992,-0.00685488314381863,0.00165102879250256,-0.00350539152842818,0.669976325389143,0.38767748805428,-1.54953444173228,-0.00964883039283849,-0.0014006443982758,-0.00115727956886417,-1.41138533949561,-1.76585909020901,-0.550841892332315,-0.00676727248154248,-0.00265180681024091,0.00943823602893822,-8.14416662166673,-4.56376619540205,-0.471871750611086,0.00121487457849168,0.0136601906500691,-0.0211026554110438
0.83,4.83025430469627,-3.74498831813563,-0.883028009819554,-0.00780423476202465,0.00108590600514624,-0.00426080279812845,0.668313195634937,0.387372799693011,-1.54812579742622,-0.0104073879718324,-0.000652388739827724,-0.00138613682052477,-1.41090533136344,-1.76441442363273,-0.550275247831774,-0.00747187862037813,-0.00301302488150153,0.00992083917181946,-8.13694984683593,-4.5592551115279,-0.4712919237911,-0.00126181525498259,0.0131067717383173,-0.0204214291071355
0.835,4.82498419764164,-3.74101767237667,-0.881276156951003,-0.00870438357830047,0.000678032649114668,-0.0048816786758198,0.666650065880731,0.387068111331743,-1.5467171531202,-0.0111319304387926,6.6008936070276e-05,-0.00164363747360922,-1.41042532323104,-1.7629697570564,-0.549708603331231,-0.00816461567342879,-0.00338593183333729,0.0103170248494202,-8.12973307200537,-4.55474402765375,-0.470712096971113,-0.00359806237643799,0.0124281876777877,-0.0196020521602353
0.84,4.81971409058701,-3.73704702661766,-0.879524304082452,-0.00951006658777034,0.000444834106002082,-0.00530480205507783,0.664986936126525,0.386763422970475,-1.54530850881417,-0.0117648425230635,0.00073482085076755,-0.00193661600982353,-1.40994531509864,-1.76152509048012,-0.549141958830688,-0.00879913992660924,-0.00376783328885687,0.0105769055612929,-8.12251629717457,-4.55023294377959,-0.47013227015114,-0.00572058504555921,0.0115495671709889,-0.0185649109046629
0.845,4.81444398353239,-3.73307638085868,-0.8777724512139,-0.010180718518767,0.000379519902604525,-0.00549910626167743,0.663323806372546,0.386458734609221,-1.54389986450815,-0.0122436108714146,0.00133396271667021,-0.00226836093431978,-1.40946530696647,-1.76008042390384,-0.548575314330147,-0.00932284268666037,-0.00415320339536222,0.0106545063736941,-8.115299522344,-4.54572185990544,-0.469552443331168,-0.00757233648444256,0.0104124051591101,-0.0172452807176956
0.85,4.80917387647776,-3.72910573509969,-0.876020598345463,-0.0107005727248571,0.000442911473516022,-0.00550761447605408,0.661660676618339,0.386154046247952,-1.54249122020212,-0.0125292105977874,0.00185190684830565,-0.00263000192288954,-1.40898529883407,-1.75863575732751,-0.548008669829605,-0.00969971007625743,-0.00452972605835265,0.0105328327072211,-8.10808274751321,-4.54121077603128,-0.468972616511195,-0.00913394635763226,0.00903699014659911,-0.015660887533925
0.855,4.80390376942313,-3.72513508934068,-0.874268745477025,-0.0110797619533492,0.000568094557930141,-0.0054424571179225,0.659997546864133,0.385849357886698,-1.5410825758961,-0.0126106863209513,0.00228568742658657,-0.00300083298067552,-1.4085052907019,-1.75719109075118,-0.547442025329063,-0.00991451175992202,-0.00487887396315158,0.0102256426900468,-8.10086597268264,-4.53669969215713,-0.468392789691208,-0.0104213182605871,0.00752479814133748,-0.0139142834714777
0.86,4.7986336623685,-3.7211644435817,-0.872516892608473,-0.0113396757712911,0.000683651612310563,-0.005429285438348,0.658334417109927,0.385544669525444,-1.53967393159004,-0.0124925717753067,0.0026356669684952,-0.00335843745696724,-1.4080252825695,-1.75574642417484,-0.546875380828519,-0.00996449065006233,-0.00518270185831187,0.00975937308072703,-8.09364919785185,-4.53218860828298,-0.467812962871236,-0.0114639041353962,0.00599966521055103,-0.0121302065793003
0.865,4.79336355531387,-3.71719379782269,-0.870765039739922,-0.0115038828899383,0.000736656478831124,-0.00556044514284512,0.656671287355948,0.385239981164176,-1.53826528728402,-0.0121904260470197,0.00290435902050359,-0.0036871317174994,-1.40754527443733,-1.75430175759857,-0.546308736327978,-0.00985786103817344,-0.0054303286515763,0.00916179336450748,-8.08643242302105,-4.52767752440882,-0.467233136051263,-0.0122908112615954,0.00456121258463303,-0.0104067499742716
0.87,4.78809344825925,-3.71322315206373,-0.869013186871371,-0.0115941892158953,0.00069571749762766,-0.00588653594581555,0.655008157601742,0.384935292802922,-1.53685664297799,-0.0117270728552331,0.00309483454452186,-0.00397873549248283,-1.40706526630515,-1.75285709102224,-0.545742091827437,-0.00961058748871657,-0.00561814691332495,0.00845919653195695,-8.07921564819026,-4.52316644053467,-0.466653309231276,-0.0129246061740736,0.00327731266522213,-0.00880792554651296
0.875,4.78282334120468,-3.70925250630472,-0.867261334002819,-0.0116272550329734,0.000544175937719003,-0.00642452705193875,0.653345027847308,0.384630604441654,-1.53544799867197,-0.0111256307891205,0.00320837566760103,-0.00423028298541842,-1.40658525817275,-1.75141242444596,-0.545175447326894,-0.00923940264634013,-0.00574718882185796,0.0076750534257625,-8.07199887335969,-4.51865535666052,-0.466073482411304,-0.0133778767194269,0.00218985260859651,-0.00737086678591919
0.88,4.77755323414999,-3.70528186054574,-0.865509481134382,-0.0116150166495115,0.000279565780619859,-0.00716171678246867,0.651681898093329,0.384325916080385,-1.53403935436594,-0.0104099632563981,0.00324623765483401,-0.00444287595564048,-1.40610525004058,-1.74996775786963,-0.544608802826351,-0.0087619604106508,-0.00582239452318835,0.00683175034098314,-8.06478209852889,-4.51414427278637,-0.465493655591331,-0.0136553530522496,0.00131898435621872,-0.00611214783671526
0.885,4.77228312709542,-3.70131121478676,-0.86375762826583,-0.0115642886956109,-8.70377321287334e-05,-0.00805753054891064,0.650018768339123,0.384021227719131,-1.53263071005992,-0.00960450783285042,0.00321004314156456,-0.00462071020633385,-1.40562524190841,-1.74852309129335,-0.544042158325809,-0.00819649503508998,-0.00585179646515925,0.00595137117408,-8.05756532369833,-4.5096331889122,-0.464913828771358,-0.0137535066938199,0.000667475670161412,-0.00503285242893043
0.89,4.76701302004079,-3.69734056902777,-0.862005775397392,-0.0114753104969006,-0.000534175315969659,-0.0090470911227418,0.648355638585144,0.383716539357863,-1.53122206575387,-0.0087315032608206,0.00310082853361848,-0.00476988329266568,-1.40514523377578,-1.74707842471702,-0.543475513825268,-0.00755921238489045,-0.00584509980916346,0.00505468524766799,-8.05034854886776,-4.50512210503807,-0.464334001951386,-0.0136595582459645,0.000225502077426271,-0.00412330074390691
0.895,4.76174291298611,-3.69336992326876,-0.860253922528841,-0.0113435426652719,-0.00102883234149874,-0.0100432548217895,0.646692508830938,0.383411850996609,-1.52981342144784,-0.0078137084670953,0.00292166816503841,-0.00489802998712901,-1.40466522564361,-1.74563375814074,-0.542908869324727,-0.00686698261094379,-0.00581371162094953,0.00416253979359082,-8.04313177403696,-4.50061102116391,-0.463754175131385,-0.0133563602113196,-2.60274727886445e-05,-0.00336724243740092
0.9,4.75647280593148,-3.68939927750978,-0.85850206966029,-0.011158189822722,-0.00152728803082076,-0.0109366090363431,0.645029379076732,0.383107162635355,-1.52840477714182,-0.0068726568710149,0.00267702717928262,-0.00501369508962531,-1.40418521751121,-1.74418909156441,-0.542342224824182,-0.00613558930208055,-0.00577002259544003,0.00329551644239152,-8.0359149992064,-4.49609993728976,-0.463174348311426,-0.0128196044676754,-0.000112470210510048,-0.00274504350919664
0.905,4.75120269887691,-3.6854286317508,-0.856750216791852,-0.0108996310489993,-0.00198438240579537,-0.0116065526030025,0.643366249322526,0.382802474274087,-1.52699613283579,-0.00592055104502292,0.00236772016230145,-0.00512489453968168,-1.40370520937904,-1.74274442498808,-0.541775580323639,-0.00537205385878368,-0.00572500669945317,0.0024700429747311,-8.0286982243756,-4.49158885341561,-0.462594521491454,-0.0120106359588234,-6.15517746850912e-05,-0.00223543389700921
0.91,4.74593259182222,-3.68145798599178,-0.854998363923301,-0.0105533163278102,-0.00236833495593346,-0.0119665529135612,0.641703119568319,0.382497785912832,-1.52558748852974,-0.00496393102135471,0.00199299898222953,-0.0052383477406101,-1.40322520124687,-1.7412997584118,-0.5412089358231,-0.00457896928456805,-0.00568741471995727,0.00169769907587155,-8.02148144954481,-4.48707776954144,-0.462014694671467,-0.0108952416364158,0.000100314413914117,-0.00181500426425682
0.915,4.74066248476765,-3.6774873402328,-0.853246511054749,-0.0101332324237983,-0.00267347969193925,-0.012020407680042,0.640039989814341,0.382193097551564,-1.52417884422374,-0.00401777230029806,0.00155885890278362,-0.00535966473399661,-1.40274519311447,-1.73985509183547,-0.540642291322557,-0.00376907241414452,-0.00566494003937911,0.000988478774736556,-8.01426467471401,-4.48256668566729,-0.46143486785148,-0.00947891568944017,0.000350417874556715,-0.00145690910977544
0.92,4.73539237771303,-3.67351669447382,-0.851494658186198,-0.00968340631573049,-0.00291836300845032,-0.0118597717488625,0.638376860059907,0.38188840919031,-1.52277019991769,-0.0031089040759593,0.00107947050848261,-0.00549362954699049,-1.4022651849823,-1.73841042525919,-0.540075646822014,-0.00296854354315117,-0.00566478791827334,0.000352058627203357,-8.00704789988345,-4.47805560179314,-0.460855041031508,-0.00780966830227459,0.000670075817062898,-0.00113257452337474
0.925,4.73012227065834,-3.66954604871484,-0.84974280531776,-0.00925634660881407,-0.00313029604808404,-0.0116036118415257,0.636713730305928,0.381583720829042,-1.52136155561166,-0.00226665705728289,0.000570843812730082,-0.00564443644564701,-1.4017851768499,-1.73696575868286,-0.539509002321472,-0.00220708373846894,-0.00569329128306008,-0.000203923585056841,-7.99983112505265,-4.47354451791898,-0.460275214211535,-0.00594658691355348,0.00104325603823903,-0.000816418414848311
0.93,4.72485216360377,-3.66557540295585,-0.847990952449209,-0.00889635658227188,-0.00333269090750539,-0.0113507597524891,0.635050600551722,0.381279032467788,-1.51995291130561,-0.00151601159604183,4.6521440674878e-05,-0.00581581387857575,-1.40130516871773,-1.73552109210658,-0.538942357820929,-0.00151064063367932,-0.00575562756358498,-0.000674997621789367,-7.99261435022208,-4.46903343404483,-0.459695387391562,-0.00393697238848335,0.00145513823446204,-0.000489618751390972
0.935,4.71958205654914,-3.66160475719684,-0.846239099580657,-0.00863627625073062,-0.00354104126442284,-0.0111689042312321,0.633387470797743,0.380974344106534,-1.51854426699961,-0.000877727535622537,-0.000481963362048004,-0.00601063555595797,-1.40082516058555,-1.73407642553025,-0.538375713320388,-0.000901423938130906,-0.00585556035118662,-0.00105928212323164,-7.98539757539129,-4.46452235017068,-0.459115560571576,-0.00181524277798458,0.00189117534384287,-0.000141527185184159
0.94,4.71431194949452,-3.65763411143786,-0.84448724671222,-0.00849832506802126,-0.00376230301039763,-0.0110960323961842,0.631724341043309,0.380669655745265,-1.51713562269359,-0.00037000110700985,-0.00100342496841145,-0.0062303322004616,-1.40034515245293,-1.73263175895391,-0.537809068819845,-0.00039952195727545,-0.00599511775295753,-0.00135648443645935,-7.97818080056072,-4.46001126629652,-0.458535733751603,0.000391237634533163,0.00233617804273953,0.000229577983128227
0.945,4.70904184243989,-3.65366346567887,-0.842735393843668,-0.00849489987102948,-0.0039948685483103,-0.0111423391097408,0.63006121128933,0.380364967384011,-1.51572697838753,-9.17741682478516e-06,-0.00150576385757147,-0.00647470012942266,-1.39986514432076,-1.73118709237764,-0.537242424319304,-2.35718066519239e-05,-0.00617459977837837,-0.00156722175577314,-7.97096402572993,-4.45550018242237,-0.457955906931616,0.00265647108056772,0.00277331498971589,0.000615309756115985
0.95,4.70377173538526,-3.64969281991986,-0.840983540975117,-0.00862905522687272,-0.00422886557433611,-0.0112922949531289,0.628398081535124,0.380060279022743,-1.51431833408151,0.000190354696727233,-0.00197494581419805,-0.00674181146396101,-1.39938513618836,-1.72974242580136,-0.536675779818761,0.00020933361548833,-0.00639261533142543,-0.00169271704926065,-7.96374725089913,-4.45098909854821,-0.457376080111644,0.0049502690128911,0.0031831174416906,0.000995788291481126
0.955,4.69850162833063,-3.64572217416091,-0.839231688106679,-0.0088935311105057,-0.00444938917194086,-0.0115104024757191,0.626734951780918,0.379755590661489,-1.51290968977548,0.000219682770019426,-0.0023961521291442,-0.00702730385355005,-1.39890512805619,-1.72829775922503,-0.53610913531822,0.000286907717144731,-0.00664505143990318,-0.00173634280639509,-7.95653047606856,-4.44647801467406,-0.456796253291671,0.00723565049392782,0.00354425833706027,0.0013399910590135
0.96,4.693231521276,-3.6417515284019,-0.837479835238128,-0.0092673872788787,-0.00464777806058525,-0.0117577900225327,0.625071822026712,0.379450902300221,-1.51150104546946,8.69763473897642e-05,-0.00276082277716635,-0.00732278281196139,-1.39842511992401,-1.7268530926487,-0.535542490817678,0.000212434502603566,-0.00692198829755827,-0.00170988715162592,-7.94931370123777,-4.44196693079992,-0.456216426471698,0.00947425182532714,0.00383957902795021,0.00161098281520425
0.965,4.68796141422138,-3.63778088264291,-0.835727982369576,-0.00971256977907046,-0.0048342463515227,-0.0120109323499231,0.623408692272506,0.379146213938967,-1.5100924011634,-0.00016946357843522,-0.00307485984028353,-0.00761446016926107,-1.39794511179173,-1.72540842607242,-0.534975846317135,1.68247029591138e-05,-0.00720459418828854,-0.00164090723722752,-7.9420969264072,-4.43745584692576,-0.455636599651712,0.011633402666847,0.0040634187502032,0.00177259329960758
0.97,4.68269130716675,-3.63381023688393,-0.833976129501139,-0.0101779479051124,-0.00503324623272746,-0.0122610491272247,0.621745562518527,0.378841525577698,-1.50868375685738,-0.000486315299039087,-0.00335569378613905,-0.00788502196973211,-1.39746510365933,-1.72396375949609,-0.534409201816594,-0.000245932188163194,-0.00746771091725396,-0.00156962570522877,-7.93488015157641,-4.43294476305159,-0.455056772831739,0.0136845843137888,0.00421970435437044,0.00179354224341996
0.975,4.67742120011212,-3.62983959112495,-0.832224276632587,-0.0106160661926563,-0.0052599748350132,-0.012499287815765,0.62008243276432,0.378536837216444,-1.50727511255138,-0.000803605883851477,-0.00361897792912431,-0.00812046059764328,-1.39698509552704,-1.72251909291981,-0.533842557316051,-0.000524021782418552,-0.00769034670595048,-0.00153216425266541,-7.92766337674584,-4.42843367917746,-0.454476946011752,0.0156068329100565,0.00431214889916411,0.00166074698955956
0.98,4.67215109305749,-3.62586894536597,-0.830472423764149,-0.0110003619294839,-0.00550163427611807,-0.0127108391313175,0.618419303010114,0.378232148855176,-1.50586646824533,-0.00109017542842022,-0.00386905631692629,-0.00831669974939241,-1.39650508739476,-1.72107442634353,-0.533275912815508,-0.000789977209692611,-0.00786554049234852,-0.00154487367308038,-7.92044660191505,-4.4239225953033,-0.45389711919178,0.0174018966545494,0.00433765904630477,0.00140030354369508
0.985,4.66688098600287,-3.62189829960695,-0.828720570895598,-0.011321468101938,-0.00572226392926607,-0.0128789577160538,0.616756173255908,0.377927460493908,-1.50445782393928,-0.00133734399127873,-0.0040997196850754,-0.0084777188136125,-1.39602507926247,-1.7196297597672,-0.532709268314965,-0.00103451194863405,-0.00799825519349375,-0.00160567408955842,-7.91322982708448,-4.41941151142913,-0.453317292371793,0.0190929035864489,0.00428505639245798,0.00107502668889648
0.99,4.66161087894824,-3.61792765384797,-0.826968718027047,-0.0115693744862503,-0.00588328575308629,-0.0129873480297113,0.615093043501702,0.377622772132639,-1.50304917963325,-0.0015341831107773,-0.00430024422946588,-0.00860794851749144,-1.39554507113019,-1.71818509319087,-0.532142623814424,-0.00124472872906884,-0.00809520777851671,-0.00170722385330765,-7.90601305225368,-4.414900427555,-0.45273746555182,0.0207022119779276,0.00413599287880769,0.000756272376672562
0.995,4.65634077189361,-3.61395700808899,-0.825216865158495,-0.0117337583565102,-0.00596033081871303,-0.0130193936868427,0.613429913747723,0.377318083771385,-1.50164053532725,-0.00166772072406941,-0.00446011631876809,-0.00871072613392772,-1.3950650629979,-1.71674042661459,-0.531575979313882,-0.00140595082445931,-0.0081618412217346,-0.00184316134430698,-7.89879627742289,-4.41038934368083,-0.452157638731848,0.0222438090118289,0.00386811338544039,0.000504628422937639
1,4.65107066483898,-3.60998636232998,-0.823465012289944,-0.0118267232595537,-0.00594791250596002,-0.0129609850191633,0.611766783993289,0.377013395410117,-1.5002318910212,-0.00175250844145801,-0.0045689868012315,-0.00879391480675991,-1.39458505486562,-1.71529576003826,-0.531009334813339,-0.00153030100451231,-0.00820874697384096,-0.00200187075648535,-7.89157950259209,-4.40587825980668,-0.451577811911875,0.02373662365018,0.0034569635871765,0.000369358769708896
1.005,4.64580055778441,-3.60601571657099,-0.821713159421506,-0.0118939730959538,-0.00585546598279135,-0.0128098797172911,0.61010365423931,0.376708707048863,-1.49882324671518,-0.00184379239234388,-0.0046135799600631,-0.00887202584458492,-1.39410504673333,-1.71385109346198,-0.530442690312798,-0.00166881688780333,-0.00825489280377128,-0.00216075552569638,-7.88436272776153,-4.40136717593252,-0.450997985091888,0.0252067060432592,0.0028734684010971,0.000389744891838367
1.01,4.64053045072973,-3.60204507081198,-0.819961306552955,-0.0119963580954881,-0.00570348605695107,-0.012582584498612,0.608440524485104,0.376404018687595,-1.49741460240915,-0.00201115659727538,-0.00457752474174935,-0.0089607593642041,-1.39362503860104,-1.71240642688565,-0.529876045812257,-0.00188612278197691,-0.00832140490089153,-0.00229210562112722,-7.87714595293073,-4.39685609205837,-0.450418158271916,0.0266671868661756,0.00208364714394133,0.000591635471435891
1.015,4.63526034367516,-3.59807442505303,-0.818209453684517,-0.0121829377097486,-0.0055240438265783,-0.0123123509926242,0.606777394731125,0.37609933032634,-1.49600595810313,-0.00230217270410606,-0.00444567232467051,-0.0090704547764359,-1.39314503046876,-1.71096176030932,-0.529309401311714,-0.00222612013962882,-0.0084230159657495,-0.00237474728921807,-7.86992917810016,-4.39234500818422,-0.449838331451929,0.028098521755328,0.00105527744180414,0.000984050415298073
1.02,4.62999023662047,-3.59410377929404,-0.816457600815966,-0.0124798334059354,-0.00535811655744091,-0.0120410269750381,0.605114264976919,0.375794641965072,-1.4945973137971,-0.00272978810495365,-0.00420806569015725,-0.00920443831926764,-1.39266502233647,-1.70951709373304,-0.528742756811171,-0.00270014152610554,-0.00856535025042999,-0.0023991801726835,-7.86271240326937,-4.38783392431007,-0.449258504631956,0.0294466880969056,-0.000233292322744902,0.00155919819164308
1.025,4.6247201295659,-3.59013313353503,-0.814705747947414,-0.0128978170846377,-0.00524166700742159,-0.0118045505443121,0.603451135222713,0.375489953603818,-1.49318866949105,-0.0032893321198497,-0.00386156860888129,-0.00936288659764823,-1.39218501420419,-1.70807242715676,-0.52817611231063,-0.0033028209270239,-0.00874933214420723,-0.00236291894117581,-7.8554956284388,-4.38332284043591,-0.448678677811984,0.0306419120905907,-0.00178490542530357,0.00229650160744065
1.03,4.61945002251122,-3.58616248777605,-0.812953895078977,-0.01344392805486,-0.00519005635899249,-0.0116200324540857,0.601788005468507,0.375185265242564,-1.49178002518505,-0.00398148269061601,-0.00341041575079674,-0.00954717033548473,-1.3917050060719,-1.70662776058043,-0.527609467810088,-0.00403336489220943,-0.00897658775392527,-0.00226302683511188,-7.84827885360824,-4.37881175656176,-0.448098850992011,0.0316237807034274,-0.00357727697426747,0.00316730007278132
1.035,4.61417991545665,-3.58219184201704,-0.811202042210425,-0.0141190300029185,-0.00519875865428204,-0.0114902007826202,0.6001248757143,0.374880576881296,-1.490371380879,-0.00480861063091424,-0.00286465716142095,-0.00975792769734313,-1.39122499793962,-1.70518309400416,-0.527042823309545,-0.00489160824929329,-0.00924786541687262,-0.00209492238648751,-7.84106207877721,-4.37430067268761,-0.447519024172038,0.0323414086740182,-0.00556294397615789,0.00413359293190125
1.04,4.60890980840196,-3.57822119625808,-0.809450189341874,-0.0149020947205138,-0.00525843883161615,-0.011420766842391,0.598461745960321,0.374575888520042,-1.48896273657297,-0.00574658030230728,-0.00223782249863943,-0.00998806067800282,-1.39074498980733,-1.70373842742782,-0.526476178809002,-0.00585112232515507,-0.00955539359531191,-0.00185837081822414,-7.83384530394665,-4.36978958881345,-0.446939197352052,0.0327282922969035,-0.00767235776822535,0.00514150499962727
1.045,4.60363970134739,-3.57425055049907,-0.807698336473436,-0.0157413932074116,-0.0053640885513794,-0.0114280977875213,0.596798616205888,0.374271200158773,-1.48755409226695,-0.00672895863291088,-0.0015467808377448,-0.0102193852732845,-1.39026498167505,-1.70229376085149,-0.525909534308459,-0.00684426401865265,-0.00987894989622447,-0.00156164265112321,-7.82662852911585,-4.36527850493931,-0.446359370532065,0.0326937965611495,-0.00981550343205169,0.00612060438731119
1.05,4.59836959429276,-3.57027990474006,-0.805946483604771,-0.0165676224088368,-0.00550685479701568,-0.011524214726075,0.595135486451909,0.373966511797519,-1.48614544796089,-0.00766915563468731,-0.000811098754505429,-0.0104285464835094,-1.38978497354276,-1.70084909427521,-0.52534288980792,-0.00778305743180803,-0.0101927178914489,-0.00121533947619417,-7.81941175428528,-4.36076742106515,-0.445779543712092,0.0321571962273861,-0.01188992989816,0.00699882338703869
1.055,4.59309948723808,-3.56630925898111,-0.804194630736333,-0.0173149817174003,-0.00566199453402778,-0.0116969486970581,0.593472356697703,0.373661823436251,-1.4847368036549,-0.00849505978225414,-5.09666570225969e-05,-0.0105956947512438,-1.38930496541047,-1.69940442769888,-0.524776245307377,-0.00859190029848165,-0.0104755695305682,-0.000822417354914887,-7.81219497945449,-4.356256337191,-0.44519971689212,0.0310937446286525,-0.0137941398891218,0.00772179674337798
1.06,4.58782938018345,-3.5623386132221,-0.802442777867896,-0.0179265212249891,-0.00579254338589976,-0.0119126547794162,0.591809226943724,0.373357135074997,-1.48332815934884,-0.00915436371098827,0.000713665663466794,-0.010705828036536,-1.3888249572783,-1.69795976112255,-0.524209600806834,-0.0092130581866697,-0.0107124736901286,-0.00037788873728754,-7.80497820462392,-4.35174525331684,-0.444619890072133,0.0295383667157702,-0.015433801032632,0.00825554934797223
1.065,4.58255927312888,-3.55836796746311,-0.800690924999344,-0.0183561723784576,-0.00586487689393885,-0.0121343750536643,0.59014609718929,0.373052446713729,-1.48191951504282,-0.00960830596100216,0.00146542596889876,-0.0107477743812292,-1.3883449491459,-1.69651509454627,-0.523642956306292,-0.00960220978822904,-0.0108927390585743,0.000125769151638265,-7.79776142979313,-4.34723416944269,-0.444040063252174,0.0275601809393039,-0.0167329031070151,0.00858417159671541
1.07,4.57728916607425,-3.55439732170413,-0.798939072130793,-0.0185811459430791,-0.00585799299661199,-0.0123304738338064,0.588482967435311,0.372747758352475,-1.48051087073679,-0.00984216000801661,0.00219370271418546,-0.0107175319762978,-1.38786494101362,-1.69507042796994,-0.523076311805751,-0.00974007554986917,-0.0110133508654428,0.000697469403349005,-7.79054465496256,-4.34272308556852,-0.443460236432188,0.0252548344158362,-0.0176534870699299,0.00871798056080277
1.075,4.57201905901962,-3.55042667594512,-0.797187219262241,-0.0186033654654614,-0.00576076323648967,-0.0124729370242511,0.586819837681105,0.37244306999122,-1.47910222643077,-0.00986850986618746,0.00289583147366349,-0.0106185240933106,-1.38738493288133,-1.69362576139366,-0.522509667305208,-0.00963619429451027,-0.0110791431420035,0.00134680033587234,-7.78332788013176,-4.33821200169439,-0.442880409612215,0.0227363360323071,-0.0181953951398265,0.00869151781717355
1.08,4.566748951965,-3.54645603018616,-0.795435366393804,-0.0184444389571434,-0.00556901225244585,-0.012543501613125,0.585156707926899,0.372138381629952,-1.47769358212472,-0.00972102405965418,0.00357729880495487,-0.0104586251112496,-1.38690492474905,-1.69218109481733,-0.521943022804665,-0.00932331519589841,-0.0110994846805928,0.00208182499039604,-7.77611110530097,-4.33370091782022,-0.442300582792228,0.0201181290587989,-0.0183909789840672,0.00855187986422399
1.085,4.56147884491037,-3.54248538442715,-0.793683513525252,-0.0181536146347494,-0.00528993106771883,-0.0125475565620991,0.583493578172693,0.371833693268698,-1.47628493781869,-0.00945992629312109,0.00425295898259236,-0.0102513223716224,-1.38642491661676,-1.69073642824105,-0.521376378304122,-0.00886322479345892,-0.0110894497599905,0.0029089802934951,-7.76889433047018,-4.32918983394607,-0.441720755972256,0.0175110500994898,-0.018319802130722,0.00835811617527443
1.09,4.55620873785574,-3.53851473866817,-0.791931660656701,-0.0178035445623068,-0.00494214194769343,-0.0125110399127186,0.581830448418486,0.37152900490743,-1.47487629351266,-0.00916726851331913,0.00494218261006091,-0.0100152917782504,-1.38594490848448,-1.68929176166472,-0.520809733803581,-0.00834188244488539,-0.0110687832827145,0.00383128969074136,-7.76167755563961,-4.32467875007191,-0.441140929152283,0.0150210613804259,-0.0181000762667069,0.00817471377740529
1.095,4.55093863080111,-3.53454409290916,-0.790179807788263,-0.0174612934478854,-0.00454592777485872,-0.0124572043393491,0.580167318664508,0.371224316546176,-1.47346764920664,-0.00891951543717055,0.00565735129172187,-0.00976769035214342,-1.38546490035219,-1.68784709508844,-0.52024308930304,-0.00784172330306058,-0.0110536204794043,0.00484264316793782,-7.75446078080904,-4.32016766619776,-0.44056110233231,0.0127286335477614,-0.0178406232072173,0.00804785601634157
1.1,4.54566852374649,-3.5305734471502,-0.788427954919712,-0.0171650833807738,-0.00411496660498824,-0.0123881036212953,0.578504188910301,0.370919628184907,-1.47205900490061,-0.00876599655884523,0.00639487404696199,-0.00951848448881642,-1.3849848922199,-1.68640242851205,-0.519676444802498,-0.00742001166932651,-0.0110495267982174,0.00592300954647644,-7.74724400597825,-4.31565658232361,-0.439981275512309,0.0106739907668015,-0.0176037468251367,0.00798725179051524
1.105,4.54039841669191,-3.52660280139119,-0.786676102051274,-0.0169194962235504,-0.00365450032337834,-0.0122793376031163,0.576841059156095,0.370614939823653,-1.47065036059456,-0.00872499586528348,0.00713160100248458,-0.00926953762529611,-1.38450488408762,-1.68495776193578,-0.519109800301953,-0.00710501397751348,-0.011050040944118,0.00703658346183637,-7.74002723114768,-4.31114549844946,-0.439401448692337,0.00885854247634655,-0.0173979475688429,0.00796241992456172
1.11,4.53512830963723,-3.52263215563221,-0.784924249182723,-0.0167020156751506,-0.00316452194821873,-0.0120872043750455,0.575177929401889,0.370310251462385,-1.46924171628856,-0.00878830562593376,0.00782795059095172,-0.00901647007294742,-1.38402487595545,-1.6835130953595,-0.518543155801412,-0.00689997582313452,-0.0110392886723288,0.00813490734717459,-7.73281045631688,-4.30663441457531,-0.438821621872364,0.00725571935463991,-0.017188773120361,0.00791220787955495
1.115,4.52985820258266,-3.51866150987323,-0.783172396314171,-0.0164844813213998,-0.00265199661073174,-0.0117803343709458,0.573514799647683,0.370005563101131,-1.46783307198251,-0.00893289786872179,0.00844546987765381,-0.0087535737090598,-1.38354486782305,-1.68206842878317,-0.517976511300871,-0.006792138865133,-0.0110007116432072,0.0091716257856032,-7.72559368148632,-4.30212333070115,-0.438241795052392,0.00583545908743462,-0.0169342132904644,0.00778002731488366
1.12,4.52458809552797,-3.51469086411421,-0.781420543445734,-0.0162594089685392,-0.00214698359588804,-0.0113792092706743,0.571851669893704,0.369700874739863,-1.46642442767649,-0.00913474910969199,0.00896847842660042,-0.0084797962435594,-1.38306485969076,-1.68062376220689,-0.517409866800328,-0.00676334370512377,-0.0109277160378105,0.0101204688440044,-7.71837690665529,-4.297612246827,-0.437661968232405,0.00459246716275484,-0.0166275513337674,0.00755726411250893
1.125,4.5193179884734,-3.51072021835526,-0.779668690577182,-0.0160410569749568,-0.00170458524779956,-0.0109539894204991,0.57018854013927,0.369396186378609,-1.46501578337043,-0.00937072986912131,0.00940106968543993,-0.00819939332984735,-1.38258485155848,-1.67917909563056,-0.516843222299785,-0.00679243993192326,-0.0108236624489641,0.0109728457335797,-7.71116013182473,-4.29310116295284,-0.437082141412432,0.00354883388204902,-0.016298144072982,0.00728328655036235
1.13,4.51404788141878,-3.50674957259625,-0.777916837708631,-0.0158430350966225,-0.00138798508704948,-0.0105808615174098,0.568525410385291,0.36909149801734,-1.46360713906444,-0.00961213574922873,0.00974454779279136,-0.00791703783621756,-1.3821048434263,-1.67773442905423,-0.516276577799243,-0.00685235023674887,-0.0106920976913696,0.0117194694129449,-7.70394335699393,-4.28859007907869,-0.43650231459246,0.00273174820273253,-0.0159747424398501,0.00700455012970337
1.135,4.50877777436415,-3.50277892683724,-0.776164984840079,-0.0156670220323952,-0.00124418173978237,-0.0103069653685323,0.566862280631085,0.368786809656072,-1.46219849475841,-0.00983031165178431,0.00999153860198291,-0.00763472803175453,-1.38162483529391,-1.67628976247795,-0.515709933298702,-0.0069165511875504,-0.0105325389034846,0.0123470568833521,-7.69672658216336,-4.28407899520454,-0.435922487772487,0.00215682986623728,-0.0156685409219005,0.00674778557713969
1.14,4.50350766730952,-3.49880828107828,-0.774413131971528,-0.0155088221342676,-0.00128660960105276,-0.0101417933999219,0.565199150877106,0.368482121294804,-1.46078985045236,-0.0100110746925008,0.0101377527035423,-0.00735287191176647,-1.38114482716162,-1.67484509590162,-0.515143288798161,-0.00697152319573646,-0.0103443181332296,0.0128500777433864,-7.68950980733257,-4.27956791133039,-0.4353426609525,0.00182663064009435,-0.0153843146055452,0.00652056749989275
1.145,4.49823756025489,-3.49483763531927,-0.77266127910309,-0.0153617825699253,-0.00149727911628653,-0.0100638140837849,0.563536021122673,0.36817743293355,-1.45938120614633,-0.0101551230848165,0.010184499370387,-0.00707159571829781,-1.38066481902933,-1.67340042932534,-0.514576644297616,-0.00701691360540116,-0.0101283312518125,0.0132321925553343,-7.682293032502,-4.27505682745623,-0.434762834132528,0.00173392888739173,-0.0151251866954447,0.00631627387780499
1.15,4.49296745320027,-3.49086698956029,-0.770909426234539,-0.0152184381198428,-0.00184305195780191,-0.0100408764962015,0.561872891368466,0.367872744572281,-1.45797256184031,-0.0102684902722523,0.0101368128895215,-0.00679123949099,-1.38018481089705,-1.67195576274901,-0.514009999797075,-0.00705663600955646,-0.0098868162409482,0.013502264749029,-7.67507625767121,-4.27054574358208,-0.434183007312541,0.00186669010617083,-0.0148919839537751,0.00612267369845504
1.155,4.48769734614564,-3.48689634380131,-0.769157573366101,-0.0150769941373564,-0.00228735693908279,-0.0100531927654739,0.560209761614487,0.367568056211027,-1.45656391753428,-0.0103598083960493,0.0100099060875638,-0.00651301697884418,-1.37970480276488,-1.67051109617273,-0.513443355296532,-0.0070952579173823,-0.00962529173778389,0.0136786942315248,-7.66785948284064,-4.26603465970791,-0.433603180492582,0.00221351670934222,-0.0146908134260475,0.00593587131142334
1.16,4.48242723909101,-3.48292569804229,-0.76740572049755,-0.0149384566776857,-0.00279306413913709,-0.0100927930092306,0.558546631860281,0.367263367849759,-1.45515527322823,-0.010436791927609,0.00982498499242941,-0.00623819737063255,-1.37922479463248,-1.6690664295964,-0.512876710795991,-0.00713525635247691,-0.00935074148035369,0.0137853195897518,-7.66064270800985,-4.26152357583378,-0.433023353672581,0.00276300357989129,-0.0145303353986172,0.00576000279248782
1.165,4.47715713203638,-3.47895505228334,-0.765653867628998,-0.0147934677737184,-0.00332203439990897,-0.0101439701969953,0.556883502106302,0.366958679488505,-1.4537466289222,-0.0104973544411876,0.00959203574432967,-0.00596596920732562,-1.37874478650019,-1.66762176302012,-0.51231006629545,-0.00717106814392916,-0.00906556296001628,0.0138358570501153,-7.65342593317905,-4.25701249195961,-0.432443526852609,0.00349804947072986,-0.0144057418963972,0.00559215587768416
1.17,4.47188702498175,-3.47498440652433,-0.763902014760561,-0.0146210806012272,-0.00383266449235176,-0.0101782448574101,0.555220372351869,0.366653991127237,-1.45233798461621,-0.0105304158867288,0.00930988176957208,-0.00569318898816436,-1.37826477836791,-1.66617709644379,-0.511743421794908,-0.00718976861693974,-0.00876741151087174,0.0138344517741785,-7.64620915834848,-4.25250140808546,-0.431863700032636,0.00439535339568419,-0.0142997716736758,0.0054185540916573
1.175,4.46661691792713,-3.47101376076535,-0.762150161892009,-0.0143995068675892,-0.00427693218371847,-0.0101664104713162,0.55355724259789,0.366349302765983,-1.45092934031015,-0.0105253658913594,0.00898298859489205,-0.00541588335183949,-1.37778477023573,-1.66473242986751,-0.511176777294365,-0.00717759311895381,-0.0084545864540638,0.0137913024295565,-7.63899238351769,-4.24799032421132,-0.431283873212664,0.00542988562616969,-0.0142001969372973,0.00522439092517289
1.18,4.4613468108725,-3.46704311500633,-0.760398309023458,-0.0141058345256764,-0.00459951343280974,-0.0100790008920041,0.551894112843684,0.366044614404728,-1.44952069600413,-0.0104712058099594,0.00862201259261126,-0.0051294192410493,-1.37730476210334,-1.66328776329118,-0.510610132793822,-0.0071192943141485,-0.00812614162406031,0.0137220472149734,-7.63177560868712,-4.24347924033715,-0.430704046392677,0.006572809523594,-0.0140998338616266,0.0049947060693705
1.185,4.45607670381787,-3.46307246924735,-0.75864645615502,-0.0137088593721865,-0.00474438256627956,-0.00987747624836807,0.550230983089705,0.36573992604346,-1.4481120516981,-0.0103493227503692,0.00822897944260602,-0.00482804835613922,-1.37682475397105,-1.66184309671485,-0.510043488293279,-0.00699392172932953,-0.00777778247317064,0.0136327493398252,-7.62455883385633,-4.238968156463,-0.430124219572704,0.00778587783475458,-0.0139813315079411,0.00470767606209108
1.19,4.45080659676324,-3.45910182348837,-0.756894603286355,-0.013185064035549,-0.00467899465301679,-0.00953033920325485,0.548567853335271,0.365435237682206,-1.44670340739208,-0.0101448198171538,0.00780035539734771,-0.00450779965550233,-1.37634474583876,-1.66039843013857,-0.509476843792738,-0.00678591122622957,-0.00740536805049555,0.0135227797635161,-7.61734205902576,-4.23445707258885,-0.429544392752732,0.00903044038757656,-0.0138234627064242,0.00434532975771961
1.195,4.44553648970862,-3.45513117772938,-0.755142750418031,-0.0125494073806125,-0.00442407126934752,-0.00904695171546246,0.546904723581065,0.365130549320938,-1.44529476308603,-0.00986973414728263,0.00734640576071673,-0.00417130688393262,-1.37586473770648,-1.65895376356224,-0.508910199292195,-0.00650521467766919,-0.00701411703298778,0.0134031556785599,-7.61012528419496,-4.22994598871469,-0.428964565932745,0.0102856662209393,-0.0136253439297741,0.00391659154434306
1.2,4.44026638265404,-3.45116053197037,-0.753390897549366,-0.0118554646227603,-0.0040517205929268,-0.00847981657658153,0.545241593827086,0.364825860959684,-1.44388611878,-0.00956238132749671,0.00689295374249611,-0.00382788427899836,-1.37538472957431,-1.65750909698596,-0.508343554791653,-0.0061864208607826,-0.00661901602681849,0.0132977186066989,-7.6029085093644,-4.22543490484054,-0.428384739112772,0.0115486048494993,-0.0134083702140236,0.00345820703465
1.205,4.43499627559936,-3.44718988621139,-0.751639044680815,-0.0111631740313683,-0.00364792309140842,-0.0078922254438598,0.54357846407288,0.364521172598415,-1.44247747447398,-0.00926277894006928,0.00646486089739806,-0.00348833119976258,-1.37490472144191,-1.65606443040963,-0.507776910291112,-0.00586654478963051,-0.00623599621070047,0.0132278159692375,-7.59569173453337,-4.22092382096639,-0.4278049122928,0.0128180471290968,-0.013195920885068,0.00301184050953853
1.21,4.42972616854473,-3.44321924045241,-0.749887191812377,-0.0105143205114849,-0.00327930372984401,-0.00733289144760574,0.541915334318674,0.364216484237161,-1.44106883016795,-0.00899537635900107,0.00607597358118094,-0.00316065062090705,-1.37442471330962,-1.65461976383335,-0.507210265790571,-0.00556886541253166,-0.00587562720876653,0.0132038264254239,-7.58847495970281,-4.21641273709223,-0.427225085472827,0.0140836955069791,-0.0130008219051444,0.00260687386708851
1.215,4.42445606149016,-3.43924859469342,-0.748135338943825,-0.00992797421859371,-0.0029857219968203,-0.00683053722492009,0.540252204564467,0.363911795875893,-1.43966018586192,-0.00876613492727524,0.00572842234926167,-0.00284927443167082,-1.37394470517734,-1.65317509725702,-0.506643621290028,-0.00530011923303539,-0.00554217866975589,0.0132242852032593,-7.58125818487201,-4.21190165321808,-0.42664525865284,0.015320772534281,-0.0128232312831703,0.00225787452796817
1.22,4.41918595443548,-3.43527794893441,-0.746383486075388,-0.00940247263858865,-0.0027819473779748,-0.00639668133417434,0.538589074810488,0.363607107514639,-1.43825154155587,-0.00856324001963769,0.00541614709786997,-0.00255546977781875,-1.37346469704516,-1.65173043068074,-0.506076976789485,-0.00505078997438476,-0.00523472622343874,0.0132783741458289,-7.57404141004145,-4.20739056934393,-0.426065431832853,0.0164889762900934,-0.0126525493509659,0.00196714596021782
1.225,4.41391584738091,-3.43130730317546,-0.744631633206836,-0.00891741414557118,-0.00265540430800991,-0.00603003558291836,0.536925945056282,0.363302419153371,-1.43684289724985,-0.00835818870937083,0.00513135246341444,-0.00227731531683322,-1.37298468891277,-1.65028576410441,-0.505510332288942,-0.00479491844195709,-0.00494868669735555,0.0133521090691618,-7.56682463521065,-4.20287948546978,-0.425485605012881,0.0175373292296479,-0.0124733166473506,0.00172758819915586
1.23,4.40864574032628,-3.42733665741645,-0.742879780338285,-0.00843941602943046,-0.00257247863825354,-0.00571911960279692,0.535262815302076,0.362997730792117,-1.43543425294382,-0.00811170469665567,0.00486625108747382,-0.00201067499396114,-1.37250468078048,-1.64884109752808,-0.504943687788401,-0.00449567710304246,-0.0046772534099515,0.0134306277885605,-7.55960786038008,-4.19836840159562,-0.424905778192908,0.0184078975654893,-0.0122678224900779,0.00152591040391292
1.235,4.40337563327165,-3.42336601165746,-0.741127927469847,-0.0079416844075321,-0.00250179992343815,-0.00544623571525479,0.53359968554787,0.362693042430863,-1.4340256086378,-0.00779541222625896,0.00461341771079667,-0.00175322026745541,-1.37202467264819,-1.6473964309518,-0.504377043287858,-0.00412686747806751,-0.00441571225945189,0.0135012498516346,-7.55239108554952,-4.19385731772147,-0.424325951372936,0.019052003774689,-0.0120195459377246,0.00134915553440405
1.24,4.39810552621697,-3.41939536589845,-0.739376074601296,-0.00742867024718623,-0.00243644469977892,-0.00519601038297924,0.531936555793664,0.362388354069594,-1.43261696433174,-0.00741903045388032,0.00437169972962403,-0.00150903780112311,-1.37154466451591,-1.64595176437547,-0.503810398787316,-0.0036985153486451,-0.00416788167146041,0.0135634011760339,-7.54517431071872,-4.18934623384732,-0.423746124552963,0.0194609950746906,-0.0117237300149822,0.00119281373614777
1.245,4.3928354191624,-3.41542472013947,-0.737624221732858,-0.00693529805174632,-0.00239392434754587,-0.00496153453426012,0.530273426039571,0.36208366570834,-1.43120832002572,-0.00702730339308772,0.0041466188176294,-0.00128806402336371,-1.37106465638374,-1.64450709779919,-0.503243754286775,-0.00325366148794863,-0.00394564176689745,0.0136288400016949,-7.53795753588815,-4.18483514997315,-0.423166297732976,0.0196697236375209,-0.0113898824261605,0.00106120490273668
1.25,4.38756531210771,-3.41145407438052,-0.735872368864307,-0.00650081614021742,-0.00239982784146473,-0.00474252657228185,0.528610296285478,0.361778977347072,-1.42979967571969,-0.00666789264345884,0.00394011419222591,-0.00110082997646469,-1.37058464825134,-1.64306243122286,-0.502677109786234,-0.00283893071708307,-0.00376064179712249,0.0137064313513971,-7.53074076105713,-4.18032406609902,-0.422586470913004,0.0197221293047188,-0.0110297494232513,0.000959897438495361
1.255,4.38229520505314,-3.4074834286215,-0.734120515995755,-0.00614900836751057,-0.00247522347666406,-0.00453898211962819,0.526947166531158,0.361474288985818,-1.42839103141367,-0.00636892633347355,0.00374226583183759,-0.000954691785854987,-1.37010464011905,-1.64161776464658,-0.502110465285691,-0.0024844989688577,-0.0036179739118469,0.0137894775118493,-7.52352398622656,-4.17581298222485,-0.422006644093017,0.0196389450607779,-0.010646249264604,0.00089001781848392
1.26,4.37702509799851,-3.40351278286252,-0.732368663127318,-0.00588414193622351,-0.00263053145882466,-0.00434835348537383,0.525284036777066,0.36116960062455,-1.42698238710764,-0.00613557861248608,0.00353317237421996,-0.000852784958170248,-1.36962463198677,-1.64017309807025,-0.501543820785148,-0.00220061222094227,-0.00351539622239438,0.0138562043580314,-7.51630721139577,-4.17130189835071,-0.421426817273044,0.0194121227242885,-0.0102340095768166,0.000847504920598048
1.265,4.37175499094388,-3.39954213710354,-0.730616810258653,-0.0056923925945151,-0.00285870657338864,-0.00416833100994793,0.52362090702286,0.360864912263281,-1.42557374280159,-0.00595218604465326,0.00329167116961182,-0.00079350459537006,-1.36914462385448,-1.63872843149397,-0.500977176284605,-0.0019776855359797,-0.00344508913488696,0.0138791688922113,-7.5090904365652,-4.16679081447654,-0.420846990453072,0.019017372784707,-0.0097882828318244,0.000823949419439242
1.27,4.36648488388926,-3.39557149134453,-0.728864957390215,-0.00554698110787086,-0.0031294428381896,-0.00399695835632332,0.521957777268767,0.360560223902027,-1.42416509849556,-0.00578985704315958,0.00300475096477918,-0.000771186205248183,-1.36866461572231,-1.63728376491764,-0.500410531784064,-0.00179162542054044,-0.00339688074244705,0.0138363034423148,-7.50187366173441,-4.16227973060239,-0.420267163633099,0.0184261081901969,-0.00931370039069706,0.000807695722891961
1.275,4.36121477683463,-3.39160084558554,-0.727113104521663,-0.00541811395298043,-0.00339106465690275,-0.00382821796005109,0.520294647514561,0.360255535540773,-1.42275645418954,-0.00562073920749847,0.0026739237331821,-0.000778462441908909,-1.36818460758991,-1.63583909834131,-0.499843887283522,-0.0016165373266707,-0.00336238491341273,0.0137194139598155,-7.49465688690384,-4.15776864672824,-0.419687336813112,0.0176130879882723,-0.00882737042905048,0.000785876912305501
