Header,foot_Accel_X,foot_Accel_Y,foot_Accel_Z,foot_Gyro_X,foot_Gyro_Y,foot_Gyro_Z,shank_Accel_X,shank_Accel_Y,shank_Accel_Z,shank_Gyro_X,shank_Gyro_Y,shank_Gyro_Z,thigh_Accel_X,thigh_Accel_Y,thigh_Accel_Z,thigh_Gyro_X,thigh_Gyro_Y,thigh_Gyro_Z,trunk_Accel_X,trunk_Accel_Y,trunk_Accel_Z,trunk_Gyro_X,trunk_Gyro_Y,trunk_Gyro_Z
9.015,-0.596007874043887,0.268091404221877,0.762979161970535,0.168867802683676,2.9979593390301,-0.199892514018132,-0.832681099470074,0.0528614673191534,-0.568388698944611,0.0377235001361277,-1.61434733726575,0.336437373841255,-0.96133293221637,-0.00786875057363036,0.228751135942317,-0.0722437472658942,0.439716507477938,-0.061571727800087,-1.01167530552086,-0.0909066803953144,0.13355933551387,-0.40460647564515,-0.114653719358149,-0.461167475250502
9.02,-0.613270561276221,0.250263601600441,0.759051835525424,0.136167202672412,3.06329987633349,-0.181701602786004,-0.873436373924271,0.0455245336943376,-0.53746608540558,0.0349098821229468,-1.60921632956703,0.335077183425927,-0.972612556481257,-0.0109528927481322,0.223801575176162,-0.112606813355377,0.448759820548659,-0.100036519467587,-1.01195386846333,-0.0975156349397905,0.128535878964208,-0.457142946398861,-0.121951649146176,-0.483332184388691
9.025,-0.619719866224013,0.249028587753115,0.755804915910426,0.0993761359317028,3.14260792806837,-0.160705192589512,-0.971670985105594,0.0294011998755471,-0.456813224849874,0.0222649407506225,-1.60653411979196,0.335007314628369,-0.988992783551488,-0.0230190420980958,0.241400683070092,-0.164056156197477,0.450330973013956,-0.112897878655839,-1.01411457057034,-0.106706391070099,0.119552113601848,-0.484049556080767,-0.136903435367021,-0.513761951780539
9.03,-0.623779352807149,0.259835268117491,0.753517409590617,0.064111951884514,3.22907537303878,-0.142487866017841,-1.05920167600199,0.0128903256148498,-0.384857771350853,0.00137685542752738,-1.61573984306652,0.336672431818502,-0.99794287630299,-0.0344081001711605,0.251572855141789,-0.224060030120747,0.450453594716766,-0.0974411562388539,-1.01681026692903,-0.122936634676563,0.12035004350993,-0.513333195890948,-0.161911041233145,-0.539236638847462
9.035,-0.616427520383803,0.265648520586845,0.757747574486166,0.0359746185689623,3.3075201432408,-0.120094923799705,-1.10784664590002,-7.18801835910065e-05,-0.348488815612991,-0.0275486999524978,-1.63140799690061,0.337806636292427,-0.997894787921331,-0.0591764024055661,0.24583469181371,-0.325889469564751,0.453006326287448,-0.0640187045812131,-1.02332412340989,-0.139696686026837,0.120703704528132,-0.539604788251363,-0.184762427764898,-0.564497389238541
9.04,-0.630751900859304,0.25179910248942,0.742032345431872,-0.00863919019661226,3.425933768187,-0.110471921919428,-1.1328945590531,-0.0112969761586943,-0.333663326016713,-0.0643867407403565,-1.64973529217993,0.336843977750295,-0.993570118351463,-0.0728214619113788,0.215764966881199,-0.387130803241651,0.459021546877532,-0.0453683666918449,-1.03604280943016,-0.144156469521147,0.119742676406668,-0.568905570012912,-0.206766986818094,-0.58612539765336
9.045,-0.642134678793328,0.261693480641897,0.740164502498564,-0.0278702577415091,3.53384200402319,-0.0905004698302431,-1.14876435359372,-0.0217939766677342,-0.327426154761241,-0.108989144412359,-1.66887883440019,0.33300237957151,-0.996340005076003,-0.0649949266405957,0.188383479351357,-0.402835292887303,0.467534023147068,-0.027562105937867,-1.04521497967134,-0.156025467528149,0.112807301987594,-0.61038078239,-0.238090938935493,-0.622395791995445
9.05,-0.639956008005832,0.252600582656656,0.73908754362576,-0.0492323746285319,3.66223687870164,-0.0865770383247251,-1.16384697721336,-0.031789258416954,-0.322376510137976,-0.161050102208726,-1.68827794561735,0.3260269365979,-1.00749586997991,-0.0461447094681957,0.164583355431534,-0.345591560044648,0.478717354240465,-0.00689973651822946,-1.05523316717912,-0.171445320304113,0.0987627250409727,-0.665940884964496,-0.269476306839528,-0.672590622265291
9.055,-0.65861842483995,0.250644883930204,0.753446989845237,-0.0603846449195703,3.78331233385235,-0.0945413672982693,-1.18106102132902,-0.0410631378313322,-0.316003250235163,-0.220015592299721,-1.7079069346518,0.315923265658617,-1.03543943813296,-0.0217429124709465,0.149377413448902,-0.26406195720992,0.487411208576408,0.0260750368979103,-1.06178949700914,-0.181606241221246,0.089841116691192,-0.721400956965754,-0.279347479343414,-0.691003276264192
9.06,-0.650997864885536,0.227637672125537,0.783489912182341,-0.0702703501455988,3.98424609579095,-0.110623971538735,-1.20015122042587,-0.0492628966163619,-0.308561087962826,-0.285050946314621,-1.72780069221455,0.302793658667704,-1.086755069122,0.00391299032450955,0.141154790459374,-0.154373070196728,0.50116356206716,0.0810844716598643,-1.12254994107908,-0.1936239216164,0.0598386379263582,-0.744796395498086,-0.27573679391269,-0.703727215995013
9.065,-0.634940267311714,0.280652039430752,0.743907105941564,-0.0608013070935016,4.14265801566668,-0.124890392084101,-1.21970499680435,-0.0560819945445403,-0.30127575521652,-0.355053886995595,-1.74785963024624,0.28677203890114,-1.15511921969085,0.0176132375507532,0.133038065720447,-0.0787261881495288,0.511947643040052,0.155201508440997,-1.14431399139775,-0.184330876020798,0.0340124332346715,-0.721546070264164,-0.236521357802057,-0.720782540574772
9.07,-0.649171266565859,0.301697253042706,0.713767365084749,-0.0502264022149063,4.36120763746227,-0.168778132522332,-1.23830305916009,-0.0613190245229836,-0.295350379719171,-0.428694096208778,-1.76782666685917,0.268016769785524,-1.23943820836876,0.0134942710177743,0.120039587792844,0.00397809045758541,0.51931363416025,0.219787396010236,-1.18268898952232,-0.175086154445947,-0.00690111224242885,-0.672068246744409,-0.168044038421307,-0.703218696380002
9.075,-0.68121474154422,0.328127947463776,0.725669136958179,-0.0288086016293707,4.63088469218696,-0.238314139592584,-1.25493461038823,-0.0648693455637765,-0.291623274908487,-0.504462886386387,-1.78733332313571,0.246724922897618,-1.32024218138368,0.0126142341771172,0.0968429232744345,0.0941076251716643,0.538097203213546,0.304564096359453,-1.21274447857436,-0.161240837080876,-0.0593325257359728,-0.579647237208663,-0.0608181376224534,-0.670182097874322
9.08,-0.71166790029614,0.270516956945729,0.690221229172282,0.0417413018249424,4.81480980481282,-0.28607319139895,-1.26896540960635,-0.0666970692087872,-0.29061749854577,-0.580723539553301,-1.80595379077937,0.223147880163847,-1.35943889502482,0.00919749399547304,0.0794426769237638,0.169310873275175,0.568156278328651,0.388532706510198,-1.22734381946691,-0.139029495008036,-0.130322486729929,-0.470553889875563,0.00328364459233423,-0.652775591689326
9.085,-0.731872614953524,0.242657319340185,0.654574669471286,0.103416692183982,5.11939980314052,-0.397352219646686,-1.27993904222347,-0.0668141197823718,-0.292721809515115,-0.655760842046017,-1.82324343303444,0.197601055745999,-1.36281338666611,0.0156973272986949,0.0361359748417003,0.287351192833586,0.615605884197185,0.496542599387288,-1.18271434817426,-0.122618879466209,-0.169289706139456,-0.444957863726464,-0.000472695743459563,-0.629085419273077
9.09,-0.77155362704293,0.223331843073852,0.657425630042214,0.173775469442752,5.34278588534891,-0.458315196721312,-1.28755753875621,-0.0652734607021782,-0.298147859233709,-0.727832786660033,-1.83875954667055,0.170466775056565,-1.3322816626781,0.0398436193575979,-0.021490796933823,0.414438295639306,0.695252137716985,0.609133228081943,-1.1295736758497,-0.109974054550218,-0.193977128139009,-0.485626435736576,-0.0800541648435647,-0.57640656699065
9.095,-0.833453700237816,0.146686634657547,0.334242844175353,0.320652353386451,5.61676303515063,-0.538176071087117,-1.29172318082028,-0.0621703078395484,-0.306851798236385,-0.795226967214738,-1.85207009652343,0.142191262551527,-1.2875425965324,0.0817930089235032,-0.0846150373681785,0.538982674958056,0.792830297233716,0.731668334783807,-1.06802704995369,-0.110536377453122,-0.200141125207097,-0.577420090326244,-0.243980820174454,-0.555014187470219
9.1,-1.07111844837036,0.1312250686917,0.410590568014861,0.45821780763709,5.9919007145429,-0.6409496451942,-1.29237853457943,-0.0576434901147136,-0.318715035836842,-0.856321186338141,-1.86275664900782,0.113276932367231,-1.25126291605252,0.129664370207263,-0.133627750372277,0.649669873548047,0.879059553580021,0.869967264334353,-0.99607444785502,-0.121160643377797,-0.187767390593006,-0.722721000130936,-0.449944026248158,-0.508142641074513
9.105,-1.2203119891629,0.219021249144641,0.835231070486358,0.531819564635212,6.12599214979643,-0.697422367181271,-1.2894369911841,-0.0518717213004188,-0.333617211279255,-0.909644762338606,-1.87041527360343,0.08427082808586,-1.20875378046963,0.197458745493386,-0.206906521978755,0.673035701444925,0.951670494012,0.981868145648787,-0.958046399802191,-0.133513058241907,-0.156338284917134,-0.866373040331218,-0.647492142253943,-0.424301969582518
9.11,-0.991244416959751,0.270173579100532,0.924098254042606,0.706854192803078,6.15391522428063,-0.713346221352828,-1.28284577478111,-0.0450625550830443,-0.351364858326202,-0.953935179771502,-1.87465640785346,0.0557495651307556,-1.19394994537644,0.240782801923959,-0.266180910422891,0.663466163047828,1.01427878569697,1.11787795117193,-0.959074792655052,-0.145726333272697,-0.137944400527616,-1.00049827512052,-0.764290468922273,-0.384835266419074
9.115,-0.991898793051134,0.250912403217378,1.01828248918513,0.908961296571097,6.15448255619498,-0.710162011317574,-1.27260274270901,-0.0374371019456342,-0.371680367197399,-0.988184600596345,-1.87510321390426,0.0283011207526858,-1.19411142308275,0.266318235727991,-0.337148113362368,0.604399799245693,1.06693787092223,1.26250373057935,-0.954415264224551,-0.162924588749382,-0.12417908800093,-1.13430767361486,-0.811342900748404,-0.352812502125117
9.12,-1.0302758219185,0.408890381778252,0.991369199320726,1.21517434842117,6.09535549580101,-0.675967662502215,-1.25875833922453,-0.0292135585125854,-0.394208023147738,-1.0116721086627,-1.87138801684832,0.00250443196051216,-1.18488732408172,0.275023178530084,-0.368421520545238,0.50835253736072,1.10074479936611,1.37388095526798,-0.93940729201185,-0.186882393102387,-0.108039892191049,-1.25515047172613,-0.789705298168132,-0.326046511599939
9.125,-1.08341117675656,0.499408749883995,1.01693758989309,1.29214487358339,6.05578118801034,-0.680614199417586,-1.24141258496611,-0.0205914963732672,-0.418524146880017,-1.02397945466391,-1.86314714337961,-0.0210915515799219,-1.1913782912136,0.261331876344054,-0.38898779741865,0.388838588399609,1.09769309726771,1.48412006252874,-0.939136856113471,-0.200299676554607,-0.0862310538657886,-1.27042075575455,-0.73531571716913,-0.29868046365889
9.13,-1.18586056957215,0.45944853794453,0.928097649057048,1.30552770166863,6.00017418980799,-0.740885977337111,-1.2207089200271,-0.0117375585494452,-0.444149464574365,-1.0249897142938,-1.85001512303565,-0.0419872882615609,-1.19900448559016,0.234282814502869,-0.401636352949894,0.216217540507449,1.08050508318336,1.59571518878509,-0.925836167006457,-0.197213353602249,-0.0678543088163725,-1.22071013513001,-0.679472413911125,-0.285012921196331
9.135,-1.24103967097011,0.382105139783878,0.812360886625028,1.35818829380776,5.95575579472219,-0.825489699686851,-1.19682620893216,-0.00277350978330769,-0.470563457452733,-1.01486958460516,-1.83161948944824,-0.0597482871548577,-1.2123363326819,0.223314605377539,-0.392202873576943,0.127111277370366,1.05569258041459,1.65387243722359,-0.925214882296962,-0.189224631911755,-0.047269788362338,-1.13075848437745,-0.643224758376664,-0.288378549892313
9.14,-1.30933735785687,0.429242767822157,0.817557739191589,1.49995448604509,5.93133445761829,-0.925784495033159,-1.16996968527317,0.00623067008746936,-0.497221833955842,-0.994037343877879,-1.80757717853261,-0.0740150286218138,-1.23192382421104,0.230215571070359,-0.343443986478533,-0.0098507500797612,1.01456173862675,1.72811483412311,-0.927891664390341,-0.195807933148161,-0.0316205043130632,-1.01496120732931,-0.595777181401924,-0.29097580909729
9.145,-1.31768842087475,0.401061017724199,0.825339508084263,1.58783704642909,5.86534226769025,-0.956077454101695,-1.14036146276947,0.015254542243782,-0.523577479745004,-0.963120019732945,-1.77749290184292,-0.0845062653313137,-1.23974271649688,0.236149194794796,-0.284218291879894,-0.0798615724122691,0.972584208497971,1.77806859352999,-0.933054437336979,-0.180755864726065,-0.0267246250670364,-0.88580570170108,-0.525132800190544,-0.317379121582992
9.15,-1.30433271882337,0.420700526279994,0.80233082243336,1.6983567498342,5.76865631869426,-0.994051751189423,-1.10823165794828,0.0243123201663523,-0.549102013814322,-0.922905078595633,-1.7409594365785,-0.0910162805279666,-1.23728950526008,0.216794562653063,-0.198351839709518,-0.203861709517449,0.924426353801674,1.85579394143845,-0.93344965972955,-0.19348668742945,-0.0275939839893023,-0.821584214246895,-0.449844655486622,-0.345952063798904
9.155,-1.31552417897569,0.444933025923556,0.79159221224827,1.74690555066852,5.67059177030836,-1.03239567663901,-1.07381196156107,0.0334259374255117,-0.573303102149196,-0.874293488918611,-1.69755988743386,-0.093408021226694,-1.24344923597299,0.17301094929793,-0.109223807471447,-0.32100480700782,0.87138378449617,1.92399749290627,-0.92915432198674,-0.193744758264452,-0.035221569781524,-0.781639728107977,-0.34062187603341,-0.319550507057124
9.16,-1.2958021349843,0.412666584295471,0.761465292748697,1.70926205344057,5.58926336868653,-1.09749609379266,-1.03733362416444,0.0425936926145523,-0.595735423548173,-0.818260508711214,-1.64687223785967,-0.0916046934609167,-1.25396211665733,0.128442386820104,-0.0480006335321228,-0.422880943370332,0.827195351791101,1.96659109001182,-0.953312807073074,-0.206201480289018,-0.0427936010421305,-0.720117984067173,-0.225810027932847,-0.312983651805723
9.165,-1.26229286913078,0.38750422385171,0.804971080486198,1.5804125484481,5.49300667371818,-1.1744321754983,-0.99903047062044,0.0517665043657506,-0.616008521020406,-0.755826210181041,-1.58847630147873,-0.0855817840488723,-1.27002576174571,0.0544179815879859,0.021707283664404,-0.529977676913457,0.743616390591299,2.00205044165827,-0.966336592123954,-0.219199928898807,-0.0767594756724176,-0.693798807493538,-0.140200572889611,-0.313393557111606
9.17,-1.25585266904847,0.446624025050857,0.856433672624397,1.5911988251265,5.41139579232072,-1.1608304904075,-0.959145389627535,0.060840164721292,-0.63379701260695,-0.688031522982106,-1.52196268088907,-0.0753596325900248,-1.275697137919,-0.00942071670263435,0.0707864250195258,-0.548368513584137,0.682598280867509,2.01168370246887,-0.972452523853613,-0.227724828843973,-0.109725692729888,-0.674294813530861,-0.0600802666950584,-0.267972309461198
9.175,-1.28047270915258,0.417029372874926,0.820252373023227,1.75478795087998,5.29811528806192,-1.11448338359283,-0.917937176519443,0.0696632852759111,-0.648855231711776,-0.615912662955918,-1.44694327087559,-0.0609949685867513,-1.28173742357352,-0.0798867912472401,0.11889843720747,-0.507225923427078,0.610239251724274,2.01168370246887,-0.986242519542577,-0.229189476147293,-0.146456932211301,-0.626031641519246,-0.00583272708300969,-0.231305006697157
9.18,-1.24943154098973,0.50585095637319,0.842376304429419,1.91928012013243,5.15956276288726,-1.0932875218526,-0.875684709873478,0.0780539787827177,-0.661032093985757,-0.540469991463159,-1.36306336075205,-0.0425695831919611,-1.28637178343892,-0.107375418880174,0.161372607266695,-0.453663779172257,0.547578145485211,2.02312361520468,-1.01100603883556,-0.237081686002258,-0.192168682595382,-0.603134761990486,-0.00307042781730032,-0.207110994907419
9.185,-1.33763874518127,0.523423549484678,1.00738221109241,2.1616281977866,4.84549735498774,-1.01497849208151,-0.832697045848234,0.0858160584418246,-0.670272635090657,-0.462634214086391,-1.27001591137839,-0.0201757116689875,-1.28454640624337,-0.147828784281731,0.208582264158558,-0.339527992069922,0.479000030744333,2.04058949439851,-1.0340489599638,-0.228980910172653,-0.227427693249349,-0.573226422561222,-0.0291494089846238,-0.16590251071678
9.19,-1.36130527906779,0.427634184220796,1.2059895930647,2.45412316970612,4.46296900699874,-0.912997317491993,-0.789399721979275,0.0927478756905681,-0.676564318809264,-0.383238211855057,-1.16755854325254,0.00609990164125583,-1.27840546078071,-0.178961387977468,0.258082420600069,-0.164118011376754,0.408829636272147,2.06530340774004,-1.04502573066832,-0.236015499491333,-0.245539736796786,-0.479949579016795,-0.0765234038756048,-0.136825694284129
9.195,-1.5011148791729,0.3641700885952,1.58221119988493,2.86136175290504,3.72747514567325,-0.843763938499533,-0.74625689552939,0.0986447025118414,-0.679972483669317,-0.303002329736936,-1.05553300205013,0.0361893553597536,-1.28185214865555,-0.21044845668769,0.297733481098085,0.0429415990297615,0.355934969640738,2.06110536011297,-1.04717624545137,-0.232078631542324,-0.240935643742217,-0.360625888502957,-0.121147337699167,-0.0967911299255061
9.2,-1.53633825696646,0.409348586383321,1.89814789826787,3.11082146637227,3.02559583203857,-0.826575555308911,-0.703522913363386,0.103301347563631,-0.680755625758143,-0.222534590012359,-0.933885590466247,0.0700507039393374,-1.2900673788313,-0.218850789612543,0.33423916592552,0.276302465426604,0.30677021295277,2.08597062369923,-1.04468481428041,-0.225074519073997,-0.227468299499776,-0.362759722985303,-0.189921457166514,-0.065332527685658
9.205,-1.57158745608474,0.497854346464497,2.20489766748647,3.08535842583347,2.04020365548279,-0.873887052945116,-0.661359995906948,0.106522522286844,-0.679267263513319,-0.142340161751126,-0.802685931073929,0.107667632127739,-1.23943646629534,-0.231114562467485,0.358526070102123,0.499723561779474,0.27274843892689,2.09026718708325,-1.03587495437384,-0.219827093447745,-0.207794635122617,-0.398945579516094,-0.248958496090572,-0.045009228961004
9.21,-1.50002972858822,0.630997385340447,2.36682897845296,2.70548857195702,0.799043916858911,-1.05243909122149,-0.620059426879551,0.10814209617499,-0.675825995283671,-0.0628319832738782,-0.662141232935365,0.14904314312317,-1.23448170282258,-0.219784129147459,0.363267025418793,0.691684380130166,0.243175191147428,2.06418019798967,-1.03016361496893,-0.217289463775325,-0.188187489414694,-0.485249674449139,-0.290938603052636,-0.0277248078695378
9.215,-1.29584854014291,0.858354696741099,2.4168224407959,1.96229554359359,-0.256808424237807,-1.22511394657029,-0.579978227297121,0.10804594163678,-0.670752620905706,0.0156625430361126,-0.512604169624707,0.194189719416679,-1.21968806409809,-0.218519302543669,0.35637921083261,0.930724272068367,0.213308733509833,2.06577453826576,-1.02618620688903,-0.215137317826517,-0.18183363519134,-0.601786103097162,-0.304375911640016,-0.00391016993376947
9.22,-0.847029338337387,0.0484661135363418,2.2938824181816,0.861432740099467,-1.7228760985566,-1.78529274144727,-0.541454640081415,0.106192230247372,-0.664402630741083,0.0928988044339586,-0.354573886911398,0.243117750362012,-1.22896322691804,-0.200338639833218,0.355342901657699,1.11502865158915,0.173370015345332,2.0494324330736,-1.02374748447563,-0.223152593936143,-0.184342172842655,-0.705994979450519,-0.30622473359108,-0.000212516635656357
9.225,-0.716815167634342,-0.178906027020383,2.1311143112708,0.836832602822453,-2.49087601154833,-2.24884038475274,-0.50478867265763,0.102623651043076,-0.657150282644881,0.168712718660296,-0.18869063214411,0.295822760516351,-1.22676368428778,-0.19002844485931,0.3247559755993,1.27897463522255,0.131390193187112,2.0365093717531,-1.01231359004399,-0.239351108951766,-0.174919433518025,-0.789635108909611,-0.32148460265933,0.0254996175285888
9.23,-0.722352714924851,-0.228587240594075,2.34588632432303,0.778664173312501,-3.29632016936017,-2.42494259264604,-0.470227830245398,0.0974684705575658,-0.64936463225254,0.243015002239528,-0.015724645130506,0.352271051923757,-1.24204030375536,-0.171347172631954,0.302464965277537,1.43630608898312,0.0786948300636756,2.01035427170613,-1.00789960587521,-0.243200796925232,-0.16045538064209,-0.860861058002497,-0.337914807672335,0.0466212964150063
9.235,-0.666340855410235,-0.378952019797637,2.34622733559977,0.724112896601411,-4.3650414305201,-2.60398560559104,-0.437958998231851,0.0909309371832882,-0.641384328171149,0.315779953619423,0.163440371276682,0.412383338706379,-1.25566354196229,-0.146260945757454,0.300786311748318,1.56338407289237,0.0265239464592658,1.98573229747749,-1.00650370278217,-0.241752509938615,-0.144759573886033,-0.928007597890851,-0.354698818905831,0.0622589609519434
9.24,-0.771878870384929,-0.223550943118994,2.0563249806031,0.817688399221612,-5.18909844545084,-2.73862065869829,-0.408105959363192,0.0832750962847552,-0.633497107204878,0.38702969237875,0.347828976892764,0.476017085208498,-1.2606989250683,-0.122474898889685,0.289248624162546,1.66072115253481,-0.0419036023329914,1.92894215607314,-1.01513972432237,-0.238460573110222,-0.139187119909993,-0.956793184461277,-0.366902720501078,0.0963479647447363
9.245,-0.431690918370972,0.185655904268405,1.37259457596892,1.00022998611421,-5.70599617726569,-2.7859303794432,-0.380731341520351,0.0748068620420502,-0.625926553501939,0.456816982747738,0.536400192278463,0.542950072580057,-1.27095054133401,-0.121577600803584,0.292677129471573,1.72606607463305,-0.0759339850504937,1.94901032964036,-1.02513976941215,-0.234937492799948,-0.124597283144198,-0.980703921040168,-0.356763528808044,0.137488100405662
9.25,0.039663045856057,0.448255354152946,0.84455861310507,0.753079585294417,-5.63413633876577,-2.83434557464037,-0.355842465241367,0.0658561547679086,-0.618825675658489,0.525209852849062,0.72807666605014,0.612868708445007,-1.2637759547521,-0.104768914756952,0.262099000936204,1.7768708396134,-0.114687085033087,1.95840213974634,-1.04540909817509,-0.227692394991692,-0.121292745355775,-0.973071978560325,-0.336796999920041,0.18465870576502
9.255,0.39448997108283,0.611986895956605,0.509692187395216,-0.0197521111487372,-5.27232975866004,-2.8253173495221,-0.333400926646352,0.0567578523880769,-0.61227610786641,0.592279507531273,0.921774828783954,0.68536364768504,-1.25516951745887,-0.0822746036578973,0.228631292689834,1.80513229201501,-0.145549594383137,1.94461796642236,-1.05872472651819,-0.214516351914605,-0.129753376873917,-0.966787227307736,-0.310322520508867,0.238157901784816
9.26,0.43795309308318,0.574399091145337,0.445859781839417,-0.638470112540294,-4.85449554053513,-2.69439998285278,-0.313335275731798,0.04783102771996,-0.606292025478255,0.658091267209148,1.11643402546502,0.759933180098459,-1.24874732268831,-0.0520605452689738,0.210877521215311,1.85529181849852,-0.167984251071407,1.93483093545973,-1.06080501575525,-0.195615089968501,-0.129286122378759,-0.973103593425762,-0.322689746474311,0.277007271523669
9.265,0.301270999421589,0.46351891125447,0.52842071390704,-1.09461621907225,-4.39265048000403,-2.42245333252505,-0.295555592105225,0.039358835047777,-0.600827553413903,0.722697598406301,1.311042756485,0.835993224700538,-1.24077651980421,-0.0139801799450414,0.209261692027469,1.9536975503539,-0.198448047500531,1.93763012934588,-1.04886925723926,-0.182515645192837,-0.117787683926657,-0.974512811496223,-0.341388094926104,0.296607967729861
9.27,0.163712191551759,0.447535073074431,0.621012681357899,-1.12518404129479,-4.1695601072377,-2.17480947156284,-0.279968456995661,0.0315724090002127,-0.595786413719002,0.786132366890879,1.50466032012117,0.912892233908658,-1.2295263593902,0.015823143053988,0.204220262579105,2.06764784737285,-0.234414540191955,1.94295661524339,-1.03400927290643,-0.178299112802533,-0.0936854408284525,-0.954332473178285,-0.327231501516381,0.310161367817378
9.275,-0.00624978379271358,0.567488609305983,0.739416488101808,-1.01464938274311,-4.04528524382816,-1.79967647416366,-0.266490365914444,0.0246404641816591,-0.591034546901676,0.848405840183726,1.69643265059992,0.989929392389552,-1.21206083302117,0.0310338916174756,0.209100121627008,2.16001431002939,-0.27285234184792,1.94501891242068,-1.01251093539934,-0.176275714145112,-0.0571876256821434,-0.895766827677749,-0.260256974933208,0.331000412798161
9.28,-0.0935650399647336,0.713280459716767,0.811602760247731,-0.978256260935602,-4.0538393584772,-1.45496852470154,-0.255057216198833,0.0186642182213215,-0.58641879022038,0.909501079037626,1.88560221515153,1.06637485888589,-1.17520606650855,0.0292146880569977,0.208924608494731,2.1917398352513,-0.314531888628994,1.94209082504169,-0.996417857810604,-0.165251598194068,-0.0289711154642827,-0.855799227270503,-0.187166190288415,0.334571142237584
9.285,-0.146990580211376,0.831883429166462,0.847560297245156,-1.06970136427098,-4.12880281050457,-1.07105441583841,-0.245628363890894,0.0136763112972983,-0.581792749098171,0.969373701837471,2.07151288645347,1.14149129810675,-1.1305806898085,0.017979214884562,0.204163439137161,2.18631395856068,-0.341195129099824,1.91745176789948,-0.976243263426333,-0.147554505283952,-0.0210206258882942,-0.889795092372712,-0.10865667686757,0.332302913164545
9.29,-0.198843023424423,0.925718233933064,0.866686742963131,-1.31736394990037,-4.26026572966335,-0.584111939102473,-0.238186226644887,0.00964220040196705,-0.577044272468996,1.02795657164916,2.25361074134294,1.2145561406607,-1.0842326774004,-0.00459634734360955,0.190378707902675,2.1606381626919,-0.363173858082248,1.8710296797527,-0.960603168334133,-0.141531871712907,-0.0089733586017056,-0.950445472380317,-0.042702407967942,0.295178265193307
9.295,-0.19360092662848,0.929673533566159,0.861472356293891,-1.51559627291845,-4.35951169356045,-0.272698327409526,-0.232734430733951,0.0064629438305268,-0.57211450079506,1.08516811668105,2.4314407367588,1.28488358869435,-1.02985490717536,-0.0306048250775568,0.17609319064678,2.11285493252343,-0.38343348413885,1.80862192680593,-0.947553877624707,-0.144542589781586,-0.00341260967023434,-0.976355033262923,-0.00745494813416911,0.247481366428754
9.3,-0.166660360403222,0.844654667386241,0.826065413269552,-1.77540893383831,-4.47474765062793,0.176902492087437,-0.229296782224723,0.00398024215684546,-0.567002421458581,1.14092058928638,2.60463849771198,1.35184492217576,-0.97375230877397,-0.0636672647056664,0.162730855652043,2.07865418820263,-0.400882448184787,1.74289995197014,-0.943861339066043,-0.14674618029119,-0.00425719632903406,-0.996054348284736,-0.00163297861646919,0.204765961467498
9.305,-0.153260403353485,0.739440288905731,0.790949336450509,-1.91063566089748,-4.55568628343638,0.51846245194972,-0.227916771552112,0.0019870969408626,-0.561757646183854,1.19512582015098,2.77291714340856,1.41488608728158,-0.926214890535277,-0.09249945011879,0.14948905794407,2.0431579357249,-0.4110604945067,1.66988275991648,-0.936429659106356,-0.150047518086932,-0.00964801095327968,-1.02396307469322,-0.039328490467465,0.19555434132507
9.31,-0.151705998125248,0.648825387112804,0.766621146563228,-1.9014055716015,-4.60237501264221,0.756121478043523,-0.22865590542682,0.000246302119005213,-0.556469016183945,1.24770002781506,2.93605065081783,1.47354272964711,-0.912367681841609,-0.109467631427227,0.136763082933189,2.02715441075927,-0.421911608220909,1.6220268658639,-0.928696593652388,-0.156303459942375,-0.00784208891529277,-1.03692638874054,-0.0704654931157774,0.198321167519641
9.315,-0.178067908811574,0.566394352504531,0.745280611529001,-1.84967052039352,-4.64928519651926,1.05244444035923,-0.231589939414908,-0.00148716124584317,-0.551254516135985,1.29857138203529,3.09385605837847,1.52745335263133,-0.897477106596581,-0.124059140928974,0.128308025968778,2.01558275521632,-0.438760872678036,1.55638340146996,-0.927707528316827,-0.164020993307666,-0.00588735540879965,-1.03602847869756,-0.0747503098713577,0.201043321608595
9.32,-0.199889470005357,0.537309385606973,0.748050782708125,-1.77779983531954,-4.67760614372558,1.26175829530329,-0.236803327460259,-0.00344796982696589,-0.546253197284871,1.34769166800968,3.24617609279783,1.57637035862242,-0.879218953552625,-0.124882727047654,0.115403378668435,1.99887249589855,-0.461443268039653,1.5046960645493,-0.929316427578292,-0.180198552924844,-0.00564138313661564,-1.0309243343292,-0.0669321564655178,0.201367080211639
9.325,-0.256298365258185,0.515741835658629,0.781004114395105,-1.69374608426886,-4.70875532442375,1.43472549124734,-0.244382610540337,-0.00585046640533457,-0.541617401608858,1.39504972002224,3.3928626714458,1.62016767402917,-0.864212985320142,-0.118433675282511,0.107751776987677,1.99048897934096,-0.483243809983589,1.46495841806495,-0.918314255608454,-0.180508693352578,0.000163209965094008,-1.02470946311951,-0.0420029858092919,0.193433381736237
9.33,-0.31222749149567,0.498729591702513,0.801876036917261,-1.64160937485718,-4.74623943488304,1.58171861286715,-0.25440958503741,-0.00888338576044594,-0.537504396678183,1.44068372146416,3.53376149776184,1.65884397584367,-0.856564592866487,-0.117662111929347,0.102320937483862,1.99584113174706,-0.494128340229348,1.43810467325231,-0.913115429254305,-0.187167520923835,0.00154227241946415,-1.02130921654529,-0.01381259567928,0.184049768751353
9.335,-0.371889085928871,0.492857157637539,0.810004903945974,-1.65281995653869,-4.80459185941744,1.69151159038235,-0.266955272727453,-0.0127043722485084,-0.534068598069031,1.48469157597372,3.66869840301807,1.69252165313869,-0.842787806219302,-0.125996592697528,0.106336218080903,2.01232970135636,-0.507758180608825,1.39732113697201,-0.905756485133991,-0.185630319417891,0.00818807800267552,-1.01737928390503,0.021956096040249,0.16305705087134
9.34,-0.420078742396233,0.480102400639155,0.80694037349951,-1.6719935928514,-4.90517751737015,1.76395846013567,-0.28207540892154,-0.0174328960620795,-0.531456452146353,1.52724027046452,3.79746830602366,1.72144217420689,-0.842279126984485,-0.126823018104695,0.0974604445437389,2.03101073624015,-0.516045822546889,1.37136279665322,-0.904958426004872,-0.18124752730403,0.0162173845477548,-1.0319001823062,0.0533026261609651,0.147333213696246
9.345,-0.423978951111449,0.460843676567114,0.776261823454997,-1.73525611207879,-4.96437674014431,1.80228924693222,-0.299807497907135,-0.023142826428575,-0.529804213195429,1.56857544170288,3.91982740477553,1.74595829856923,-0.831687190871953,-0.134702595795432,0.0978605674603509,2.03893048114205,-0.518017078999952,1.31611542112277,-0.900144208219265,-0.176496193093213,0.0234361621804405,-1.04884088136037,0.0608000213136844,0.131541635439907
9.35,-0.406397072726181,0.43110631414816,0.756671104906559,-1.7819880692493,-5.00716835529843,1.80369001589585,-0.320169229732894,-0.0298568228319504,-0.529235645315033,1.60903138941434,4.03548866803204,1.76652300436508,-0.818944759403121,-0.137070175217238,0.0927452272184066,2.03053068171,-0.522609330937743,1.26615652352381,-0.8977473374407,-0.177655960979941,0.0270927804227279,-1.06013870239258,0.0596506651144336,0.127476645802949
9.355,-0.40136500633397,0.38457592528451,0.765934274156579,-1.7716137886319,-5.02450407205484,1.79240505182081,-0.343158243288245,-0.0375452754857755,-0.529855638464307,1.64903969801731,4.14412018473385,1.7836744258002,-0.794983095359284,-0.145661521624288,0.0930618206337773,2.00337193721952,-0.532036621936372,1.21580365966419,-0.898639467954348,-0.17330714904682,0.0223962826070514,-1.07164446457408,0.052613102908653,0.132596586864102
9.36,-0.407348351691347,0.354599584388258,0.771926698401571,-1.6925419225885,-5.03506923257118,1.76932658549865,-0.368797390972764,-0.0461304187512566,-0.531713978055772,1.68913275461698,4.24534577751947,1.79801602073781,-0.78544823919542,-0.152535534595294,0.0949338750413464,1.97782880601554,-0.537356385887262,1.18459082860765,-0.900350293193892,-0.165942739229883,0.0153500292806316,-1.09553499080151,0.011477621459395,0.13783316587385
9.365,-0.451315088779069,0.364141801389919,0.787242925575702,-1.5527022698958,-5.0347727471871,1.73624165427944,-0.397269598180998,-0.0554927065155675,-0.534708462401186,1.72993877010675,4.3387474935424,1.81019202262364,-0.765815403804118,-0.169986502159322,0.0930343574794866,1.96730007958233,-0.546232072127865,1.11483845114175,-0.896690474946102,-0.164687615771976,0.00720861545124875,-1.15726383670517,-0.057905401456126,0.144221278763774
9.37,-0.493911327973956,0.397789856785117,0.800435010677561,-1.43742749506575,-5.02506428117813,1.69722148806897,-0.428733746745008,-0.0654840045015467,-0.538657310016551,1.77216782643251,4.4238699262737,1.8208596013759,-0.747552223047586,-0.192153791848177,0.0938330353896241,1.97788266318746,-0.556572975329949,1.04074195938096,-0.885952766451504,-0.163825046778017,0.00633046394155776,-1.19923965915139,-0.115734525103724,0.148066755127189
9.375,-0.546638934808776,0.467984114658888,0.825570606263897,-1.31957886981197,-5.00587810818319,1.6571073004296,-0.463022923433516,-0.0759368424726712,-0.543474774022564,1.81659155835551,4.50022652455496,1.83065991424434,-0.734089539592154,-0.213046816571892,0.0912899571462011,1.99736982523292,-0.564263319847762,0.97581795303945,-0.872617085845382,-0.169147221459283,0.00412277010069401,-1.22041349863123,-0.154211418529793,0.158103740314201
9.38,-0.611586070579995,0.542388459311539,0.855956350959425,-1.23709109118959,-4.9978952862189,1.61881968575764,-0.499863398355117,-0.0866718362099411,-0.54905919243843,1.86401921732317,4.56730787808057,1.84018963052903,-0.728794146231882,-0.227899425518055,0.079692712434102,2.02040692922343,-0.571254401108225,0.91216166685892,-0.872040805204082,-0.168457702809088,-0.00560998771816407,-1.23426666312668,-0.160843104124069,0.169200990921838
9.385,-0.701280393971532,0.616619794078142,0.901784083054841,-1.17395305251227,-4.9848256111145,1.59892099282229,-0.539057565711053,-0.0975069301204212,-0.555176752181866,1.91527050285227,4.6245916391869,1.84997345148949,-0.710606550707869,-0.24949666535521,0.055728887521837,2.0426044562936,-0.574622701082654,0.828746062723798,-0.865549079870366,-0.171111632382846,-0.00381854810187415,-1.25311220688845,-0.158916562586194,0.180103088374292
9.39,-0.834624968093745,0.719526883292719,0.9433415064874,-1.12911407464421,-4.99321314324785,1.61892159468258,-0.580385562372402,-0.108258316684898,-0.561519674819652,1.9711444578251,4.67155381558411,1.86043817210235,-0.702287572205658,-0.262207501622831,0.0337303174475172,2.06531339438377,-0.580573466624125,0.763393256100984,-0.85907678012062,-0.178106029234703,-0.0128813263508978,-1.29701737480683,-0.133422971309499,0.183596432395369
9.395,-0.959715198040113,0.866308806111544,0.950664948272827,-1.11092067105007,-5.03116895221628,1.69232656940833,-0.623566486539497,-0.118739054387248,-0.567739613675122,2.03238562818038,4.7076817151879,1.8718899803508,-0.686424192885337,-0.27792226727559,-0.000854803974146753,2.09339531834935,-0.582679285897174,0.683296167535863,-0.859185991087875,-0.179680275407312,-0.0200508601199654,-1.3442054027022,-0.0942380254512769,0.177197936265972
9.4,-1.07267359928748,1.01945839934645,0.924370727375541,-1.14068866770064,-5.0779929570728,1.80212403027918,-0.668252490072976,-0.128756091256558,-0.573468238786513,2.09965079259911,4.73248910521374,1.8844973197088,-0.670638576002894,-0.290092172519657,-0.0274559708092729,2.11013212714349,-0.581177294254303,0.615870696219229,-0.855598336575463,-0.186946989584109,-0.0329943325741217,-1.36434786508248,-0.0569090430873299,0.175704280417432
9.405,-1.1808479290663,1.17398540311405,0.848889592780894,-1.26618209677941,-5.07980462629734,2.00165384155179,-0.714027179692175,-0.138109165374034,-0.578341644333915,2.17347860420074,4.74553352651831,1.89828063692718,-0.640100133658871,-0.302644044369896,-0.074920861596088,2.11773388534558,-0.580082412221947,0.53941219522811,-0.864452591092508,-0.195275189051627,-0.0323059949336974,-1.36216572696428,-0.0186412063698544,0.174333847230854
9.41,-1.2659087405993,1.33764650684675,0.741847567309217,-1.44574312089923,-5.03735359044816,2.28613915571838,-0.760410112377602,-0.146594920544383,-0.582024406053132,2.25426126907896,4.74643462831239,1.91310864393474,-0.619513512465757,-0.300005170878676,-0.109975424940439,2.11593878490515,-0.57684922019341,0.462754376589832,-0.870299011914135,-0.19211313326214,-0.0369446311484958,-1.34243212696968,0.00889041069051787,0.17693318426609
9.415,-1.33525655357238,1.44152005794532,0.64337707389898,-1.62858693335543,-4.94122721151438,2.59080243346608,-0.806867696335644,-0.15401601186712,-0.584229705134275,2.34221544901499,4.73489191797758,1.9286999850804,-0.600560316257391,-0.287071687044369,-0.12695309325512,2.10720404606027,-0.574433374691992,0.388437682583273,-0.879331376017419,-0.185073632923254,-0.0380578773322651,-1.32858244598242,0.0328562201827736,0.177852835151958
9.42,-1.41344716246799,1.49882514028899,0.505854762966828,-1.88153376871847,-4.74917970520814,3.06770997659761,-0.852829215283884,-0.160192460033345,-0.584733598761972,2.43735048845219,4.71070067737164,1.94462968501392,-0.580245145350609,-0.271226609808316,-0.150590464214068,2.10226334545681,-0.565164326141166,0.305874754524791,-0.895234368951019,-0.168389698152819,-0.0415604077276161,-1.3215012743597,0.0566664980429656,0.184311331269065
9.425,-1.45349412969528,1.46989331009242,0.402756985729843,-2.0251543525789,-4.54406850614764,3.4789880459777,-0.897705779330453,-0.164972054752483,-0.583382274437645,2.53943457568503,4.6737651693216,1.96034060574453,-0.566710596120064,-0.248960644520267,-0.162243956157226,2.08297523430614,-0.555045435842559,0.218515902330422,-0.903047751440792,-0.16210847815563,-0.0561496402646219,-1.31704063167017,0.0600596306404483,0.189720203335276
9.43,-1.4808600465476,1.37207955799972,0.28192549781528,-2.09266703908544,-4.26272115758767,3.93780236192536,-0.940910246935474,-0.168238058313139,-0.580091489122511,2.64796179126044,4.62410815368835,1.97516068038859,-0.556376893075493,-0.224644320192092,-0.194426722004858,2.08156524473638,-0.514289793755023,0.105708423339692,-0.916099400134703,-0.163238964699007,-0.0561750911187539,-1.32900227010601,0.0545368426606688,0.201774548994389
9.435,-1.50678650198582,1.25931012639547,0.169594820416721,-2.05670603715442,-3.94252626409625,4.37138428204668,-0.981877075789935,-0.169915318451399,-0.574839726989537,2.76212400369069,4.56187571604157,1.988326621183,-0.540082642048313,-0.201157078691089,-0.224773449144507,2.07338786125183,-0.462904405128733,0.00533417804887901,-0.927874895335369,-0.156251119748559,-0.0643004955928117,-1.34134773415358,0.041406852910949,0.209474116521982
9.44,-1.53436144965816,1.17861304617789,0.0853461378621236,-1.98521446876174,-3.57823032792648,4.73847981010114,-1.01990032469955,-0.169986515289411,-0.567869125189975,2.88079174036652,4.48733729557042,1.99901426394544,-0.533743797597902,-0.185067622109025,-0.23809372402599,2.06766358332688,-0.41806999949915,-0.0759792846758918,-0.934111522338267,-0.154099370857807,-0.0722750888653951,-1.36319609424135,0.0262153731904577,0.212022096085248
9.445,-1.57244775843963,1.10839594033149,0.0169700291074992,-1.91418726846247,-3.16792277651165,5.08733461855115,-1.05387632523897,-0.168515245384942,-0.560068323855066,3.00250966572822,4.400882390727,2.00637511932942,-0.529178837475311,-0.16607750882145,-0.251175070277331,2.04731453171973,-0.348285643961656,-0.198184216524245,-0.944761525322529,-0.155987344496189,-0.0793495748576836,-1.40730455789093,0.014666795089734,0.214667671784272
9.45,-1.7057876296335,0.949698502822884,-0.00120561217903812,-1.9040398143725,-2.40539938291448,5.53697887523828,-1.08318459365123,-0.165618734623254,-0.552030369342538,3.12551415652137,4.30301616071092,2.00957772660233,-0.572185748552488,-0.131374187624527,-0.188772097789886,1.96627244620406,-0.237963290704785,-0.376228511926608,-0.94806262190076,-0.168806243347896,-0.0918901628030683,-1.48529988800862,-0.00039645309078176,0.206253856420517
9.455,-1.84382203053128,0.863458681881392,0.0563302160329146,-1.94322611191131,-1.991956727077,5.70901892041904,-1.10833452080477,-0.161448682439871,-0.543120140404348,3.24777731836147,4.19435468954631,2.00785061059106,-0.620038862293477,-0.114315172081734,-0.118064213039458,1.93042043617426,-0.185613745568666,-0.455902774447437,-0.94845659447599,-0.181810409358189,-0.104254782837627,-1.54833758980346,-0.015785548693571,0.206253856420517
9.46,-1.98672075849648,0.788391506718144,0.126068262862966,-2.02800681595174,-1.63406478669964,5.82258999206295,-1.12982909162842,-0.156164909382669,-0.532728143889411,3.36707355398758,4.07561822820324,2.00052237047256,-0.685047126632943,-0.0882157711557417,-0.0268534551613899,1.94793792073835,-0.147210612815241,-0.506493687707563,-0.944420706105506,-0.195187946269614,-0.116225234744848,-1.62846173863063,-0.0269342883080481,0.203332892713643
9.465,-2.10618845001002,0.711919364290406,0.190226448058909,-2.16816967654783,-1.32047993756965,5.88453564983216,-1.14771425865292,-0.149905289916449,-0.520919874899942,3.48105991299243,3.9476200779272,1.98705528559243,-0.729242372167934,-0.0731380157675638,0.0169139892042007,2.01810953851716,-0.143194183897982,-0.518524115165854,-0.941870165053868,-0.216513968474818,-0.120056762347202,-1.70025589148013,-0.0358778122223514,0.194986766471427
9.47,-2.17722161419551,0.651837140233126,0.217992941676973,-2.32970499487575,-1.08849676754601,5.87804018642571,-1.16203275142377,-0.142807060633523,-0.507899149047799,3.58736375791347,3.81125058109664,1.96707074354783,-0.780741691817819,-0.0559356244466548,0.0758076613540175,2.03133235516948,-0.145668720986474,-0.572367867606137,-0.93684462090779,-0.227310460120365,-0.121425729945455,-1.77354438535206,-0.0482826468135748,0.18680548219108
9.475,-2.24543248350357,0.587462047544396,0.225632980255372,-2.50839619217199,-0.885746413731411,5.81700898931935,-1.17290746470883,-0.135012337687774,-0.493880532467512,3.68367441038946,3.6674577733514,1.94036578592704,-0.819985341749663,-0.0313065288250501,0.109960109988104,2.24087999364887,-0.152790668101332,-0.63284329879092,-0.93329544944024,-0.229269676798153,-0.119580865373969,-1.82847753941188,-0.057382814236742,0.186811168522652
9.48,-2.28889366494159,0.547142516971047,0.227244419237832,-2.67053812236577,-0.754537811667505,5.74830298486439,-1.18053929924951,-0.126665927419429,-0.479087586258435,3.76783537154998,3.51722691751507,1.9069203557029,-0.85898581872331,-0.00405191074052925,0.138503928513154,2.45227085265214,-0.163013824606321,-0.710201381077554,-0.939269823744656,-0.230204145162583,-0.1016591986054,-1.87922210856571,-0.0652350580278656,0.187928438186646
9.485,-2.33550653615338,0.499479400412504,0.25865319091451,-2.85799734318143,-0.612364474845364,5.62450428861089,-1.18522085098056,-0.117906146537208,-0.463768266869349,3.83793431448263,3.36156085819169,1.86689547938899,-0.899397356725733,0.0338087533982072,0.143378737921516,2.53401064418674,-0.160240170157222,-0.807567848621251,-0.945304409208274,-0.227374399332949,-0.0910451142180576,-1.91197971686318,-0.0661550462347597,0.191904551644708
9.49,-2.38513228889396,0.449140496348626,0.299434139009593,-2.96500724461123,-0.553014195872457,5.52776964205051,-1.1872603334151,-0.108845729556514,-0.448165092522247,3.89239066289215,3.20146278986129,1.82062308172807,-0.940084604778128,0.077607321771248,0.128869154202564,2.59248383207669,-0.149008070996811,-0.910609165517821,-0.944648107373082,-0.233948367840696,-0.0740622413671129,-1.93182523436647,-0.0566898763087892,0.197048046604141
9.495,-2.37006582550939,0.4137568763428,0.306117403793113,-3.0457890297647,-0.545248113069471,5.4287709391275,-1.18688977266051,-0.099546851529082,-0.432486192397855,3.93003906854501,3.03792226636545,1.76858747272709,-0.962970045000605,0.133644659683595,0.103832157514503,2.58290305458485,-0.13651469643973,-0.996208269909384,-0.944715910022282,-0.237361678291467,-0.0599983685509542,-1.95472784520967,-0.0443793724132021,0.203716488065845
9.5,-2.29774332192081,0.420215205710105,0.280766386718435,-3.11900784262036,-0.552654776317571,5.33117719048567,-1.184336896163,-0.0900025723174361,-0.416954665277781,3.9501975069844,2.87190338097729,1.71139766013532,-1.00595380517628,0.224406664796092,0.0393959008906607,2.52480969097582,-0.131621722575375,-1.10625161912333,-0.941441769308694,-0.239465548787575,-0.0499772632508426,-1.96766055035073,-0.0292287146411793,0.215764518550042
9.505,-2.22621968490024,0.451511781829535,0.260734172672852,-3.20039100703165,-0.55272777177826,5.21910330650402,-1.17987201417005,-0.0801396201757443,-0.401809707099025,3.95269896652589,2.7043320275298,1.64975071127118,-1.03893861303713,0.298362584110572,-0.00966222578514419,2.45481453006317,-0.123420420399398,-1.18511586765333,-0.931648080190802,-0.242758095021337,-0.0407946779187451,-1.97641720151665,-0.0136193226892603,0.227030339549474
9.51,-2.15369276570848,0.458476299568146,0.238430177633352,-3.31166788579482,-0.542180337441447,5.08350603303899,-1.173763868173,-0.0698466952217386,-0.387243787963353,3.93787041065507,2.53607969738915,1.58438995666546,-1.06924429673312,0.361318878045875,-0.0615397939329489,2.4118042267649,-0.129756042646489,-1.23675069498143,-0.927531571185304,-0.237966177197775,-0.0351858838681824,-1.99663938157345,-0.000948125875761675,0.242561696503894
9.515,-2.06625524979443,0.444777551354525,0.199317047017232,-3.39896237702104,-0.533328365361718,4.96930367318981,-1.1662653492108,-0.0590133286334063,-0.373368063366068,3.90646428733765,2.36794515613913,1.51606496623668,-1.09694236622909,0.403576507914565,-0.12225179996105,2.43892241005664,-0.15578609087675,-1.23451900242976,-0.918607512771715,-0.231260886669824,-0.0289535481280072,-2.03870767500312,0.0239319594511189,0.255845718547284
9.52,-1.91124179871206,0.396126074048181,0.140746202741354,-3.38762502438538,-0.496964772236581,4.81830655985253,-1.15761429009551,-0.0475576698145202,-0.360210913101539,3.8595677006091,2.20063901743541,1.4454992438429,-1.10059794379802,0.439790851663459,-0.164288317427796,2.57700719374435,-0.193119050455801,-1.21745305844733,-0.918120349078865,-0.224387769367117,-0.0272739598582148,-2.08838443858054,0.0604450234398439,0.2604243486069
9.525,-1.80163402231058,0.363346574116295,0.113530694733656,-3.28816497484154,-0.447666220253437,4.72191673199693,-1.14803462234974,-0.0354346902313544,-0.3477350926573,3.79851248089795,2.0347755523225,1.3733668620672,-1.07178713602435,0.472134451445571,-0.180792138561488,2.86375629232889,-0.232510833554978,-1.19874746571385,-0.914135846316236,-0.220084037124142,-0.0271364441835687,-2.14360450298738,0.125738220676034,0.267018406416933
9.53,-1.67018403911344,0.364214112698263,0.0826728264431264,-3.07568583730423,-0.38584968288844,4.59374500812075,-1.13773811650824,-0.022634174066792,-0.335857320163864,3.72479076302272,1.87087198263506,1.30027534978008,-1.04713142246415,0.464941283884973,-0.186324474972647,3.15382360622991,-0.24885198685583,-1.19395321633634,-0.91594646523949,-0.213599623307325,-0.028740691679,-2.19880757209944,0.186793850893525,0.27037765431698
9.535,-1.52817591456092,0.400894422491273,0.0537561302238913,-2.83339954656559,-0.322154542436941,4.44783473410652,-1.12692647576331,-0.00918031400092294,-0.324465036684372,3.63997007410985,1.70935293332908,1.22675234584849,-1.02745345277206,0.465739202622693,-0.187400887405138,3.44709586203248,-0.257925368236719,-1.21465976081695,-0.918967019407467,-0.211836088547841,-0.0289658901273864,-2.26548391261643,0.253732160724057,0.271891694281566
9.54,-1.52305949017286,0.426048204804048,0.0423317298962928,-2.5649580052564,-0.209376085160637,4.27038865775663,-1.11579429500179,0.00486693089827083,-0.313434349340616,3.54561201236234,1.55055891488824,1.15323623072301,-0.991579727201686,0.432349585761936,-0.196840156529401,3.84911511179263,-0.268361544509495,-1.27406167267579,-0.91884382244776,-0.21462059240657,-0.040244172336163,-2.33527128799072,0.309279130595899,0.269796361022266
9.545,-1.64426428300093,0.394394517912849,0.0304070233052761,-2.3703444669387,-0.130278541636944,4.13849840580905,-1.104569217552,0.0194180768382859,-0.302583610931556,3.44321360593054,1.39475969027022,1.08007216902591,-0.978143072221158,0.368621166472094,-0.235992206750652,4.12607194866717,-0.250829717929459,-1.35066445402636,-0.924271324139115,-0.220626600209743,-0.057298043733995,-2.40669876788519,0.35925742325269,0.267958643874401
9.55,-1.6064860833398,0.415784692043286,-0.0373785775994549,-2.17553852622407,-0.0646969558343808,3.97338572532077,-1.09348235463437,0.0343606528642395,-0.291749202276673,3.33418651181011,1.24217263359066,1.00751325212277,-0.985248695515872,0.383980997098851,-0.313496445745673,4.35049538696023,-0.212128377501027,-1.36014443245547,-0.920856678769406,-0.227125885474518,-0.0730529957278833,-2.48030108003949,0.403912184693258,0.255233020543245
9.555,-1.50510162316589,0.405939610846494,-0.112455702222451,-1.99334435209625,0.051699278567081,3.81174550052919,-1.08263649426027,0.0495611306556475,-0.281055878406077,3.21986521025242,1.09298339231294,0.935724046429532,-0.997118171439445,0.379974845722639,-0.38404244111093,4.41432071370433,-0.128228577651802,-1.25801339847865,-0.916010676135172,-0.237854007741175,-0.0902275128494659,-2.52876930398049,0.422287405983559,0.248478523283475
9.56,-1.4655063072763,0.358197953894695,-0.137142773527336,-1.83119838589651,0.183272369549072,3.71130673038155,-1.07208052967047,0.0648624445462458,-0.270796981436293,3.10151533261531,0.947364787632272,0.86478385764946,-1.00605660119439,0.352694794599095,-0.42914564338134,4.37261514923958,-0.0485450424245743,-1.1399351568169,-0.918068816303759,-0.251871446494914,-0.105098810805542,-2.5516252668147,0.422235900209787,0.246735124839813
9.565,-1.42150104527131,0.330452758863764,-0.148759885987857,-1.58632645223709,0.328978100953657,3.58652107220662,-1.06197885767335,0.0800719160934252,-0.261100209457637,2.98031868138638,0.80549160676004,0.794689678176032,-1.01622908303814,0.296199994933227,-0.458358717974152,4.22360440499513,0.0597057939922176,-0.982744674567649,-0.914119114754518,-0.257847853182522,-0.116693732803457,-2.56124396835215,0.398661951636571,0.247731936587658
9.57,-1.43015719401565,0.339817732281324,-0.125505806393053,-1.30357140942127,0.514982481447691,3.47916564946174,-1.05256790664115,0.0949578560357891,-0.251987701791169,2.85733753858357,0.667552096425368,0.725361475526421,-1.03354663047382,0.264756609845886,-0.486143853994637,4.0057716449396,0.187924930666016,-0.806584362352694,-0.914595790683477,-0.263510184027115,-0.133117190803432,-2.53504752487123,0.351125665479545,0.260334974818671
9.575,-1.41148520677393,0.377900001372431,-0.10005715135733,-1.17672365343364,0.690283394825083,3.39890361027969,-1.04407260892388,0.10926101841526,-0.243524515939818,2.73348052188462,0.533758594439892,0.656652468931551,-1.04808490375142,0.250325469079566,-0.494603587327668,3.81625315665142,0.275958133745182,-0.657428171306206,-0.911363636133713,-0.267283170923713,-0.136131113658487,-2.49054759981331,0.300385699499982,0.266775143755944
9.58,-1.37183584352845,0.398337876115516,-0.0842678587296437,-1.15538227123532,0.833917157812501,3.32790109160099,-1.03669138638719,0.122712067324148,-0.235830901117117,2.60948526086202,0.404358359830225,0.588364503054226,-1.05248762627201,0.242829323537736,-0.496188056040347,3.53957066585409,0.378119195494607,-0.434513856520687,-0.910622785006241,-0.275045114932365,-0.137871005865119,-2.4310477239743,0.255869367967478,0.281949792851505
9.585,-1.31270871835275,0.371805160300299,-0.0732236082595528,-1.18212059190847,1.0212723382119,3.26599254607223,-1.03058581391364,0.135049838464351,-0.22907479312048,2.48591292837181,0.279643035005602,0.520266662712533,-1.05168059439558,0.242506004988995,-0.480079664711487,3.30951690339171,0.432011898659552,-0.257148938147322,-0.918553534498474,-0.282539867808973,-0.129958379629148,-2.34140913337424,0.219106683700169,0.283834964747624
9.59,-1.256630478748,0.334433804638522,-0.0414824537649772,-1.15392906599296,1.16327038190931,3.21320238118639,-1.02587358229501,0.146033991021203,-0.22345435423147,2.36314589624838,0.159954436174075,0.452115833432587,-1.02536445093416,0.22314392310568,-0.439074884976415,3.05007201377629,0.466790727721255,-0.0906337046362878,-0.931136048020614,-0.290382939430245,-0.118767149618841,-2.2686986683036,0.208680180409805,0.271575210193054
9.595,-1.2212029225997,0.284171524996384,-0.0129518933700104,-1.08027117853906,1.31967128830572,3.14207551362261,-1.02262437856932,0.155453305113555,-0.219179731351222,2.2413931834533,0.0456857592522388,0.383679141227972,-0.994956051313762,0.192993743919978,-0.395978514591361,2.78764983624416,0.471365823594295,0.0387074943483275,-0.945584867908907,-0.299279625396529,-0.107660058904534,-2.20839156187225,0.213741242625114,0.256894958577688
9.6,-1.16624333326063,0.219995699539269,-0.00886064349713202,-0.969233979369537,1.44791768310589,3.04933722795234,-1.02085836532637,0.163131348485081,-0.216458026130288,2.12071381001791,-0.0627217178461434,0.314757716023144,-0.965247277706967,0.162617434568382,-0.354320991661719,2.53123901181702,0.448259872417762,0.0988468224755535,-0.955529372748423,-0.306729970178409,-0.0906372831438221,-2.16599120068657,0.237210262597655,0.233600834041577
9.605,-1.08756354508076,0.207494044642973,-0.0404571701782918,-0.812241486745087,1.57275547000265,2.93338603499384,-1.02054830160992,0.168926941835598,-0.215480582188428,2.00105933105037,-0.164786681773641,0.245209743885578,-0.926598134715955,0.122065590003317,-0.309745144400782,2.22021586656582,0.384426812266472,0.0976660914362344,-0.966358038463307,-0.321502488412999,-0.0926671578925648,-2.13979431086661,0.266725987439476,0.210496064048742
9.61,-1.00419868986963,0.248454257792682,-0.106172337509896,-0.637844834725701,1.73963261306507,2.76701394144956,-1.0216257105339,0.172726939368233,-0.216412502597654,1.8823296748029,-0.260001097701049,0.174970408896086,-0.900193585451055,0.0875784262152997,-0.282161605330014,1.95009046328569,0.304636191516892,0.0523632448103329,-0.974832529059399,-0.333567505248884,-0.100049543658749,-2.12440900027197,0.291834355304064,0.179725651938807
9.615,-0.943115092851745,0.259867171714823,-0.170398300186879,-0.521755931960564,1.92313978754026,2.60443169925295,-1.02398940093263,0.174433327287252,-0.21938395046689,1.764436172167,-0.347848841211538,0.104067303806961,-0.883559873708089,0.0563896460392527,-0.245701490744564,1.56699821991724,0.179845441708192,-0.0307552610492316,-0.986046771134201,-0.345810641285329,-0.116948697635227,-2.11171081346816,0.303351334351911,0.141345782304479
9.62,-0.913020352684237,0.277211572346162,-0.197561846693343,-0.341996443948638,2.19312721651515,2.38863449949917,-1.02751403487393,0.173949434666025,-0.224478848669259,1.64736226830458,-0.427829142370916,0.0326307187786398,-0.876649286135371,0.0330380441122352,-0.216568226053516,1.20400631459558,0.0490370260459205,-0.129028528227939,-0.98511269434841,-0.356127879222279,-0.145806799704349,-2.11038923204745,0.298064743889038,0.110491001285771
9.625,-1.0256173253389,0.325383264366566,-0.122567000355566,-0.152783709145628,2.41356633857358,2.25051653423248,-1.03205753142736,0.171169617741576,-0.231716420776505,1.53120461878055,-0.499483974877996,-0.03910187269164,-0.87914255345859,0.0206406730156827,-0.188002816345042,0.93396966502794,-0.0807856250309329,-0.211192722051658,-0.987522995256775,-0.362768598060459,-0.168968860157704,-2.08153571899485,0.263786691809868,0.0819676640627796
9.63,-1.81423187291233,0.369981845236456,1.12330863154508,0.489707280093309,2.38885914482477,2.27130104157028,-1.03746658199089,0.165976138833704,-0.24102913024064,1.41618108433511,-0.562427621394374,-0.110787710757352,-0.889157302651758,0.0241250342273691,-0.16285515544443,0.684523136676412,-0.227534851370333,-0.324042980032405,-0.990364924358679,-0.364315769467259,-0.171074774873555,-2.04409223153771,0.207621408508806,0.0725548126961122
9.635,-3.42795771782918,1.00719280529672,3.66589604442244,0.934211604549565,1.16872052758589,2.53199523003137,-1.04357909335021,0.158246581106008,-0.25224875539808,1.30261562749308,-0.616374895702202,-0.181986212892724,-0.900006972565703,0.0526815322426132,-0.147875864258627,0.507684725864258,-0.358434551982619,-0.416937721247013,-0.993059858276607,-0.367996006196254,-0.156707757531846,-1.99748041907806,0.133274285506759,0.0729674278486344
9.64,-2.93648277656024,0.0965977368905752,1.91783650537239,0.314441515867736,-1.28195454181658,2.54426329596745,-1.05022325585443,0.147872348512157,-0.265108764597185,1.19092982849004,-0.661163470710228,-0.252169827911478,-0.921033152515226,0.0939122059779201,-0.144537661003068,0.407353664928256,-0.46396786865974,-0.479490041316108,-0.990896726558411,-0.373418024298194,-0.118368622767008,-1.93222813229541,0.0245203722132301,0.0786384363157349
9.645,0.0143919159480445,-0.358993953715362,-0.0484820493415993,1.00400816861371,-0.988102178855572,1.74460966999653,-1.05721555264554,0.134784024460342,-0.279258438767482,1.08165798218995,-0.69676724226352,-0.320737024770425,-0.935909578804934,0.11696513979443,-0.145723905684694,0.364222497478799,-0.522265184093305,-0.484844470997407,-0.999642553219101,-0.365829809069446,-0.0873260736542278,-1.86100536133895,-0.0606722710331518,0.0891955237856058
9.65,-0.562575081400185,-0.282868267950214,1.22585695258068,1.43951590134121,-0.668087844080372,1.48443222910914,-1.06436130770228,0.118976981047957,-0.294277431833759,0.975468603768022,-0.723300793681736,-0.387028723901807,-0.977166331437267,0.144733802712125,-0.160134990828788,0.343583642496902,-0.579846437320139,-0.457815530928093,-1.00440263061899,-0.347694170791187,-0.0905746201101047,-1.80375707312611,-0.106649330454158,0.09809500083363
9.655,-0.881207154461361,0.975611310472097,0.945953689321761,1.93382861543014,-0.953871452930832,1.45523409508014,-1.07145909348184,0.100532799265853,-0.309686053122031,0.873159482692039,-0.741017083907541,-0.450350491993463,-1.04180491258046,0.166104842916101,-0.181675812099738,0.342882967909438,-0.599553419987882,-0.404422123189254,-1.01942264830539,-0.319120598841756,-0.112674852342435,-1.76601493358612,-0.133326793129625,0.0941774788957386
9.66,-0.046665388177035,1.97286836591102,0.693271531752695,1.14771782608481,-0.969287779939924,1.53052242473448,-1.0783065742896,0.0796359241692071,-0.324958353495023,0.775613147207584,-0.75030007944917,-0.510000829618921,-1.13851689848407,0.170161390715237,-0.209340059661977,0.402626799261888,-0.605364240183648,-0.302256924258399,-1.03442809988241,-0.290435089556896,-0.139104482687888,-1.75109417065028,-0.132976852602573,0.0834832885508378
9.665,0.0589050550810555,1.47151356966408,0.767055307173574,0.556186916668672,-0.90567157222629,1.52063706801169,-1.08470432837699,0.0565861826306381,-0.339548834405018,0.683730893299352,-0.751652369535463,-0.565302991887024,-1.2234665432535,0.142320842882534,-0.226066476191018,0.538787193264131,-0.609770600204981,-0.235955312657291,-1.05275381763002,-0.253206543485085,-0.15899224563059,-1.74550926685333,-0.161417786847602,0.0720156628276972
9.67,-0.274255555506097,0.650218631073551,0.965771511012761,0.216972849693608,-0.933721089764342,1.32423115828806,-1.09045704131091,0.0318053619779532,-0.352934388300644,0.59837334577661,-0.74567717577724,-0.615636800627812,-1.29514924529885,0.105682504029478,-0.23573333419478,0.685105969478896,-0.607436026681969,-0.205645550530791,-1.07023317044556,-0.218073545216608,-0.171530689474643,-1.74012154940161,-0.215905044016924,0.0542139521677174
9.675,-0.586466416771773,0.261903978857798,0.974471936336734,0.258794025867348,-1.06007174433017,1.03205237196873,-1.09537455942511,0.0058339239483382,-0.364660497720399,0.520319461787963,-0.733055544552371,-0.660468082589059,-1.34734655249221,0.0619905023290256,-0.242239497627483,0.82197016543979,-0.598563547600428,-0.215808803494527,-1.08307183474679,-0.193532059454572,-0.18076854420226,-1.72360674680901,-0.289052748820689,0.044736047396456
9.68,-0.692900872160104,0.724785857872171,0.722873471567403,0.501692680654128,-1.17323838574546,0.708246929153235,-1.09927616855938,-0.0206841530251629,-0.37437596051773,0.450237626656778,-0.714521392531114,-0.69937478463472,-1.37707400528926,-0.00280468278049208,-0.264905142092031,0.970514631893776,-0.586229208543907,-0.261187702564114,-1.08686324996864,-0.15853596517036,-0.180224029775766,-1.68704258852807,-0.409295654554867,0.0202820796516233
9.685,-0.721091127747761,0.708023261894964,0.702335454052839,0.381244151437763,-1.18449707048718,0.454404227964975,-1.10199854332627,-0.0470267012999564,-0.381849035931502,0.388659526207111,-0.690837574249377,-0.732069067719657,-1.3754999302697,-0.0515810065837395,-0.286712754057795,1.06076142553251,-0.572654351313813,-0.296654905254979,-1.1011524980278,-0.129056559541177,-0.184170174548181,-1.66347513267845,-0.510271134242938,0.0407259590320512
9.69,-0.631210360512582,0.763500827714457,0.728069197857323,0.173506815299761,-1.42967285077884,0.168413928981729,-1.10339513715942,-0.0724260261250947,-0.386985771923684,0.335954278644382,-0.662775245055646,-0.758413989907184,-1.36225554083896,-0.0865678732131025,-0.280909936494755,1.13903478920925,-0.559827450072492,-0.32227412440061,-1.10312680118809,-0.110032360211132,-0.187298010134758,-1.64399898279346,-0.596806496765002,0.0839936288127228
9.695,-0.445196465423267,0.637496986374573,0.836744413708711,0.174304351206214,-1.2513287853079,0.0391318497985322,-1.10333684374868,-0.0961072294690946,-0.389831021561874,0.292305636347226,-0.631097651809505,-0.778432699613508,-1.34072471629734,-0.101058863477386,-0.2530340084783,1.18707887192663,-0.549905231619887,-0.331443316398638,-1.12190646708082,-0.075788804169849,-0.191154109891204,-1.62910230370087,-0.683002323754465,0.145481080788707
9.7,-0.350598156783202,0.370450237797242,0.975693746191132,0.194766435325429,-1.1268685979105,-0.0932583909918461,-1.10173142474315,-0.117331205549241,-0.390522582116912,0.257696750453197,-0.59654838461716,-0.792308222326338,-1.32379822266139,-0.117992531338525,-0.203523144040691,1.17395718282518,-0.538773141255686,-0.330175419015413,-1.09807377764785,-0.0544681703565063,-0.195791631875422,-1.61019434582304,-0.750382130432834,0.183250237496988
9.705,-0.316951344746709,0.360682649723385,0.993042795442517,0.141841525150403,-1.05164932139252,-0.181167809741505,-1.09853776648384,-0.135440788313587,-0.389251635975608,0.231906942244756,-0.559842608696514,-0.800373249444929,-1.31422620795496,-0.14131605779338,-0.144579763324835,1.10176278173008,-0.560419078124756,-0.328628700082243,-1.05150738141154,-0.046838976817589,-0.184870323874379,-1.45635277803437,-0.798143739884387,0.116922576982117
9.71,-0.402577565208847,0.262300813715139,0.986164308620662,0.0243512085424828,-0.922865548450546,-0.177481860431756,-1.0937683900885,-0.149906942183868,-0.386249408090913,0.214523368101271,-0.521658648239556,-0.803091055469837,-1.29551483966747,-0.172039274073633,-0.0741287946464827,1.01911462090496,-0.587982933870172,-0.343218679306794,-1.01846335251854,-0.0264203041099132,-0.157944330884605,-1.38314268548635,-0.801351477609973,0.119898098221061
9.715,-0.471602944496013,0.136627043822698,1.0000617144833,-0.0608148154205837,-0.775939400870519,-0.10261754969066,-1.08749302100593,-0.160369246411269,-0.381774937138314,0.204967540731196,-0.482628235015541,-0.801029548705837,-1.27809372747664,-0.203101279742604,0.00886455998221855,0.873128624565305,-0.616273223283654,-0.374174481881279,-1.02898428333372,-0.000443485780848823,-0.138202132342255,-1.39034667877556,-0.708104742081324,0.189779482094151
9.72,-0.476254667889483,0.0844631905811665,0.998730282787608,-0.108633078630016,-0.562085042299649,0.0457343850481111,-1.07984049413851,-0.166664017689449,-0.3760998018436,0.202533256208473,-0.443326375051425,-0.794830455542239,-1.26358968823925,-0.241041019473856,0.100547295524209,0.607328397364582,-0.663003639508242,-0.443213732268361,-1.04787459949189,0.0216713622178965,-0.110676158623292,-1.41552431231568,-0.557064047063036,0.254989386070299
9.725,-0.431066714172642,0.113555806163567,0.980522922681162,-0.115268631759488,-0.397491181899302,0.185923394149798,-1.07099832597222,-0.168836093220078,-0.369487934417312,0.206429673132611,-0.404263353256137,-0.785175778211781,-1.23797711005062,-0.309279253507861,0.216576769050012,0.377948219002162,-0.720112934823294,-0.501913306902326,-1.06707491202661,0.0342188314651319,-0.0956345662212242,-1.44103237379921,-0.323116887022006,0.296001018306945
9.73,-0.382395334297995,0.133347677275556,0.966914552072042,-0.106731586159339,-0.240335768755017,0.32234001612978,-1.06121136462826,-0.167133577672103,-0.362175351327317,0.215822918593465,-0.365880464535423,-0.77275422564653,-1.21282163277531,-0.356771526798129,0.267741474143924,0.200498792665942,-0.780772020787464,-0.562316184394899,-1.07924740622623,0.0465994594637708,-0.0852122411383465,-1.42890670719339,-0.149168805445192,0.305027439174701
9.735,-0.371820578786462,0.124038685709403,0.946806187218179,-0.083003369758058,-0.134000355353391,0.411670949723639,-1.05077832453093,-0.161985825530189,-0.354356716121151,0.229871812690691,-0.328549340652256,-0.758230510366712,-1.17757234310972,-0.390671043555988,0.277932540059303,0.116155588343188,-0.839615274111249,-0.617217096784418,-1.08604351226973,0.0540231846394077,-0.0941796171821183,-1.41291067077395,-0.0131090712094521,0.29618260358121
9.74,-0.421527667060411,0.147847814575062,0.907886523043535,-0.0423968613213146,-0.0573529571402121,0.488077226194294,-1.04004121610148,-0.153966010670084,-0.346180495349637,0.247755033843752,-0.292574181411706,-0.742219780719735,-1.13320934305063,-0.401492671748406,0.238074845260868,0.142591863557669,-0.859089427697797,-0.649272518973764,-1.08765091694236,0.0637366965138961,-0.101277409523256,-1.39938545298162,0.0907158680414408,0.302918501675946
9.745,-0.444979719592503,0.167752621868229,0.895549707070502,-0.0179336374666808,-0.0278047148939844,0.534007027373959,-1.02936326119319,-0.143743471766493,-0.33775168667272,0.268687488740797,-0.258196200613122,-0.72526833711413,-1.08632088001552,-0.387760328390591,0.178245186303324,0.254450646741101,-0.845918334893156,-0.65115027259055,-1.0783510174237,0.0777024699063684,-0.110527948095296,-1.39303267021323,0.137174280866546,0.340711146689248
9.75,-0.457705862087982,0.201037345844064,0.880687936625653,-0.00479932281574284,-0.0027671645831396,0.569126269878759,-1.01909781922497,-0.13203407078312,-0.329141643090118,0.291925735401208,-0.225598903835379,-0.707840711637857,-1.02390042163596,-0.324618487328009,0.122760257573032,0.395719374601658,-0.802022071985098,-0.638359528321486,-1.07060821370158,0.0892285648421294,-0.134864108222233,-1.37521350084142,0.151474412924688,0.364847355947298
9.755,-0.450876148686379,0.257408632817394,0.85542954006606,-0.00423635828925269,0.00663447935015286,0.582237601280212,-1.00955893721769,-0.119554563322993,-0.320400481170767,0.316765165455801,-0.194912614558097,-0.690312780154738,-0.959978565169688,-0.22414165996452,0.0904905355713137,0.56745594968935,-0.726233656861967,-0.5972873810773,-1.07104016519991,0.106571302787852,-0.149336351911297,-1.3523879645866,0.171913839841818,0.361427186802104
9.76,-0.414521062366888,0.337609182822539,0.84947451679216,0.000781735282545604,0.00600383903158359,0.57186727441308,-1.00100492594226,-0.106981965477821,-0.311561702069442,0.342531158436405,-0.166218672426966,-0.672970968518483,-0.905747457412501,-0.0943501613575516,0.0988919229297409,0.740556844233319,-0.609885773407145,-0.503811410637264,-1.07009262335194,0.12655264526027,-0.145864392239962,-1.32586584266846,0.208912746629845,0.322934250491065
9.765,-0.379469454823101,0.387847807104596,0.852297854069066,-0.0266055416047731,-0.0105385594381291,0.505364434566703,-0.99363704379802,-0.0949169641140564,-0.302634188702938,0.368563964325461,-0.139556075946793,-0.656017908658727,-0.868922268517175,-0.0212594426092867,0.119710366441402,0.840272330499305,-0.504497897914563,-0.418142027924418,-1.08026345138402,0.142039705079945,-0.138532728128177,-1.3035005192677,0.273118934565716,0.307140633121007
9.77,-0.348623587868899,0.433687759867548,0.853140298436926,-0.0550350148330023,-0.0332005965458349,0.412787201460857,-0.987603931619659,-0.0838526613749861,-0.293592802328928,0.394198420316096,-0.114932283881377,-0.639584088504605,-0.851007366270761,0.0138388769604976,0.146883912584855,1.03339129349203,-0.367730401158053,-0.331248374146843,-1.09630964547499,0.144938982252189,-0.135560271089209,-1.22771842520662,0.394501016446238,0.30034968837632
9.775,-0.332217749168406,0.456734410465176,0.849899406388149,-0.122689092715238,-0.0717218324109375,0.273752472418636,-0.983000505807122,-0.0741528196526827,-0.284385577934609,0.418745667847194,-0.0923356907410309,-0.623743341308348,-0.866445137102924,0.0242924419012541,0.170767586459994,1.02351639531782,-0.251782851631111,-0.296641940183534,-1.11408838612382,0.141138413594978,-0.141261398529672,-1.09578081259078,0.533656644067841,0.317428540627659
9.78,-0.339414750218307,0.461762980077681,0.845221464091558,-0.175162484778035,-0.112226319790755,0.138736763572605,-0.979859332915801,-0.0660437200571295,-0.274961639790211,0.441487917639002,-0.0717447696079358,-0.608528822666506,-0.849713784396716,-0.0117265632572004,0.251907554262397,1.48300721399034,-0.174627386556122,-0.282022587585467,-1.11889594116917,0.12810000909405,-0.154394658174458,-0.936566302277242,0.656652553392339,0.344060692147222
9.785,-0.360183721931634,0.436313266333718,0.833702670263744,-0.240828588770161,-0.154527780188368,0.0408943394616235,-0.978142615205377,-0.0596200494107977,-0.26530426744033,0.461692608365603,-0.0531309661627269,-0.593946659437812,-0.879412265666403,-0.0264739721576339,0.301584561821109,1.64507129057309,-0.140784081512053,-0.315227116916016,-1.12256351264658,0.0990607269705168,-0.165880248499266,-0.777500136665692,0.743544798667398,0.36742121902033
9.79,-0.394430041523839,0.328704092884557,0.844412317883179,-0.306804818182919,-0.177367164972638,-0.0250097979134241,-0.977743961322021,-0.0548603942031052,-0.255449088521743,0.478642666356358,-0.0364565690256093,-0.579986340731146,-0.90610213111579,-0.0853863219224234,0.414010843355983,1.70003458744331,-0.158990200531289,-0.380709638458416,-1.12025708130835,0.0635370194712185,-0.182727599115343,-0.611278029262516,0.79190077778595,0.383363993497467
9.795,-0.42955331223642,0.224621865113049,0.871630420573921,-0.316122060692984,-0.149442704161537,-0.0168663372152127,-0.978502061876719,-0.0516453481239599,-0.245479045060055,0.491674225677592,-0.0216712105738132,-0.566628464435191,-0.932384231461804,-0.122270705164154,0.521167598309604,1.72982116499489,-0.21175522311073,-0.497685092611185,-1.10362954507377,0.0441481445953244,-0.190728329760557,-0.506710588492285,0.769477020164896,0.389841259386702
9.8,-0.442543366661287,0.183172440753281,0.879710941113409,-0.292588579463004,-0.110274159036446,0.0303343372253968,-0.980220673258062,-0.0497730511019346,-0.235502097561739,0.500214908755626,-0.00871057090606175,-0.553850640839475,-0.967548068340525,-0.155385640851454,0.618400363177534,1.68979943957339,-0.305030477653726,-0.646654628266434,-1.08214286031456,0.0353453065690351,-0.189646135521764,-0.481078185744791,0.702196392819414,0.393161725089739
9.805,-0.410274836346648,0.208212027492673,0.892715121864793,-0.27707619650342,-0.0652665685013267,0.083411672835133,-0.982686521326481,-0.0489728249220803,-0.225625872306287,0.503820057319187,0.00250098895203749,-0.541631703007029,-0.990345211686584,-0.175220888210164,0.646436126617301,1.6100418086129,-0.394587213950177,-0.735622759232951,-1.06644324083287,0.0335707581627094,-0.184655274480965,-0.534612845363315,0.603699962860886,0.393834638683713
9.81,-0.371944875952522,0.195427238891739,0.906871692708958,-0.257220636655837,-0.0246056832443306,0.12311714614726,-0.985680094682666,-0.0489229314783828,-0.215943006529666,0.502206209040141,0.0120449372940936,-0.52995393450345,-1.01513254447668,-0.189303887815192,0.620076443028007,1.53951212396058,-0.476106752196448,-0.792801118227977,-1.0498572460675,0.046058328670748,-0.170923335686713,-0.640975131956961,0.481729379379183,0.398227524781071
9.815,-0.364640907137079,0.176195167222402,0.915944320835857,-0.240801304792369,0.0123394231819632,0.153029035827991,-0.988980685342927,-0.0492778107102136,-0.20653189767272,0.495279136631041,0.0200033348616608,-0.518803324508703,-1.05559733961245,-0.179488456267946,0.524230896779607,1.47706191686205,-0.529551532881714,-0.797180565603185,-1.03160587188989,0.0662910930790823,-0.157706837621899,-0.772506325991484,0.368825953330728,0.424083825052272
9.82,-0.3753867290168,0.168932928936843,0.914625559310038,-0.20609623428104,0.0398135714387342,0.178593117883073,-0.992370914597139,-0.0497040521461796,-0.197466700062344,0.483150879094904,0.0264566206100439,-0.508168533505884,-1.10627711204629,-0.143887260534889,0.385215637491396,1.47717015108338,-0.539628089120576,-0.751920195729702,-1.02788337608663,0.0840847887019697,-0.140857398294905,-0.874702410113833,0.283455187912625,0.460000444661984
9.825,-0.378320611850531,0.141006997123708,0.916529514049164,-0.157214838664405,0.081291270841312,0.208862409274327,-0.995644605189928,-0.0499185194173101,-0.188827074843962,0.466141179664233,0.031485022729951,-0.498039476018719,-1.13885320460802,-0.0809671192031041,0.187911046355383,1.56006398492219,-0.499767619094523,-0.634734283180573,-1.01495352511544,0.0986430370702424,-0.136130327508629,-0.939975082250415,0.218859533582103,0.486413985178858
9.83,-0.38773645813572,0.131924317632872,0.913650184645336,-0.118437985143561,0.11765223700332,0.241483560171706,-0.998617738267469,-0.0497197622499385,-0.180702942488415,0.444763969810642,0.0351722035309361,-0.488405875214696,-1.14855969346265,-0.0167942795371417,0.0333580719640605,1.59738850046777,-0.439945366550656,-0.523042396459834,-1.00808293115563,0.122155319580131,-0.129126136079373,-0.972831397335253,0.165261557022276,0.502278559668186
9.835,-0.394457234567661,0.150371560712383,0.904120304274367,-0.078011954864104,0.146455998328222,0.265310568072225,-1.001139512517,-0.0490046071979874,-0.173194304464714,0.419703792276861,0.0376091650019113,-0.479255359238158,-1.12791718413875,0.0531576168106037,-0.12398526174439,1.64644532148825,-0.341430748006456,-0.402983723456746,-0.996098593054036,0.133801331211109,-0.11527189245198,-0.990998135455017,0.139197681911322,0.507280631593065
9.84,-0.389867535874833,0.16663672386454,0.894411831666272,-0.0492331728339882,0.168626389864831,0.296508611255958,-1.00310060494194,-0.0477647962719997,-0.166405839899548,0.391785984666346,0.0388969621670683,-0.470570491034179,-1.09020883265399,0.116294757009473,-0.235393105105425,1.66673395949005,-0.234625395065934,-0.302981801771068,-0.977170412154969,0.145420316466348,-0.105172494926549,-1.01135882416471,0.117699861626883,0.500692382112436
9.845,-0.383236811755601,0.192169374173751,0.896214089720844,-0.0304897283746638,0.176522565881266,0.302518517475168,-1.00443706636249,-0.0460640697417283,-0.160434198414517,0.361940051589497,0.0391473754446513,-0.462324876675229,-1.03408756079414,0.158949011265207,-0.296447956349768,1.68573037949491,-0.13888922329433,-0.251761669209989,-0.975133564638456,0.148728979616222,-0.0913628867507962,-1.0479756097773,0.112320955609804,0.498626514105606
9.85,-0.371252291382746,0.224739744834196,0.888739321425904,-0.0149337338126164,0.178785170849477,0.309799760580063,-1.00512960705742,-0.0440041271331198,-0.155348721900025,0.331153805087404,0.0384810433741019,-0.454479561930797,-0.976815416419431,0.199756143774025,-0.336053355796285,1.69353542613241,-0.0436355687849257,-0.213711536049298,-0.960308653060023,0.14831155268919,-0.0688212076458925,-1.07978229642286,0.0839632327015145,0.471266420365168
9.855,-0.361386462809242,0.249839796796839,0.87963686365075,-0.00539111597242064,0.180748228068666,0.299100619456904,-1.00519959029678,-0.0416938777634518,-0.15117213869258,0.300418529636662,0.0370231198049184,-0.446981337606639,-0.933877532314209,0.225934603387768,-0.343567049964997,1.70460245374206,0.0104554690149253,-0.215211813598194,-0.951770460472536,0.141633030908057,-0.0526045778332852,-1.10003742003784,0.0554265142579012,0.458667811416994
9.86,-0.371145673552512,0.257229437271867,0.880571358070589,-0.00329787891431724,0.168495209701034,0.272566101253074,-1.00470394818999,-0.0392329787005067,-0.147870136562059,0.270668762448478,0.0348973390928026,-0.43976411407527,-0.904009759531374,0.23305943820238,-0.321644774693298,1.66445461325877,0.0372468659989903,-0.227570741502533,-0.952037186717792,0.135272888872357,-0.0379113248863698,-1.07627856493642,0.0291168157993578,0.449006824866095
9.865,-0.374234760115072,0.253335531142498,0.878461417063149,-0.00804801749248677,0.152981620279878,0.236201672952116,-1.00372944749071,-0.0367092147000354,-0.145356612478129,0.242721851390008,0.0322200794462355,-0.432753605897381,-0.906728560379109,0.221955804957146,-0.280541719951817,1.55820002246507,0.0418869256973267,-0.259797691287137,-0.957085941503724,0.111917154072313,-0.0263657362003544,-1.00367843540736,0.00955749907365714,0.437021863908785
9.87,-0.367735400049702,0.284389783680771,0.869612111306813,-0.0142586172310882,0.130666877036452,0.199864074072044,-1.00238395047379,-0.0342009116456503,-0.143516678404711,0.217224358322196,0.0290964929558943,-0.425874422435623,-0.931645667357166,0.197782525556661,-0.211776584909869,1.36669854812768,0.0360129144716886,-0.304514599064485,-0.962003147868355,0.0949872406569339,-0.0281644865839571,-0.905564406955901,-0.0108850879459092,0.422245462100624
9.875,-0.368998384990029,0.280210109597243,0.867446678718752,-0.0163043927729811,0.10898386778581,0.164011728261937,-1.00078494213576,-0.0317762858205664,-0.142237135858874,0.194614697507729,0.0256204037919786,-0.419057616456384,-0.956187217190705,0.173407258872637,-0.142926926073872,1.17010398510087,0.0206732513794318,-0.328598777760969,-0.97413478495123,0.0881641153909505,-0.0300731336588464,-0.816309255029787,-0.0194064898313332,0.410344780015615
9.88,-0.390997121920705,0.300905475215926,0.858603789693649,-0.0308454972007456,0.0885579088112376,0.122703742820543,-0.999048435981444,-0.0294872839400136,-0.141427111180557,0.175110190903303,0.0218776776536946,-0.412246535545725,-0.973985551964953,0.137584496289035,-0.0655753592361172,0.852840947239447,-0.0223498933566844,-0.355649227819772,-0.98398652337099,0.0855178890953,-0.0366034274197366,-0.730199442104864,-0.0122288518747466,0.399714065829276
9.885,-0.388530469487731,0.286344984504826,0.867435041222899,-0.0768547139838722,0.0665376008923875,0.109446271366306,-0.997279172134975,-0.0273609337019764,-0.141021751163795,0.158720485976284,0.017950329821491,-0.405399709615645,-0.981016400811309,0.102630701965734,0.00154410689959841,0.567033958770743,-0.0625265699230984,-0.373665140330888,-0.994474849483171,0.0827028736907892,-0.0417747726057848,-0.628972154050834,-0.0153756789043859,0.379707829975953
9.89,-0.380971263160397,0.274967767955069,0.873965924058427,-0.100313702764545,0.0499392346410816,0.0937211708097523,-0.995563102781412,-0.025393891537999,-0.140973329207207,0.145281992582663,0.01391837061333,-0.398490751422121,-0.990770704279338,0.0654737739731665,0.0604304748155242,0.269498435745554,-0.112889136972588,-0.374956709637532,-1.00139382346133,0.0884444999720038,-0.0575853099942722,-0.564157083745592,-0.0244603049485952,0.356257368524541
9.895,-0.381994591459954,0.280136145173649,0.87569076250097,-0.111022059549365,0.0301451184381,0.0683866072823053,-0.993963399924931,-0.0235542355037687,-0.141240891786784,0.134504632142922,0.00985874031704514,-0.391505987804684,-0.99856745793881,0.0249083231276077,0.0971911342970185,0.0405984299758508,-0.169834137357984,-0.379352399650521,-0.994447138189849,0.085707642491467,-0.0695152968849089,-0.522410002723158,-0.0292639629221512,0.328006505935591
9.9,-0.381148155607319,0.263614206284771,0.874479420971015,-0.125222811812273,0.0127816420803599,0.0494189101497857,-0.992519906202892,-0.021790191609138,-0.141787388462252,0.126023304801011,0.00584306573862547,-0.384440691588221,-0.999388505619183,-0.00358103150901091,0.123738926634609,-0.0977859192720877,-0.218306702591722,-0.372675279656305,-0.989035522170807,0.0902867572638653,-0.0885104770953979,-0.493534064821349,-0.0245302493869936,0.285408761582751
9.905,-0.379158707674876,0.224796720348179,0.88217278820551,-0.114931097751878,0.0125993640574909,0.0364887669301983,-0.991251437160176,-0.0200423186533024,-0.142583058221899,0.119448556758228,0.00193615592254248,-0.37729475079867,-1.00684333874149,-0.00631599137295146,0.145088398562166,-0.132367678162399,-0.257782298399836,-0.384059101343155,-0.97509646663234,0.0888030703910199,-0.093093603145189,-0.483025777371151,-0.0355076791078671,0.25744955719038
9.91,-0.391551363490059,0.193575013570511,0.886977937107819,-0.0878766608567081,0.026623856275519,0.0387322302382603,-0.99015968452621,-0.0182554179919464,-0.143608874507977,0.114411734977918,-0.00180420818744326,-0.37006856357203,-1.00936893769126,0.00808935757954411,0.153746528951738,-0.119887892475358,-0.28524341907381,-0.385967118943307,-0.964151484460022,0.0904443369092034,-0.0874473235564458,-0.5275818952616,-0.057652787927438,0.230651000513648
9.915,-0.387164376020286,0.199544595278976,0.890782166261573,-0.0649858087616672,0.0396549625215551,0.0418558810910971,-0.989233571362492,-0.0163877967133243,-0.144855806456476,0.110600469732131,-0.0053267418368392,-0.362759791654508,-1.01429131035209,0.0275973100983199,0.151138491451627,-0.077317487515909,-0.296763087521715,-0.372101355748482,-0.953541180611689,0.0916096377040377,-0.0655641215691313,-0.592202618287803,-0.0827806328763801,0.209248483357467
9.92,-0.36782893948735,0.215087021227072,0.894819709974568,-0.0483012427924797,0.0501209652507395,0.053201003888606,-0.988453481932939,-0.0144169995253692,-0.146319697360276,0.1077817713978,-0.00858616456766662,-0.355361354909593,-1.0177988326409,0.0435078427957802,0.141003703619763,-0.0412762199269511,-0.294041368396003,-0.355929287789359,-0.949726417874747,0.0957277330344934,-0.0389392575988461,-0.651277393346304,-0.0827143185182397,0.184621286077306
9.925,-0.377743667054068,0.20972892382238,0.895107825166819,-0.0373939777608823,0.0619119729816266,0.0546778059364369,-0.987794975008433,-0.0123422578610468,-0.147994397609039,0.105811898880157,-0.0115432443221496,-0.347860836856274,-1.0213413768715,0.0535560448686555,0.122129657155979,-0.00016367477474048,-0.275685683944893,-0.337886695885336,-0.950603911470075,0.104954715149406,-0.0315648099867139,-0.730925599976858,-0.0369436010714437,0.154739343101788
9.93,-0.390417073398326,0.207698793954436,0.887450101807122,-0.0210362713770609,0.071329504930243,0.0683628254965853,-0.987231597985992,-0.0101844775629978,-0.149866582786731,0.104633653514821,-0.014165400956919,-0.340241337534734,-1.02283814350418,0.0510762758306225,0.0938860341605414,0.0640574590104566,-0.239490492346078,-0.29777789451264,-0.947227880149915,0.1185034109472,-0.0445347487680031,-0.77139291542767,0.0285593732194472,0.137315220255449
9.935,-0.396270353772906,0.212226728642411,0.883579190003049,-0.00576331307834695,0.0749080051128912,0.073749967870357,-0.986736847702711,-0.0079843789926369,-0.151914258487442,0.104262838140874,-0.0164274644303062,-0.332483621498998,-1.01549407977181,0.0503130432454761,0.0821380406230071,0.113505330003452,-0.205414203845901,-0.271235274950628,-0.944160193010703,0.139608296274171,-0.0592068525986305,-0.839971667235759,0.101176767461023,0.129974077688857
9.94,-0.38800904362042,0.216594165482224,0.877772443119902,0.00780997095074041,0.08839178427588,0.0897346224868664,-0.986285881604651,-0.00579882401156336,-0.154108146653862,0.104766648738756,-0.0183120701889127,-0.324569066532143,-0.995132734356613,0.0428856476077525,0.0786688326244613,0.182540724529122,-0.153298012013372,-0.234825739753244,-0.953597806699609,0.147616473709754,-0.0704404970273502,-0.882499293044424,0.165628522581655,0.118493818626827
9.945,-0.383059177286098,0.228222392763252,0.882662748665,0.0121518563061237,0.0788711113246442,0.0858982245951175,-0.985857510840875,-0.00369532698582194,-0.156413213016259,0.106237573270813,-0.0198094856636008,-0.316482649540739,-0.980516031517558,0.0378587809441593,0.0864466045823426,0.222312821268501,-0.118956445392822,-0.213719334279254,-0.970056960627229,0.150140117776709,-0.087739453869141,-0.863807953950174,0.18203117554518,0.128200758310952
9.95,-0.380958199718046,0.237784003714151,0.879192802215301,0.014481107471203,0.0789663138273719,0.0830762361946228,-0.985436224013443,-0.00174540563012575,-0.158788377464688,0.108766480693852,-0.0209171555946903,-0.308215323585691,-0.970612397944068,0.0318304365710372,0.0961634546498274,0.25535236549167,-0.0811416039491898,-0.196037986669182,-0.984752359751692,0.150910468964817,-0.0953298002050705,-0.859230804568371,0.162640218567343,0.133073991787118
9.955,-0.386968966451728,0.252292203247734,0.877155929887004,0.0245587787717215,0.0653585888529982,0.0772350215914022,-0.985013345795557,-1.79554547160144e-05,-0.161185273961863,0.112418155532197,-0.0216394634666318,-0.29976553449818,-0.966206327267038,0.0213946700717393,0.108334077101272,0.280362301454824,-0.0463480721625367,-0.183406122034474,-1.00198968000574,0.143537580613682,-0.0892674886388992,-0.809328700766922,0.116639022912235,0.107732195668253
9.96,-0.388100465040305,0.259602674633043,0.874712250783742,0.0162815075952715,0.059601362890677,0.0607904262035399,-0.98458675510737,0.00142628396033525,-0.163549025061632,0.117212032640722,-0.0219878802401497,-0.291139946921794,-0.970443620777841,0.0109502234831886,0.139766448163403,0.289441178671585,-0.00856257944138284,-0.169640838226604,-1.01311776515544,0.135272012268162,-0.0859861571124569,-0.769673539186952,0.0731786881976725,0.0711339268944268
9.965,-0.384926947917138,0.259204293916885,0.870279226137901,0.00435788277918961,0.0607615851356954,0.0634554568844895,-0.984159459050596,0.00253868109373127,-0.165823335040899,0.123110241806379,-0.0219810956875744,-0.282353579234513,-0.977111580383832,0.00686045964247568,0.155266694454269,0.287822096725845,0.00294252294621979,-0.161411059706714,-1.01951237456831,0.139104856154055,-0.0826356636037098,-0.762229081820549,-0.00766865601632313,0.0422324855188199
9.97,-0.380806688104176,0.263828615174724,0.87699124307053,-0.00665821726929504,0.058369332700279,0.0499844265825786,-0.983737593944478,0.00328538094349769,-0.167959488024404,0.13001430868529,-0.0216444186998637,-0.273429460290079,-0.993439928851349,-0.00220864460983446,0.174831689294134,0.261432427592811,0.0121442993395707,-0.136521257458692,-1.0223098774587,0.132632229457728,-0.0854049835970602,-0.72779193933716,-0.0855698061369471,0.0308874501408881
9.975,-0.375808441044407,0.265697954909825,0.874647986554629,-0.00785553658617027,0.0444269608169414,0.029335493167384,-0.98332816413196,0.00364940468599313,-0.169926359672257,0.137771374216666,-0.0210078948601753,-0.26439761664574,-1.00199890883393,-0.00507109441726177,0.183100218549404,0.235788417142954,0.0043164279626714,-0.101729210478733,-1.03898362572729,0.129571296890941,-0.087894807482748,-0.667423331319571,-0.174230337418966,0.0234851370035257
9.98,-0.385042046728744,0.259544520843504,0.879151469175003,-0.0150294136240699,0.0380677903576997,0.0178450543624999,-0.982937060144419,0.00363222717054129,-0.171717801929997,0.146190057652744,-0.0201031116951432,-0.255293072388376,-1.00143467169969,-0.0218786290970227,0.192672268073536,0.20819452048469,0.00231195490239717,-0.0902977172919196,-1.03154640937061,0.122280835318099,-0.0898147118298917,-0.61025620053258,-0.25383680887275,0.00588689569624038
9.985,-0.389634710900708,0.251973450797629,0.878683213753134,-0.0255531732320541,0.0270945672088547,-0.00206019804302715,-0.982568208908485,0.00325387257368134,-0.173354844719944,0.155064078205827,-0.0189593299661597,-0.246152984922378,-1.00721314696959,-0.0295285829883527,0.202723750177932,0.182847988531808,-0.0140153101846223,-0.0697490576101593,-1.00292580839214,0.113958288834166,-0.0887392933100837,-0.506434819649721,-0.30100706804479,-0.00300675151529725
9.99,-0.390801188951093,0.250975841132211,0.877292979731732,-0.0284007482452227,0.0240368083562519,-0.0142912327774041,-0.982223981472229,0.00255086985131798,-0.174882202669065,0.164199354340881,-0.0175999563091494,-0.237013557747605,-1.00272386715396,-0.0252218145383323,0.20351780776323,0.182854593581002,-0.0240533934215473,-0.0590987632228498,-0.984191030010223,0.11588788418041,-0.0717527959046293,-0.409710352811528,-0.339096721691055,-0.00786350482848006
9.995,-0.388449724721612,0.252481543636798,0.875958734625891,-0.0334617142349244,0.0163333460276182,-0.0291560473387846,-0.981906511256817,0.00157261528845071,-0.176359893749103,0.173439583303741,-0.0160401203579025,-0.227907265829036,-0.996194728441955,-0.0196204170174543,0.200596092346859,0.172754273569715,-0.0350092838629023,-0.0566449798643589,-0.988555346131559,0.124490844680928,-0.0611025963924274,-0.381890095206141,-0.341159430417664,0.0378434027578264
10,-0.385710954872073,0.261909229458442,0.879572354585746,-0.0394891804539171,0.00993970111372846,-0.0328533498858418,-0.981620771003644,0.000376926084633677,-0.177850889190929,0.182686251554158,-0.0142856998519388,-0.218860610166107,-0.983651026210119,-0.0196967776679585,0.189852399068863,0.178210823276015,-0.0436019267250112,-0.0620079329109556,-1.00045112571777,0.12836928020345,-0.0544604416289688,-0.372296328874789,-0.295055058604269,0.054669444646423
10.005,-0.390050150242945,0.249576294658084,0.876183459783595,-0.0520190473605446,-0.000653359822620025,-0.0401430618620136,-0.981380151008438,-0.000974874133885249,-0.179406829305177,0.191910150814138,-0.0123341333411599,-0.209892781280341,-0.974390846080532,-0.0322887584204258,0.177356650017133,0.221722086113845,-0.0421117916252055,-0.0825698824992583,-1.00634523880763,0.131972212760868,-0.0456880943020936,-0.365829364889858,-0.23639013802786,0.0228157713091704
10.01,-0.395801128545047,0.244773226702304,0.877184585235081,-0.062778313836124,-0.00545314217838936,-0.0436096587512223,-0.981211475018246,-0.00242258752877481,-0.181056622592062,0.201152990202547,-0.0101772307378692,-0.201015717113314,-0.966412481397207,-0.0456472283742697,0.175151058861129,0.270682553700532,-0.0393627146746938,-0.0975323276171138,-1.00492186174575,0.136077281217743,-0.0450610016814649,-0.37867723358832,-0.156575058166803,-0.013852140341517
10.015,-0.393754611814997,0.243573111405673,0.880137109307588,-0.0738612177898568,-0.0079256880495948,-0.0378412325217248,-0.981154129282839,-0.00391040911423048,-0.182802940909126,0.210520526036572,-0.00780526897072409,-0.192235351776159,-0.960864916299655,-0.0551973062974387,0.179565075422316,0.331029662110174,-0.0366204666681842,-0.126011170810949,-1.00402630709237,0.145052888082722,-0.0462462584778334,-0.40461985440915,-0.0588675837573647,-0.0356978927395092
10.02,-0.393765245121864,0.231876050638351,0.883934049190286,-0.0703795390362964,-0.00541078646724859,-0.0339746762180348,-0.981252688457328,-0.00538896542136548,-0.184626425851888,0.220171289933521,-0.0052108249460508,-0.183553092750744,-0.963037956371187,-0.0630919859845295,0.182510457703245,0.373199400874255,-0.0416163532048762,-0.149270858777642,-1.00280575697549,0.140652355606122,-0.0543975542020124,-0.405227236013127,0.0187669979044572,-0.0408391118865964
10.025,-0.389181153961504,0.225666352608686,0.883008832034644,-0.06814856082201,-0.00512132400271142,-0.0252210830768816,-0.981548951587805,-0.00681727235925297,-0.186491636073082,0.230304908824951,-0.00239129522538402,-0.174966806795225,-0.964486764994562,-0.0623352272840429,0.174521145811583,0.426730861248366,-0.050129333773211,-0.169402956461483,-1.00009574764097,0.140825050123772,-0.0539828935677298,-0.372220605815545,0.0409398443194668,-0.0476552450281433
10.03,-0.386818958760437,0.219982022233244,0.880637689384658,-0.0627510441502722,0.00685461623899045,-0.0157542705559312,-0.982078981719676,-0.00816443429490645,-0.188348756025395,0.241151126611587,0.000649585470984732,-0.166471502786346,-0.973881393046035,-0.0584044993564425,0.165099627269274,0.477451438556952,-0.0583781597705952,-0.190025019554966,-0.995569911030781,0.143673219379896,-0.0595552561482644,-0.316159834691464,0.0230419866235174,-0.0606733068531083
10.035,-0.382652391993205,0.215845024121664,0.881101035847289,-0.0583750046789646,0.0169073770445095,-0.00613507006455778,-0.982874360295267,-0.0094089325088925,-0.19013051943286,0.252957620334714,0.00390016295415177,-0.158060414674412,-0.984111455263788,-0.04618515444477,0.15638068743652,0.529582890163199,-0.0627179118181955,-0.205830654266919,-0.99295143132288,0.141413054625097,-0.0670987772946038,-0.26122804503907,-0.0121518709751919,-0.0880928178773042
10.04,-0.390827250120775,0.20810751373324,0.887019742937906,-0.0514341650188092,0.0330523094109837,-0.000770214524462347,-0.983962296045759,-0.0105336788639638,-0.191748936019233,0.265974470872868,0.00733860644689187,-0.14972687439327,-0.991722576415834,-0.0374748349138572,0.152238380147071,0.570096401554087,-0.0631788000464439,-0.217095142451995,-0.993165160697661,0.13243778935286,-0.0770803680111339,-0.207126427424341,-0.0334319254474404,-0.125224536557307
10.045,-0.385748403157003,0.210699016525195,0.888473142891946,-0.0367484779297027,0.0424736627923554,0.011732234470038,-0.985361030022619,-0.0115176186661418,-0.193096090206712,0.280436377295704,0.0109303304849037,-0.141466453426302,-1.00650171569054,-0.0328072470380867,0.148279290632939,0.608641532151225,-0.0663625418825966,-0.217926971113063,-0.98688562313298,0.135434751712444,-0.0737668621008767,-0.186540115610881,-0.0376301464495474,-0.148294168655507
10.05,-0.389661991673027,0.226066355876716,0.88608193622283,-0.0244214013538768,0.0518405010819015,0.0189095265555855,-0.987072659235247,-0.0123273071769015,-0.194048220856299,0.296547414385416,0.0146257941514509,-0.133278039411451,-1.02457208726976,-0.015901600110522,0.136957166584601,0.653724585639112,-0.0602738830778324,-0.204388572110069,-0.980848403823989,0.136832797442614,-0.0710767158627579,-0.188956393977277,-0.0191306674346063,-0.168250487034902
10.055,-0.384131521916575,0.238087700703497,0.88709535433944,-0.0186742334467637,0.0571063248509459,0.0202581416815519,-0.989078799553309,-0.0129126816229495,-0.194469432191367,0.314473063834118,0.0183588403498079,-0.125162712270639,-1.03397274226137,-0.00340864552516993,0.126848448800691,0.685626987263045,-0.0559040864763879,-0.198416996206253,-0.970541553775133,0.144451764699513,-0.0786534903653092,-0.221064143808667,0.0195510248152473,-0.159741430504684
10.06,-0.381207716267214,0.239549649943834,0.889435014494732,-0.0167522608703654,0.052363149924547,0.0213095734698138,-0.991341999638476,-0.0132093225995862,-0.194214518916905,0.334339915596534,0.0220453665879071,-0.117120625856369,-1.04128774582512,0.00515619078893699,0.113894183966825,0.717314278219175,-0.0521762469221359,-0.178770601009944,-0.960520530842146,0.142777866331304,-0.0802882484413135,-0.262133466265844,0.0528026944027525,-0.134724526632082
10.065,-0.385268881418408,0.237254344382405,0.882451719929286,-0.0135017160504176,0.0577807251751168,0.0148084838299183,-0.993810626997398,-0.0131456569514289,-0.193133989487791,0.356238781671936,0.0255825406052422,-0.109147467242794,-1.03585643120178,0.017123917860838,0.105917989094491,0.720557969137472,-0.048932562597778,-0.159308481875917,-0.952128882048391,0.140142839436121,-0.0868406197050978,-0.283911292866835,0.0712617263354523,-0.120598465488436
10.07,-0.387935015442808,0.238082849845842,0.880868513293227,-0.0192035765015769,0.061608798444836,0.0146447097496993,-0.996422486909756,-0.0126510199136543,-0.191082989083705,0.38022536947601,0.0288491745659545,-0.101232245573501,-1.0223245004765,0.0342162383184642,0.0864271105502515,0.711035553572897,-0.0409403999387752,-0.128271614603477,-0.946238259128889,0.131630776261958,-0.0929134482887785,-0.294520212512369,0.0851015184756088,-0.106081110033412
10.075,-0.390057316795391,0.241192904165102,0.882834984120372,-0.0205024760216475,0.0615870702705175,0.00914594717345336,-0.999104531230447,-0.0116617613564774,-0.187932218604783,0.406313898134337,0.0317075509554099,-0.093357180875006,-1.01574804278354,0.0418580735571351,0.0704896055780308,0.673222345016025,-0.0294220307656896,-0.110131013777795,-0.942329082535437,0.129119375051208,-0.091380505444545,-0.290791527798335,0.0778345554077411,-0.105985904279497
10.08,-0.384471061618252,0.245355364378296,0.88617003527309,-0.0193713837727637,0.0561581611556379,0.00229513783532778,-1.00177039825933,-0.0101256914013852,-0.183577627363961,0.434461807328954,0.0340063857368925,-0.0854993012113894,-1.00363444958499,0.0374058471720485,0.0572153176691544,0.605495044342982,-0.015744087956336,-0.0879683519175567,-0.944352733525434,0.12537099558632,-0.0835356378950634,-0.284162230119109,0.0747396713905797,-0.108534808729832
10.085,-0.387613749705834,0.242382219096054,0.885962416295317,-0.020366908259498,0.0471973319742018,-0.00241178253936673,-1.00432030962225,-0.00800641398786212,-0.177946618970501,0.464547590989037,0.0355842769694898,-0.077632783359539,-0.994252733289654,0.0324732237637934,0.0473824143511562,0.546922761804963,-0.000637102306670103,-0.0826402751327156,-0.956848582189162,0.126249910133267,-0.0817796306107704,-0.269586875917356,0.0436653281807006,-0.117284299744072
10.09,-0.392651600045394,0.241810726503934,0.880956314176402,-0.0278326421976089,0.0607011348625846,0.00304642962229655,-1.00664643594938,-0.00528812022624122,-0.171000379569487,0.496347127083541,0.0362729885072128,-0.0697312493612531,-0.99168211861968,0.0290617526843208,0.046428414844034,0.473490893748187,0.0209632073203031,-0.0762404979003875,-0.963651657555583,0.119897537488647,-0.0769232119241663,-0.268462278348623,0.0382931008934975,-0.116310148855156
10.095,-0.397910579200016,0.245338548663235,0.875012923357071,-0.0293992512487046,0.0578075361902971,-0.000510664656758308,-1.00864265459943,-0.00198036847595832,-0.162734429550039,0.529514166789183,0.0359002835743737,-0.0617698544178519,-0.992534189250782,0.0355788812655156,0.0491799968604215,0.404368473687436,0.0374044698527062,-0.0827048819450027,-0.983500637185917,0.109400393834655,-0.0808646851585389,-0.254804454892629,0.0168826099516518,-0.124069512680807
10.1,-0.390878803635055,0.239835040180696,0.8779551850582,-0.0305406219757212,0.0542367321497758,-0.0119959072587746,-1.01021503499928,0.00187780703503635,-0.15318141341877,0.563569005934313,0.0342927669241061,-0.0537273881748358,-0.989629685810147,0.0365663016947077,0.0542867819173152,0.342475870230989,0.0464364614806086,-0.0999260325504859,-1.00095502035903,0.107511077511387,-0.0902213544777578,-0.241104021679863,0.0102684830648017,-0.123927683147584
10.105,-0.391924365185195,0.242170962588362,0.885791784919792,-0.0278502758105983,0.0546558396865102,-0.0115323652849496,-1.01129061964477,0.00621505187883689,-0.142419475861456,0.597899658152007,0.0312799650321527,-0.0455883054783265,-0.992168318651919,0.0332392808017324,0.058176145953468,0.285520450546843,0.0491107944110372,-0.102060284523301,-1.01206291718641,0.100446759219664,-0.103090946386932,-0.219277373400463,0.0111816048628259,-0.116976153522492
10.11,-0.392085536922643,0.24354203164589,0.88465075990968,-0.0388278923928738,0.0598023539853606,-0.0139493048191071,-1.01182488672148,0.0109268175149217,-0.130586152715553,0.631782269796071,0.0267011138741299,-0.0373440250186232,-0.990777712904615,0.0314865700788428,0.0674164876843132,0.248301209320981,0.0499750981075993,-0.118362776561562,-1.01530206400128,0.0878609234520055,-0.114530640883084,-0.208005338836605,0.00803117046334448,-0.113406682127973
10.115,-0.392771183469915,0.237958134196718,0.880664109123397,-0.0430754837784491,0.0662505074106222,-0.0151629018291857,-1.01180930003134,0.0158772496300399,-0.117893554366655,0.664427315158384,0.0204155500013402,-0.0289928025720117,-0.995076697353631,0.0322587734720239,0.0771000190961924,0.215612019112708,0.0405433911684832,-0.150524463877681,-1.02391632881363,0.0778278823649674,-0.1357918516347,-0.199116544077496,-0.01424350437417,-0.111116058878178
10.12,-0.392535750919964,0.234263518375443,0.884576547166787,-0.0473797544836998,0.0702098050672035,-0.0146230530821838,-1.01127877754253,0.0209041251836945,-0.104637952939054,0.69505075375663,0.0123163521146005,-0.02053829632755,-1.00019842407104,0.03394270213049,0.0826392504447858,0.201315804909357,0.032898991893419,-0.171134711125119,-1.03037860429519,0.0718172937222696,-0.148256287006105,-0.201698437240379,-0.062125901444243,-0.108155468265202
10.125,-0.390838721015192,0.239363595816963,0.888702992505064,-0.0549950330414646,0.0814606811437104,-0.00519358375001825,-1.01031697303866,0.025825882420467,-0.0911971078467685,0.722955724963627,0.00234536614998609,-0.0119881471554362,-1.00314959906406,0.0401043534083168,0.0896110096285205,0.191741314282939,0.0116915388038153,-0.203612366650656,-1.0372115951181,0.0629409486543993,-0.161860617880242,-0.185577419560284,-0.127816509435948,-0.105079980220128
10.13,-0.388302332552039,0.244233420315252,0.890160654225196,-0.056949157857321,0.0858853764759044,-0.000171484056783687,-1.00905760873762,0.0304491653884807,-0.0780124714503851,0.747600277681498,-0.00949336509262067,-0.00335444701022274,-1.00938334588815,0.0467672885777619,0.0953763100320485,0.190783999146369,-0.00171096068241778,-0.219886840738018,-1.03898186440618,0.0527426649797602,-0.174393517996536,-0.166025240077761,-0.198576733425711,-0.114390533766899
10.135,-0.392169339633839,0.24126339424286,0.881082564641617,-0.0650428600824083,0.0923201444557762,0.00193272344768047,-1.00768197525327,0.0345767603204381,-0.0655592318791704,0.768633102546638,-0.0231247044279119,0.00534313551456211,-1.00934842883911,0.0471055549983493,0.117569389145645,0.193621160227252,-0.0147279938320377,-0.217091410050239,-1.04296562060222,0.052653887931414,-0.175609320175454,-0.16985662957821,-0.269796254121903,-0.114229942992721
10.14,-0.396245529243268,0.247925757476005,0.878599460263096,-0.0758006003714086,0.104810813689584,-0.0018932963270188,-1.00641209888456,0.0380177187416078,-0.054311117064259,0.785899540750804,-0.0383998584884742,0.0140729592530503,-1.00472484727686,0.0536361295988062,0.136524782768406,0.232360081015785,-0.0294219069913906,-0.204662377220831,-1.04458633845313,0.0481666447986898,-0.180415670141491,-0.192263319100305,-0.3400010865801,-0.124806129460294
10.145,-0.399019104980304,0.252414291965221,0.880333150212806,-0.0794503755132919,0.102692804734733,-0.00345165303855472,-1.00549520493656,0.0406005528718868,-0.0447081349529024,0.799432547200648,-0.0551006486951186,0.0227882156138725,-1.01182645684613,0.0522121575335135,0.148162169485077,0.24686876280058,-0.0424228334030111,-0.186941947829584,-1.04068927080262,0.0476452813076434,-0.16743775562855,-0.21347839977695,-0.3971477119073,-0.13970310946237
10.15,-0.378286110948293,0.261381718612476,0.879360833081606,-0.0976685724099816,0.105418987245192,-0.0080735901085477,-1.00517457618488,0.0421872100186168,-0.0371356504378359,0.809438366164725,-0.0729497451249164,0.0314267539265348,-1.00892769065517,0.0542911809422437,0.167457060727815,0.330878277231162,-0.0592683483272242,-0.158577261829076,-1.03310124467214,0.0382378357982311,-0.153380749259538,-0.231322246718185,-0.416355796006623,-0.144262815122354
10.155,-0.354433860655235,0.280382677450784,0.877442894979445,-0.108154552427434,0.0921083180532385,-0.022310174408012,-1.00565013309863,0.0426842863740478,-0.0319187042041675,0.816281447154345,-0.091624269727766,0.0399148870352248,-1.00146372376983,0.0613789919920575,0.18814219283899,0.416100669102952,-0.0791803589926229,-0.108238292645099,-1.02509745699049,0.0352800468149376,-0.129407809206639,-0.253604576206204,-0.399294783754102,-0.156174767784145
10.16,-0.351773017088315,0.276556503996483,0.882420166552829,-0.122021678328745,0.0849698866601142,-0.0404941200372348,-1.00704213776412,0.0420499112724187,-0.0293236048762203,0.820476355927361,-0.110769747410057,0.0481755048761546,-0.996554874567806,0.0586972501851274,0.196687202787,0.466524030662981,-0.0919411737345755,-0.0771785130897319,-1.01828449692873,0.0265856287775104,-0.115568460899689,-0.250850449195558,-0.362027002294099,-0.165930922618181
10.165,-0.375066867712747,0.266452449594747,0.880101694611733,-0.127588437487719,0.0797799173304652,-0.0590109490733912,-1.00937110888824,0.0402967303881615,-0.0295504524525974,0.822690857617582,-0.130013848753164,0.0561392972014571,-1.00106658626856,0.0560370820105145,0.208209942948869,0.572734075511119,-0.104256266454005,-0.0185981517975359,-1.01672104537873,0.00811602633402873,-0.0974497297203055,-0.21750334674331,-0.289798492195284,-0.164794517605769
10.17,-0.379413546574144,0.270818446371164,0.876169118791991,-0.140865508024003,0.0780198243509798,-0.0638178963993632,-1.01255656116006,0.0374911742472208,-0.032706633222231,0.823748009945304,-0.148982554990692,0.0637559719801026,-1.00649514792918,0.0443454698698225,0.213175227764241,0.638171137234068,-0.108506158255572,0.016151808992004,-1.02294863874966,0.00361629700565198,-0.0937283046762382,-0.182908056076318,-0.24250403792914,-0.170089694212452
10.175,-0.366941817989704,0.269317727149478,0.888234971849117,-0.157842826095127,0.0741752969031808,-0.0822000994758002,-1.01642841238528,0.0337480191514366,-0.0387671600138731,0.82460300704382,-0.167321817483043,0.0710019576319743,-1.01011186599731,0.0397906944155688,0.221661274433138,0.738032220609909,-0.109553862808871,0.0751064702930316,-1.02474724711873,0.00741256060052773,-0.0950218016149892,-0.178976788844222,-0.192974265298275,-0.192588282372536
10.18,-0.373313603285025,0.267112958261601,0.889055954944268,-0.171611148907063,0.0836732250773386,-0.0943037232711117,-1.02074425351559,0.0292192758177132,-0.0475413046651888,0.826277878443222,-0.184724727247366,0.0778827381304328,-1.0141269448822,0.0355906893559513,0.222235863649046,0.797768016409632,-0.110694181011493,0.112823749133576,-1.03948445306855,0.00274661690272381,-0.0862155584644651,-0.180518597364426,-0.163544804452045,-0.208382264385115
10.185,-0.368362175006687,0.272539888980139,0.897918459064788,-0.187404525292659,0.0901658931459811,-0.104087057730366,-1.02520977562417,0.0240781000479098,-0.0586684433740699,0.829762066791359,-0.200959229215846,0.0844306918114292,-1.03527202332358,0.0230071834174386,0.224987954078999,0.825253275411282,-0.118155054748058,0.150566957852485,-1.05426117781046,-0.00401287940249229,-0.0926692520974251,-0.158108752636925,-0.124799059233096,-0.215408152982381
10.19,-0.360460121841754,0.273123986074481,0.897120427778211,-0.211562649167084,0.106213733929646,-0.110953827201326,-1.02950388531419,0.0185004529747455,-0.0716539214952499,0.835912213956371,-0.215887648166696,0.0907013822650469,-1.0500855925788,0.00760099899147909,0.223344124382963,0.831519798522804,-0.118155054748058,0.179220479902063,-1.07494287794827,-0.0105985833390927,-0.111516185407686,-0.135544090975995,-0.0604025820758559,-0.194896087398372
10.195,-0.358391197928098,0.273368011872074,0.898064589254356,-0.218595881567501,0.119453396125972,-0.121909851415156,-1.03331110676263,0.0126484149567041,-0.0859333481621141,0.845388107313413,-0.229470358695652,0.0967708808677951,-1.07465363016958,-0.00304705598933467,0.221437366324532,0.825874779466924,-0.125126973127241,0.211232198985488,-1.08271251602834,-0.00922483542875887,-0.137559227391672,-0.143072343368536,-0.0179257223110216,-0.177805367212328
10.2,-0.368762852268249,0.273678236013985,0.89025992673511,-0.225334160333024,0.13987662184284,-0.131155311030916,-1.036358951327,0.00665941326230732,-0.100940253335624,0.8586387654948,-0.241752005555538,0.102733977114028,-1.09111057798822,-0.011766641968905,0.217049548626505,0.808583276709355,-0.127066768245568,0.243229705467102,-1.08538867160151,-0.0114074107535039,-0.163183979833325,-0.153224375842243,0.0174922372691337,-0.152539441396827
10.205,-0.372852819561693,0.272046512313701,0.890656196478215,-0.242678092756622,0.169391459209683,-0.140133479418329,-1.03844943221248,0.000644790735349994,-0.116159111152677,0.875925057404439,-0.252835139994928,0.108700990717283,-1.10709514519902,-0.0245576204731565,0.206152727064084,0.795903523683297,-0.126625549585786,0.275573336000826,-1.05731992312243,-0.0104565678597477,-0.191935871888255,-0.145950881292409,0.0386501530599979,-0.122739029464028
10.21,-0.371823328356309,0.26151748494681,0.898497148653274,-0.253538075685313,0.198498927025819,-0.14283983296249,-1.039471333469,-0.00530278827778875,-0.131160944844188,0.89735717378928,-0.262848388673293,0.114791988154822,-1.110165630136,-0.031170607696621,0.194219089280459,0.779413092731323,-0.124949742004296,0.293144415663274,-1.01491576335756,-0.0184809504363799,-0.200223277805848,-0.14227110677702,0.0178734965877748,-0.105840679760437
10.215,-0.363286907422461,0.262292201757591,0.898617332297811,-0.263644066481451,0.232463887420881,-0.138247578599025,-1.03939085688286,-0.0110994029365885,-0.145620876208624,0.922932514920479,-0.271914790909501,0.121129904568425,-1.1077337935977,-0.0345724703680494,0.16962049337106,0.751945451749359,-0.113699295474086,0.313306591178705,-0.975179232647049,-0.0167931878367259,-0.181635640981706,-0.156615625138834,-0.0404983149013214,-0.0909633063695061
10.22,-0.366776624754279,0.245995579462489,0.900423449571234,-0.273674143745071,0.270403323429291,-0.148213417357827,-1.03823174107423,-0.0166648683495883,-0.159314237870376,0.952561858291797,-0.280124329300833,0.127834328027641,-1.09811606462416,-0.0374397754032488,0.152070451093842,0.730944002284841,-0.0969241817401622,0.331259370658893,-0.926640745806873,-0.00247297116775906,-0.140183282270104,-0.203787462973135,-0.129173487634599,-0.0820566093032155
10.225,-0.374134859815099,0.223402146276565,0.90237421615486,-0.259873560157372,0.314058976880756,-0.177869101076261,-1.03604771563362,-0.0219243290205039,-0.172113304845777,0.986071776172545,-0.287513726450036,0.135015513340806,-1.07703889297955,-0.0461689596720225,0.128135634968202,0.698541083930323,-0.0794670630213957,0.35926539600312,-0.894325687699086,0.0192316984841532,-0.0788969631933632,-0.285491676412824,-0.223996789461049,-0.0855701162247384
10.23,-0.391766713308729,0.255695862370118,0.905984676647241,-0.243620413011445,0.394113158999662,-0.219349058451993,-1.0328994751821,-0.0268125693666172,-0.1839828006828,1.02318663304141,-0.294054557350001,0.14276763935359,-1.05499107109606,-0.0590554320154001,0.101738888249675,0.682090502899431,-0.0657285213080759,0.389060872871138,-0.866732539485557,0.0261329021990527,-0.0321924156263618,-0.383212426632205,-0.294120850749299,-0.0933948348243285
10.235,-0.392920899935323,0.260000040868284,0.908146377474491,-0.22897147759295,0.441822042762585,-0.241424989602094,-1.02885220873369,-0.0312789317530742,-0.194951228638551,1.063512807623,-0.299648399817596,0.151162187837981,-1.03427885283561,-0.0749611705738496,0.0800702370528374,0.665743718074315,-0.0502184576431959,0.408342325004035,-0.854422605151085,0.0346903630572402,0.00726385948065424,-0.468066758321531,-0.330626446498469,-0.10241689511416
10.24,-0.418568012898083,0.254852891292823,0.913108327365793,-0.203812868551506,0.483522419647458,-0.245061182914524,-1.02397564661071,-0.0352940021460202,-0.205088414150434,1.10654384679302,-0.304127244690861,0.160243027054967,-1.01930439078313,-0.0912828251037738,0.0622495825748883,0.660861087019196,-0.0312907747423272,0.432404741428145,-0.844689388810532,0.0261486571099227,0.0310191171715256,-0.531027378833616,-0.302077046059671,-0.121189668229142
10.245,-0.451489577069773,0.239285664430583,0.912507277366691,-0.181102123572631,0.528456481789212,-0.22582788480036,-1.01833811038278,-0.0388571369665418,-0.214500470038106,1.15168309665166,-0.3072579049277,0.170023126767051,-1.01720064300505,-0.094795680101271,0.0525252792364771,0.659599262929612,-0.0246682918066843,0.448163700296247,-0.856495555101703,0.0191652718841583,0.0310873178664782,-0.517737082959432,-0.201363528755989,-0.121750779321786
10.25,-0.443927419733876,0.248366102684242,0.906251616317741,-0.157607083899535,0.591446918292691,-0.193568818220401,-1.0120022509068,-0.0419995000822489,-0.223326184192468,1.19826907408975,-0.308748929951772,0.180481540506426,-1.0183175749728,-0.104098161272423,0.0495525539684884,0.684439672023582,-0.0154354800391694,0.462672435565692,-0.87956946484985,0.00785133483366966,0.00930902278571044,-0.47595641514058,-0.0594470676139534,-0.114166591855633
10.255,-0.43193333749599,0.291311452492152,0.873485096528725,-0.127040686574459,0.686274259411031,-0.149518841320156,-1.00502147277397,-0.0447770326862497,-0.231733048714784,1.24559699222366,-0.308258512747396,0.191560038381708,-1.0231939982589,-0.129485806342845,0.0499379148094593,0.703720465351546,-0.0172693880668426,0.472671979123924,-0.895899110351384,-0.00727693437752492,-0.0230669705592659,-0.438056631148107,0.0488392882365182,-0.106043771516215
10.26,-0.433569166086506,0.422430862256686,0.899918166800318,-0.134384995972773,0.778480259243702,-0.0674176591530052,-0.997438555939681,-0.0472546513396968,-0.239901851251247,1.2929374274322,-0.305403906619036,0.203159783630889,-1.02383004161484,-0.168282657697599,0.0445359889144027,0.733031040348743,-0.0361937920760362,0.501511400856708,-0.922662893741177,-0.0276544641039072,-0.0622959449422288,-0.405782627740333,0.125181765422606,-0.102877798623683
10.265,-0.509621282987692,0.191935343982531,0.954334413225666,-0.252628025762873,0.800774477051016,-0.0456706813315598,-0.989288838559087,-0.049489941098708,-0.24799074137216,1.33954432005364,-0.299775987066004,0.215137545344366,-1.01618366493558,-0.201385542746236,0.030023526587828,0.848479529226533,-0.0793345797395158,0.513582230070911,-0.942273066459858,-0.0555684455790485,-0.0830460931399521,-0.353774206215269,0.136119452758112,-0.102540788948641
10.27,-0.504250256334485,0.248171224907224,0.936437793238862,-0.232588155239789,0.860321870797255,0.016261244298875,-0.980607657423765,-0.0515235366051651,-0.256089633226693,1.38463466699825,-0.290963194591945,0.22729958152581,-1.00471155849727,-0.201852849490274,0.00951420617718546,1.04042251389659,-0.119371682271196,0.504115345024207,-0.952903642958773,-0.0779422016800079,-0.0956824019729895,-0.301236192740344,0.116699095935641,-0.104613016296285
10.275,-0.532764583729385,0.390925181002885,0.980851221441038,-0.273502751484657,0.889730554071331,0.0977568218949522,-0.971438825709265,-0.0533760760788698,-0.264193752522146,1.42733793782575,-0.278584860340993,0.239393217420689,-0.99419781653699,-0.172730887018473,-0.00744179048306056,1.25637524765773,-0.168062948615457,0.482316692048106,-0.967587773979994,-0.09721783738519,-0.110742034663241,-0.237998369266665,0.0736502678992878,-0.104758959302811
10.28,-0.511025581221539,0.411587163744396,0.713007134864955,-0.463211386271156,0.933861765473393,0.239777354512289,-0.961840542529522,-0.0550472594532175,-0.272218183950997,1.46664725396504,-0.262327490508539,0.25110099370577,-0.983051113950567,-0.126929420574554,-0.0139854348947564,1.4197736139262,-0.213513776420127,0.46878731812272,-0.973190745465633,-0.0959932752107445,-0.116407776936499,-0.197601832511889,0.0348267346786757,-0.114540318557697
10.285,-0.590649440457086,0.5880459702111,0.711570244675962,-0.680438447561561,1.03376984259171,0.403507828073098,-0.95188743660381,-0.0565148528091386,-0.280045978619276,1.50141775557364,-0.241974838123139,0.262044674691348,-0.974229592782833,-0.0647040559265454,-0.00573879689503661,1.55948837515273,-0.259872410572904,0.470624109080487,-0.971739713959259,-0.0961794213042027,-0.10583028008957,-0.17538916124756,0.0140453998365543,-0.109521746218547
10.29,-0.618749048789531,0.751629481025413,0.757522583138656,-0.843256930513315,1.1545108915842,0.692744209967076,-0.941670206981085,-0.0577355911521976,-0.28757861578188,1.53043187297834,-0.217426248427091,0.271802993850064,-0.970902644478917,-0.0225073432872409,0.00440639863406353,1.64996892956856,-0.291033341009713,0.490170231584873,-0.97207219430722,-0.0942027343124529,-0.0914973084560228,-0.192948538865076,0.00488527417730211,-0.121386805779349
10.295,-0.721065222477808,0.531998793773313,0.864369418537304,-1.07772609158247,1.09188235411434,0.976896150882192,-0.931295528492161,-0.0586510784340959,-0.29476003740027,1.55251111428975,-0.188704369182576,0.279940732029836,-0.970320174905202,0.00155009639893033,0.00967218512070042,1.69693201409281,-0.322128996827682,0.530916513635863,-0.978726051778378,-0.0933326859975688,-0.0699315102293516,-0.250654257862957,0.0178843338457437,-0.134037727391492
10.3,-0.69384241697878,0.420882751349001,0.935068383847675,-0.924156146669673,0.96463943223197,1.20152811116461,-0.920888138592565,-0.0592000583870904,-0.301567024361774,1.56663220502296,-0.155957409176078,0.286042454574602,-0.979762605558926,0.0103592378759862,0.0129278088699273,1.74013792021796,-0.336816207417248,0.568186142949131,-0.98998769884414,-0.108622784363001,-0.0480105368958958,-0.27045543085239,0.0558209046636437,-0.139085377588132
10.305,-0.60954900232967,0.545365045852029,1.0643257472781,-0.664022188894456,0.747015078891208,1.4367140444124,-0.910594867947084,-0.0593354150097291,-0.307978819446123,1.57200939722526,-0.119460683787834,0.289743590294025,-0.992900093909668,0.0202026213203686,0.0284662978316114,1.74706415568813,-0.363947891684133,0.578767436394847,-1.00837787993658,-0.133099244044583,-0.0349134839240849,-0.200643450571387,0.116331861695539,-0.120013427924314
10.31,-0.529963709762462,0.634404137346559,1.18971641635926,-0.551650369645335,0.397592895803327,1.75585127089224,-0.900587739071124,-0.05904090240528,-0.313946281083123,1.56812374979182,-0.0796189965300088,0.290753524589467,-1.01179120792868,0.0277605976186961,0.0445269516185208,1.72959567563797,-0.373823177239666,0.569034553978232,-1.02830741827463,-0.144169870669026,-0.041294849897096,-0.0857394845845232,0.191645369453194,-0.0809555772031406
10.315,-0.456913598449731,0.568390544273717,1.09900127876599,-0.521491360132911,0.0527730566652465,2.02942768794821,-0.891061707859795,-0.0583411166196351,-0.319376956987689,1.55470367895324,-0.0369679583100852,0.288868909454918,-1.02668144678013,0.0348478351999116,0.0641882344899588,1.66189178468019,-0.384437070772015,0.540741715088696,-1.04857454830435,-0.129040789871707,-0.0538511442334089,-0.0251529777748897,0.240636745971394,-0.0544185790725606
10.32,-0.26201373986326,0.748695989383364,0.867628886085843,-0.293482258237706,-0.108836217170882,2.29514401928157,-0.882224003964191,-0.057301189182288,-0.324142561698861,1.53167941984196,0.0078298437208379,0.283978947001459,-1.0389293763984,0.0418807798567089,0.069252919822674,1.57820139548512,-0.392667478474607,0.494791949197048,-1.05858561347793,-0.112842362471991,-0.0661203984198441,-0.0561110141347908,0.259080329293644,-0.0464336187608594
10.325,-0.105248087404519,0.918027137085611,0.698264299380694,-0.335310188847888,-0.0215846204013769,2.61934123016399,-0.874276361261959,-0.0560181543023356,-0.328104259906953,1.49913677634387,0.053997964318193,0.276065690759171,-1.04494267166274,0.0351122782854984,0.0594256542822027,1.51536057245967,-0.385999379176262,0.418539305505717,-1.06241118399823,-0.107885458077593,-0.0790147011467603,-0.134358330256805,0.242189758132062,-0.0596989427543021
10.33,-0.0771108687659745,0.77552073986208,0.678955425586793,-0.544490318075158,0.0879914866817921,2.81010839222909,-0.867395664361998,-0.0546081890490568,-0.331143761871632,1.45728365963546,0.100670461596208,0.265201052378738,-1.04707830261366,0.0229889264680537,0.0343659672653924,1.45794567543786,-0.373743559659546,0.299476775480982,-1.06874542098093,-0.103159565330691,-0.081913566484627,-0.232792062035026,0.18014228581818,-0.0741077318087176
10.335,-0.133339948465321,0.475067661182271,0.784539567638204,-0.640460614511788,0.163314124795765,2.91512970433724,-0.861719106702448,-0.0531920177616814,-0.33318747812882,1.40643128804302,0.146926303818194,0.251540790118321,-1.04720343693324,0.0174302972199853,0.00378443625426488,1.41433051818055,-0.351075731245542,0.151410656395481,-1.07460382170593,-0.100354959839709,-0.0837300810716898,-0.315963574884481,0.0875558412971012,-0.0785920578004569
10.34,-0.16010691476909,0.208923667983444,0.883873984093453,-0.553071732747317,0.142704761219641,2.94344460497923,-0.857336771476105,-0.0518801323393013,-0.334216296842417,1.34698836392799,0.191830215682072,0.235315861620422,-1.04199717819488,0.0178546626847365,-0.0304680548004954,1.33706773913625,-0.320002531038634,0.0349837978507559,-1.08443988864787,-0.0939516804208561,-0.0859950148317566,-0.384527092786879,-0.0200256430855485,-0.0838134034533896
