Header,foot_Accel_X,foot_Accel_Y,foot_Accel_Z,foot_Gyro_X,foot_Gyro_Y,foot_Gyro_Z,shank_Accel_X,shank_Accel_Y,shank_Accel_Z,shank_Gyro_X,shank_Gyro_Y,shank_Gyro_Z,thigh_Accel_X,thigh_Accel_Y,thigh_Accel_Z,thigh_Gyro_X,thigh_Gyro_Y,thigh_Gyro_Z,trunk_Accel_X,trunk_Accel_Y,trunk_Accel_Z,trunk_Gyro_X,trunk_Gyro_Y,trunk_Gyro_Z
8.71,0.646600156815451,-1.29721032476198,1.04729043490138,-0.978041123778502,-0.985357512497722,0.700449499170892,-1.01008208891781,-0.170314598844368,-0.0986667628841383,1.11754208545214,-1.36892588846383,-0.252111150150599,-0.762282614883863,0.0770991433408303,-0.164996980536034,0.324148192231911,-0.641727977399683,-0.0732162779188501,-0.928064661814857,-0.240105728982749,-0.0055181598676473,-1.0213644903369,-0.20394917578769,0.242205807382155
8.715,0.107981024880481,0.0785759114590502,1.66080005093406,0.537094423047805,-0.692406495449991,0.688953532156321,-1.02365993835934,-0.126829667735709,-0.165665914400111,1.08152768951468,-1.35554919472826,-0.263811511203648,-0.782838724376451,0.018907146044897,-0.192203152331015,0.226454830888638,-0.645919437703434,-0.134241713230205,-0.960105839596932,-0.237962793893814,-0.00954612518908355,-1.02950818488164,-0.266538707528326,0.238080875785031
8.72,-0.473210075581837,1.64142580814068,1.40183978246336,0.596903971751472,-1.0591346047151,0.845994817246677,-1.03376991996071,-0.059303732631842,-0.250174657401733,0.98487806873322,-1.32871705518478,-0.294518063298339,-0.821389421065046,-0.0657928017828635,-0.225309837417053,0.11689448656379,-0.622632827549774,-0.193031606791942,-0.997494204510696,-0.23370469977838,-0.00999926414302989,-1.02464316536852,-0.314089806799384,0.226932795896572
8.725,-0.337453575955607,1.81140687298386,0.632226659772535,-0.302031457758667,-1.30481922641035,1.01854580096096,-1.03222950158943,-0.0309225989034871,-0.285849898670459,0.855459540365943,-1.29647122853281,-0.344905672151451,-0.863872631619882,-0.120395366360954,-0.263738603657306,0.0297911383455844,-0.601978166105476,-0.241056726881981,-1.04281243621208,-0.230556331626028,-0.0182470977921483,-1.02716207025408,-0.350701924811174,0.206318071214837
8.73,-0.423702229138029,1.19629697280736,0.739734027169941,-1.04389638997363,-1.20636342533702,0.987764185440946,-1.03947979139938,-0.0373106667559832,-0.309934596051304,0.718307280236158,-1.25985169777988,-0.40255567325242,-0.932621730489361,-0.16994442631392,-0.327500589582232,-0.0473816945740024,-0.567739545754897,-0.30356143701753,-1.08466698048851,-0.219932593359885,-0.0319451358077062,-1.02593123912811,-0.37061596356629,0.189551270467482
8.735,-0.914790859996582,0.113733976749686,0.894673821223971,-0.877244585479232,-1.32307408619241,0.767805099411575,-1.0518556644024,-0.0638575943294465,-0.328115569459119,0.589638725242338,-1.21933848928122,-0.458795339307214,-1.00709159913049,-0.203500613332426,-0.380775445407179,-0.0807702041865319,-0.536060822166095,-0.377959523144873,-1.11448138974557,-0.201765960257008,-0.0530643295503055,-1.03814678993289,-0.367306731440702,0.179369698741987
8.74,-0.985675835717819,-0.102298431936735,0.835733924318901,-0.31975543961893,-1.42434474871909,0.518291614004126,-1.0655826999696,-0.0982965179524602,-0.344476754654426,0.476626270917811,-1.1752050099951,-0.509330251204118,-1.08981628416095,-0.230225738581867,-0.4228888734589,-0.00357297456567646,-0.495863176124461,-0.461733116572135,-1.14460700700786,-0.18730938978522,-0.0785899806536176,-1.03608966194423,-0.359845560630425,0.173547013796932
8.745,-1.02782404012847,0.400714452587249,0.644085135906104,0.274551687165472,-1.50213717325339,0.27265435985481,-1.07820187069674,-0.133504714613005,-0.3608709196255,0.380613469346021,-1.12771390553715,-0.552851172472663,-1.19230087179431,-0.257098658164217,-0.468379656030437,0.126956775205924,-0.441755141611051,-0.524785272882048,-1.16858888250145,-0.178272862222723,-0.0995955425944598,-1.0314260423265,-0.333086917871937,0.175713377685012
8.75,-0.810276852787851,0.815915621390642,0.61673083323962,0.332608045924377,-1.49372736188113,0.134421564958578,-1.08854571298065,-0.166438841004335,-0.377563013042245,0.30023077252019,-1.07718615743275,-0.589489423363899,-1.27092621638106,-0.275540687965242,-0.488676064256797,0.249275126008194,-0.392787881713291,-0.521049955752508,-1.18374862138494,-0.179849214403988,-0.117260935854793,-1.02319215968387,-0.307775664970164,0.171443958678132
8.755,-0.445268440747375,0.645106783956379,0.883080216513875,0.118842532331718,-1.469844975249,-0.0318007125127171,-1.09623263011494,-0.196197157307548,-0.394074193093844,0.233285462855572,-1.02400305503785,-0.619820552603905,-1.3047979941758,-0.304710487108494,-0.503636396096328,0.37590765235561,-0.341553170415328,-0.488144069512399,-1.19592493582985,-0.173699901031819,-0.132190554328058,-1.00047025607282,-0.272303542315637,0.167182531206513
8.76,-0.165813364873429,0.259713847562914,1.06487702756076,0.0794631764050165,-1.45529939832045,-0.171617734016092,-1.10121637517796,-0.222566620341982,-0.409746916757037,0.177546258378171,-0.968587070952582,-0.644436430702703,-1.28857979538805,-0.324758247937524,-0.493519236297704,0.519765432290163,-0.29661107966098,-0.475233887563399,-1.20854572186803,-0.178184130711823,-0.132631909572909,-0.950002006084164,-0.244142901480496,0.155665820628554
8.765,-0.280699009084736,0.327607315977326,1.02827698784502,0.11251213548029,-1.41669333614863,-0.24920264217432,-1.10353012730021,-0.24532514797512,-0.424013510171106,0.130909735417647,-0.911383851620278,-0.663864387317991,-1.25003277821234,-0.301279779006556,-0.477502634346898,0.746839485548216,-0.277495663609134,-0.473400929576891,-1.2058646911706,-0.185974828827136,-0.133167427781931,-0.880578101464852,-0.210334457283998,0.139066772969439
8.77,-0.415934406701465,0.435945087970836,0.931489724789164,-0.0315365243829742,-1.33132847819402,-0.227329999930403,-1.10320340805056,-0.264091704718217,-0.436465680343163,0.0913603884479219,-0.852850307898133,-0.678617420191744,-1.18979794159477,-0.200345571866749,-0.438587567905149,1.0550986620292,-0.292996348369567,-0.442762668343329,-1.20932162580414,-0.196745463527969,-0.127850820761956,-0.813512649040858,-0.17681194030292,0.132642421186093
8.775,-0.551561362242404,0.17619738490233,0.966540638451707,-0.241019897986019,-1.18640756891519,-0.159361876118504,-1.10027816584749,-0.278431869668023,-0.44683032593975,0.0569401802552031,-0.793446999445525,-0.689248316298647,-1.15501982817442,-0.120116219303036,-0.39015714250948,1.20403083454121,-0.322931914444509,-0.431105178595643,-1.20838706779651,-0.193940516266014,-0.112751603499723,-0.760854349036353,-0.14253856229739,0.121965098596747
8.78,-0.560943666309956,-0.0184182731029905,1.01251990782566,-0.321566221918708,-0.978795182058971,-0.0399276607833407,-1.09485746579922,-0.288010214996959,-0.454918736631657,0.0257863051322283,-0.733632738926795,-0.69636295436896,-1.14908195951788,-0.0692963458786303,-0.315492150312488,1.13169188672409,-0.38568872826052,-0.459080966921251,-1.21752626268515,-0.189969564441048,-0.106527739149368,-0.733203003171613,-0.107025404996912,0.121415312668089
8.785,-0.454766261993419,0.00357809228052668,1.05291009403804,-0.303249898777781,-0.758984160611377,0.10321495753365,-1.08714666430014,-0.292692313993476,-0.460579135834961,-0.00378266237979832,-0.67386085811011,-0.700595430999013,-1.1764659938164,-0.0206206802380246,-0.208448704987391,0.892101853753937,-0.467888989483217,-0.546967845662696,-1.22220827228287,-0.174686046572839,-0.100189437487048,-0.711282952086781,-0.0715355170729741,0.112154786770454
8.79,-0.308676830687872,0.054969210208302,1.09030969778412,-0.258350188226015,-0.463336977750045,0.292023293959499,-1.07747208708324,-0.292577583084635,-0.463661320664243,-0.0331718928708616,-0.614577589950038,-0.702564162693119,-1.26033637343435,0.0304265349809114,-0.0907175343043945,0.554844545343768,-0.560057433758786,-0.664602063991998,-1.2412395291201,-0.152704450826499,-0.0916124300897588,-0.702479631693207,-0.0335955760224217,0.106669804479371
8.795,-0.270797893589047,0.087798068130638,1.07451177674484,-0.184911375087041,-0.260438482545873,0.350355275380307,-1.06627645829034,-0.287979502592715,-0.463994948413434,-0.063438917676139,-0.556223024051706,-0.702827470674629,-1.33293903423211,0.0304816531719682,0.0439569065621429,0.182176277961896,-0.673234067541325,-0.798652965774261,-1.25332078821479,-0.13507367098865,-0.100637315603164,-0.702182173728943,-0.0142421668561333,0.0963032679380809
8.8,-0.299529688942196,0.127068219567627,1.03005903451771,-0.0937795203104714,-0.0863001406072509,0.377208632169939,-1.05409396270826,-0.279376137352054,-0.461383960414983,-0.0952623813174784,-0.499234039206916,-0.701850320400237,-1.47094867254299,-0.0287907135854029,0.125750111322851,-0.180394442528112,-0.835525742707029,-1.00351624287725,-1.26998891043815,-0.103798925119494,-0.116138943045988,-0.706407677827873,0.0231284724875655,0.0788389271346031
8.805,-0.361630985923127,0.133447346258151,0.97909900140064,-0.220046363707416,0.0718291426798884,0.373430180460654,-1.04150805133995,-0.267349233762313,-0.455622204145315,-0.128950194988709,-0.444046815632891,-0.699986424532788,-1.56645821490413,-0.0861592392872546,0.126911554842187,-0.251345206813232,-0.920567452297235,-1.18621260066948,-1.27370601439282,-0.0675846259886801,-0.137584514621504,-0.724393077773185,0.0461328890937247,0.0747915496167555
8.81,-0.428140931589449,0.142749332770254,0.933857304831459,0.0477087311844181,0.135527546699866,0.372035404559347,-1.02909839346457,-0.252525188484319,-0.446532208179405,-0.164471660431818,-0.391095260872875,-0.697474222905383,-1.62221148872195,-0.139703960314368,0.0506593099442995,-0.102033521309876,-0.946727257106085,-1.34917539756762,-1.26110586925139,-0.0328058289520045,-0.166631874063852,-0.772030427459307,0.0505100414156914,0.0985099226036653
8.815,-0.473563947935106,0.156416518817583,0.886117792820873,0.118683503434855,0.180687210049475,0.375925674451033,-1.01738908951465,-0.235527534517613,-0.434017553140004,-0.201495139633147,-0.340802783789468,-0.694442833578972,-1.58013724183714,-0.145470349356497,-0.0544953912995142,0.177498662137899,-0.905025413016893,-1.46687276555579,-1.23702968523246,-0.00825124648974986,-0.198451624193536,-0.824035675819675,0.0383860223778701,0.155774107580078
8.82,-0.478596093119668,0.160170011731423,0.872728751469337,0.142600781958916,0.192776509400048,0.381238698021638,-1.00681138491587,-0.216945818866426,-0.418107934151582,-0.239426415050886,-0.293568508546975,-0.690925151068914,-1.41452568563779,-0.115922582397641,-0.125420390167975,0.520702465645962,-0.79974124763856,-1.52429172713903,-1.19305487149367,0.0186910516898406,-0.209287316291841,-0.888616365530926,0.017585445405306,0.232630779604751
8.825,-0.466392325064953,0.159586022854573,0.865447005766469,0.169662699781884,0.192384513230462,0.391670530663265,-0.997686842083365,-0.197319553469263,-0.398977825343669,-0.27746145153655,-0.249752434218371,-0.686877533105319,-1.17926119617797,-0.0664170089355703,-0.134375080907983,0.800863698326485,-0.658530850979282,-1.49651705089229,-1.13970724774411,0.0388480952477,-0.208988129265961,-0.965323042137997,-0.0153882009243776,0.310584191435046
8.83,-0.450774404348219,0.177609269271612,0.868595601893458,0.222756260513087,0.177185158975329,0.400097148376629,-0.990227282895432,-0.1771312356744,-0.376934968582416,-0.314670309903735,-0.209664111654787,-0.682205721339223,-0.976992759687815,-0.0622257631924587,-0.112844310153406,0.881796127641538,-0.508585191743639,-1.38572756451293,-1.08001384847172,0.0450720930448613,-0.193266855814151,-1.02732601107299,-0.0465549364698413,0.3683100597717
8.835,-0.450354245416383,0.19770838725868,0.869917287028272,0.258966758912795,0.172062412146369,0.392160112637284,-0.984543800818145,-0.156801498624133,-0.352389779495446,-0.350110645563748,-0.173556488082642,-0.676794222845369,-0.779207512986233,-0.148186655358567,-0.074366260553889,0.904648945975552,-0.301105923520369,-1.21313871467816,-1.02231409670275,0.0523072897824009,-0.166012861793972,-1.06397975380092,-0.0642492615551155,0.398227867970865
8.84,-0.450038836940106,0.244923294060472,0.866006187035064,0.28629610022816,0.163677054739583,0.374607486720368,-0.980658357596128,-0.13668213626346,-0.325821140782151,-0.382946384587055,-0.141623644723276,-0.670534059233731,-0.694031128794083,-0.223871091386067,-0.0390685863873103,0.988703226607011,-0.145686939128363,-1.13114360943255,-0.96871107358888,0.0539788334659217,-0.119219407693941,-1.09097814413039,-0.0434970555602557,0.426389171910368
8.845,-0.432711644506214,0.266833818684002,0.869843543128063,0.30716657064285,0.167417165269031,0.355205830630005,-0.978513365813398,-0.117047913279573,-0.297750960113022,-0.412539539460253,-0.113999889449896,-0.663344032456534,-0.638352051703635,-0.251295405141412,0.0310300552870412,1.13461611861049,-0.00951989480839624,-1.140302212831,-0.937295461021701,0.0660073330901377,-0.0867029620773161,-1.0814250463104,0.00735394429284325,0.433478062309973
8.85,-0.416394597154621,0.266891773972811,0.87016089749164,0.309422289038315,0.155280653108624,0.329985637288945,-0.977978173736938,-0.0980932242705156,-0.268732433032757,-0.438493398083866,-0.0907575869074897,-0.655182986430211,-0.621828651226649,-0.237327922427725,0.10079545602856,1.18421927615491,0.0761933683010965,-1.19259814446809,-0.912217884534315,0.0664009585795523,-0.0569036863166762,-1.03752950502489,0.0809154794827825,0.397754671774482
8.855,-0.424968009967726,0.291804931636552,0.856257246386584,0.308750211718503,0.153621912002563,0.316134746308765,-0.978865858106162,-0.0799407045416523,-0.239329377799309,-0.460643843708972,-0.0719020394090135,-0.646053100655194,-0.636255110130261,-0.216661639552991,0.15225139052995,1.07830378415231,0.100885815445508,-1.24136066260815,-0.8837276498576,0.0704352688524956,-0.0345286206090073,-0.927063635166433,0.221435432393343,0.30284302429753
8.86,-0.421317884385996,0.313659759708791,0.853422474779871,0.288750350130736,0.154752433746119,0.302925458366087,-0.98094171094118,-0.0626625184367647,-0.210121117553028,-0.479012809036935,-0.0573640924248321,-0.635996049605636,-0.688300710221122,-0.238953771976128,0.184710418184594,0.70939509337276,0.101236294716178,-1.31544337805189,-0.868038383360046,0.0752295120911468,-0.0239386389278679,-0.864039128797263,0.35991183236027,0.234803404758591
8.865,-0.419491986865291,0.317469898665898,0.846671589000403,0.262607212030055,0.152539709069193,0.279614555750214,-0.983912355300918,-0.0463065515537017,-0.181750671021644,-0.49374465028521,-0.0469936371999861,-0.625084533658674,-0.771183186918973,-0.275147068531027,0.219837709267076,0.370518193964946,0.0803804430292739,-1.37415095621552,-0.854336641005086,0.0870872404787404,-0.0249285669831494,-0.836787457711955,0.51361161205933,0.193710625835183
8.87,-0.411541694392377,0.304506754459445,0.858503626696538,0.243741713864065,0.149989383717484,0.275527175465583,-0.987457226150099,-0.0309166923364507,-0.154892443608525,-0.505040048238223,-0.0405575787303805,-0.61341141544956,-0.849172443296046,-0.291096970818868,0.249686823013544,0.0630114249729272,0.0433675512343307,-1.42079135997376,-0.849254500084708,0.0985548627719577,-0.0317711062170017,-0.831364003835979,0.664203529298273,0.204467286019123
8.875,-0.402595916546607,0.270485539436059,0.863130739153951,0.225851629797988,0.164220406985206,0.284540936970788,-0.991286065581837,-0.0165425348363426,-0.130157114934606,-0.513097286780384,-0.0377443299763739,-0.601078746327241,-0.936411560096715,-0.258632628996984,0.283607418274088,-0.156558836441068,-0.0259857949795279,-1.46535276802334,-0.854307467510661,0.110135626440493,-0.0526474406248143,-0.829241503359918,0.798054266609563,0.231883185736313
8.88,-0.389565379202967,0.263704817699585,0.863836798593345,0.218442957487387,0.166484421760822,0.286885945193465,-0.995159720581153,-0.00324381732130828,-0.108045642604912,-0.51807870907647,-0.0381754934031916,-0.588189717334547,-0.996670352948496,-0.170989913764963,0.302413301746082,-0.105810383498262,-0.0765004994437549,-1.43785164907283,-0.850189399704384,0.117182734063131,-0.0673993911502947,-0.809062361836348,0.824247546500218,0.23831430083509
8.885,-0.362815402435415,0.266871700991442,0.871802365322466,0.205865281355823,0.166725605957432,0.29446953581318,-0.998894537565335,0.0089040371678519,-0.0889188780325701,-0.52012508027085,-0.0414244435651683,-0.574846053866253,-1.05207046378665,-0.0297263783745916,0.325545036867433,0.149120078923604,-0.108515205900519,-1.36437553503461,-0.852211238823396,0.118775412119572,-0.0883531909545506,-0.827871203132486,0.788631797271944,0.244690471314282
8.89,-0.363920028962213,0.273253371551839,0.883145561814416,0.20662398825733,0.175422150396503,0.301111998707012,-1.0023667834231,0.0198041378371911,-0.0729635168256844,-0.51942050720335,-0.0470398032831783,-0.561150174069357,-1.09059476109391,0.0830147001428395,0.341276010150575,0.490156022938308,-0.104896054579215,-1.26344545378748,-0.858228455483291,0.129472418461443,-0.101134770611139,-0.871579676690682,0.721700457624895,0.247497691382834
8.895,-0.392060710353579,0.255189363460583,0.879767603782621,0.20539155537612,0.174935174200324,0.288347058576276,-1.00550718578392,0.0293395454773317,-0.0601883887012235,-0.516271435101481,-0.0545693028150003,-0.547207484967056,-1.10282209107484,0.148736384006218,0.339829553860291,0.808122123109436,-0.0803500523382834,-1.16763971798464,-0.873286685098372,0.141140848758815,-0.111386971739401,-0.926129779906314,0.658603055789929,0.252567171648868
8.9,-0.400081387426027,0.243114629009548,0.8722364709759,0.235893699569457,0.176834106445312,0.273217945847569,-1.00828532227173,0.037388677455045,-0.0504593742753059,-0.51113916668713,-0.0635784241902208,-0.53312341105421,-1.0945158226824,0.159085894825973,0.338378089673163,1.16604901772075,-0.0285791606987221,-1.07978515920501,-0.891826336510129,0.159948907837794,-0.120782555647684,-0.991916029623416,0.566080464742416,0.24383031761709
8.905,-0.39167994043637,0.237597166346374,0.873356759300185,0.261959458931946,0.169817246927499,0.253727173810281,-1.01068889210713,0.0438521670243261,-0.043555062219811,-0.504588606224885,-0.0736608965933651,-0.518994064045153,-1.07613231790666,0.161977059579155,0.332567863577133,1.42630011734417,0.0183837248244824,-1.03281781088312,-0.895180130881771,0.16434743536711,-0.138446455980223,-1.02431728816633,0.498434599104387,0.224927866719279
8.91,-0.395653509176264,0.240275758315217,0.877241665225791,0.296575367361459,0.167060554027557,0.245143726482962,-1.01270662907502,0.0486782911686055,-0.0392095154176753,-0.497177927218349,-0.0844434329985836,-0.504895667466032,-1.06008298102356,0.143363800724413,0.316544989915331,1.60156342755698,0.0494422155753848,-1.0094166567292,-0.896176733008662,0.162315804077287,-0.146628086432527,-1.04922295023474,0.454931837792101,0.211200856452006
8.915,-0.396019585222662,0.249551104728865,0.877246693107579,0.308946637421854,0.173172501054546,0.239078759887858,-1.01432195030781,0.0518735221795642,-0.0371212338136017,-0.489359760925124,-0.0955904084474277,-0.49087988487413,-1.02954767299204,0.111779023546733,0.289259847142931,1.77691287977913,0.0835070937846195,-1.00532379987798,-0.895306300524508,0.167932011235569,-0.139835494716625,-1.08074813152842,0.394124883922252,0.200203317767258
8.92,-0.39142249511032,0.277425159987665,0.864725386777644,0.321436765330584,0.164617165923119,0.22450412299528,-1.01551818024833,0.0534957464673176,-0.036936856374005,-0.481450567895496,-0.106812506432227,-0.476978156419758,-1.00943085827755,0.0880169777811837,0.256131898321739,1.86971036441952,0.0835410875879338,-0.994402686172753,-0.907566970076869,0.155747098797128,-0.117298069655971,-1.11834507656848,0.331462673138058,0.19088454723892
8.925,-0.383404069784907,0.300185009228876,0.860020175363795,0.33345125417314,0.162849125548237,0.207644108207994,-1.01628967250739,0.0536388807960744,-0.0382367647682476,-0.473670198867478,-0.117878815548697,-0.463212380684903,-0.996942183286955,0.0641062469295991,0.207325156438531,1.9440948848437,0.0699350482431533,-0.982053137748941,-0.940681077836556,0.142176648722562,-0.0982134374334813,-1.13719849851619,0.258273827359639,0.172878346396266
8.93,-0.381750699282323,0.307746082611297,0.857856072752262,0.31851658842429,0.159824170592894,0.193032949037342,-1.01665075891969,0.0524185622137182,-0.0405448880243071,-0.466211400391824,-0.128628297141458,-0.44960651577405,-0.98487250009241,0.0506255553983606,0.160850942512515,1.96685678570816,0.0448064938410766,-0.974868356831179,-0.968746421267077,0.121411736622563,-0.0963712270903438,-1.103785634721,0.189560179770847,0.146834671837428
8.935,-0.390195298433457,0.303167474859414,0.857579261525615,0.304330182984377,0.153751561947153,0.168070529953062,-1.01663805509919,0.0499624079414801,-0.0433649570560359,-0.459296273981814,-0.138975849264921,-0.436194621758477,-0.983110060412594,0.0457093200860114,0.1216925979963,1.95416399989344,0.00889933176066268,-0.968576252379119,-0.988795472933664,0.0989743267797186,-0.10138996692226,-1.02125504247809,0.156858169855009,0.134195308930527
8.94,-0.391901451613059,0.304380592799001,0.8551642496637,0.296158854291481,0.14140497148037,0.140716271661541,-1.01630752707736,0.0464045003849732,-0.0462282373235878,-0.453201010296489,-0.14891023181871,-0.423023698421989,-0.974083801778491,0.0537350491241311,0.0871393375137806,1.87167827223207,-0.0296422473279921,-0.952808031851755,-1.02447008735729,0.0766637509049127,-0.104283310973421,-0.899432926776607,0.152580852514315,0.14126676735954
8.945,-0.38775523453869,0.31652321486081,0.846911567802882,0.28331351611445,0.131573395184711,0.12356825256042,-1.01572926534316,0.0418839865145687,-0.0487375382851287,-0.448252242516034,-0.158483993894482,-0.410152019822088,-0.962718483072912,0.0650370584929,0.0451247887468814,1.72369071774814,-0.0557898160570568,-0.918473278213478,-1.03224128284007,0.0656626462096818,-0.0954048923549888,-0.808405320884538,0.139061086952504,0.153118180602571
8.95,-0.392305149758221,0.3190104693775,0.845132746415938,0.265714863385758,0.123193155549993,0.102480898705652,-1.01498033394137,0.0365470632812459,-0.0506029646658584,-0.444798811610827,-0.167796844944909,-0.397643888909328,-0.95595778937357,0.0729701456777406,0.0234465534940545,1.57034891661831,-0.0726220020033651,-0.889501391554436,-1.04309029766108,0.0566657442892317,-0.0813524995407394,-0.741520116075414,0.108377269744384,0.160114576914901
8.955,-0.391563019345392,0.331929428520068,0.839667061414359,0.239568415481561,0.11968266870403,0.0891196541996354,-1.01413585446458,0.0305497037434484,-0.0516660766190429,-0.443153558965019,-0.176974215791138,-0.385561027525954,-0.95961189023075,0.0898887628741426,0.00136944136905587,1.2927055765278,-0.0825729569844983,-0.844253612377968,-1.04868967029763,0.0555229866428725,-0.0788347025076395,-0.694034550551649,0.060741709143482,0.168300475915542
8.96,-0.392032184075932,0.329026073068367,0.837891060295668,0.202570786475267,0.116053415098606,0.070803674207699,-1.01326114311643,0.0240591471055107,-0.0519005598098283,-0.443508941814304,-0.186144664149513,-0.37395188013347,-0.967121110071511,0.102952529746256,-0.0122044051184365,1.05096907083864,-0.0825325927887991,-0.817203928132238,-1.04723357630661,0.0583022026918475,-0.0908922440124327,-0.687147048322368,0.0306758688228328,0.167159631848335
8.965,-0.395862844205376,0.301919103444502,0.851239154275774,0.180230828374625,0.109089259236902,0.051490744055062,-1.01240752589018,0.0172544717233848,-0.0513821724899823,-0.44585541094366,-0.195422075438413,-0.362842370150224,-0.975864467249505,0.121947232570194,-0.0162952177503664,0.804721452719497,-0.0897010787305927,-0.813214998702023,-1.05074135361706,0.0618232031476818,-0.101435799000191,-0.697242694145586,0.0138855585647948,0.170191903496371
8.97,-0.399994721743345,0.286373715695088,0.847366150264496,0.158209823479957,0.0952967351719132,0.0423636138630594,-1.01161114233947,0.0103264166812437,-0.0502414282833443,-0.449939079334035,-0.204897064523683,-0.352231723266179,-0.984161533159994,0.135204733361858,-0.0199954425739166,0.593087906330861,-0.0952600232568459,-0.826268453258984,-1.04644018389443,0.063925437263196,-0.102223066696237,-0.716366895622234,-0.00154719285019568,0.175977633274647
8.975,-0.408931162046824,0.290280553016294,0.854211227646777,0.142324630131274,0.0951436014516742,0.0369710035847465,-1.01089263373537,0.00347514547696005,-0.0486215239977476,-0.455274644283021,-0.214637007377927,-0.342094273142239,-0.988924440202467,0.144641313542419,-0.016408255992429,0.432430262240137,-0.110034027026311,-0.856221000074732,-1.04224879151539,0.0553419382731153,-0.0886498644287278,-0.766796257022482,-0.0178691232328154,0.174496941087156
8.98,-0.409609915874628,0.279498044316855,0.854391632262436,0.133896072586849,0.0957955430914743,0.0403869422180368,-1.01025688900114,-0.00309498802017757,-0.0466512610859753,-0.461206332278302,-0.224690955192447,-0.332385522984068,-0.99362996400439,0.15833369016122,-0.0181359858137675,0.270846484170782,-0.117262972467697,-0.887435755486552,-1.03125862156567,0.0669276472001367,-0.0701212899296419,-0.810884110222285,-0.0379363112368137,0.156308946777225
8.985,-0.410837341938669,0.27237510587159,0.86669738119164,0.138872403227479,0.0922036282313594,0.0339218029116534,-1.00969269473839,-0.00918386556193436,-0.0444330778305441,-0.466996710217621,-0.235096012855612,-0.323049620465776,-0.994156060523334,0.16250238266846,-0.0146469289841242,0.168946741919266,-0.112222459693316,-0.919333225746608,-1.03336147068915,0.0807788497083648,-0.0505039415153102,-0.860330980163693,-0.0527158668561636,0.130552453771695
8.99,-0.416660371963578,0.269512075239581,0.870312869143253,0.143136602322506,0.0961342865248689,0.0372485560528639,-1.00917196592555,-0.0146075554226222,-0.0420514631379734,-0.47190674354332,-0.245882132669708,-0.314024861701463,-0.991844835579199,0.158539224748239,-0.00105561917596703,0.0803599458536784,-0.0888510648920428,-0.955501119358573,-1.02783579320813,0.092774851503666,-0.0354463747214162,-0.908553627953186,-0.03902391113762,0.099413601322929
8.995,-0.407934947526685,0.269615945920325,0.873963609766292,0.15567274198378,0.096058409961684,0.0308400778822573,-1.00865008245365,-0.0192119610058184,-0.0396017528340516,-0.475219343056378,-0.257071964671797,-0.305244261621422,-0.985306348834258,0.157976143986203,0.00786782026863324,0.0504270840738479,-0.0696638711669773,-0.995515705943739,-1.02579347640866,0.105326966477437,-0.0397790284191529,-0.943636057698659,-0.00499614951758831,0.0758416702035579
9,-0.411887031482121,0.267115317111627,0.873040365054319,0.169713060943887,0.0993026053050402,0.0348262702148669,-1.00807180523664,-0.0228819841197155,-0.0372130685624746,-0.476191911243248,-0.268675484946256,-0.296631571001634,-0.979988371439681,0.156593425721516,0.00476309282599585,0.0200995647882829,-0.0468942521645753,-1.03253768569844,-1.00685854762224,0.114668874641289,-0.0429008415542312,-0.954972194380578,0.0655928673155979,0.056722966218834
9.005,-0.419834266139492,0.25633510443495,0.87032442419622,0.174968644976616,0.10569724430094,0.042310310223611,-1.007385487553,-0.0255404970935759,-0.0350298858675796,-0.473994536707236,-0.280685533251721,-0.28809787294767,-0.981688958081541,0.147446838386277,0.00599285751087609,-0.0445706084789189,-0.0121288265620937,-1.05620336862201,-0.982453125070277,0.112969005573819,-0.0446417599235337,-0.934029877998004,0.154742315688474,0.035312791839523
9.01,-0.418239362787902,0.265643667957223,0.859647613266927,0.197630003110453,0.107226507041859,0.0423066266854748,-1.00656043218957,-0.0271396534393906,-0.0331539595034155,-0.46772025565292,-0.293082341426737,-0.279544498097892,-0.984144377586107,0.132287022542348,0.0132167442738312,-0.139818988778178,0.0230963090750132,-1.06110091133138,-0.965097346677652,0.107592094173385,-0.0473036685103863,-0.910875756476136,0.233655791302729,0.0324596957267238
9.015,-0.416892596266486,0.2739044121012,0.858673063524953,0.195737451314926,0.108419209718704,0.0518919566563188,-1.00559679274391,-0.0276544258097526,-0.0315944032634227,-0.456491739218366,-0.305847812280101,-0.270872439247505,-0.992976149793119,0.116093987889343,0.023620877107877,-0.236673329963679,0.0543822588759298,-1.05882276712173,-0.94996003356903,0.0975096069376409,-0.0364051790893616,-0.885534091525604,0.309243219428601,0.0315569696492617
9.02,-0.410693177263601,0.287355009539672,0.852746211582303,0.197472844221776,0.107262283466001,0.0545303522564368,-1.00452237887645,-0.0270851182094793,-0.0302686740196173,-0.439598462531095,-0.318980900592704,-0.261992523331993,-0.995881131150623,0.0858172624913649,0.0262467802350986,-0.34870438009818,0.0790741935564182,-1.13872664659822,-0.939795110484641,0.0876536269112606,-0.0249031807513531,-0.872123721406008,0.342658685804326,0.018818264439416
9.025,-0.40762026300564,0.300481949879139,0.844450145146579,0.194957777057859,0.104197918237075,0.0541328420932964,-1.00338110940012,-0.0254651917896629,-0.0290461150270348,-0.416581194021923,-0.332504772594665,-0.252830813472264,-0.997159365551414,0.0620450769377988,0.0240726784601626,-0.388151699897638,0.0876132403316604,-1.15582870960631,-0.932148814906271,0.0895629318236317,-0.02547492309399,-0.860412763996714,0.359556461338246,0.0114026436845881
9.03,-0.413054743679455,0.296098001113814,0.844194946414701,0.170885329958804,0.0988148069710909,0.0509273645528688,-1.00222200667316,-0.0228652460937243,-0.0277919067849406,-0.387240897735111,-0.346464386898281,-0.243328728823173,-1.00263765852174,0.0410972944401542,0.0244115393586272,-0.390483021827415,0.0880776345501652,-0.995394390501809,-0.925806286485042,0.0900500912683254,-0.0263367049691961,-0.850721312292881,0.365453428391848,0.00596478639554135
9.035,-0.412736517284377,0.30165451015797,0.839250274917683,0.152583531439725,0.0997358125373456,0.0596230143598765,-1.00109320658454,-0.0193882801055803,-0.0263843900281593,-0.351603808487004,-0.360919930842194,-0.233440927716132,-1.00292849368659,0.0312316417271942,0.0311227561201966,-0.372043273550239,0.0866883602903412,-0.946814567581989,-0.925007310936866,0.0868719944221222,-0.0245376474749941,-0.840301372738854,0.371757691716481,-0.00502193730645084
9.04,-0.416566718078939,0.300448247406081,0.835235278556279,0.125725122500061,0.0898290143264691,0.0628636414429276,-1.00003967841409,-0.0151589470624566,-0.0247116353189253,-0.309877439204255,-0.375941497369716,-0.223133680258663,-0.998634217904517,0.024820860387753,0.0437583246041426,-0.357381413651431,0.0817273714943848,-0.887440250871881,-0.921911823494878,0.0907463884461353,-0.0226597871376286,-0.806000783827228,0.358682506086169,-0.0104442059581523
9.045,-0.392199034773801,0.323514750178424,0.822997488392921,0.103409486123327,0.0804159666482986,0.0592144624284754,-0.99910113829203,-0.0103136002454947,-0.022668560400531,-0.262407976847128,-0.391606388675589,-0.212384381862484,-0.988573247129798,0.028977983617149,0.0666026309101083,-0.326548028337505,0.0848201903367232,-0.820737971047349,-0.927161371368123,0.0942400348313212,-0.0287994811102467,-0.756705086042623,0.343751737562948,-0.0191196178259797
9.05,-0.368183793325875,0.350220383160262,0.815810062621206,0.0539223722219383,0.0767127557126677,0.0604876637895908,-0.998308186813826,-0.00499664734573562,-0.0201694300259489,-0.209627760923326,-0.407996842259617,-0.201181021834667,-0.977260893080861,0.0318400562463151,0.0817924124876008,-0.303654543236001,0.0918821030542782,-0.776819574753927,-0.931082241300841,0.0963715121237215,-0.0381284567236132,-0.730928850208473,0.324537723467373,-0.0203778484262968
9.055,-0.377688043681256,0.33734043960701,0.821808888687524,0.010240367970261,0.067984254830552,0.0541899200098035,-0.997678577995493,0.000637297493687666,-0.0171714253154107,-0.151978776382479,-0.425195202602027,-0.189520120394489,-0.960157839557341,0.0471932751051363,0.104191473253893,-0.278557269033546,0.0987772034229471,-0.722132413037307,-0.932056324800795,0.0937465483937038,-0.0383305853593346,-0.721748352233195,0.290053726322927,-0.0270669122319725
9.06,-0.394777786027467,0.322159644508677,0.832583886590596,-0.0128038022263518,0.0659669917794907,0.0526637522575542,-0.997217449935721,0.00642213081508196,-0.013689986626382,-0.0898218193170437,-0.443276216038245,-0.177403439340414,-0.948603978831647,0.0528984734097936,0.124170265706875,-0.260124906259804,0.111188789703463,-0.694298863818557,-0.949320803446049,0.0974736826226233,-0.0369489945921787,-0.739695701741863,0.247354887247231,-0.0312311067222389
9.065,-0.404835170037478,0.310957800842532,0.829412958168139,-0.0303162120334093,0.0515220102533494,0.0431006218696621,-0.996922056512187,0.0121859777089015,-0.00979310260274446,-0.0233655139167996,-0.462299377734491,-0.164835557120184,-0.942243527076222,0.0607497521737145,0.146852816669255,-0.246340736657861,0.124957148185782,-0.670484141114073,-0.956830818635388,0.101181321608642,-0.0335904872617737,-0.761707931440101,0.193294641390152,-0.0415252809698051
9.07,-0.400198001041347,0.321593115686853,0.828070517933288,-0.0494840235100627,0.0461649628573938,0.0445876877319249,-0.996787483936121,0.0177631763722741,-0.00558097934195401,0.0473585636547361,-0.482304417721238,-0.15182381720557,-0.943510392602814,0.0695098956219821,0.17695741252099,-0.227149457455172,0.147867098020862,-0.647030679109769,-0.965015204905033,0.0990476475403596,-0.0360615176465123,-0.798537274832611,0.130739416159558,-0.0448142873349857
9.075,-0.395673658003778,0.318772422267282,0.832968888138662,-0.0734900999750809,0.0324940489948042,0.0392559416985001,-0.996810979675322,0.0230066009639961,-0.00116425720680084,0.122475779200282,-0.503310795450906,-0.13838030783229,-0.94901496079601,0.0678166123995358,0.203625368540822,-0.201357849448779,0.172246139117305,-0.623425293296625,-0.967714620476551,0.097953364383225,-0.0527883891945029,-0.819443647914623,0.0713684196613753,-0.0454128543146127
9.08,-0.395184130718927,0.319093613663027,0.838786749780622,-0.0928954052792008,0.0186577642227101,0.0373618602752686,-0.996996222679068,0.0277958223990732,0.00335472202711698,0.202216494578547,-0.525320768067142,-0.124524797395276,-0.95763025300862,0.068909995873182,0.229936162942223,-0.15473113153547,0.187786668400093,-0.613923162499817,-0.966873322572605,0.101685985752704,-0.0687136694419169,-0.851298457348003,0.0266567417882079,-0.0520256759998117
9.085,-0.393656822123351,0.322247775766015,0.842064626215198,-0.105775863553008,0.00738640627784864,0.0320481576950638,-0.997358598396537,0.0320416133172334,0.00789877306403248,0.286840166458865,-0.548325647680157,-0.110287965186857,-0.96494088553597,0.0682983092872905,0.264670536966984,-0.088964111436858,0.200520207976654,-0.596107883310507,-0.974542025656267,0.101351917837971,-0.08067379500797,-0.867684607993926,-0.0310991068634459,-0.0673207122452506
9.09,-0.407526999101371,0.323359783644042,0.848452363080756,-0.121540412717755,-0.00496756628284067,0.025276812998654,-0.997928981144824,0.03568997396684,0.0124283193025282,0.376541356164329,-0.572314461723076,-0.0957145283433086,-0.966909190695572,0.0667162719556453,0.296064985413175,-0.00941318517478981,0.215087413645625,-0.590665551879205,-0.962373205662967,0.0967862004762636,-0.088192797380603,-0.883753261823167,-0.0838578514874477,-0.0907433845029033
9.095,-0.405849056630345,0.314636916215327,0.845277294503091,-0.133956876342745,-0.0208554535264485,0.015106739428061,-0.99875264181889,0.0387268285773304,0.0169440269356366,0.471349170019835,-0.59728324508513,-0.0808657546236372,-0.975765236063605,0.0673347584795877,0.3397397544598,0.114295868710077,0.220254316926003,-0.58153782991623,-0.963573583850876,0.0943485931383401,-0.0882588814619816,-0.893839240890081,-0.110306778781091,-0.119342776689738
9.1,-0.404532285239535,0.320285590675543,0.846674464050645,-0.139487592517909,-0.0372697100182303,0.0107447927826397,-0.999882648304244,0.0411807538124287,0.0214769888323274,0.571035113949718,-0.623242886031463,-0.0658208226200722,-0.98424226286204,0.0683585773894164,0.375583284988345,0.228092066638296,0.223202380863999,-0.573053262122201,-0.96210655071286,0.102206251131623,-0.0901523651716727,-0.901206993483247,-0.121359901510793,-0.135707308809217
9.105,-0.402644771318328,0.319199794720328,0.839036218129442,-0.159892610234995,-0.0515095040414125,0.00506308779412345,-1.00136947770284,0.0431198225578613,0.0260670935708994,0.675044182656131,-0.650223741942137,-0.0506764058388577,-0.98726235369719,0.0742879587082135,0.402362369872531,0.38627902816097,0.229349920876314,-0.557963093759843,-0.95808659687461,0.116226388624939,-0.0847347115936288,-0.922566033953626,-0.113642728417208,-0.159668419152568
9.11,-0.398796457300596,0.321297090745267,0.843626925162639,-0.180249182377079,-0.057677553126056,0.00079156126989841,-1.00324962281905,0.0446406569101672,0.0307327737897916,0.782465796300355,-0.678275285972546,-0.0355435742854306,-0.997447141994152,0.0816528025966467,0.419470176139206,0.522187637869568,0.22980745986219,-0.534529183392587,-0.958259274758573,0.127386145092809,-0.0922606295448777,-0.967089956460562,-0.0894739488097464,-0.171760636298938
9.115,-0.408190156949299,0.304761413562701,0.849199320525106,-0.203635751203602,-0.0642692133723284,0.00122803023438021,-1.00553724350692,0.0458510271474353,0.0354407370482141,0.892061968109056,-0.70745956752398,-0.020541275729649,-1.01290491989225,0.0911891780745211,0.425491196834129,0.659515378524053,0.22514109313488,-0.504541858419707,-0.980470143722011,0.143780709109907,-0.0923877560172773,-1.04967615024507,-0.082677250633368,-0.171294923820225
9.12,-0.406574438941457,0.301545873804831,0.850367124893689,-0.212580809365913,-0.0733875695878503,-0.00425098164521138,-1.00822246183872,0.0468504056681284,0.0400887737074428,1.00236079457281,-0.737839474861943,-0.00578672997851259,-1.02415626903079,0.0891594577796143,0.423560222486994,0.723746942203169,0.225520120995245,-0.465790970004619,-0.990511903970456,0.139106618809417,-0.104431810726939,-1.10262613250239,-0.0974160218212663,-0.194190042748287
9.125,-0.407804735129517,0.301773570705308,0.856713121275087,-0.219306477774255,-0.0826152596986949,-0.00740147297369473,-1.01127618159712,0.0477151451607713,0.0445108781767828,1.11180368502229,-0.769465406188783,0.00861562405091806,-1.03229901045228,0.0833038430851698,0.416472018494655,0.778499755570846,0.22636279463768,-0.404422852218075,-1.00058919288009,0.134089414169155,-0.105828526782346,-1.12418292178543,-0.15552572249003,-0.216951339194496
9.13,-0.405490905780849,0.287467453645478,0.854605885597469,-0.221994157186757,-0.0869639918720827,-0.00317385607054948,-1.01465862640892,0.0484950844439989,0.0485058690126411,1.21891241858783,-0.802364611788223,0.0225841892490094,-1.03849685737343,0.0655575569124395,0.398362877895549,0.795545434753008,0.218463997649482,-0.331495210232566,-1.00583506879525,0.134723196107068,-0.108257588306229,-1.1193207171224,-0.234101805219996,-0.233087854350855
9.135,-0.393576372569522,0.279564161902858,0.865154600510509,-0.219350388028737,-0.0810875923770218,0.00125736681471461,-1.01833070028159,0.0492247142144386,0.0518866939955213,1.32242353248184,-0.836536614574987,0.0360663932475832,-1.04559704999402,0.0338662220705721,0.377660190271152,0.791472012098099,0.211254518398816,-0.252197707646696,-1.00535087311363,0.138682322879294,-0.111764326706524,-1.10407509353968,-0.312508303193486,-0.239709209088689
9.14,-0.394107905577277,0.282834780521667,0.864983795799572,-0.206445171574284,-0.0841202433603654,0.00144444177028032,-1.02226942590532,0.0499440525519718,0.0545414602515922,1.42133583898904,-0.871957291738169,0.0490382590402475,-1.05758059211056,-0.00565768285323516,0.345906527014396,0.782114800757566,0.199279458452493,-0.189084148208134,-1.01145836331948,0.145135528322724,-0.102637894913073,-1.08757361081419,-0.394025095897551,-0.259277760125311
9.145,-0.388682829177643,0.280047130344267,0.866249900329324,-0.200755964790019,-0.0812756399682327,0.000378832308335681,-1.02648603721151,0.0507163931258098,0.0564836260367114,1.51485155893735,-0.908591984103789,0.0614966866619923,-1.06859765616418,-0.0423029001033797,0.316550762993117,0.77736177940813,0.179224980227087,-0.12727130226773,-1.00635611626879,0.148967918057886,-0.100066878473442,-1.08702173772548,-0.462555174298132,-0.270810597280632
9.15,-0.397398643549692,0.276379380791922,0.879222055282399,-0.196503549502724,-0.0713753598352025,0.0019070388644565,-1.03104118678727,0.0516307563953428,0.0578650267044412,1.60225191237595,-0.94641342866864,0.0734474786939188,-1.06900204701367,-0.0645007012989541,0.289887651372486,0.809057858903571,0.158050953703845,-0.0826200969519846,-1.00499071883105,0.14860103491598,-0.0994074664726634,-1.08184254706799,-0.490338786217597,-0.281152109979264
9.155,-0.398696326546412,0.283338538210706,0.870409857618224,-0.183264023702041,-0.0647852412500808,-0.000627672702602064,-1.0360524498258,0.0527878096852525,0.0589455957671729,1.68278423745567,-0.985417168538964,0.08489451550979,-1.06723077946437,-0.0715961396347096,0.261187358689012,0.893836782431397,0.13124639683459,-0.0425962181214305,-1.00119227046692,0.140923919186756,-0.0912407328083256,-1.0796877015647,-0.491924213364426,-0.294623849166731
9.16,-0.40217160736078,0.285323906824651,0.868322971488532,-0.183061874593274,-0.0615443834137747,0.00487591808927091,-1.04169391183764,0.0542784434795373,0.0600402019980807,1.75561851765677,-1.02562903164103,0.0958343716752338,-1.06087282864205,-0.0637460796438478,0.244686051570601,0.988657523793153,0.106693257497126,-0.0282421146059874,-0.989077798634692,0.130559889148094,-0.0760226924750865,-1.07874800580354,-0.473286579551207,-0.309129498408906
9.165,-0.382477320150998,0.28457384870349,0.868713540112096,-0.181766152381897,-0.0553891986907325,0.00592856929453219,-1.04819029212221,0.0561649983062519,0.0614709929397229,1.81987949306349,-1.06710448377272,0.106257280458451,-1.05444140457024,-0.0391961897757042,0.220174232024194,1.13718800184188,0.0605730819558734,-0.0048151232156485,-0.979025745174919,0.111111680083939,-0.0703660695800926,-1.07545429875558,-0.451090698079063,-0.323280940925863
9.17,-0.378391874261851,0.284333216530662,0.881479616270117,-0.172236009311315,-0.0409622121090687,0.00202400204564822,-1.05580714328188,0.0584696697271493,0.0635411092175245,1.87471812084893,-1.10992378194348,0.116152221705239,-1.05426735521373,-0.00881872486875125,0.195119561798372,1.27200033643224,0.0272867966874565,0.000993801158693481,-0.969182482834943,0.100777798308435,-0.0639421630538871,-1.06839790572841,-0.411736164594084,-0.345574382577198
9.175,-0.378637165551083,0.29400696787449,0.88059041859912,-0.156221007253195,-0.0289092554609977,-0.0045105117190984,-1.06483760815538,0.0611700871618554,0.0665268400976715,1.91937542930474,-1.15418735441893,0.125512567106566,-1.06522363936744,0.0287732431087743,0.166582856468915,1.46831959609368,-0.014041370388111,-0.00467223846625001,-0.970635984936784,0.097462717613336,-0.0538206697148347,-1.0637515223223,-0.374490290073327,-0.358273557484388
9.18,-0.387240799833604,0.290263224202784,0.878527884092158,-0.150718111495003,-0.0165441911992674,-0.0127977224452561,-1.07558704524514,0.064200228487262,0.0706744359934715,1.95321187616256,-1.20001309654944,0.134339540226469,-1.07386647252903,0.0651568250884879,0.142826774153032,1.59715831232939,-0.0521241019100176,0.00169836599540051,-0.966437587787309,0.0894042969190556,-0.0630645633298147,-1.0546779157331,-0.34532727339395,-0.37900334964456
9.185,-0.38986299509973,0.280557620183942,0.872975912906298,-0.1461169301211,-0.00209474352265781,-0.016832857530936,-1.08835763766015,0.067454428665222,0.0761905849003696,1.97570785368067,-1.24753411331906,0.142642951137308,-1.07452856089165,0.0985042306869126,0.114206465179938,1.72712516964735,-0.103357643135071,0.000413858587727673,-0.957716225105073,0.0776638335747246,-0.0692229885846956,-1.04314592095266,-0.319774340878706,-0.400817368308206
9.19,-0.39429747785619,0.279398203112228,0.870942239024187,-0.139145537239002,0.0224013325533105,-0.011672336102024,-1.10343393977179,0.0707928743700944,0.083224636801359,1.98646131497593,-1.29689455937371,0.150440525645585,-1.06267671233673,0.125116586144645,0.0892186577427019,1.81991254295924,-0.146733108990625,0.00299287887336062,-0.95062968855845,0.0646409307597478,-0.080423556137209,-1.02420673639186,-0.299929752569457,-0.421567396489385
9.195,-0.403200084505532,0.269740812880452,0.879818632004887,-0.136982218183708,0.0439255272641591,-0.0284815770442452,-1.12106832220553,0.0740482192119226,0.0918458078688964,1.98520387410336,-1.34824232350428,0.157757379666309,-1.0417809967814,0.14492565817786,0.0627813850995814,1.83873307522729,-0.191754763825386,0.00941593363989879,-0.952534080127942,0.0509930617566828,-0.0856286211239082,-1.01415262191984,-0.293005333396918,-0.429956719286395
9.2,-0.401964334591656,0.27401078356181,0.878580086260402,-0.131411519537615,0.0706193422308546,-0.0236344736947772,-1.14146469572359,0.0770336542079648,0.102019683568782,1.97183582312716,-1.40171844234955,0.164626065186909,-1.03497654108265,0.155624250984091,0.0382975874767917,1.82049090454499,-0.223958324013416,0.0199571156849205,-0.955492832911317,0.0414438682803259,-0.0907957963464331,-1.01969779177158,-0.286951811720055,-0.43937350104156
9.205,-0.388407656587691,0.282455499830894,0.882589821348198,-0.13182637052067,0.104348525374819,-0.028459949330029,-1.16476004160552,0.079552573193526,0.113588756920861,1.9464644907085,-1.45744371265103,0.171086501877977,-1.03488952552881,0.162614941336548,0.0147994908429798,1.75927611964069,-0.255762939142919,0.0331235368425224,-0.958364194973698,0.0153697136052286,-0.0894109673987446,-1.03119316254324,-0.289084762561736,-0.461650510142063
9.21,-0.387920612359288,0.275457572605093,0.889864201595299,-0.129274531368287,0.135652042544285,-0.0416358256870877,-1.19100475549354,0.0814094722354169,0.126260351478913,1.9094312138622,-1.51550343180237,0.177185013724804,-1.04243587588382,0.159005814399581,-0.0103711121617521,1.64536313438871,-0.281787033798181,0.0433530978567461,-0.965560056051628,0.00201483094245729,-0.0874645665599749,-1.05373075077017,-0.305601222082322,-0.48320556125194
9.215,-0.392051143889861,0.272844771069374,0.897163325747172,-0.141247145002408,0.189573722760293,-0.0426441661962592,-1.22014349161121,0.0824211689267895,0.139602201488141,1.86132191629389,-1.57593155996533,0.182972390239485,-1.04798647882466,0.153671858247714,-0.0274289289588897,1.46594386891112,-0.303590836404833,0.0759961530156745,-0.97392709670337,-0.0215487131707683,-0.0979355754998651,-1.07355453246197,-0.334287709551019,-0.508403326174037
9.22,-0.383472844179702,0.269053234717765,0.894897872161207,-0.129747996859452,0.241203275633355,-0.0576739326078795,-1.25199792956236,0.0824269190920982,0.15304430346656,1.80296211373097,-1.63869568028318,0.188501499265214,-1.04560623857911,0.1337203285799,-0.0426617842554112,1.21717138561788,-0.317610277642352,0.124153997301591,-0.990857699806363,-0.0381699216830588,-0.0952377203585675,-1.08774769100935,-0.364765521288213,-0.523634825835822
9.225,-0.394835578646582,0.261305401866322,0.905679018539089,-0.134352559602046,0.315270125302205,-0.0637090473397901,-1.28625214958735,0.0812961386620843,0.165886038329799,1.73539740106707,-1.70368393877665,0.193824983625567,-1.04702430808273,0.104719088721752,-0.0523765041443687,1.01044111146724,-0.319551278416829,0.172364685868699,-1.0033379620168,-0.0662351393848829,-0.102628071071857,-1.09983806971033,-0.411339629733707,-0.532882677527395
9.23,-0.394077754048079,0.281029424889944,0.905519594843238,-0.130652202290066,0.380008038497058,-0.0710731251213439,-1.32244072417373,0.0789335660815319,0.177308671478226,1.65985980208857,-1.77069478204141,0.198993120975091,-1.05930141287909,0.0750825860953096,-0.0633200765793384,0.769901735610893,-0.309677281434309,0.244351158812627,-1.02096108677823,-0.0891168841876729,-0.105216627465221,-1.07922561172541,-0.449536322253939,-0.543692816635663
9.235,-0.394475960085076,0.278056060785582,0.900423721242042,-0.138753296037015,0.500323863011297,-0.0695594505179257,-1.36004780055856,0.0752863851374642,0.186598394412624,1.57772134046852,-1.83942992459209,0.204051540389224,-1.08146009756899,0.0535995256009838,-0.0771052963021725,0.622581774755519,-0.295668157978998,0.294829320457371,-1.04421823267935,-0.118020439679694,-0.107320127163459,-1.01972795642866,-0.489489474671619,-0.551147618984795
9.24,-0.486466400612831,0.230185412476276,0.901099704199452,-0.157595164615691,0.625372310075879,-0.0410307118767645,-1.3988114670439,0.070355427072293,0.193704496882808,1.49044002096152,-1.90949046672493,0.20903880941133,-1.11680696501657,0.0341683053901284,-0.0921778471233456,0.488239627312561,-0.262856850874523,0.364977668022912,-1.06305854084071,-0.13406837617064,-0.116271981108336,-0.973736739859919,-0.492882025882033,-0.533831012889175
9.245,-0.374149324861387,0.287706544254599,1.02568570038579,-0.153839883441548,0.803648187934734,-0.0431979263937101,-1.43841996427996,0.0641917606845127,0.198598600848721,1.3995093297111,-1.98037530183914,0.21398512060777,-1.14984286720027,0.0315804812573478,-0.101643478200364,0.432718071063856,-0.231178152274505,0.441509677671726,-1.07955253219905,-0.150379998925718,-0.13083294318446,-0.888456165231905,-0.485906824728459,-0.535277521234555
9.25,-0.0673240997972598,0.216313488315984,1.07106706962792,-0.116650797647778,0.948457738830063,-0.11829392142785,-1.47790913967219,0.0568947934667451,0.200217675015814,1.30642281938209,-2.05148074771769,0.218914272124352,-1.19898962503908,0.0340905263045593,-0.0965892910065081,0.440946133657452,-0.1892264669877,0.552912914239775,-1.08753938171148,-0.158264129841266,-0.130786453449421,-0.812380386144216,-0.468357615048052,-0.531785606278522
9.255,-0.256800157480441,0.310946173667788,1.03451487139907,-0.0545003340945868,1.13527127152398,-0.209908034254134,-1.51604020211717,0.0486056888892618,0.197283557427937,1.21265414359772,-2.12210179814898,0.22385005463405,-1.24169994719517,0.0455262674474398,-0.106885875283317,0.506297663046239,-0.152481183324338,0.652222327161762,-1.09736440468428,-0.157048748455143,-0.125807758606568,-0.742017520085594,-0.437456375627787,-0.518490493220609
9.26,-0.26945104830311,0.296710797190253,1.03642668579255,-0.0379086731709106,1.35608922548975,-0.280604766423545,-1.55167366244842,0.0394982446832033,0.188991723558247,1.11964198185789,-2.191437078156,0.228825670364356,-1.27501370025592,0.0603774998185106,-0.113075431207632,0.623713357878771,-0.109743513064634,0.777229042945277,-1.12194640992,-0.14094304519561,-0.118538082414121,-0.65281769485284,-0.396549602687755,-0.521764194908835
9.265,-0.321471552897094,0.296948504829945,1.04985396091873,-0.0166835093377118,1.63389578680675,-0.357910200448658,-1.58363293878879,0.0297854864960141,0.174743090358423,1.02877540344731,-2.25859869009601,0.233894347466848,-1.3072463536953,0.0767451998130196,-0.110773411226599,0.7805783421516,-0.0569656020383286,0.887466883360142,-1.14685944412923,-0.11537397575267,-0.114409940122178,-0.614830334174732,-0.35203636020701,-0.523707760824152
9.27,-0.319769837939932,0.314602356468941,1.06197279252943,-0.010728919878602,1.91786932659357,-0.399431755856166,-1.61068979802819,0.0197192925727088,0.154097183320267,0.941387276678786,-2.32262562533799,0.239141510612445,-1.34547029184944,0.119802934596211,-0.11068538328425,0.98908090066655,-0.0162032194966242,1.00198811335341,-1.18112697713515,-0.0879428409565919,-0.115393593337606,-0.593717958527872,-0.298187821560553,-0.515152193609225
9.275,-0.273876101024978,0.326357025778219,1.093212082211,-0.00228027353423271,2.21925966699811,-0.436845129921923,-1.63160477996794,0.00957744396683176,0.126807034211592,0.858757133062367,-2.38249914630403,0.244699384695192,-1.39021717557545,0.184510376860598,-0.0828792309959258,1.2591988273272,0.047623455192425,1.17211963931066,-1.24491837149516,-0.0567194859875166,-0.131134540877405,-0.577523435895748,-0.216906493260241,-0.475338561643517
9.28,-0.238394397544334,0.334873335145076,1.11948230721126,0.00379902390213474,2.60476907257791,-0.497638102993873,-1.64517547286515,-0.000360319316130279,0.0928533523762487,0.782107397753905,-2.43716056913408,0.250761533142809,-1.43194074596497,0.220505792219015,-0.0574968366702845,1.48997446155921,0.102133558737246,1.32882536318794,-1.28956020913814,-0.0321370060723265,-0.159813069535048,-0.550764685195586,-0.148374768646429,-0.42030784775604
9.285,-0.214482970188087,0.342737058818501,1.13250732951012,0.0311375310083695,2.95523701568073,-0.560540004218873,-1.6503361999801,-0.00983807497208314,0.0524484252400475,0.712575130988621,-2.48553249020057,0.257591557346229,-1.48236346631299,0.264926042643077,-0.0432385505695877,1.80534639278124,0.17807669509696,1.51000616902322,-1.33849443511403,-0.0131337003664318,-0.203743314828742,-0.494240177155336,-0.0720090785785584,-0.369397386581268
9.29,-0.240060051358741,0.338354981641598,1.13201791980298,0.0970111459267719,3.39694218799622,-0.661151375041698,-1.64624187649545,-0.0186420830271509,0.00602704510127899,0.651157759933756,-2.52654260389264,0.265520843868211,-1.52629108251708,0.306120525803046,-0.0413307517625069,2.093880359355,0.26728057635861,1.69359513763646,-1.36224168415421,0.0119924885302938,-0.259493977250966,-0.40263068405566,0.000677497917513229,-0.324905702109496
9.295,-0.253719523023911,0.360402706207551,1.12861563318074,0.168907664209682,3.75251136930632,-0.713869115608067,-1.63217632557253,-0.0266082336957193,-0.0456838906937171,0.59864600738428,-2.55914727856609,0.27493363519481,-1.53430674250775,0.348480945500781,-0.0505048972101902,2.38481636051658,0.389303319835767,1.92354015723121,-1.35009750002383,0.0243540142531897,-0.305436627816443,-0.361340907794825,0.0254595434445227,-0.288955012540787
9.3,-0.264298851677399,0.355008597538349,1.13575277935459,0.25676931586655,4.1620491851714,-0.785006343226254,-1.60753434983157,-0.0336197060660325,-0.101646313424931,0.555560509806502,-2.58235174499867,0.286240842603721,-1.55469906159993,0.408252879809904,-0.0418599050517538,2.59482109566645,0.529786332751376,2.1213907006714,-1.30103120222528,0.0432427292956999,-0.317455041376131,-0.393102205021881,-0.0108683782383913,-0.268240768117293
9.305,-0.262372940130777,0.350281885024217,1.15681012605881,0.351568554773922,4.56882600078581,-0.860339367347952,-1.57200548935666,-0.0395978033436568,-0.160637390668729,0.522105085087581,-2.59522489900237,0.299845770799009,-1.51560862573356,0.457723240004797,-0.0727993432406568,2.80446983248799,0.69806856164295,2.38637110788352,-1.21418450390583,0.0530604384018387,-0.29777828438871,-0.461861035047526,-0.114005968146194,-0.28124643037624
9.31,-0.288838211424747,0.319972839237334,1.1664315503217,0.472175886694833,4.9833912308149,-0.960248336852937,-1.52563328341363,-0.0444905834859672,-0.221331640425248,0.498144766076387,-2.59690851340878,0.316105718891464,-1.42653143929454,0.483085186169022,-0.0895756012501824,2.82911999927333,0.874933310628176,2.65751684185407,-1.12119734401927,0.0697112886834459,-0.275579378985574,-0.591623151391774,-0.253658328582959,-0.287260192914167
9.315,-0.38888138928685,0.385293495678751,1.12437917537254,0.561787872378007,5.282078164513,-1.02226753265572,-1.46877064232106,-0.0482647764241665,-0.282330188231401,0.483212396998414,-2.58662217958059,0.335294008965394,-1.38519920431538,0.491360692336959,-0.0713731812601373,2.75086559714618,1.06992396513274,2.98685499434965,-1.03844919977431,0.101577916357327,-0.262554145540959,-0.892850338243686,-0.458990205975735,-0.300756065762872
9.32,-0.445824494705088,0.375926269835141,1.13578403521848,0.586179634790004,5.59107099511202,-1.06553267827487,-1.4018109658799,-0.0509081520922899,-0.342524927354013,0.476543692629114,-2.56366583112194,0.357567514214644,-1.38178264179731,0.538936242234023,-0.0567284568254583,2.6736601612491,1.18156899143543,3.23481625432856,-0.949710036267786,0.124036463737948,-0.234061252782326,-1.0887662681967,-0.582443836276088,-0.313038445135751
9.325,-0.479862622550961,0.312780054470517,1.15807626741312,0.603535670401185,5.90463560874832,-1.08061249311626,-1.32475134143672,-0.052442910310811,-0.401556577018869,0.477136441184977,-2.52742142365654,0.382944503622985,-1.33485422106326,0.545948324709525,-0.0601308901784754,2.56965886529841,1.29075508988671,3.46277891298021,-0.906116297650865,0.0995814447483829,-0.190585032776461,-1.06713911150271,-0.564782953793004,-0.283745866426421
9.33,-0.540252286734963,0.257299204537355,1.16600059438431,0.660186148343166,6.15305302762253,-1.10155443856046,-1.2382486499814,-0.0529357519679636,-0.458510280577569,0.483825473808498,-2.47735510603041,0.411296027332013,-1.29832221379584,0.507715426137504,-0.062274122480265,2.36241039899307,1.36072794028993,3.58751277571973,-0.878545057523046,0.0632774880553936,-0.14406787901489,-0.796441351698448,-0.392920930927737,-0.190902243207284
9.335,-0.640778552739427,0.240010621924731,1.17482846498225,0.802242318012637,6.45341792156642,-1.12106947529869,-1.1446083876168,-0.0525099894021602,-0.511026980045646,0.495363119781237,-2.4130213920357,0.442351699652326,-1.2837271305834,0.392754425836798,-0.0593462985283359,2.0706898012326,1.36547354158583,3.60315343151162,-0.844223929334208,0.0346748669730024,-0.105086704038419,-0.550603315044535,-0.17158703696318,-0.0917825857132255
9.34,-0.748571959072997,0.263669113360417,1.22016101409893,0.880580571463675,6.60557783879469,-1.11679005065119,-1.04639336506624,-0.0513486297084417,-0.557114323930537,0.510495890298697,-2.33407096213291,0.475718642678655,-1.2277958731047,0.213444630822919,-0.0734179577914298,1.76915197973551,1.33213633863032,3.49586867456735,-0.83035028287741,0.030859576004049,-0.102774600963535,-0.501440617447688,-0.0322927033100643,-0.0601779857326488
9.345,-0.892690654217694,0.308586514662097,1.24704466644137,0.796958481912637,6.62395808134007,-1.11188160545701,-0.945651630230024,-0.0496859667030402,-0.595878380978358,0.528030656236948,-2.24026323315004,0.510910928951906,-1.27528376672595,0.154772046835905,-0.104284747023892,1.48178758408485,1.24227238130431,3.32016335898096,-0.818527952326892,0.00433478808706128,-0.120788658234065,-0.577179061953012,0.037514289784797,-0.0893760551974196
9.35,-1.22077737262108,0.266911552842487,1.43023773498492,0.525438992246642,6.40117495734211,-1.0980899647569,-0.844355441306901,-0.0477987955023616,-0.626866502341537,0.546886469361726,-2.13148363632576,0.547386036907001,-1.20478551136507,-0.0137139679658268,-0.184453004762981,1.23366011444641,1.15071122217299,3.11499966031127,-0.814702106356285,-0.0506422158647207,-0.125026036573591,-0.647678739154172,-0.0445142314615028,-0.13489407844403
9.355,-1.59245510782236,0.34184485515761,1.56636274347479,0.579192605623375,5.73727963679999,-1.15416570860764,-0.744423793649348,-0.0459855611363459,-0.649949184484057,0.566131437226825,-2.00776399643444,0.584584702323421,-1.15042879562198,-0.0964111818138514,-0.26561842671951,1.20488533880452,1.00182884351373,2.89935788494347,-0.826748137922646,-0.102554454595272,-0.112021448329809,-0.622210340441016,-0.189857105508339,-0.153844962072201
9.36,-1.85442592002032,0.68760799623604,2.06819804923245,0.412441929470978,5.09189919878937,-1.08214704983692,-0.647650774442538,-0.0445401616376394,-0.665306839527155,0.585007078650064,-1.86930314017255,0.621971078990671,-1.07415434914266,-0.113891292638087,-0.320748903062112,1.24326044053312,0.866404086861108,2.69984681890347,-0.837232151635701,-0.134651818094971,-0.0873388229109388,-0.487828746882757,-0.332597731285763,-0.142952312734662
9.365,-1.44707832729017,0.629151111111169,2.20548232732338,-0.148922412193797,3.92269843345494,-0.838702205116873,-0.555644141981757,-0.0437251917948669,-0.673404426945535,0.602944032793753,-1.71648436923106,0.659070788051333,-1.01576447450967,-0.145398086663631,-0.309986234327314,1.16445072918594,0.739205975359227,2.54081636635106,-0.853063674802562,-0.149856346735245,-0.056715541391689,-0.292115041536952,-0.450117355348453,-0.116653253592485
9.37,-0.59620545781261,0.324048684339061,1.70671711318971,-0.498122146921117,3.10113831423636,-0.774926250707902,-0.469775718248189,-0.0437468747417948,-0.674954179747103,0.6195723471049,-1.54988671722705,0.695504621164491,-0.985119505575149,-0.17494667644449,-0.243843847095222,0.981492004387164,0.624071610835785,2.43517082649172,-0.865248269915256,-0.138740227693688,-0.044264634658171,-0.181418993921477,-0.471916522723803,-0.0964177896179045
9.375,-0.124059050146604,0.241949212131326,1.34586625012902,-0.932644937100349,2.84781068455089,-0.8319515232916,-0.391144784286482,-0.044733467800837,-0.670865605795537,0.634727383626015,-1.37028777866597,0.731015257613191,-1.00993383399421,-0.171429070704166,-0.123207161569172,0.649872805761754,0.493144012614312,2.31901069600682,-0.872669531222657,-0.123588079732637,-0.044093695258154,-0.151245927971825,-0.435956390932176,-0.0833437489851095
9.38,-0.1437466070918,0.211814879269085,1.12528593144675,-1.25469184994428,2.77165207585872,-0.814984675159405,-0.320556076885216,-0.0467198977913885,-0.662183028378626,0.64844987123525,-1.17865730735568,0.765484045540763,-0.992585209436553,-0.18648036739087,0.000940328591587151,0.0522508416112024,0.345621165867198,2.1558894750727,-0.89195478967701,-0.109121177785802,-0.0442021876520577,-0.244422187071368,-0.291616843740826,-0.08467011740538
9.385,-0.305810854523589,0.249531955984595,2.34291573763678,-1.63517129747137,2.42223697901978,-0.770793755571976,-0.258514314270067,-0.0496421160337642,-0.650013111521564,0.660976972060716,-0.976142607755159,0.798935563440567,-1.04566399172213,-0.102501603159067,0.149734934662918,-0.502849194829956,0.191573059154853,1.97337684979254,-0.931118756678707,-0.10095551742936,-0.0543543369760279,-0.350382528613351,-0.150801162937338,-0.104543472627556
9.39,0.581628631522182,-1.51772217144563,2.46915940691356,-1.98418604437692,0.981422388323604,-1.35009607445238,-0.20523692216715,-0.053343469412354,-0.635448112430015,0.672721024369068,-0.76404825415156,0.83152916011956,-1.10001834321844,-0.0931292218097551,0.251042676876265,-1.03843370400454,0.0598439421106636,1.82616110614687,-0.970702364004116,-0.0988150846220472,-0.072422436446707,-0.44124479589751,0.000765610982517768,-0.1288863643941
9.395,0.462741277519493,-0.568360921868601,1.94698962613989,-1.50532398956281,0.377341841750421,-1.65567300120458,-0.160684862396297,-0.0575914735174002,-0.619495258692659,0.68423482795554,-0.543812599935775,0.863538135380833,-1.11931975408033,-0.104899370456274,0.385433847275643,-1.37720496754305,-0.0349503733020572,1.69726982347693,-1.02491656721502,-0.1077778222521,-0.0882370616786093,-0.537642802503185,0.15572354680234,-0.166926856411734
9.4,0.821988992570954,-0.221762520971758,1.77176601468798,-1.82525328298207,0.0487216327229794,-2.10408312355895,-0.124607732434391,-0.0620993991601187,-0.603024881609213,0.696167527436565,-0.316981656073611,0.895318780073676,-1.23649902853153,-0.201372526315031,0.428416936873034,-1.55265597538997,-0.113350015852978,1.59453166505948,-1.06729521200079,-0.110752998565075,-0.1032006510117,-0.618595990349043,0.239267842730903,-0.203107700793113
9.405,0.791345404534455,-0.338501638928307,1.74434940908863,-2.37804612574572,-0.381890463472028,-2.51429495684568,-0.0965956968225727,-0.0665474268861641,-0.586744994354894,0.709220292784446,-0.0851792100075097,0.927273565978147,-1.21957936183487,-0.356728413151223,0.457264528589899,-1.55761898504386,-0.175476645176469,1.51838072661929,-1.09806075274548,-0.0968924990771072,-0.112988612055141,-0.712383397315259,0.276867586023298,-0.234884778497157
9.41,0.76198432793637,-0.153135658403856,1.52888381787776,-2.2799439396028,-0.785897335536958,-2.73591764795771,-0.0761303019498961,-0.0706025987406977,-0.571200338214998,0.724111147552297,0.149927447881772,0.959814247810436,-1.26524889158567,-0.479515238593426,0.527439503176432,-1.5121382438209,-0.237871119065759,1.3748211042073,-1.11960739738135,-0.0845815855719309,-0.126952725150258,-0.837850423523276,0.270029900241515,-0.260175533379356
9.415,0.751417156416485,0.0690926364119927,1.37179917590911,-2.04471131987773,-1.13173976712026,-2.70007490542476,-0.0626290114116191,-0.07394033481624,-0.556787047883359,0.741552736314251,0.386664718938884,0.993329811997522,-1.2230587412897,-0.658332169806991,0.514065181062828,-1.2168315721694,-0.281714800532983,1.27344663337213,-1.1286798601197,-0.0772851873998899,-0.125408370342171,-0.956118957276881,0.225835510367246,-0.255697754399059
9.42,0.724510363788568,0.242666547277826,1.24394008291651,-1.78588577275839,-1.37226319913588,-2.54916383738987,-0.0554819305301699,-0.0762692305540343,-0.543773342638393,0.762239959667354,0.623389676024655,1.02816132911398,-1.14765628136215,-0.69699661243095,0.485813954783177,-0.878077052488837,-0.295609605551759,1.13323510150122,-1.12300623102785,-0.0688748565202519,-0.136492487615425,-1.05760623558654,0.17295150751002,-0.226426298391156
9.425,0.729926630903463,0.577196934086426,1.11098071825307,-1.59754475742919,-1.55759969363091,-2.36149081191677,-0.0540814327760624,-0.0773567255458044,-0.532319960268929,0.786841069594812,0.858523482106919,1.06458313760915,-1.08568971422621,-0.676331349188535,0.454766956687823,-0.490199667117981,-0.278221269412928,1.08096008229255,-1.10367834197648,-0.064890689106867,-0.140567066710487,-1.15089725202564,0.122183951285889,-0.160531942037271
9.43,0.68366464980671,0.815803796161042,1.04147450075743,-1.61882509335137,-1.68025140908459,-2.12499275212382,-0.057845872635136,-0.077050618242794,-0.522498090443949,0.815987364393456,1.09057887237021,1.10278916473614,-0.991174137277058,-0.614470952192617,0.409003540436621,0.0276155286011048,-0.211699326728622,1.06515934982083,-1.0855988828318,-0.0650716189697285,-0.144832093049368,-1.20136662769197,0.0951263053778956,-0.095895509419833
9.435,0.591919396345849,0.882923826868043,1.00090166945321,-1.73355819277355,-1.83344333678731,-1.6956747379825,-0.0662383469684321,-0.0752928585881829,-0.514304844529128,0.850260351982868,1.31818065128438,1.14288394832198,-0.91773167793161,-0.511797359449351,0.370683352312743,0.510709818341006,-0.120706988663657,1.04907096156816,-1.057835670266,-0.0647707989291701,-0.150786754024977,-1.22743633468956,0.0798880022540986,-0.0407174878892434
9.44,0.540503761194301,0.897660192985686,0.944759315079692,-1.76019549369812,-1.95573468677058,-1.32535152399811,-0.0787812331519927,-0.0721254715448984,-0.507676733047714,0.890177565106215,1.54007906455422,1.18487836001454,-0.849268252003699,-0.405675005803225,0.339052402713053,0.985749055194091,-0.0301519788716834,1.04154987638984,-1.03508629451255,-0.067096332345865,-0.15440246654348,-1.22637882037989,0.070429850437473,0.00741455472402389
9.445,0.493494720519085,0.923915864381237,0.873779597761539,-1.7316858979951,-2.09074215250171,-0.865664957867414,-0.095066451339997,-0.0676903433084488,-0.502501863996643,0.936178253985474,1.75515631428605,1.22868962125185,-0.780229187844487,-0.311002425736813,0.29187595329245,1.46684694333631,0.0535742425743703,1.00385358051404,-1.02476683758651,-0.0746027821852635,-0.160586885571331,-1.21404898008761,0.0608762275472665,0.0242313103723461
9.45,0.447143158206517,0.935008062707328,0.820995323046414,-1.68992615888588,-2.19071740538864,-0.450961769062285,-0.114760226997158,-0.062224368013723,-0.49863172831183,0.988609310220123,1.96242681083795,1.27414458612085,-0.732493979456212,-0.253065472688528,0.244041033187346,1.77864041715251,0.105132171086863,0.965131015430078,-1.0184811104222,-0.0793395762921798,-0.160020880200484,-1.18990985912883,0.0413194642992719,0.0196221018939611
9.455,0.386218587269495,0.933852789549891,0.804551803828607,-1.63637415222655,-2.26866354327813,-0.0502197214413453,-0.137601123955687,-0.0560505591751009,-0.495892571725747,1.0477110375883,2.16103211364454,1.32098496676603,-0.68670452767603,-0.212692950236882,0.200160618550259,2.04994732775002,0.144012245859189,0.910202103987691,-1.00926278104628,-0.089085459340086,-0.150555217016095,-1.13904139330215,0.00339026384653853,-0.0143841405439767
9.46,0.304198079034126,0.909074374472356,0.796827855773694,-1.57827214690959,-2.36001827527995,0.397468555903309,-0.163391612082991,-0.0495644067299593,-0.494095523024898,1.11360229335169,2.35023174273513,1.36887336138831,-0.658869944944652,-0.200042535356641,0.163000210210033,2.18737432241221,0.152913189521331,0.869548131312912,-1.00890419498901,-0.107331482197484,-0.138037168073338,-1.08453980717283,-0.0429202362180957,-0.0600004711186664
9.465,0.219230660598279,0.904707008016422,0.804140893114833,-1.52968203445581,-2.46964446167432,0.805561642844848,-0.19198467934205,-0.0432126160183985,-0.493045486171653,1.18626590971841,2.52939124795808,1.41739982366196,-0.648533743699846,-0.203053902401976,0.128676934181139,2.26474335296851,0.145598100853615,0.810836277371703,-1.00009964338417,-0.119504820091314,-0.119394621872675,-0.994352510949009,-0.0866888014450323,-0.116130974428218
9.47,0.151201603909171,0.88907840891284,0.792320149141067,-1.52791928166615,-2.57644258008071,1.14752784638476,-0.223267028772469,-0.0374605848939776,-0.4925501841416,1.26553839042682,2.69796932336607,1.46609022198687,-0.634350935990507,-0.209294039841076,0.100829150389269,2.27605474768055,0.138483624039491,0.730219579787216,-0.980188407396523,-0.134737894744088,-0.0953437774218051,-0.903231555548727,-0.115013434386648,-0.167853000091327
9.475,0.0921028333242914,0.847692734274432,0.793261524783427,-1.5336773668421,-2.67372494616478,1.434553311266,-0.257140283058702,-0.032749083329352,-0.492430043130527,1.35111035694723,2.85550606209674,1.51441860056467,-0.64502824611024,-0.21289675678686,0.0751955966816841,2.22248013643901,0.102297368818656,0.652343233585363,-0.956258163183462,-0.146019360383408,-0.0825582615602495,-0.822157628500518,-0.113215494734075,-0.181000222632403
9.48,0.0300500251883096,0.815535487601921,0.804206900270873,-1.53621134969904,-2.76937118051704,1.71720117432724,-0.293502167353037,-0.0294481805687416,-0.492526809677419,1.44254229261126,3.00161400525689,1.56182448369529,-0.668236671746837,-0.217747963671084,0.0469993461412326,2.14519242380289,0.0636861975032448,0.562921374482948,-0.942274765028662,-0.160307035562908,-0.0761392276570949,-0.741891983899253,-0.108639519881287,-0.18227681801703
9.485,-0.036911356517227,0.788054082918525,0.830695123529436,-1.52995870696649,-2.8543737539519,1.91239877404857,-0.332230115140806,-0.0278203923432515,-0.492706948821703,1.53929336595034,3.13597237615707,1.60773279157426,-0.701648100604204,-0.211331160682218,0.023493798793727,2.03451934776549,0.00945179612963129,0.462438961402483,-0.924393883468006,-0.170354987387469,-0.0700759813988968,-0.716782614611325,-0.110119500066702,-0.180402482566641
9.49,-0.135578948434613,0.779487961247867,0.868567476277095,-1.50919186256977,-2.96826227403709,2.12448709838968,-0.373169348086443,-0.0280012707180133,-0.49285710214842,1.64075438307646,3.25832360782077,1.65157154611435,-0.726313340679827,-0.194311086105294,0.00891972224115948,1.92273357190193,-0.0469953366655467,0.387250978336657,-0.907454992850748,-0.169919570738843,-0.0666569853259824,-0.770087441313893,-0.121610156310945,-0.187638576413206
9.495,-0.202769149817577,0.792335721482194,0.882859731603309,-1.49287535704808,-3.06227338431283,2.25949089135193,-0.41612647238092,-0.029998110880945,-0.492872188675517,1.74627429406072,3.36847068038317,1.69278315897684,-0.752608203418323,-0.168279456401417,-0.00610308040906861,1.76023369895438,-0.110203324366085,0.306445916846592,-0.901407316293005,-0.181278960071426,-0.0627239307877055,-0.852860930975547,-0.129557619095689,-0.197086671962416
9.5,-0.283899386374081,0.843361086381244,0.869296479266209,-1.52338209137782,-3.17213273685429,2.4178087316518,-0.460868551148669,-0.0337014257012615,-0.492640091924315,1.85517363566439,3.46627387102869,1.73082826761215,-0.779395727744782,-0.136784848195468,-0.0199820642720107,1.58817509776936,-0.188055546290805,0.257845612205234,-0.8853605647579,-0.18995208660226,-0.0643144538008408,-0.902983671443611,-0.11922396463912,-0.197565937847979
9.505,-0.368707105785767,0.889330764797013,0.848503626614337,-1.58001234246412,-3.25868891541157,2.56493786329642,-0.507126636078447,-0.0389012437431107,-0.492028481862482,1.96674481664705,3.5516460134601,1.76518448250709,-0.796812640373594,-0.0891482191047945,-0.0305444596375468,1.38242820855476,-0.255444655000047,0.210830016789552,-0.877522805279345,-0.198241594823078,-0.0666254624172704,-0.927891679121103,-0.0949447049216145,-0.193341580319708
9.51,-0.454097375022388,0.91781992274273,0.81899882767322,-1.63708364672257,-3.32108020856719,2.70322489076035,-0.554602039793256,-0.0453022124102144,-0.490877483970249,2.08024414803726,3.62454604901531,1.79534390877318,-0.800652133537114,-0.0611097047847543,-0.0190283918661549,1.17312810652868,-0.324390745249463,0.156064887780864,-0.867399126383008,-0.198358921319821,-0.0682602788377696,-0.92732988746496,-0.0622866731825352,-0.18897554913869
9.515,-0.522907252413782,1.35495713222439,0.776218558306694,-1.50332699387318,-3.40930026538963,2.86652578369094,-0.602973508992321,-0.0525373724501774,-0.4889983169183,2.19488092558597,3.68497119666878,1.82081240081891,-0.804160365979548,-0.0306110629646634,-0.00853900213009095,0.987037161768668,-0.384819793583254,0.115198612401435,-0.863811628804669,-0.195805772003549,-0.0698317856177087,-0.917263547923865,-0.0170305409284817,-0.184719970001132
9.52,-0.700801621038233,1.03719251494731,0.694772229395088,-1.8619022334184,-3.34476659902797,3.10494073104857,-0.651904003927174,-0.0601843115479119,-0.486177762117426,2.3098063037869,3.73294844953125,1.84111183526472,-0.792228897167411,-0.00685924720187959,0.00886464795894819,0.768096875282426,-0.45602537826204,0.0451412735224496,-0.854276600844828,-0.198236901834306,-0.0720086880557735,-0.91835843367031,0.0623799575706814,-0.19009053903413
9.525,-0.783618241520844,1.04480664418092,0.657575821284094,-1.86721444480283,-3.37279742330351,3.32667880998781,-0.701046696097543,-0.0677843420081433,-0.482190959023952,2.42410427381183,3.76852670835039,1.85578602345045,-0.777624738096934,0.0075789015523169,0.0265599015777519,0.613858006523027,-0.51228910604018,-0.00748123284380836,-0.859578291151237,-0.187547996234157,-0.082051132013952,-0.934255489920224,0.1200687756877,-0.199942545822362
9.53,-0.899426434844322,1.13074504028247,0.593589385898768,-1.91168348627416,-3.31328319778256,3.5788343527844,-0.750050437979751,-0.0748609512979339,-0.476823213898502,2.53678920888247,3.79177133924699,1.86441066201385,-0.762837953092381,0.0170720260420785,0.0413416334427522,0.505288661450734,-0.560375646193582,-0.0819949238755402,-0.873420262111977,-0.17707628573996,-0.0894394614572585,-0.97049707494286,0.166333710244656,-0.212227503168567
9.535,-1.01786528869982,1.18647300505522,0.511390673210631,-1.98734777589066,-3.22068768583774,3.9229379191685,-0.798564783171539,-0.0809358598863846,-0.469894656880417,2.64681367677607,3.80276223120307,1.86660650761524,-0.738807171668881,0.0185449744373851,0.0540346351830789,0.408704255607989,-0.619299517880732,-0.192597895209117,-0.894120788174133,-0.165231373516839,-0.104584979793593,-1.02565482777159,0.193346469311041,-0.227374948860965
9.54,-1.09991702693843,1.20286963420684,0.458735745705222,-2.05304349448663,-3.10567084891879,4.21333165124467,-0.846196203667518,-0.0855484643711751,-0.461333349942168,2.75308489016683,3.80159472398172,1.86205340772606,-0.719252619132373,0.0113422817229011,0.0537915619659871,0.401791205226855,-0.648370827818703,-0.292698705629101,-0.906469599328465,-0.15601076410951,-0.117353658941296,-1.06251391185251,0.17773883262989,-0.232334494590759
9.545,-1.21209734544754,1.21053247175217,0.422614308702946,-2.13062282292162,-2.93641890602566,4.57043999854042,-0.89214111751023,-0.0882971192450377,-0.451637551544858,2.85448374480451,3.78838176216915,1.85050258875953,-0.696600951302249,-0.0121616741572329,0.0435891946451118,0.446283237085679,-0.676954634247342,-0.427729864040032,-0.921357625375582,-0.145816706247351,-0.128946079663404,-1.10091686021851,0.125291833877353,-0.2287081694363
9.55,-1.29778436599792,1.20376874182168,0.406961854750684,-2.17498192287405,-2.77037032594811,4.87868454873562,-0.935531086033599,-0.0888529775155147,-0.441566590023313,2.94988089081212,3.76325615726128,1.83178568610386,-0.685909722457482,-0.0492299310589929,0.0463567631492843,0.555328707945692,-0.680794474539748,-0.571167256359326,-0.934978109357688,-0.133361178823505,-0.134911721441741,-1.14240051582305,0.0396616062349283,-0.21409006665156
9.555,-1.37738549942124,1.17171086615256,0.396655657835434,-2.23617277647802,-2.59661650123384,5.17081754904503,-0.976397242715758,-0.0869672347928735,-0.430927454171607,3.03814763075423,3.72637295999722,1.80582016482508,-0.674987112805446,-0.0920147567132081,0.0451117859127826,0.712815621421697,-0.674750423899101,-0.716088190113436,-0.94727161490601,-0.130344549072088,-0.133111546656609,-1.17239099706493,-0.0479826665211186,-0.198211494586692
9.56,-1.44337126494305,1.09410231845279,0.396140644303486,-2.28735636876985,-2.39714241385098,5.46341335631474,-1.01515727545338,-0.0824811494866354,-0.4190105268946,3.11816218738715,3.67791249093051,1.77261144798914,-0.667728104066329,-0.143175025353455,0.0422035679144788,0.958474580411195,-0.642802661400181,-0.900885021314849,-0.948975419000037,-0.129460998593959,-0.140190534697254,-1.16992824770777,-0.121694819511478,-0.175331076116207
9.565,-1.47602190277692,1.01174388008163,0.385612698865325,-2.29095539530194,-2.2313237033425,5.66674542357499,-1.05179451070172,-0.075312145138579,-0.405608290741213,3.18881312165341,3.61808443737734,1.73225243431799,-0.680118186103815,-0.205978062457796,0.0355975137650179,1.18295488965871,-0.611871698334009,-1.04755526417198,-0.946875648138372,-0.130930710392248,-0.135654383490244,-1.15667064772347,-0.183969145667396,-0.159069081647489
9.57,-1.48974143543775,0.87714717519799,0.393473667524959,-2.26284596944292,-2.01025005593324,5.8484053471229,-1.0860634123246,-0.0654663219368973,-0.390837764287977,3.24900225853413,3.54713312421947,1.68492132287972,-0.691440430512303,-0.253008293118786,0.0291074117303062,1.45313095317149,-0.571830787061326,-1.19411555139957,-0.933790936671431,-0.132092716332383,-0.128585408125109,-1.13988286727673,-0.235603507509769,-0.135548276701042
9.575,-1.5219624739618,0.798194167848583,0.41933807500285,-2.1698651713646,-1.84614855346153,5.91022086077678,-1.11771140249685,-0.0530505876828361,-0.37488111737679,3.29765033837433,3.46534399195931,1.63087874792655,-0.703028881186355,-0.300354959362456,0.0128202227955682,1.80363623727324,-0.516693957843577,-1.37130971145719,-0.917342045978028,-0.143609191607037,-0.120442582687481,-1.13223865518401,-0.268225190263659,-0.117568732138786
9.58,-1.56949974527178,0.737373349502595,0.447902590947507,-2.09355745134027,-1.6818242628063,5.91370611212453,-1.14649479591525,-0.0382680670862576,-0.357988138289606,3.33370978334712,3.37305148959122,1.57046500360835,-0.725515799913549,-0.321602185910129,-0.00985993702659749,2.07024622766188,-0.477460508303753,-1.50384291561307,-0.916782271160118,-0.143327180988767,-0.116693646123939,-1.14559008985197,-0.258315217004924,-0.110165029764175
9.585,-1.62911011471913,0.678911197028238,0.475543720734784,-2.05252276976693,-1.53759461361715,5.85566585904031,-1.17223144327212,-0.0214068284946108,-0.340499396925715,3.3561889528374,3.27064859311131,1.5040973723508,-0.761395823705637,-0.336491382084756,-0.0470284467998319,2.34873581112624,-0.436402998138209,-1.63898273437847,-0.909760545560151,-0.145733565757806,-0.124346944150308,-1.1614373863506,-0.244638383636655,-0.110165029764175
9.59,-1.69596135577754,0.605094605411556,0.480761906614974,-2.01493703539287,-1.42818064328773,5.74186341775264,-1.19478787973044,-0.00282258727266325,-0.322819947358638,3.36418908789636,3.15859739912193,1.43226639239558,-0.805703305427586,-0.338980290761204,-0.0934291908527055,2.59727840257534,-0.39880469539648,-1.73956627284642,-0.910977652922996,-0.150500858111476,-0.131417496128163,-1.17626172123646,-0.219499233892542,-0.111046536555812
9.595,-1.72177769941953,0.570328249703997,0.462516572167563,-1.98026334939901,-1.34967900704528,5.60836224328721,-1.21398407314905,0.0170803396579826,-0.305343805958204,3.35694916064085,3.03743888389394,1.35552912473389,-0.843749142289543,-0.330399804759456,-0.142715081032108,2.77823851747514,-0.363729326921766,-1.79387515184703,-0.915689296303318,-0.155786491075997,-0.137648651512573,-1.18768886000707,-0.188499946280511,-0.112517450341079
9.6,-1.73097688309102,0.534660389708137,0.4373921890465,-1.96162164729747,-1.26080399949921,5.45941086201166,-1.22965250488016,0.0378646094089275,-0.288465151192835,3.33388920144683,2.90779927265218,1.27449807820872,-0.899745458822004,-0.273623697708376,-0.221010952171384,2.98171527144176,-0.31817875469279,-1.84611157124946,-0.922800944939597,-0.165421688527791,-0.139211237586945,-1.17347209326231,-0.146892249758886,-0.110250087562421
9.605,-1.74508736876983,0.501486888600969,0.424480269242764,-1.91121821741691,-1.16438271257567,5.26199170463111,-1.24174967622843,0.0590696493481361,-0.27260767384269,3.29464451886352,2.77039163499624,1.18982643707886,-0.956033130784519,-0.20435660215812,-0.282405504975832,3.12828741802028,-0.279035894215619,-1.88372858802058,-0.927628267559034,-0.171400913361838,-0.1357731163994,-1.16550430517038,-0.122048781900886,-0.103570666422649
9.61,-1.75449426022521,0.488954122146086,0.414657524058226,-1.83472187864216,-1.07920117383285,5.04504439431702,-1.25033593930095,0.0802170347733948,-0.258185892935399,3.239091052235,2.62601345077921,1.10219204253919,-1.01051319491248,-0.0842072412560451,-0.350588405769742,3.29469825897754,-0.223975734691401,-1.89195954802418,-0.928809615148459,-0.181345725473334,-0.131335431010081,-1.14969131558571,-0.0898700230051804,-0.0940269984183805
9.615,-1.7332117328715,0.506343739285571,0.390181068522828,-1.77921999352078,-1.00566775861705,4.90344925350575,-1.25554021851978,0.100815842480136,-0.245572170775905,3.16736740180561,2.47554172722651,1.01228240866342,-1.04728884500815,-0.00789260404434823,-0.38213850085617,3.41799382604486,-0.182026332121652,-1.85094682130579,-0.926691544775987,-0.18191185085459,-0.127849760852657,-1.11768398492759,-0.0449391632962146,-0.0869737728352888
9.62,-1.64097333124676,0.549638976599506,0.343710256166894,-1.74165635737761,-0.900856909740405,4.69419948184312,-1.25755586840429,0.120370752618099,-0.235084967116951,3.07989520087585,2.31992603957496,0.920781313278044,-1.09709010862167,0.140977632209874,-0.398380750138723,3.51230234697632,-0.145464964997897,-1.77124217655478,-0.929437027822566,-0.182929381614998,-0.117267491228973,-1.1022090633598,0.0118841751591467,-0.0864069495774163
9.625,-1.61276447440893,0.541257197722358,0.322312439819918,-1.71673155019068,-0.777700153450713,4.5175818842829,-1.25663449586512,0.138392558881606,-0.22697563692512,2.97739161394771,2.16017848711981,0.828356443918941,-1.13105148190687,0.253988444386905,-0.38899449949944,3.55268491305392,-0.118326065538383,-1.6937074683561,-0.937768902344981,-0.188751870953352,-0.119367763186156,-1.09253282351239,0.089972416046935,-0.0845094472169876
9.63,-1.70347084157784,0.461778559750547,0.333016437807868,-1.627085798517,-0.663851557641531,4.38855227902915,-1.25307416281381,0.154409419421937,-0.221414352064479,2.86086580046502,1.99735988882807,0.735648139880669,-1.16440837533122,0.378622046779845,-0.373099813254884,3.48517083139117,-0.108136727827768,-1.59401600295984,-0.941595457905959,-0.193053062082549,-0.123493775666015,-1.10988727128856,0.16333711788159,-0.0809567579782886
9.635,-1.75939305714298,0.455834249862078,0.309404072629641,-1.42802479915653,-0.585299025298626,4.18085058549277,-1.24720391597707,0.167977245310975,-0.218477057193001,2.73159669028275,1.83256317648548,0.643260206863146,-1.22175817408818,0.524394122885854,-0.330597207036785,3.26131102979715,-0.108992362222552,-1.41874690935445,-0.955272301168988,-0.19228374533966,-0.132302360587377,-1.16271104438337,0.204412507401986,-0.0857243866931832
9.64,-1.6504080350704,0.494779488114848,0.214477559793953,-1.3057023843499,-0.536699125544961,3.99511673461557,-1.23942140506571,0.178691415068186,-0.218037967323072,2.59109612244253,1.6668962193413,0.551753867038439,-1.25492320271012,0.626785284040876,-0.31707781653425,3.06247811474915,-0.11989625728451,-1.26190786675642,-0.96370132273848,-0.198367417372028,-0.127710359551666,-1.24871943224504,0.239537579133303,-0.0862861296061329
9.645,-1.56090548302557,0.50571012187703,0.0992505995223708,-1.19460143582185,-0.410943157356245,3.7709613231055,-1.23013662676772,0.186193246882106,-0.219837304788511,2.44106442620413,1.50146626446232,0.461645259143996,-1.2955032047069,0.764306784753049,-0.278310905186368,2.66519547807442,-0.133032768957958,-0.957907757462939,-0.971164748660592,-0.209701453889831,-0.127887626552471,-1.29231463431603,0.254544604177148,-0.0851106317958975
9.65,-1.49795513090431,0.48681310261718,0.04931303130352,-1.05517549669387,-0.258086602156487,3.56631033829743,-1.21955678196404,0.190176632429678,-0.22387976903174,2.2833447656687,1.33736705300907,0.373406196146532,-1.3228517572413,0.888117328684523,-0.241534608528905,2.42493117950383,-0.147737466276744,-0.75157161314139,-0.981375404365842,-0.217048293950652,-0.124001141970593,-1.32763224949708,0.25454453948842,-0.0784124714504333
9.655,-1.44873566707468,0.460883120210415,0.0330282682804083,-0.842440024048827,-0.0985244866874426,3.36733641509433,-1.20777432905725,0.190403700132844,-0.230290664185368,2.11988003488163,1.17566850218717,0.287467429268859,-1.34165328598606,0.989790061849342,-0.205051966903071,2.1135495907945,-0.173397112539517,-0.489823977749795,-0.988631340070071,-0.218952685476575,-0.111428862414869,-1.34601238107826,0.24720429015087,-0.0649651613255519
9.66,-1.40592709053451,0.427749913985195,0.0200324987481404,-0.540975039086083,0.0660461066255945,3.1445818992914,-1.19502293376345,0.186717988723761,-0.238815527620724,1.95267341184331,1.0174084702288,0.20422335359846,-1.35949606628103,0.953313793642549,-0.171734897728797,1.83282492232795,-0.181762271838187,-0.303176444408335,-0.994337055950198,-0.233986167025129,-0.105809335135948,-1.34461571523366,0.232364768425481,-0.0413378652242699
9.665,-1.36869990829223,0.411066818076615,0.00308729689670422,-0.264627169908069,0.214762443480459,2.95369603518872,-1.18161599914955,0.179058604030637,-0.248920600164234,1.78375181923678,0.863586378911933,0.124036861705339,-1.37481546328936,0.850601087916314,-0.146303638737549,1.55278670480268,-0.196168513505982,-0.165033643296572,-0.993982867653411,-0.2378008171378,-0.0993916757405874,-1.33321111544799,0.215505213387049,-0.0131588837603986
9.67,-1.30712661888289,0.382377207447955,-0.0304051437957844,0.0862584477107462,0.404037997801183,2.71625042014365,-1.16782674078935,0.167470604594437,-0.260044486756045,1.61513100343374,0.715158586077162,0.0472431063731158,-1.37632767501851,0.706483258112396,-0.139482391478178,1.39751884456736,-0.202781671800806,-0.110302470053857,-1.0041401402046,-0.23995099565008,-0.109423049481632,-1.32377381421894,0.195985266958701,0.0085901876868147
9.675,-1.24888777378471,0.326191663493488,-0.0429140278724631,0.375278670324881,0.575971295763926,2.51672115380601,-1.15388784832364,0.15210492640631,-0.271633577977868,1.44878150840308,0.57303508312445,-0.02584859200887,-1.35831811459337,0.594639069765392,-0.158110166220845,1.31593728065491,-0.206033666318209,-0.148359887029063,-1.00936578965836,-0.234722799067366,-0.11559524273942,-1.31428795763331,0.178855394978088,0.0265850854633267
9.68,-1.21203070735983,0.312460532933187,-0.0166799141930822,0.685067803493837,0.793756144032632,2.30813001657482,-1.13999730113866,0.133215447156235,-0.283164271050749,1.28659558906996,0.438076634199535,-0.0949547924922486,-1.31013351056616,0.500307367757126,-0.224000478767687,1.34130101379584,-0.205285586241536,-0.21207000871044,-1.00835361200261,-0.23309301613097,-0.142316615714867,-1.31219817085492,0.14681485982673,0.0452219059462753
9.685,-1.19755307862938,0.337570180378416,0.0454279246693108,0.955253628591059,0.98632936965651,2.0899085570171,-1.12632231559019,0.111154171504207,-0.29416316991792,1.13035505339764,0.311091070767577,-0.159819574010417,-1.27842429424229,0.445240017500583,-0.295788147255437,1.47327597567702,-0.204737796988771,-0.24488416814431,-1.00959529539083,-0.238321661485788,-0.154322076052495,-1.28280544185245,0.123958664071744,0.0679819404595691
9.69,-1.20780071174798,0.365862405004619,0.102644738204172,1.08312107813915,1.13193350865373,1.91467475382279,-1.11300317299314,0.0863636212299377,-0.30422140677599,0.981698379655841,0.192827036835023,-0.220217389495939,-1.24020537192997,0.428649308900011,-0.381514366070776,1.67385328853113,-0.205651906100767,-0.211097211196606,-1.00949387714193,-0.240497920480294,-0.164360893964588,-1.233409531198,0.0868747843497174,0.0890665478749124
9.695,-1.17975572385331,0.430981034144205,0.160494397787602,1.05088274732077,1.26877978305764,1.68905192791016,-1.10015926541496,0.0593649670041117,-0.312999612027834,0.842082206222219,0.0839631521700478,-0.275957149781438,-1.19149095099586,0.422598462865605,-0.45323453715671,1.83319529547241,-0.205074114086228,-0.100651515968782,-1.00410699158516,-0.238858579968964,-0.176557420717363,-1.15145502893653,0.0589654736599619,0.101809683727778
9.7,-1.271696020237,0.515381022126747,0.239289123608827,0.749864607873747,1.3998552668268,1.44010568221634,-1.08789799194324,0.0307417479795281,-0.320221846760366,0.712729106095335,-0.0149092679632503,-0.326888092105813,-1.09858926384701,0.345688693053949,-0.511017225879409,1.86665514040807,-0.219675127328459,0.036405813887819,-1.00013571741422,-0.234591558132636,-0.179824335624433,-1.07839821981665,0.0439833646362893,0.116395100277468
9.705,-1.44342824086756,0.554369021488562,0.419465478285169,-0.206769967198075,1.49802913303267,1.06008573954213,-1.07632419420486,0.00112151040113764,-0.325660901526944,0.594554768965835,-0.103310696044376,-0.3729081744298,-0.984846015647358,0.24814092645614,-0.541656447416098,1.79447316213072,-0.218472304115845,0.138606898821521,-1.00412484544188,-0.232004368505349,-0.172273160130635,-1.02364158551962,0.0324031033462036,0.117702851870823
9.71,-1.57445440173116,0.138472490068445,0.651257110930375,-1.47836011368924,1.36733395556904,0.652264500005223,-1.06554517299409,-0.0288408676351037,-0.329124454583927,0.48807948526375,-0.180903446259708,-0.413974896473132,-0.905911306084002,0.181557405753865,-0.544860145993073,1.69015253150101,-0.220558113857581,0.189886314801302,-0.995604105743164,-0.230501106461046,-0.16478954695391,-0.966848099531979,0.0123988305798249,0.110687399964086
9.715,-1.67453302838875,-0.550630586877833,0.820892858698937,-1.78433580334011,1.0777591070243,0.354007233436285,-1.05566637657148,-0.0584763615220754,-0.330456668934433,0.393351458572997,-0.247522151934944,-0.450116308782271,-0.844389546991764,0.111950692354472,-0.511182352582878,1.54725490595627,-0.224052731698305,0.237096340732968,-0.991128781012117,-0.229891127887287,-0.163626224745606,-0.91091544469088,-0.00814939586366776,0.0888761554656707
9.72,-1.75913241107796,-0.920757105308978,0.884573291649558,-1.58808467587999,0.777782567929261,-0.00962881873766613,-1.04677777805857,-0.0871144553137944,-0.329562771380242,0.309925865612643,-0.303196787243838,-0.481437886453384,-0.829367484263995,0.0538326540060092,-0.464262870744439,1.3950522252001,-0.238712039716105,0.262298886152345,-0.984142432749016,-0.219748043650574,-0.16750835617739,-0.857962698089589,-0.0138405476391661,0.0581065830600089
9.725,-1.85349938054278,-0.918229112819586,1.21564809876744,-0.882571676319892,0.349648405678534,-0.352177445480852,-1.03893788012677,-0.114100784839478,-0.326444882254241,0.236928397556407,-0.348161451903937,-0.508121506959378,-0.823301795086137,-0.050314937724377,-0.387941007846941,1.09979058038325,-0.275496183842229,0.24484988528207,-0.984731690537349,-0.208917730195234,-0.158447073872045,-0.829881169796277,-0.0282488106979151,0.0194069625623037
9.73,-1.74647212690353,-0.335199648469424,1.43984489083375,-0.153304841419598,-0.2372091341803,-0.579878411754446,-1.03216367679703,-0.138821493043867,-0.32122396135198,0.173187496745358,-0.382847449646613,-0.530416449860881,-0.828560717392702,-0.140541038505963,-0.323007695602488,0.820138064887128,-0.317971466942317,0.195010313686769,-0.98594033185628,-0.20047162812336,-0.14580695641384,-0.826066193899705,-0.0488614600816766,-0.0157799863363499
9.735,-1.08933855447598,0.232214546965894,1.09054052274404,0.164882686382817,-0.684546610295763,-0.629849753791579,-1.02642879802983,-0.16072936429423,-0.314130923839483,0.117385081917288,-0.40786467630197,-0.548625789684643,-0.869998083192077,-0.200356829047707,-0.230435413289009,0.353448003713866,-0.41547541283541,0.065500103542757,-0.985183659841892,-0.196366692176921,-0.139073466966275,-0.841423014429062,-0.0789249209282199,-0.0331688837120438
9.74,-0.441151015132823,0.679190292573398,0.826694058423792,0.35701641304746,-0.712431306851457,-0.450710333069648,-1.02166628606028,-0.179364690574338,-0.30547088970109,0.0681811627087755,-0.423976826780406,-0.563091654347016,-0.914730926838039,-0.202033730447784,-0.143468310833301,-0.0468468627249283,-0.521167067785394,-0.0526106681556949,-0.99548767162709,-0.174141399828171,-0.137786094875913,-0.875305039164965,-0.0925845643589842,-0.0270526983100059
9.745,-0.208783497056779,0.893011326970706,0.875837536890269,0.094761044076663,-0.174046939756313,-0.227197693899079,-1.01777333244332,-0.194367653986863,-0.295577503536012,0.0242979886240317,-0.432073656833637,-0.574180707781166,-0.970396494030455,-0.200486766943164,-0.0430891807776459,-0.253513729144392,-0.606270963163515,-0.160954359293538,-1.01169885332596,-0.155071811845074,-0.142870176920568,-0.892729722739942,-0.101565155131561,-0.0136806068789057
9.75,-0.0862996394576231,0.790904629250358,0.991458241369882,-0.190453046595329,-0.449674598726699,-0.00163212152286728,-1.0146188741639,-0.205483821685378,-0.28477341648649,-0.0154275118205293,-0.433140651560431,-0.582269955366208,-1.01381631893421,-0.217985119509006,0.0212118178625932,-0.357401598699015,-0.681419795999187,-0.275699872863576,-1.02655881858478,-0.12929695227589,-0.14233545974366,-0.912495468787699,-0.114947181745124,0.00304004637608072
9.755,-0.162211578372821,0.353131805870297,1.11048867882066,-0.432853198712012,-0.401406356626238,0.0736216233445627,-1.01205494549483,-0.21256642115345,-0.273346635380376,-0.0520071312191221,-0.428225169380412,-0.587733208480512,-1.04833621179203,-0.244258946722206,0.0427154716837029,-0.41163218237344,-0.737718581170083,-0.462326143733995,-1.04248038376374,-0.117703499212682,-0.157259483721208,-0.941460110994545,-0.125361698461907,0.014395559840537
9.76,-0.240790675816073,0.0378012969974404,1.12214565894473,-0.35093441013973,-0.334602079667614,0.0913741257278275,-1.00993022620441,-0.215578129091367,-0.261544912943772,-0.0862669730744891,-0.418398875154043,-0.590928878766519,-1.06734347834596,-0.231352903110175,0.0188891731945819,-0.450003525332125,-0.739237595676154,-0.609332720224216,-1.05856957146531,-0.0909103770379938,-0.157619115253812,-0.946521103382111,-0.144169308330095,0.0262326866113137
9.765,-0.406759712202856,-0.0871854094433721,1.11708018034425,-0.16856730163389,-0.234463156268549,0.103786576014365,-1.00810333013932,-0.214592031551394,-0.249581261299314,-0.118811693054925,-0.404718614985769,-0.592189652955112,-1.1000982001081,-0.169654235349495,-0.00759148176037738,-0.554557230322249,-0.709673620668126,-0.711756518488447,-1.06655596590745,-0.0592274021318765,-0.154852737165793,-0.946521103382111,-0.163202216611068,0.0376178667462962
9.77,-0.471238908885913,-0.0660665707051401,1.05077222902832,-0.0270119491990816,-0.179307798549132,0.100971115517369,-1.00645376718869,-0.209788745927465,-0.237638762642461,-0.149997438849919,-0.388190275644399,-0.591814400560551,-1.13033179644015,-0.0837593106879643,-0.0292132839463767,-0.660146484757523,-0.651398557221732,-0.738198377611992,-1.08244876338017,-0.0323519478715259,-0.152963188791084,-0.941935574469959,-0.174894244265974,0.0590545616232664
9.775,-0.45351475627767,0.108622120627699,0.962974401980485,0.127585957088184,-0.108647324158624,0.121643378131519,-1.00488911414429,-0.201447697582782,-0.225868158222958,-0.179926351613883,-0.369740373998558,-0.590062355357614,-1.16219670401478,-0.016260200426079,-0.0464367826976311,-0.707304990484383,-0.57708325015552,-0.678439714955253,-1.09046085738466,-0.0136624405692708,-0.165202725991015,-0.923206481069534,-0.18401432746886,0.0951616026115658
9.78,-0.419640147163235,0.166142389856177,0.91614931674337,0.159791651612876,-0.0380299579140891,0.172607471910922,-1.00334887543948,-0.189934005536697,-0.214380818702659,-0.208466112943964,-0.350197788332136,-0.587149470344082,-1.2025604631921,0.0235620279247298,-0.0574974703202471,-0.649383627531124,-0.478812483854828,-0.563455764124555,-1.08701140829404,0.0147198929853503,-0.184994914803097,-0.895641696066057,-0.17046057493783,0.118154001870073
9.785,-0.427299386791239,0.126561381611312,0.92267110746805,0.183667605232232,-0.00640640195258252,0.216540268980598,-1.00180698380731,-0.175683499755258,-0.203243477130189,-0.235292513379683,-0.330285255044207,-0.583247511673776,-1.22032646978993,0.0129753092037108,-0.0470054734640327,-0.581812611889994,-0.401347098638097,-0.478774194558676,-1.06062303695692,0.0296920896007962,-0.204977170061154,-0.882384238117679,-0.141307838385583,0.13172879866137
9.79,-0.429299210064441,0.0879630024100532,0.898471919210348,0.208862134756741,0.0128130815716215,0.259034063623139,-1.00027242709335,-0.159186477374398,-0.192481692587993,-0.259952038339145,-0.31061834277065,-0.578486770216967,-1.20718041633538,-0.0236617968429341,-0.0150351946805662,-0.496300683444852,-0.295177934332644,-0.451320284598594,-1.02810471820643,0.0457549867885432,-0.216950118812531,-0.875666550534664,-0.11137764256464,0.127766568716698
9.795,-0.46471921794467,0.118409092773369,0.888895781519281,0.239903847722517,0.0275037354566576,0.301754935193254,-0.998784278329015,-0.140970025494025,-0.182098533378281,-0.281930292760143,-0.291708236081574,-0.572961541099488,-1.16169293793444,-0.0563896142531977,0.0325024380054296,-0.410772558534361,-0.209780512353995,-0.490552050969845,-0.9917650421338,0.0421446423723121,-0.216464601789966,-0.883703579145739,-0.0839323137251803,0.114043904296968
9.8,-0.470314996326239,0.149488293476452,0.871131838196623,0.249239962233107,0.0331589780336794,0.342094129388034,-0.99739965290725,-0.121579907420593,-0.172105737355814,-0.300701453160099,-0.273964535776484,-0.566735596267291,-1.08139775156058,-0.05330071053059,0.114408738884651,-0.267564082974125,-0.128900084144245,-0.592174752457548,-0.946460555397134,0.0344412432434172,-0.1841683915707,-0.877167706494102,-0.0506101904326813,0.0959265264240877
9.805,-0.468573112056977,0.178944159006973,0.864045133234374,0.239843011468052,0.0386679627257019,0.381859930410803,-0.996178978860892,-0.101562796579573,-0.16254853720379,-0.315751356497106,-0.257696908211425,-0.559846223694639,-0.993249612298722,-0.0290367182309437,0.189804064263397,-0.0578325145934502,-0.0548395959282106,-0.702676729221121,-0.908903393295187,0.0194179369257877,-0.162432417043223,-0.852237181204786,-0.0332969878205711,0.0877149295497777
9.81,-0.455969102311804,0.241050223346187,0.872607495904034,0.258765310005963,0.0376109584903984,0.395193293908724,-0.995174801868467,-0.0814478104390561,-0.153504579761212,-0.326600091195956,-0.243118117498084,-0.552308844167276,-0.934951497993251,0.00584347074945934,0.244266228877111,0.190318819356996,-0.0125872787904576,-0.759549289084687,-0.874936368000374,0.0095442788338103,-0.135604894001604,-0.808494314067834,-0.0179141199312806,0.0990416665313838
9.815,-0.41535722266067,0.277556953708199,0.858672683236869,0.233721206190352,0.0332293872524478,0.400038759549272,-0.994426161736669,-0.0617265955818357,-0.145062444994126,-0.332849366153971,-0.23035121830493,-0.544124454380299,-0.887787966061528,0.0271168153852088,0.271404523222085,0.531597618413289,0.0227875985647887,-0.788350430102829,-0.86477273656408,0.00764547549869808,-0.115608452018296,-0.775564010220192,0.00889226518330748,0.125541855615951
9.82,-0.393068091428831,0.309439873506733,0.863590328973321,0.220698838181807,0.0351175405085087,0.395896248112266,-0.993956105657711,-0.0428344408765357,-0.137306858383065,-0.334236524984999,-0.219439657873851,-0.535288089306014,-0.86272879372554,0.0234946451316711,0.270662521466041,0.714513659085276,0.0345521935788033,-0.775773448084745,-0.871473113542543,0.0111463349920235,-0.111504844177632,-0.748857169590189,0.0371105751288052,0.169391600655128
9.825,-0.37436925958989,0.347346704519147,0.862308546150382,0.186349978938572,0.0324455632228148,0.392086763769159,-0.993770000455345,-0.025136618997606,-0.130322737346283,-0.330655014382328,-0.210356485176674,-0.525794459827642,-0.843009501794149,-0.0182365242672514,0.254852432944671,0.879771020071754,0.052879128882989,-0.724055775135568,-0.891335613829914,0.0265350663910253,-0.107028005491814,-0.72728217110392,0.0735514428548689,0.218925919544484
9.83,-0.370889627781418,0.355655617369819,0.866861531436444,0.140923081660449,0.022035953022728,0.378660970109584,-0.993855073814983,-0.00892152109458092,-0.124199131983332,-0.322143479304945,-0.203011898433899,-0.515641044282175,-0.852930824912894,-0.0646573051579588,0.231732073091593,0.911383152654313,0.0535796714300153,-0.695240306462594,-0.918907009810871,0.038001609748283,-0.115563573765891,-0.716007129688579,0.10529213841147,0.250619197882735
9.835,-0.376214668816743,0.328515225601274,0.87614972023583,0.10423572799862,0.0227518728331795,0.340272029842127,-0.994182731277592,0.00560112926023886,-0.119015143012777,-0.308889997208543,-0.197262163848689,-0.504832986104202,-0.885497095200835,-0.13884330172584,0.1957792692718,0.763775313421071,0.0410167936148172,-0.652629717898257,-0.94821456473643,0.052534208223727,-0.124024367724723,-0.702333967545989,0.113977436881965,0.251502096997606
9.84,-0.381045030050163,0.333897309923843,0.868642297549458,0.0953195736433691,0.0191528653517865,0.298739874780317,-0.994714221085282,0.0182983274827969,-0.114819707906533,-0.291269486375982,-0.192921496574689,-0.493391114554972,-0.888756936084278,-0.17986461259578,0.193696520266675,0.598693145924792,0.0228702429380933,-0.631319356626443,-0.978091448651492,0.0660653700188415,-0.139370974289554,-0.665211534339281,0.129433228469771,0.236652170723451
9.845,-0.369031671413733,0.32712921807205,0.870515359266085,0.0645108468336562,0.0204572081565857,0.259102638820348,-0.995408898248274,0.0291076353629655,-0.111627885591699,-0.269871318183131,-0.189774600296106,-0.481358557732885,-0.927377907901254,-0.186987291796868,0.174318120539688,0.5124948129173,-0.00248125330928848,-0.613514436478227,-1.00046224809971,0.0667560808601228,-0.149673014826537,-0.628927342147516,0.142117615393867,0.209341274513268
9.85,-0.36474871272052,0.31761355717506,0.870555645185195,0.0468657103343641,0.0108836379147571,0.230814583840586,-0.996232642653009,0.0380269928037556,-0.109436613617875,-0.245468296319597,-0.187587152008424,-0.468801169889105,-0.949235331701194,-0.175003735115303,0.1882771955174,0.518310553983534,-0.0249784886337328,-0.586392830674887,-1.01989321079691,0.0558410436445383,-0.159488561996788,-0.585741490488106,0.162025609424844,0.188818352455475
9.855,-0.377711906433955,0.324036906541176,0.866024410800973,0.0279716412003099,0.000910094007849693,0.203871339765126,-0.997162277187593,0.045102280593585,-0.108246385062832,-0.218926697197183,-0.186113912949126,-0.455801784504844,-0.962492840417878,-0.13374589516126,0.222084372994848,0.621009959610166,-0.0553709992010654,-0.567370080725958,-1.0307983047796,0.0493464012843612,-0.105160542655871,-0.526969227952588,0.202701571704093,0.160193667583279
9.86,-0.389312370281107,0.295822904790545,0.859799200612802,-0.00722826839333465,0.00321612551590534,0.182441725299837,-0.99818292694446,0.0504142389625351,-0.10807709519373,-0.191096574507381,-0.185105269132768,-0.44245183067886,-0.96747770277378,-0.0888669862262564,0.278552855252124,0.847234063540727,-0.0921229984714788,-0.544784395239531,-1.04192253530091,0.0302283088849181,-0.173951386252913,-0.479842436487421,0.238932756646999,0.142324306683371
9.865,-0.396173055666586,0.250154524160856,0.871094850027277,-0.0245256891286707,0.00401487489123622,0.169507051063613,-0.999279968988842,0.0540659179257784,-0.108971363910101,-0.162726360679445,-0.184312728983845,-0.42884403973684,-0.974344326773367,-0.0694828686085401,0.314837425086629,1.03458890920715,-0.109613412078157,-0.530652241133422,-1.05165176887063,0.0244939423873731,-0.174600928952733,-0.457238697652156,0.272830669001944,0.127458343588691
9.87,-0.389576674538529,0.193964968041723,0.890125948191231,-0.0094650904750656,0.0113892882911075,0.155381759962233,-1.00043105158389,0.0561729433888873,-0.110981481169312,-0.13443099204883,-0.183494228062934,-0.415068748665796,-0.999940496684945,-0.0564442897046806,0.349255200876379,1.18799873418898,-0.112314643192386,-0.517460999046423,-1.06456541316636,0.0113871703233322,-0.176976143713734,-0.465430325230809,0.304473656694921,0.12129426199832
9.875,-0.392447428601679,0.195530179529594,0.897697340137148,0.0159811538143219,0.021067658707158,0.143649280071259,-1.00160228547447,0.0568590938093634,-0.114144699915756,-0.106717324629013,-0.182420388439369,-0.401214465031181,-1.04148116192788,-0.0482291542751119,0.364397495496039,1.2510818821225,-0.102056032879381,-0.488008656522378,-1.07733876468539,0.00676295350021778,-0.183247890647301,-0.499412923716035,0.324183378757122,0.120747840705537
9.88,-0.381980083459149,0.215647337031646,0.897882018298126,0.0360637294724744,0.0337572252531756,0.140768327154755,-1.00274841898349,0.0562569648488587,-0.118460426442611,-0.0800404817692923,-0.18088178247931,-0.387370806308339,-1.03235912110175,-0.0400049118908789,0.382375314556399,1.30145285226027,-0.0793778539549986,-0.447158075161069,-1.07818589355705,0.011528472674065,-0.179778414808605,-0.541688141384384,0.340276363369621,0.135331005575413
9.885,-0.380713840565873,0.231479989736834,0.888332700894679,0.0494929547717014,0.035448165443807,0.145560453820772,-1.0038149026414,0.0545106616613381,-0.123878985966699,-0.054851233949111,-0.178696009101106,-0.3736303255251,-1.07200428157231,0.0263096936701859,0.307278119553543,1.37709050686665,-0.0580913861421009,-0.396740877878203,-1.09018752258122,0.0191158586385894,-0.179454493762866,-0.583635132313629,0.349812075376909,0.147589545489055
9.89,-0.388910202919445,0.237939666556816,0.885026658763488,0.0504060446699133,0.0530661756654999,0.146142906205234,-1.0047408706315,0.0517776222023094,-0.130299980230447,-0.0316110262964985,-0.175713572229128,-0.360086920131566,-1.08323042617411,0.0283692040844498,0.286104490794318,1.44436925840876,-0.0416767249869426,-0.359807898977921,-1.09586139275504,0.0327150313888464,-0.191173863044591,-0.620677766096489,0.360221018484458,0.163509748138173
9.895,-0.394957414991451,0.25508994957186,0.87291537256061,0.0468105652214051,0.0514306537117801,0.159220066352766,-1.0054631696132,0.0482284890786897,-0.137573695448444,-0.0107794355560624,-0.171822328570957,-0.346831338648856,-1.06577305519253,0.0467134470589253,0.229697397803732,1.46881798532451,-0.0363015234470367,-0.340111877109207,-1.08885585427799,0.042790814317202,-0.200440156368228,-0.659142661606371,0.36554036742174,0.185761079110665
9.9,-0.397841925620606,0.264784204699326,0.867444896287962,0.0350226575034639,0.0576796859664743,0.150329402611274,-1.00592171668597,0.0440447161813416,-0.145502944339439,0.00720797177529522,-0.166950528345182,-0.333945919464028,-1.05817138143681,0.0427569212480847,0.195465278327141,1.47207028522202,-0.0363015234470367,-0.338228631837988,-1.07344154102028,0.0570773480683315,-0.21986511116753,-0.713041931155317,0.360873912093124,0.209705145475882
9.905,-0.388274934226772,0.265631649386295,0.876774849860634,0.0197079859366389,0.0618805546454862,0.148316341895312,-1.00606663097894,0.0394134892934046,-0.153846672875507,0.0219583490446854,-0.161068473217957,-0.321500311343727,-1.03552852377918,0.0162333224356491,0.168452022348178,1.47034516371933,-0.0459602190542428,-0.324627175946714,-1.05778406786595,0.0635506176227413,-0.225620639988462,-0.75383234757268,0.347637688982734,0.231122692666857
9.91,-0.379712914611272,0.265985166789237,0.884362872225959,0.00541169611078412,0.0596290087365813,0.150901883120221,-1.00586718794357,0.0345202527243274,-0.1623272402103,0.0331336696425795,-0.154188818618236,-0.309548872214803,-1.00686181767394,0.00250613037804634,0.152056612355914,1.46950954533418,-0.0534052476286888,-0.322329007624831,-1.03523916266709,0.0680926930407534,-0.220897200791061,-0.770897141692572,0.31105861218045,0.246257457296357
9.915,-0.383073019840578,0.267573310850485,0.877636790406157,-0.00523756362993978,0.0594426494945034,0.141423458435348,-1.00532077577989,0.0295405681070483,-0.170642008541717,0.0404587479440378,-0.146365460158517,-0.298129746251087,-0.996356825457244,-0.0112286170249071,0.126210405918696,1.36547871335472,-0.0896583994679566,-0.286057445025013,-1.00560516138941,0.0773706639703547,-0.208949315169064,-0.771738895107021,0.2310652695822,0.257623587048919
9.92,-0.381490957861384,0.27370200876883,0.873843207840956,-0.0190957705102958,0.0521962843746253,0.132135695352813,-1.00445815376716,0.0246333268419291,-0.178478715669969,0.0437280414177709,-0.137690962616104,-0.287265300780803,-0.99272690733379,-0.029522527298418,0.11602021991271,1.21538800748893,-0.116040233055311,-0.266060305913113,-0.988224234984996,0.0869625775202824,-0.188799296787204,-0.752310375136805,0.158779404657584,0.274256877597887
9.925,-0.377010765564334,0.27754284999929,0.877727772523692,-0.0291372088419011,0.0382353659654527,0.117827960818775,-1.00334161725962,0.0199360138714673,-0.185534530639558,0.0428118656759344,-0.128292538114187,-0.276963483635341,-0.995149780506155,-0.0302821233252003,0.103894577653304,1.06766814926045,-0.131862352213409,-0.245242189461073,-0.976073777933431,0.0914952727987822,-0.169957603662113,-0.73533276708462,0.082075370840683,0.287459071924067
9.93,-0.377052694369009,0.275012334641388,0.875000381765889,-0.0432429269395044,0.0387354518660883,0.110757882259492,-1.00205525103351,0.0155615412412784,-0.191539448584057,0.0376618554180663,-0.1183262413623,-0.267219629248139,-0.988569074725618,-0.0359519136157246,0.0884836635080605,0.90962417615976,-0.152145905179871,-0.215911083096883,-0.96778883413257,0.0999677743619022,-0.159170479860761,-0.699468533853397,0.0195729100729259,0.296783777763347
9.935,-0.399371197652263,0.260315801678175,0.873805893582276,-0.0560920496011126,0.045559939872251,0.0916248311187737,-1.00068982991527,0.0115961094711824,-0.196282663694752,0.0283174969287071,-0.107968597035321,-0.258018190365907,-0.988082564613608,-0.0384450456234185,0.0645415243686946,0.774853923711539,-0.168303316222668,-0.20901532441696,-0.962393767411979,0.111336313701507,-0.152500463400027,-0.661953396404196,-0.0263514088922949,0.28935813135717
9.94,-0.402754221209607,0.252285533813722,0.870277669871453,-0.0545634691023947,0.0362772195155345,0.0759098789090569,-0.999327727648323,0.00809772166854133,-0.199635769160598,0.0149177756239814,-0.0974052202519669,-0.249333814495552,-0.98208825237314,-0.0181416548842481,0.0245312509874259,0.616480148208002,-0.18759589979279,-0.201473152117889,-0.962220907249528,0.118906165746983,-0.138532373434614,-0.640994135005306,-0.0508007832480886,0.276829182193393
9.945,-0.398093080758976,0.233938848158412,0.881841758245287,-0.0429478250712431,0.0295601463678138,0.0548242088687154,-0.998034062232494,0.00509530289703987,-0.201562714183614,-0.00227955058423372,-0.0868174764422821,-0.241131340550918,-0.973097062452634,0.00370134468916846,-0.00974540075288209,0.487590435806066,-0.191289269964245,-0.193307304422405,-0.964940539410629,0.124622687973682,-0.129076883429056,-0.63073679701576,-0.0497322451069361,0.275890439748764
9.95,-0.400386261948926,0.214462643754686,0.886192561501671,-0.0244443252384211,0.0446538693308251,0.0411851013894726,-0.996857540886999,0.00258994222853225,-0.202107677576939,-0.0228758337150714,-0.0763701536683959,-0.233364956336711,-0.964279956300365,0.0194691739671667,-0.0513747855493152,0.306978490286136,-0.180142892422991,-0.201336001331743,-0.973246762556322,0.126053156520163,-0.117474941249485,-0.622448265318973,-0.0438632387265708,0.278647124903954
9.955,-0.400816202614971,0.222716391266399,0.878489175244562,-0.0112555762817155,0.0454597161921932,0.0305793348571541,-0.995837979922565,0.000561124592604954,-0.201361838289147,-0.046321039412548,-0.0662041234998326,-0.225977814251506,-0.963270701918216,0.0240154153618795,-0.0828614934752218,0.125907721751845,-0.163828821955086,-0.200826958840386,-0.980397081254481,0.138922497099685,-0.114731733334194,-0.606959757034882,-0.0386990121433267,0.290493713125517
9.96,-0.397869678356963,0.220680489234124,0.883814675096157,-0.000703758014853219,0.0575649307589074,0.032475084066391,-0.995011736126134,-0.00102187070597885,-0.199425946439391,-0.071931683912823,-0.05643640529745,-0.218903897148318,-0.961055143543781,0.0307774876569064,-0.106204112321845,-0.0614553049067526,-0.126532426603039,-0.246434216358242,-0.986832128365512,0.141864677319536,-0.100868687113635,-0.609508964538575,-0.0219853945677522,0.295229830083203
9.965,-0.393060400165572,0.204357115115063,0.888087913245291,0.00918279202540817,0.0648028074852712,0.0377264641605366,-0.994407910967571,-0.00218905446171552,-0.196392855780286,-0.0989412430490315,-0.0471657009953527,-0.212072873176773,-0.963339382288261,0.0382217972526408,-0.109691081099806,-0.194490677387684,-0.0839056507616477,-0.291798500647686,-1.00016954753555,0.147858341428272,-0.0867617557813927,-0.617710544854371,-0.00458266757969355,0.299859064517818
9.97,-0.39749501079208,0.208810923947241,0.889629385432012,0.0316938257477653,0.075294878036835,0.0386033595924438,-0.994037405713319,-0.00296632064050581,-0.192358565017295,-0.126566856944689,-0.0384777521157658,-0.205416677140044,-0.976151754756823,0.0395844970558085,-0.0946206316522383,-0.313350229167983,-0.0329796045944039,-0.345102169153015,-1.00239473471217,0.148287818395446,-0.0787075333608794,-0.624198098816279,0.0120986348524373,0.296659260988235
9.975,-0.39667864084272,0.208076101292829,0.885876559158693,0.043261105292554,0.0805557046346257,0.0518720437690572,-0.993884893815184,-0.00338000911415005,-0.187443600447457,-0.154067804548081,-0.0304461909952256,-0.198875513889614,-0.98486081194509,0.0370065260532363,-0.0795640270683092,-0.404696348651762,0.00771622097377115,-0.387760939794345,-1.01285753734713,0.15110478703198,-0.0698625143772397,-0.62284910181018,0.0340885646960143,0.300208725052293
9.98,-0.390734513295778,0.209576849171104,0.88215042635558,0.0539390976720912,0.0900937914848328,0.0591069898477189,-0.993912279301037,-0.0034629796553989,-0.181799022266589,-0.180781457464673,-0.0231299296761699,-0.192401694944658,-0.991471765392473,0.021958593951754,-0.0455637114420145,-0.516813588737206,0.0406112018267109,-0.424975702147895,-1.02336330155183,0.149967020349335,-0.0784939342833129,-0.625008907179166,0.0765063741532532,0.29523105745117
9.985,-0.384372795026748,0.221942798611794,0.885854865757267,0.0623478444158827,0.0900937914848328,0.0647937642339789,-0.994072925570714,-0.00325661753242384,-0.175590898127899,-0.206137297934754,-0.0165715196678762,-0.185961073815183,-0.993229774837166,0.00527950339978627,-0.017854980637996,-0.58483046566502,0.0622620445590321,-0.449522165609208,-1.03024077326263,0.146308830162583,-0.0878249563183389,-0.611441173594107,0.118079119838377,0.285875455410939
9.99,-0.381634813371092,0.236498546982825,0.88150382739893,0.0756997856070033,0.0924679326723013,0.0690220501586785,-0.994327833957443,-0.00280930033991461,-0.168978766979385,-0.229656018298068,-0.0107991374951909,-0.179532631569147,-0.99208284189145,-0.0102498240177987,0.0203900548489632,-0.65817768905866,0.0743879714048224,-0.473218112600096,-1.03296302743869,0.145481435817068,-0.0742227802829474,-0.597744020047447,0.15727976344289,0.278647617609631
9.995,-0.390121590245962,0.237494050697047,0.883970051444397,0.0673275269952646,0.0922647575248481,0.0688534984697105,-0.994654676095577,-0.00217518675034563,-0.162105188472656,-0.250940126592086,-0.00583089388491914,-0.173106838787071,-0.991360320383235,-0.0212397089901063,0.0500221086177319,-0.712226742166825,0.0873234195528722,-0.485459744930267,-1.04219872518206,0.14192422532577,-0.0701678339395114,-0.611904567309826,0.177341363099323,0.271070184673241
10,-0.389416378704024,0.238941827522857,0.880874310329232,0.0722510755953179,0.0879361209580344,0.0656513167625694,-0.995046956735071,-0.00141506221699719,-0.15509947567939,-0.269660706732557,-0.00167828835617344,-0.166683205272477,-0.988683580177869,-0.0310838337075565,0.0854292353372648,-0.752625127428971,0.0872777342181132,-0.485459744930267,-1.05164050319477,0.131204034516866,-0.0793336731966203,-0.616874297014701,0.176850047141582,0.241979401390748
10.005,-0.391596588193437,0.251399511695377,0.874351953075596,0.0735680088400841,0.0768753697123159,0.0585737251583368,-0.995507067639833,-0.000597114136215519,-0.148086237176753,-0.285544196031151,0.00165312433048064,-0.160267422042468,-0.979625471282038,-0.0474649299991967,0.118936821397949,-0.792888718819253,0.0798690855966247,-0.478603924237686,-1.05285074696957,0.132830195295665,-0.102224038588816,-0.620519181446901,0.183489800923017,0.203894537289042
10.01,-0.390372233857822,0.254733976788782,0.874442230363663,0.0711919211506803,0.0742117688059807,0.0533448410272537,-0.996038627710435,0.000205623698181253,-0.141187926209797,-0.298363477166588,0.00416525245410563,-0.153868832288772,-0.975155915276646,-0.0610431366400936,0.144506779407377,-0.812983449877828,0.0692570221995131,-0.468778424830047,-1.04503223988971,0.131275222858509,-0.117855362636211,-0.623914138178635,0.174697346840018,0.172417002558674
10.015,-0.384424893254949,0.252311118409852,0.877249784449103,0.0671903615650894,0.067834121530986,0.0406336249132756,-0.99664100159111,0.000921952353935499,-0.134518109281795,-0.307937796339042,0.00586907628795928,-0.147499090286783,-0.984553030279707,-0.0755138312969532,0.179001233086273,-0.821849597354889,0.068530840298447,-0.451595361054814,-1.00498131075573,0.123143233357383,-0.129883078360948,-0.617308680270809,0.149881752732376,0.15070881141501
10.02,-0.390573937751684,0.259203725899157,0.878969203434781,0.0697126466782098,0.0639859253169719,0.0273897248025669,-0.997305991477938,0.00149095795631442,-0.12817073709144,-0.314143605831782,0.00678474554248634,-0.141172294898445,-0.993619880559144,-0.0892083155561788,0.196993569165482,-0.795835034546902,0.0642855534722141,-0.438357833768784,-0.976215235910051,0.107987336442479,-0.126410060281821,-0.5703134917682,0.0669526754166196,0.122151452787142
10.025,-0.391224450314144,0.252873203775737,0.877102920832878,0.0691305892981131,0.0581106783032272,0.0208114132811723,-0.998015487514121,0.00186901572246196,-0.122213849743897,-0.316933384505225,0.00694015630457493,-0.134905975261686,-1.00959262110803,-0.103181789587965,0.212415850895599,-0.724814341374494,0.0619124385182811,-0.425276452040174,-0.965381512694907,0.0967686462626594,-0.132795497857273,-0.5406880288806,-0.0340246370820903,0.109739989042282
10.03,-0.406066027055684,0.274516575179907,0.860119672432991,0.0674595311284065,0.0594504940739323,0.0191373862841677,-0.998739167914252,0.00203352285421935,-0.116692475864168,-0.316354640302463,0.0063692145632222,-0.128721764961593,-1.01201398956971,-0.111563047331864,0.226437212378518,-0.625344697695998,0.0637900277548042,-0.418528730337458,-0.970702603679508,0.0896233001081543,-0.131541387597313,-0.527127272146385,-0.103032721360837,0.111990242816435
