Header,foot_Accel_X,foot_Accel_Y,foot_Accel_Z,foot_Gyro_X,foot_Gyro_Y,foot_Gyro_Z,shank_Accel_X,shank_Accel_Y,shank_Accel_Z,shank_Gyro_X,shank_Gyro_Y,shank_Gyro_Z,thigh_Accel_X,thigh_Accel_Y,thigh_Accel_Z,thigh_Gyro_X,thigh_Gyro_Y,thigh_Gyro_Z,trunk_Accel_X,trunk_Accel_Y,trunk_Accel_Z,trunk_Gyro_X,trunk_Gyro_Y,trunk_Gyro_Z
0,-0.232115159253283,-0.0428409024998733,0.973361805814515,-0.0480356865518907,-0.0522037678562426,-0.0324895659144177,-0.989564679725357,-0.109229065457117,-0.0909102724039751,-0.037116075323773,0.030341600630609,0.00279673475752199,-0.979382797234153,-0.109477737173252,-0.168163240201862,-0.035126286305004,0.0287354136287127,-0.012311063591193,-0.998888167413663,-0.0506158471009717,-0.0251845473468502,-0.102657865376742,0.00891138873844412,-0.00508127284172801
0.005,-0.233989223393444,-0.0432845997954664,0.974344007334577,-0.0479381244580095,-0.0512822522497187,-0.0319458816828095,-0.989292708382694,-0.109051968808821,-0.0914950301752423,-0.037464057805286,0.0303293338827893,0.00277262733851477,-0.979431217940477,-0.109580825497768,-0.166931488281714,-0.0354688094288124,0.0287003164263363,-0.012377663573966,-0.999427008176887,-0.05146107944595,-0.0262911754674921,-0.102683384938158,0.0090603905071369,-0.00519819262805441
0.01,-0.237153499637101,-0.0442059211035905,0.976171193295001,-0.0478288378957711,-0.0487451617761909,-0.0304334685236281,-0.988787436624403,-0.108637378203357,-0.0928308787627945,-0.0386474021671006,0.0304222866789678,0.00269680108018454,-0.979605485291286,-0.109702490941529,-0.164386793678186,-0.0366315393091444,0.0287013097630786,-0.0126104891667655,-1.00045673153233,-0.0530163631621952,-0.0285359700550105,-0.103211849476145,0.00956593979415587,-0.00555956219909184
0.015,-0.239964805634127,-0.0446616456537354,0.977611774749893,-0.0477017064186316,-0.0448982772686987,-0.0281376312961677,-0.988356203546199,-0.10855453834616,-0.0935261974528455,-0.0405080349458621,0.0306422530883146,0.00257127864722045,-0.979443090790156,-0.110027946519985,-0.163282305675793,-0.0384613459956245,0.0287379937298742,-0.0129706088611772,-1.00117670818509,-0.0538138128752343,-0.0299714714433229,-0.104263609673694,0.0104277008482521,-0.0060904106247172
0.02,-0.242612415250383,-0.0446783063818062,0.978669846328549,-0.0472290344632582,-0.0399441747050373,-0.0251590246711356,-0.987980454023821,-0.10906276385738,-0.0931946380106781,-0.042504805918054,0.0307864109988767,0.00239406468797551,-0.978675341844647,-0.11075840149147,-0.164420713101662,-0.0404360533355583,0.0286012471347281,-0.013315963364366,-1.00145236076061,-0.0535528075043511,-0.0301556379527597,-0.105078812307403,0.0115283435031576,-0.00664690256311015
0.025,-0.244899674348467,-0.0443058022631648,0.979384832449274,-0.0461941158703579,-0.0341149570137051,-0.021615579497083,-0.987680396840447,-0.109884772688617,-0.0923465097429687,-0.0442336228896826,0.0307385486809418,0.00216569315540375,-0.977640545856028,-0.111661579296505,-0.166791383357403,-0.0421652127011117,0.0281498363318326,-0.0135424287203255,-1.00145872284918,-0.0525849424680896,-0.0296846719541737,-0.105178006640913,0.0127978369306503,-0.00710727817742917
0.03,-0.246670153216795,-0.0436124369582899,0.9798024123568,-0.0445068013965069,-0.0276650686484072,-0.0176384861610899,-0.987476116851771,-0.110780233106725,-0.091417180763552,-0.045453203766121,0.0304754512505845,0.00189060746968096,-0.976634244390974,-0.112533399429112,-0.169514453065987,-0.0434146218358507,0.0273218387580336,-0.0135918098911756,-1.0013432874211,-0.051227976549979,-0.0290508859474805,-0.104392287240338,0.01421116407198,-0.00738135518213804
0.035,-0.247849161468244,-0.0426624504871258,0.979961574926988,-0.0421591307922522,-0.0208586679432834,-0.0133621733367413,-0.98738171078699,-0.111611659607871,-0.0906484623975083,-0.0460339524508604,0.0300331700377378,0.00157721813168728,-0.975827929681109,-0.113251627841478,-0.172084060898589,-0.0440569294889651,0.0261103873672476,-0.0134386580294945,-1.00118439706354,-0.0496746562237413,-0.0285071188973764,-0.102755396528917,0.0157653996827734,-0.00740410584269833
0.04,-0.248436171093928,-0.0415145008121644,0.979895864952358,-0.0391776968511411,-0.0139545882059582,-0.00891382828873738,-0.987401957092877,-0.112326225062034,-0.090121438066979,-0.0459029396886497,0.0294722042531749,0.00123765055017251,-0.975285417384094,-0.113761685072715,-0.174304821889976,-0.0440185560705834,0.0245375319058951,-0.0130757865881201,-1.00100645139551,-0.0480217844723702,-0.028114172489168,-0.100391714558868,0.0174584246737415,-0.00712880506277548
0.045,-0.248481183555433,-0.0402259402160592,0.979636709679135,-0.0355938344208383,-0.00719229333991731,-0.0044063636387014,-0.987531488996002,-0.112916664311736,-0.0898254449727485,-0.0450103670221583,0.0288549486459305,0.00088762146045282,-0.97500488228984,-0.114045656672738,-0.176153197570941,-0.0432473303224988,0.0226382068268247,-0.0125054794176234,-1.00080982536345,-0.0463283764071659,-0.0278347056947991,-0.0974467750228613,0.0192769793531045,-0.00652506083087182
0.05,-0.248062185633704,-0.0388557963181406,0.979214571207982,-0.0314323588024314,-0.000780900988104396,6.41817700744859e-05,-0.987756075792015,-0.113390589679308,-0.0897107850700048,-0.0433173076753228,0.028234750186593,0.000546393680164525,-0.974953134925344,-0.114098573788729,-0.177670342693394,-0.0417006567296759,0.0204543909365958,-0.0117362871378655,-1.00059534256608,-0.044659129816372,-0.0276095513776749,-0.0940590993074976,0.0211941268786028,-0.00558118956465834
0.055,-0.247268592529218,-0.0374651594762156,0.978657897888361,-0.026712484660501,0.00510767199935481,0.00441733641334009,-0.98805500645509,-0.11375488781045,-0.0897163922854867,-0.0407961558022742,0.0276518230483451,0.000236601178108035,-0.975085088264476,-0.113917685889725,-0.178906960972106,-0.0393459920044135,0.0180352881248815,-0.0107829901868218,-1.0003767090062,-0.0431019327394807,-0.0273983581646582,-0.0903566592744912,0.023173232027266,-0.00430838442737877
0.06,-0.246190538317052,-0.0361162295613066,0.977992090905643,-0.0214544712283403,0.0103415307916202,0.00858463956609416,-0.988403812901806,-0.114011695797174,-0.0897818020751278,-0.0374361251164819,0.0271323134609162,-1.63301379446507e-05,-0.97535296945882,-0.113502547312878,-0.179903562630197,-0.036166304817004,0.0154391555399097,-0.00966747740062272,-1.00017949976281,-0.0417619317927136,-0.027187426112497,-0.0864622351856564,0.0251745022508341,-0.00274392354282417
0.065,-0.244912509288978,-0.0348712505491459,0.977240431781594,-0.0156876164507052,0.0148287185538385,0.0125065408057331,-0.988777236618582,-0.11416034994498,-0.0898532630226307,-0.0332498264423662,0.0266889161871582,-0.000185534659182987,-0.975711349907676,-0.112861631759236,-0.180685543851652,-0.0321667800432193,0.0127339135442551,-0.00841915195353445,-1.00002819318201,-0.040739862075146,-0.0269753821120938,-0.0824975295920117,0.0271597926800853,-0.000950984502959744
0.07,-0.243509326375729,-0.0337915409825451,0.976426505591516,-0.009457437187911,0.0185155192375977,0.0161320732114715,-0.989152396091104,-0.114200948778015,-0.0898878916602148,-0.0282797261516858,0.026322653132466,-0.000245113156792855,-0.976121112163925,-0.112020503434064,-0.181261861795195,-0.0273816835544867,0.00999566463352311,-0.00707427852885494,-0.999927553108299,-0.0401066986246024,-0.0267505248128558,-0.0785814386246867,0.0290922234915067,0.000986318474626447
0.075,-0.242042535357992,-0.032936151439566,0.975575518530483,-0.00283168671753159,0.0213835773057298,0.0194211312076356,-0.98951166249772,-0.114136992934907,-0.089855149448076,-0.0226041026097205,0.0260255070095408,-0.000173412304091182,-0.976552404697458,-0.111026384142499,-0.18162547945467,-0.0218809708554301,0.00730590292151191,-0.00567434268217985,-0.999849310691012,-0.0398885399112724,-0.0264740560358951,-0.0748228194934994,0.0309299129172816,0.00297202020147057
0.08,-0.240556358810861,-0.0323597090103283,0.974712339860854,0.00409415915459152,0.0234451456795065,0.0223462316150278,-0.989844414971627,-0.113976050816398,-0.0897344163993188,-0.016341624691634,0.0257832161161512,4.36448805871577e-05,-0.976985493044556,-0.109945590947038,-0.181757582282079,-0.0157755797408191,0.00474885510337499,-0.00426398810148124,-0.999734179616931,-0.0400702124392514,-0.0260793705716342,-0.0713121228898214,0.0326171096974583,0.00490879091041437
0.085,-0.239074430402271,-0.0321093322020296,0.973856962236159,0.0111916166820939,0.024735695367399,0.0248900595895868,-0.990146834113572,-0.113728492259461,-0.0895099380579421,-0.00965314310591771,0.025577461405948,0.000410286878539532,-0.977408943034558,-0.10885419736093,-0.181635950869346,-0.00921975754479644,0.00240983298306815,-0.00288923967551422,-0.999510667251994,-0.0406142624145971,-0.0254889476229455,-0.0681175603739847,0.0340786835452994,0.00670646751314065
0.09,-0.237600098713518,-0.032220487029225,0.973020637055807,0.0182952847192566,0.0253046849088522,0.0270382270166088,-0.990419449904378,-0.113405124069184,-0.0891665163242576,-0.00273952352238083,0.0253871903786465,0.000920346072365637,-0.977815631855961,-0.107825966361626,-0.181245172127932,-0.0024091184353829,0.000374163941925574,-0.00159635765379332,-0.999121819019998,-0.0414818989382761,-0.0246415652300593,-0.0652884287884266,0.0352228074967578,0.00828661619759167
0.095,-0.236122084235218,-0.0327114461174502,0.972205417324373,0.0252032820010115,0.0252070766457672,0.0287710622167816,-0.990663408238252,-0.113014984948926,-0.0886882788213688,0.0041651786845038,0.0251894390015715,0.0015582780417443,-0.978197898221113,-0.106922034443024,-0.180586535991576,0.00442620585578391,-0.00127480490681968,-0.000430997431047083,-0.998547908991825,-0.042642928046559,-0.0235192628650594,-0.0628628645504875,0.0359526012758632,0.00958346178532341
0.1,-0.234623840209879,-0.0335774132813307,0.971406968683937,0.0316852357553391,0.0244979693252099,0.0300594220909749,-0.990877449759069,-0.112564322062654,-0.08805998597965,0.0108057985392637,0.0249600782423274,0.00230113267424788,-0.978543654940524,-0.10618479767806,-0.179686054452692,0.0110337404352863,-0.00245997988176322,0.000563062298655293,-0.997817007570833,-0.0440718909388222,-0.0221642017819648,-0.0608746184239178,0.036183981141049,0.0105431109392351
0.105,-0.233092235364175,-0.0347886522117127,0.9706187311481,0.0374977843662892,0.0232306787152233,0.0308664045793433,-0.991057146436482,-0.112056942749032,-0.0872694124680793,0.0169224932392605,0.0246745514020095,0.00312086020832859,-0.978835504258284,-0.105637289858672,-0.178596059334034,0.0171551366384762,-0.00311681254838129,0.00134597279457991,-0.996998762224154,-0.0457368777124965,-0.0206752571126084,-0.0593552669304866,0.0358647402053679,0.0111229196184997
0.11,-0.231522027003771,-0.036296384525308,0.969835852858154,0.0424020849398651,0.0214571186391675,0.0311529432643549,-0.991196184872645,-0.111495536954342,-0.0863108252038634,0.0222667855833617,0.0243086117585928,0.00398632711156733,-0.979053858360016,-0.105288082553968,-0.177385177273253,0.0225421970080264,-0.00319940705980955,0.0018840200758681,-0.996181018779428,-0.0475895472243358,-0.0191791507029457,-0.0583315305780774,0.034987552241471,0.0112917581716095
0.115,-0.229916952443565,-0.0380414495047437,0.969058142177652,0.0461765589351279,0.0192292730153812,0.0308837280050068,-0.991288075864829,-0.110883640237181,-0.0851899889742798,0.0266118357838524,0.0238394166135304,0.00486462287948888,-0.979182187307346,-0.105137190952445,-0.176121418893662,0.0269671466431578,-0.0026839683979418,0.00215099448075563,-0.995440495303709,-0.0495626265743793,-0.0177894897631928,-0.0578195977680892,0.0335902287256844,0.01103090541863
0.12,-0.228292756297279,-0.0399533703633763,0.968292464479673,0.048626094672744,0.0166010852103537,0.0300316290029298,-0.991326852015019,-0.110227886660593,-0.0839293917671482,0.0297594700646257,0.0232473698648839,0.00572215824387892,-0.979210272714185,-0.105175104847513,-0.174864054961982,0.0302297215161288,-0.00156930947352028,0.00212889611307494,-0.994827360026751,-0.0515763407735066,-0.0165826884175435,-0.0578197122161124,0.0317442222992563,0.0103349252056084
0.125,-0.226686230904116,-0.0419358660993235,0.967556204385513,0.0495992819014946,0.0136312377192969,0.0285833079819205,-0.991306744916396,-0.109539723181437,-0.0825714227680208,0.0315553704010617,0.0225185849335278,0.00652684088908933,-0.979133250686645,-0.105373182196497,-0.173672996070068,0.0321724231945192,0.0001232072620584,0.00180967281819291,-0.994372310758392,-0.0535480356855375,-0.0156063637003981,-0.0583139268165569,0.0295412470740268,0.00921227025832072
0.13,-0.225164971692073,-0.0438541090059428,0.966881501869027,0.049022871625366,0.0103882907999764,0.0265512965361421,-0.991222352862053,-0.108835842813817,-0.0811778714118418,0.0319194221244389,0.0216473911435761,0.00725184246650407,-0.978949157266668,-0.10567583048356,-0.172623284446238,0.032710832487776,0.00234783642036959,0.00119929376961618,-0.994102128395968,-0.0553962436870349,-0.0149029296004971,-0.0592670145950243,0.0270871338813945,0.00768608334336963
0.135,-0.223824115346486,-0.0455461985968563,0.966315471016128,0.0469435309961972,0.00695767548697545,0.0239921131798598,-0.991071271597865,-0.108137551854763,-0.0798240394286596,0.0308803086494974,0.0206382250910411,0.00787951655651493,-0.978659890483024,-0.106008461868867,-0.171803430493966,0.0318680664915008,0.00503137806711979,0.000322749420947782,-0.994042767355245,-0.0570370815126941,-0.0145176234138689,-0.0606278397271296,0.0245019455090819,0.00579573915890733
0.14,-0.222762549008558,-0.0468637576182284,0.965911676548096,0.0435486869182171,0.00344555146724996,0.0210193889522401,-0.99085950491755,-0.107469717760179,-0.0785860445883657,0.0285898258092825,0.0195061195929125,0.00840296507842647,-0.978276761466656,-0.106302942712947,-0.171292212215658,0.0297890285075445,0.00807294531994065,-0.00077388550498376,-0.994205443710869,-0.0583805765861409,-0.0144808307131591,-0.0623292851743501,0.0219177222252801,0.00359867644375178
0.145,-0.222049724953901,-0.0477194962678077,0.965715470282397,0.0391434615247579,-2.63854320926137e-05,0.0177988436971588,-0.99060658297481,-0.106859222044851,-0.0775242282013055,0.0252996777489339,0.018274960341502,0.00882391644577857,-0.977826008081276,-0.10652517540534,-0.171130551051176,0.0267174423593678,0.0113505754853673,-0.00202742679012108,-0.994570675561356,-0.0593365273831937,-0.0147828915804647,-0.0642879447257071,0.0194678649477785,0.00117089568251088
0.15,-0.221704897115685,-0.0481108902426032,0.965752078477005,0.0340889708687051,-0.00333510278248497,0.0145234726280229,-0.990345433837142,-0.106332344701118,-0.0766711880892601,0.0213076614180142,0.0169735343057977,0.00914807133904638,-0.977348318191281,-0.106685529099098,-0.171308645071256,0.0229426398280792,0.0147344555990727,-0.00336691009402271,-0.995087247122062,-0.0598321639188293,-0.0153653152226931,-0.0664065411673329,0.0172708493502345,-0.00139567706867019
0.155,-0.221700872851282,-0.0481075200510013,0.966023927173251,0.0287321302023869,-0.00637212029437339,0.0113807969218342,-0.990114830473501,-0.105911249656446,-0.0760318077039748,0.0168991744068493,0.0156308794505712,0.00938063882783685,-0.976890950453549,-0.106826443549073,-0.171773398253916,0.0187418674585156,0.0181019165745699,-0.00472425040446617,-0.995688511576286,-0.0598341812796427,-0.0161350829211183,-0.0685807754824382,0.0154162238816982,-0.00399969748246449
0.16,-0.221985599951308,-0.0478151165306797,0.966516093448586,0.0233568650780715,-0.00905268403934164,0.00852666142043343,-0.989947978510576,-0.105610780267186,-0.0755939052056276,0.0123081395304978,0.0142729780626476,0.00952415278887623,-0.97649661485327,-0.106998290332376,-0.172446990464586,0.0143419412843065,0.021348550304037,-0.00604209386315628,-0.996314274165358,-0.0593630580731701,-0.0169905610557635,-0.0707093359395164,0.0139586773137978,-0.00653985287334472
0.165,-0.222505001783441,-0.0473390791234336,0.967204013466962,0.0181673657097776,-0.0113153952878603,0.00607274222608129,-0.989864102544415,-0.105436802877546,-0.0753406131956752,0.0077049450327272,0.0129216951032522,0.00957874824110027,-0.976195020028508,-0.107239221667132,-0.173246158373797,0.0099076459126894,0.0243928637923374,-0.00727711481191186,-0.996925035643874,-0.05849066617874,-0.0178440264884936,-0.0727035397315974,0.0129203030738174,-0.00892488239288368
0.17,-0.223214077258291,-0.0467624619402364,0.968058212430298,0.0132957787830281,-0.013116273712929,0.00408669087990776,-0.989867552237077,-0.105386396109446,-0.0752564523525965,0.00320412220108127,0.0115952209736536,0.00954365962243718,-0.976000488756181,-0.107567165127624,-0.174097230352294,0.00554952890662213,0.0271755675563912,-0.00839944539037044,-0.997503710464824,-0.0573209148247765,-0.018633332263817,-0.0744931280291563,0.0122975177223981,-0.0110812738764163
0.175,-0.224074008031679,-0.046140539387462,0.969044367476049,0.00882008522029179,-0.0144241385247665,0.00259979288032433,-0.989953021655966,-0.105449242372355,-0.0753263360944772,-0.00112049794633981,0.0103086699241517,0.00941856675674214,-0.975914891268251,-0.107982146447429,-0.174944915588025,0.00133889012500055,0.0296563288421182,-0.00939005727859979,-0.998048341663849,-0.0559626763550185,-0.019322979756271,-0.0760268551595107,0.0120688547276724,-0.0129566076102133
0.18,-0.225042716886187,-0.0455056395830606,0.970120627526392,0.00478093742913867,-0.015221592923949,0.00161652845914913,-0.990111187908949,-0.105609358563018,-0.0755328943252965,-0.0052221980021217,0.00907420550239899,0.00920419410337183,-0.975932282754797,-0.108472131759457,-0.175753385681162,-0.00267893379048138,0.0318103170846144,-0.0102378391126639,-0.998562503815877,-0.0545085152482116,-0.019898091919482,-0.0772691949776473,0.0122013387540475,-0.0145185950839053
0.185,-0.226068822768061,-0.0448745507214061,0.971235861612375,0.00119293659413984,-0.0155103954353621,0.00112180994733131,-0.990330313678553,-0.105846781251934,-0.0758569434728942,-0.0090722729675838,0.0079011067046617,0.00890245608766404,-0.976041876349924,-0.109017021391712,-0.176500698025527,-0.0064757336907193,0.0336253688838159,-0.0109373961309511,-0.999048398085,-0.0530277350757954,-0.0203552075918851,-0.0781960767930399,0.0126546759204678,-0.0157519006666277
0.19,-0.227093666780735,-0.0442543710863787,0.972331524570461,-0.00194882166877868,-0.0153165027288684,0.00108426029010462,-0.990594446346807,-0.106139379948576,-0.0762805732911165,-0.0126540699830915,0.0067963816671331,0.00851673329844077,-0.97622865422839,-0.109590244875306,-0.177171399967399,-0.0100345923134034,0.0350995878253178,-0.0114877883185523,-0.999503918127833,-0.0515713702819776,-0.0206936141797988,-0.0787921413457435,0.0133835289816727,-0.01665519614792
0.195,-0.228059142701159,-0.0436466546839356,0.97334710058875,-0.00466434353252783,-0.0146910248399942,0.00145675833729102,-0.990882015682731,-0.106465023644214,-0.0767891728452188,-0.0159582937717344,0.00576583551356775,0.0080524689066028,-0.97647319008663,-0.110160507889576,-0.177752455094666,-0.0133451885360879,0.0362391546253708,-0.0118919054322508,-0.999922301337571,-0.0501798064586835,-0.0209100019195334,-0.079050089243297,0.0143386663548162,-0.0172394117598614
0.2,-0.228916384594399,-0.0430509868136456,0.974226868190162,-0.00698473534744628,-0.0137065801385243,0.00217688713200728,-0.991167196443076,-0.106803937103773,-0.0773706846956949,-0.0189791264958415,0.0048149145425358,0.00751778834245207,-0.976752319265393,-0.110695267280604,-0.178233690639799,-0.016399882201466,0.0370564006697048,-0.01215607385517,-1.00029275483353,-0.0488859646477405,-0.0209972922642122,-0.0789709766581215,0.0154677999253247,-0.0175265187838573
0.205,-0.229631862813239,-0.0424683774760998,0.97492560207921,-0.00894815663334886,-0.012450791635588,0.00316913690701918,-0.991423483134022,-0.107140777701416,-0.0780133950775593,-0.0217115466782278,0.00394881002477698,0.00692380399258767,-0.977041109171493,-0.111165019064867,-0.178610351021548,-0.0191910386615672,0.0375682216166561,-0.0122896665254856,-1.00060150961215,-0.0477134502696311,-0.0209469175605409,-0.0785640219403559,0.0167166143518405,-0.0175478471106412
0.21,-0.230189824621522,-0.0419041612861043,0.975412336791649,-0.0105959099908295,-0.0110190038050005,0.00434906763032783,-0.991627885290765,-0.107465999162271,-0.0787039300508053,-0.0241500270707994,0.00317181945673544,0.00628454209651691,-0.977315750744579,-0.111546772650158,-0.178885038896691,-0.0217097833899679,0.0377948589661113,-0.0123047019122034,-1.00083338130302,-0.0466729259827309,-0.0207534150003057,-0.0778453136243409,0.0180301710655643,-0.0173415603630919
0.215,-0.230591561026522,-0.04136990016049,0.975672588934275,-0.0119689464675756,-0.00950755059258943,0.00562878175567275,-0.991764525784093,-0.10777626011722,-0.0794260636220765,-0.0262884878906094,0.00248628626183324,0.00561660015642838,-0.977556656258187,-0.111826087892482,-0.179067765341715,-0.0239460395817526,0.0377591835012982,-0.0122155059672531,-1.00097375313336,-0.0457603045984487,-0.0204197088849391,-0.0768357702138792,0.0193547063202323,-0.0169494874714125
0.22,-0.230852742739213,-0.0408835210048535,0.975709335851272,-0.0131050040388144,-0.0080079434717605,0.00692303888985486,-0.991826690877411,-0.108073782215095,-0.0801605954983333,-0.0281213067919784,0.00189152631710231,0.00493859652698212,-0.977750798904041,-0.111997816422782,-0.179174077012024,-0.0258896410338895,0.0374866151555053,-0.0120384467707899,-1.00101057533973,-0.0449589686107471,-0.0199603866138645,-0.0755591945074703,0.0206396882904495,-0.016413771909833
0.225,-0.231000106751237,-0.0404669009499325,0.975542336511095,-0.0140364982123347,-0.00660176330294821,0.00815528222076417,-0.991816745821703,-0.108364714693759,-0.0808864976117529,-0.0296449590451591,0.00138311217379572,0.00427039813201982,-0.977892439073004,-0.112065575265296,-0.179222253120623,-0.0275321119676191,0.0370054881350271,-0.0117916193352622,-1.00093591815706,-0.0442456313201932,-0.0194005244768824,-0.0740411156211388,0.0218397693893199,-0.0157738971259653
0.23,-0.231068053056773,-0.0401410750871168,0.975205312390066,-0.0147891357258596,-0.0053561427355867,0.00926258733273571,-0.991744203244453,-0.108656824433264,-0.0815828831238246,-0.0308594816969341,0.000952708449798456,0.00363215026100092,-0.977982081894943,-0.1120398665847,-0.179231160671458,-0.0288683290268402,0.036347315354582,-0.011494295756,-1.0007467886358,-0.0435968847267154,-0.0187702468582369,-0.0723084753153216,0.0229161801153201,-0.0150645360638811
0.235,-0.231094875089364,-0.0399206591849439,0.97474120334446,-0.0153810870493708,-0.00432023381481413,0.0101986497881734,-0.9916228737016,-0.108957096390065,-0.0822308102191887,-0.0317689260388634,0.000588411940296098,0.00304322835757812,-0.978024249855274,-0.111935226448472,-0.179219691415603,-0.0298972276398318,0.0355464234187906,-0.0111660395691312,-1.00044519153783,-0.0429933969109538,-0.0180979917367865,-0.0703896154738043,0.0238373383827567,-0.0143143412648556
0.24,-0.231118321265313,-0.0398095542721431,0.974196460514461,-0.0158225310822105,-0.00352330934914896,0.01093458140084,-0.991467932319572,-0.109269872225477,-0.0828142764248603,-0.0323804772388141,0.000275439146986967,0.00252126016937845,-0.97802489996563,-0.111767352014307,-0.179207268658642,-0.0306212045676196,0.0346387842773153,-0.0108255426299501,-1.00003773597507,-0.0424212442739492,-0.0174058079503207,-0.0683139460074404,0.0245788274240224,-0.013545497292973
0.245,-0.231170971005052,-0.0397991152505788,0.973615645020942,-0.0161154683955507,-0.0029748677904669,0.011457999449236,-0.99129343131523,-0.10959591840043,-0.0833204940424186,-0.032702562106233,-2.95477225625753e-06,0.00208130207695973,-0.977989205418989,-0.111551131866475,-0.1792142676106,-0.0310445051252349,0.0336602349881327,-0.0104893465461357,-0.999535333338256,-0.0418720779970727,-0.0167082042669322,-0.0661110616681195,0.0251231295954247,-0.0127738102062793
0.25,-0.23127656894222,-0.0398686864241152,0.973037434610355,-0.0162537785453533,-0.00266659896061503,0.0117711763154155,-0.991110672882613,-0.109932453413104,-0.0837398901913105,-0.0327425520361767,-0.000264399563067444,0.00173517486463142,-0.977920229850796,-0.111299880880187,-0.179261717475295,-0.0311711798608386,0.0326444480021005,-0.0101706097133204,-0.998953397240633,-0.0413436554415864,-0.0160140358410094,-0.0638094790810697,0.0254594882626438,-0.0120092122472092
0.255,-0.231448352442736,-0.0399877731326982,0.972492645242867,-0.0162235055623181,-0.0025756635949156,0.0118888609000836,-0.990927627628521,-0.110273848457295,-0.0840662741210586,-0.0325045604180029,-0.000526267710883966,0.0014909447028037,-0.977818731361573,-0.111025394139994,-0.179370219044032,-0.0310030961858658,0.0316209967934859,-0.0098780353165238,-0.998312358709693,-0.0408407626279343,-0.015329644028625,-0.0614353193872902,0.0255840817990525,-0.0112566072123937
0.26,-0.231689735303104,-0.0401192404304741,0.97200425924806,-0.0160033495950659,-0.00266848418271789,0.0118360930803032,-0.990749084038595,-0.110612565705636,-0.0842975805812776,-0.0319876519741457,-0.000804549857220639,0.00135257062225261,-0.977683935783662,-0.110738176827157,-0.179557876417655,-0.0305383055096713,0.0306137451778637,-0.00961506362779902,-0.997637705949248,-0.040375857881921,-0.0146610496243647,-0.059011340959618,0.02550044085978,-0.0105169303675902
0.265,-0.231996913064835,-0.0402232381418882,0.971588903170866,-0.0155654060362749,-0.00290409872913357,0.0116461349747072,-0.990576885084915,-0.110940015593698,-0.0844373518834781,-0.031184757741102,-0.00111274591539732,0.00131977167160236,-0.977514787675214,-0.110447465841504,-0.179836945938083,-0.0297700351615174,0.0296396767583729,-0.00937945709375695,-0.996958749355941,-0.0399692599796071,-0.0140137195907514,-0.0565569301759598,0.0252198268059924,-0.00978825199240142
0.27,-0.232362305463926,-0.0402615004970836,0.971258784584332,-0.0148762694747232,-0.0032362651106822,0.011358544211955,-0.990409918499658,-0.111247339897379,-0.0844963429222376,-0.030082593396257,-0.00146070956770058,0.0013881598157459,-0.977311089920463,-0.11016107706406,-0.180209954869296,-0.0286865800653754,0.0287082432768703,-0.00916340120952396,-0.996306061100763,-0.0396489474549908,-0.0133904552114218,-0.0540897111857194,0.0247612229235992,-0.00906679033898169
0.275,-0.23277748351021,-0.0402011907660226,0.971022883972114,-0.0138985194041264,-0.00361421271358855,0.0110173386619205,-0.990244315743956,-0.111526340108385,-0.0844927597357647,-0.0286625898275144,-0.00185351744344229,0.00154965700904978,-0.97707413643839,-0.109885263713917,-0.180667764700205,-0.02727209743695,0.0278213284767983,-0.00895414265735915,-0.995708578443175,-0.0394492387131017,-0.0127901969700168,-0.0516287621208435,0.024150737295444,-0.00834779088900034
0.28,-0.233234504743557,-0.0400172673275442,0.970886624911411,-0.0125922854340478,-0.00398309346161475,0.0106691626314438,-0.990074706644507,-0.111770621981479,-0.0844498840131879,-0.026902249768846,-0.0022907434847101,0.00179318427092657,-0.976806875538049,-0.109624651500779,-0.181192016351516,-0.0255077412297702,0.0269739165868594,-0.00873500172191611,-0.995191664972554,-0.0394071380492301,-0.0122104470800689,-0.0491980507275175,0.0234204952067605,-0.00762630552855885
0.285,-0.233725354098836,-0.0396932730303034,0.970850486810845,-0.0109163947181376,-0.00428582511010399,0.0103614380547321,-0.989896664244166,-0.111976698549213,-0.0843917136112285,-0.0247760433487209,-0.00276662833334526,0.0021055706727177,-0.976514087886717,-0.10938222701625,-0.181761099761844,-0.0233722930553846,0.026155473529342,-0.00848647845263785,-0.994776331643203,-0.0395565691780692,-0.0116522422481556,-0.0468279340965398,0.0226072162726975,-0.00689790638085444
0.29,-0.234240094225394,-0.0392217763554726,0.970909083866937,-0.00882896170989516,-0.00446718076859423,0.0101405795347758,-0.989709294733781,-0.112144651302612,-0.0843390705327205,-0.0222555516547113,-0.00327120409827056,0.00247259885198822,-0.97620309834298,-0.109159383711617,-0.182355267384695,-0.0208420303852028,0.025351937541608,-0.0081872962585954,-0.994478556827155,-0.0399228814455176,-0.0111229112613304,-0.0445538374063325,0.0217504295034357,-0.00615928923766357
0.295,-0.234764774682575,-0.0386056041334164,0.971051762718295,-0.00628799064028747,-0.0044792806705221,0.0100502838635034,-0.989516677919859,-0.112278059907175,-0.0843081155451159,-0.0193096086124545,-0.00379180707265135,0.00288010289398634,-0.975884928129194,-0.108956064969422,-0.182957507597734,-0.0178905783572563,0.0245481101160453,-0.00781549690894282,-0.994308297801648,-0.040519693772908,-0.0106339442650939,-0.0424135545844178,0.0208900572016289,-0.00540867298380004
0.3,-0.235279969118543,-0.0378595627604439,0.971264222840885,-0.00325280890971473,-0.0042868536014407,0.0101299209650385,-0.989327712724819,-0.112383109756288,-0.0843110322565722,-0.0159055803669562,-0.00431428598478682,0.00331501636176011,-0.975575065395389,-0.108771111580462,-0.183551280946501,-0.0144898715087241,0.023730023374431,-0.00734978549464059,-0.994269699954989,-0.0413471581106453,-0.0101974924107018,-0.0404449955632453,0.0200634845057418,-0.0046459993782517
0.305,-0.2357604765102,-0.0370115018246195,0.971529921439323,0.000313369827171173,-0.00387123072323085,0.0104134942909605,-0.989154744027725,-0.112467091505053,-0.0843573901577596,-0.0120124545826746,-0.00482363772416333,0.00376619787869622,-0.975293006507552,-0.108602958646085,-0.184118491765501,-0.0106129193461155,0.0228865420108414,-0.00677113513027773,-0.994363870411505,-0.0423893866843464,-0.00982670216721426,-0.0386840509814931,0.0193029772408566,-0.00387308812072723
0.31,-0.236176501742212,-0.036101928093795,0.971830658293636,0.00444001309350441,-0.00323283293938476,0.0109297193252374,-0.989011560686953,-0.112536938832316,-0.0844547804234208,-0.00760566102085747,-0.00530425121826716,0.00422486076891638,-0.975060329894691,-0.108450611620138,-0.18463958116794,-0.00623834496282809,0.0220095504197865,-0.00606446479636906,-0.994592579688695,-0.0436115467029997,-0.00953954511444108,-0.037160821489205,0.01863443133684,-0.00309389804637903
0.315,-0.236496344931183,-0.0351820730926503,0.972146758401923,0.00914515509367612,-0.00239211675844978,0.0117025254529569,-0.988911250179135,-0.112598518670168,-0.0846079281296441,-0.00267279677949546,-0.00574017579073131,0.00468460679272718,-0.974897712433867,-0.108314643123998,-0.18509523758179,-0.00135589883005818,0.0210929646833904,-0.00522017577473032,-0.994959019344773,-0.0449601854317077,-0.009360185025237,-0.0358940317777401,0.0180775791974859,-0.00231486462721087
0.32,-0.23669026949176,-0.0343111634930771,0.972457969576337,0.0144303483246425,-0.00138867466475739,0.0127500684095583,-0.988864194410013,-0.112656697034243,-0.084816957139704,0.00278079739606558,-0.00611579842109289,0.00514121174377043,-0.974821870616568,-0.108198301758585,-0.185467327488135,0.00402810761173516,0.0201317484338617,-0.00423541458467016,-0.995463372353609,-0.0463691080000252,-0.00931266610404168,-0.0348860451231164,0.0176466860076151,-0.00154509063786225
0.325,-0.236734798540946,-0.0335542826266911,0.972745980076417,0.0202742212397002,-0.000277752903212578,0.0140812466874052,-0.988876479585744,-0.112715526274608,-0.085076485749436,0.00872673140154561,-0.00641689740737083,0.00559219348351393,-0.974843621489273,-0.108109230621843,-0.185736746038947,0.00988557367149627,0.0191219961819921,-0.00311505965711075,-0.996094973126641,-0.0477688566924314,-0.00940792974745271,-0.0341214290526108,0.0173503398468928,-0.000796099161417223
0.33,-0.236615889598494,-0.0329817431690569,0.97299762384527,0.0266242987706532,0.000876329782623959,0.0156905610689711,-0.98894945079742,-0.11277819928756,-0.0853750607060157,0.0151075180215262,-0.00663171340225616,0.00603600559777125,-0.974967430660448,-0.108061995452226,-0.185879867428244,0.0161605676183207,0.0180622901176208,-0.00187254427995134,-0.996825629642596,-0.0490956645031046,-0.00963192589328415,-0.0335700291398799,0.017189533710036,-8.10048941239407e-05
0.335,-0.236328429344374,-0.0326701411666578,0.973205579441589,0.033386674694634,0.0020085759715124,0.0175521323374576,-0.989081248274113,-0.112847049601173,-0.0856917134364216,0.0218288244974282,-0.00675217873654552,0.00647074742707668,-0.975191598811326,-0.108081230509789,-0.185868584881781,0.0227615170840523,0.0169562325109436,-0.000530660446436348,-0.997608445096789,-0.0502975302969513,-0.00994417551424747,-0.0331929031142853,0.0171546212126682,0.000586630485423349
0.34,-0.235870094717121,-0.0327053393564933,0.973363960706486,0.0404125052547205,0.00305982063343684,0.0196124422478093,-0.989269774401936,-0.112923657855659,-0.0859892949376132,0.028749379120699,-0.00677616742454857,0.00689239742351842,-0.975508351883387,-0.108205239455689,-0.185674725418345,0.0295510111576924,0.0158162904222765,0.000877481941557337,-0.998383630479472,-0.051337394128476,-0.0102893942136377,-0.0329481634405261,0.0172229438218264,0.00119353920996339
0.345,-0.235232061851582,-0.0331861232564546,0.973460819946512,0.0474804074333836,0.00397764907111776,0.0217819063399671,-0.989514606078591,-0.113008580205805,-0.086211036197493,0.035667589285865,-0.00671105746794854,0.00729255169562852,-0.975904264931164,-0.108488693346221,-0.185272708896747,0.0363322982728047,0.0146685148540998,0.00230711257180158,-0.999088949021632,-0.0521938415029531,-0.0106143549063989,-0.0327943055672823,0.0173587854887887,0.00172636833828169
0.35,-0.234395381247011,-0.0342216526484049,0.973474253530068,0.0542776109070123,0.00471202709239832,0.0239279558395065,-0.989815375256785,-0.11310062408159,-0.0862880823885781,0.0423060456667963,-0.00657716958711423,0.00765588671987115,-0.976361396933689,-0.108999666876431,-0.184636912916118,0.0428336703699283,0.0135562372619517,0.00370017335025016,-0.999670203565329,-0.0528603079830634,-0.0108785858323094,-0.0326906568136619,0.0175158639268082,0.00217013650011814
0.355,-0.233342751879413,-0.0359106948399539,0.973378028299401,0.060391066260987,0.00521123579511915,0.0258744116321719,-0.990166659967957,-0.113196569525864,-0.0861585977561137,0.0483027635519156,-0.00640875034130448,0.00795845953879378,-0.976857993103366,-0.109804178410803,-0.183741636930605,0.048699566275325,0.0125401390290522,0.00498465377055892,-1.00008862024029,-0.0533448371222668,-0.0110553507638033,-0.0325971632583059,0.0176414589443748,0.00250638580180758
0.36,-0.232086094340555,-0.0382957989917377,0.973156137494473,0.0653279312677116,0.00542510334130808,0.0274125278303668,-0.990552107008074,-0.113292253393168,-0.0857915357851063,0.0532271434717502,-0.00625107029135349,0.00816888024165589,-0.977367367798555,-0.110936009972412,-0.18257564309958,0.0535062803554754,0.0116928613155976,0.0060776439795788,-1.000325449757,-0.0536706280941972,-0.0111300069854818,-0.0324765469497445,0.0176817031299511,0.00271245611886165
0.365,-0.230696008789347,-0.0413050187641383,0.972818744697667,0.0685835676521255,0.00531808868662544,0.0283284602043976,-0.990941137971486,-0.11338474956448,-0.0852066783685092,0.0566383124748364,-0.00615365143651087,0.00825404467025743,-0.977856050169276,-0.112361479840166,-0.181169873659039,0.0568197615966007,0.0110876101415793,0.00689511528028788,-1.00038514395284,-0.0538733784334248,-0.0111035768433742,-0.0322993051014787,0.0175884436721353,0.00276332202125108
0.37,-0.229311162568256,-0.0447169274731694,0.972409411992969,0.069755914024151,0.00488774878594126,0.0284475993098221,-0.991290589233323,-0.113474311742595,-0.084483259088168,0.0581850587539767,-0.00616054132446053,0.00818888953883395,-0.97828480774299,-0.113960858862876,-0.179617676204075,0.0582946016225196,0.0107817681634001,0.00736874734992243,-1.0002957535364,-0.0539914787379073,-0.0109994106570793,-0.0320481831900078,0.0173274190790332,0.00263667583106271
0.375,-0.228112167704297,-0.048188091110086,0.971996824596699,0.0686704340646296,0.0041791912968525,0.0276850286311503,-0.991552194446855,-0.113564847885618,-0.0837492755387731,0.0577145134516245,-0.0062996980672032,0.00796647377317411,-0.978615233905755,-0.115547791615876,-0.17806369487909,0.0577815463230052,0.0107994678730954,0.00746475279043563,-1.00010311008938,-0.0540518625747045,-0.0108629041722843,-0.0317179373530353,0.0168853448448151,0.00232016177040274
0.38,-0.22726555658666,-0.0513486182004985,0.971652919367167,0.065453725454131,0.00328623805192754,0.0260795192342352,-0.991684473202225,-0.11366264971131,-0.0831493985182742,0.0553343407363928,-0.0065751920057895,0.0076029658742544,-0.978820337244047,-0.116927431896029,-0.176658458258926,0.0553888065873617,0.0111203309050999,0.00719542817368005,-0.99985829512953,-0.0540599029439739,-0.0107486094988497,-0.0313096230427616,0.016272339010983,0.00181769595332844
0.385,-0.22686620279793,-0.0539192507243277,0.971428932348782,0.0605089898694292,0.00233605511890396,0.0237909809077872,-0.991664572209122,-0.113773992443098,-0.0828034909746625,0.0513881465603632,-0.00696584073638032,0.00713404747147247,-0.978893744957226,-0.117964422400157,-0.175504162346986,0.0514573767399016,0.0116806766962469,0.00661621358541287,-0.999603845033223,-0.0539989345449155,-0.0107011603613722,-0.0308226270253876,0.0155178557477021,0.00115167920031466
0.39,-0.226910178451493,-0.0557826957831496,0.971342704062331,0.0544026971388067,0.00146291416474142,0.0210617134681668,-0.991494965571443,-0.113902592730582,-0.0827754807534633,0.0463538622797528,-0.00743083120492311,0.00660419348950018,-0.978852127581059,-0.118621353625747,-0.174626824389722,0.0464601602973147,0.0123870205602897,0.00580939807250582,-0.999366420521034,-0.0538381686549312,-0.0107430334347216,-0.0302484342466093,0.014661968728659,0.000360306946045108
0.395,-0.227308744241651,-0.056976987362981,0.971381668339941,0.0477219520430625,0.000781806254343997,0.0181619837836896,-0.991202983242609,-0.114047773074823,-0.0830630873271383,0.040718681055369,-0.00791959083492447,0.00605434857144085,-0.978729230327355,-0.118949861721854,-0.173990746168605,0.0408780528228226,0.0131353683576652,0.00486319761097858,-0.999159103016987,-0.0535452272221123,-0.0108763513914358,-0.0295683528984143,0.0137465056371941,-0.000508148524234667
0.4,-0.227928435489695,-0.0576332794924611,0.971515371451671,0.0409643159940509,0.000370407067389856,0.015342500410363,-0.990834385963431,-0.114203667074536,-0.0836051157362063,0.0348856201817479,-0.00838252705884064,0.00551347557372067,-0.978564430139233,-0.119048649796748,-0.173540363177314,0.0351075615642273,0.0138292673458521,0.00385537691064251,-0.998989496178793,-0.053100688669715,-0.0110937100587442,-0.0287558422384755,0.0128100122442248,-0.00140172215080831
0.405,-0.228634043201012,-0.0579042572459207,0.971708799143544,0.0344864112023788,0.000262470623252905,0.0128041073469548,-0.990442848887939,-0.114359289590372,-0.0842998079634459,0.0291347668546085,-0.00878029217106167,0.00499621341477696,-0.978391016619186,-0.119016647847289,-0.173238686504468,0.0294227972586896,0.0143929450972638,0.00284531722038985,-0.998866981557415,-0.0525113569381372,-0.0113865493202671,-0.0277831524316912,0.0118873697159937,-0.00227077561817469
0.41,-0.229319264779861,-0.057915560931376,0.971931758615022,0.0285029954433107,0.000452139862464417,0.0106836797214012,-0.990077226870522,-0.114499275628062,-0.085030950540033,0.0236303829476692,-0.00908980769717829,0.00450560095147596,-0.97822872586401,-0.118921779715988,-0.173080189639492,0.0239830480806993,0.0147783622278485,0.00187323222147208,-0.998805060869558,-0.0518164346852498,-0.0117444759160717,-0.0266305457270774,0.0110117629740732,-0.00307368643694914
0.415,-0.22991973254737,-0.0577480211872834,0.972163172978038,0.0231142223330366,0.00090673320885803,0.00905156859687528,-0.989769963668084,-0.114605499738182,-0.0856973864757393,0.0184517087397355,-0.00930555093005333,0.0040382612442979,-0.978082636445381,-0.118791680928274,-0.173077178501133,0.0188638679561317,0.0149657047634793,0.000963237278105843,-0.998818823278171,-0.0510809667011034,-0.0121490137866393,-0.0252945940824261,0.0102158515786886,-0.00378197078753728
0.42,-0.230409141793826,-0.0574430087482528,0.972390318956307,0.0183406648708857,0.00158321428759771,0.00791685727388136,-0.989531258978387,-0.114659880525502,-0.0862368128008697,0.0136272344487982,-0.00943577354196014,0.00358940784873258,-0.977947719270955,-0.118622761453762,-0.173235224343078,0.0140914644682414,0.0149576595083922,0.000127508335986853,-0.998919882169607,-0.0503762841698503,-0.0125704081257077,-0.023791454542573,0.00953047333424217,-0.00438358787150754
0.425,-0.230783921216613,-0.0570186781083039,0.972604011262729,0.0141532515871748,0.00244162801052963,0.00723799773978752,-0.989351924084451,-0.114647928617276,-0.0866337870777927,0.00916028809323403,-0.00949537190235751,0.00315587003933063,-0.977815993365203,-0.118398762310504,-0.173536507595137,0.00966818720294183,0.0147696118014427,-0.000629923827827296,-0.999111604260999,-0.049755899817247,-0.0129727887480619,-0.0221528501943822,0.00898145844146137,-0.00488276336951515
0.43,-0.231045691520113,-0.056486633980274,0.972792472889287,0.0104932358125708,0.00344995014920485,0.00693691317495748,-0.98921341170992,-0.114561681292606,-0.0869085356019472,0.00504228314761066,-0.00949881227806925,0.00273661827179278,-0.977682420601612,-0.118108351518186,-0.17394093126727,0.00558545158583074,0.0144197550855234,-0.0013102088600056,-0.999386957955559,-0.0492407332358767,-0.013325494554564,-0.0204165715256599,0.00858662149745179,-0.0052958303625799
0.435,-0.231189983786861,-0.0558629364467352,0.972937467790173,0.00728350841150902,0.00457947792341807,0.00691468631507581,-0.989099333339591,-0.114400929772138,-0.0870945332476481,0.0012562197865049,-0.00945635883866908,0.00233153731790376,-0.977547273511926,-0.117754360290277,-0.174400524235102,0.00182679705695319,0.0139232590201323,-0.00191758422460791,-0.99972957665803,-0.0488217825502452,-0.0136130600937986,-0.0186170660522459,0.00835490950203418,-0.00564467542729101
0.44,-0.231203952557569,-0.055171866939102,0.973014789827661,0.00443539190804799,0.00579500518496888,0.00706666733478049,-0.989002270210903,-0.114173074416521,-0.0872199511153462,-0.00222421327211691,-0.00937438943769878,0.00193979561857808,-0.977415568159875,-0.117353912195336,-0.174873709067841,-0.00163340667791396,0.0132919825040494,-0.00245805022221243,-1.0001162141387,-0.0484740328150301,-0.013837132071691,-0.016781215492541,0.00828800918496608,-0.00595036275433496
0.445,-0.231070796809569,-0.0544437021802588,0.972998663342646,0.00185439127722151,0.00704596171790078,0.00729457004596186,-0.98892376299385,-0.113892607796044,-0.0873022281071895,-0.00543512275481179,-0.00925765201245298,0.0015588261534651,-0.977295342008641,-0.116933616885134,-0.175330760380629,-0.00483069376772094,0.0125373507266875,-0.00293852420225528,-1.00051825611498,-0.0481680061138894,-0.0140099092092454,-0.014929392769965,0.00838272588457372,-0.00622845540137557
0.45,-0.230778435718663,-0.0537088830456106,0.972868451560933,-0.000553552113203543,0.00826294277031581,0.00751396148932885,-0.988870554400579,-0.113580047131654,-0.0873508538649232,-0.00841989115652987,-0.00911094369208805,0.00118418678824489,-0.977195319462259,-0.116523368145068,-0.175754339844321,-0.00780810784468175,0.0116727741856147,-0.00336604850252069,-1.00090236372087,-0.0478735492893775,-0.014145089784284,-0.0130776268127922,0.0086321272415709,-0.00648606428560077
0.455,-0.23033134957032,-0.0529913361961925,0.9726163127222,-0.00287464276136648,0.00936126792507377,0.00765791026858898,-0.988850998131971,-0.113258996813311,-0.0873683759981513,-0.0112233594670717,-0.00894003980785949,0.000810150629678927,-0.977121562082921,-0.116149020685921,-0.176142284408232,-0.0106104350376514,0.0107145066127713,-0.00374682836454217,-1.00123238752461,-0.047562303386929,-0.0142520287175365,-0.0112377579088933,0.00902508391377837,-0.00672059062835361
0.46,-0.22976234439122,-0.0523030269341391,0.972253870220303,-0.00517791705193935,0.0102516545366505,0.00767951219608161,-0.988871812125239,-0.112951178727507,-0.0873497621485708,-0.0138838245369561,-0.0087531099932129,0.000430935636803538,-0.97707397141215,-0.115823663767271,-0.1765098054538,-0.013276161054704,0.00968227760281892,-0.00408530437099758,-1.0014730828054,-0.0472152270833737,-0.0143322358396793,-0.00941650714514151,0.00954515763449625,-0.00692096416283379
0.465,-0.229136705466996,-0.0516399992970109,0.971814322087077,-0.00750376701513466,0.010856716630149,0.00755509163988156,-0.988933585000423,-0.112671833739149,-0.0872888548686129,-0.0164239279936865,-0.00856218923859221,4.25816625347394e-05,-0.977045318710065,-0.115540000223239,-0.176882115629506,-0.0158281885562061,0.00860014075214055,-0.0043835515428564,-1.00159266475091,-0.0468313988570695,-0.0143732706437947,-0.00761594647910576,0.010169043433816,-0.00707191546051934
0.47,-0.228541360620099,-0.0509794765290561,0.97134671847094,-0.00985156445851745,0.0111285908482128,0.00728674642659541,-0.989026895268454,-0.112428776471514,-0.0871936444892899,-0.0188405404008721,-0.00838227154025435,-0.000354740733638944,-0.977025071872305,-0.115268517889698,-0.177277589289006,-0.0182634715354322,0.00749589307452892,-0.00464082512491116,-1.00156081397672,-0.0464281948557135,-0.0143393898321536,-0.00583584982885721,0.0108633719295777,-0.00715977222511703
0.475,-0.228059952236485,-0.0502798631678762,0.97090326306465,-0.01216948934115,0.011059395312513,0.00690101728634506,-0.98913352553038,-0.11222599311863,-0.0870992850717916,-0.0210937922715947,-0.00822655814231281,-0.00075463305583274,-0.977007002214683,-0.114964565157385,-0.177693351163628,-0.0205418830933647,0.00639773683591251,-0.00485267307019423,-1.00134350540656,-0.0460287853166906,-0.0141662722009435,-0.00407620087596047,0.0115791543131721,-0.00717625006069106
0.48,-0.227745785400309,-0.0494884033299504,0.970525483324229,-0.0143511067673076,0.0106779266916351,0.00644189822168238,-0.989233621219315,-0.112068852621754,-0.0870658215558329,-0.0230981081474071,-0.00809953977066466,-0.00114349296040491,-0.976995588302627,-0.11458332275411,-0.178104150434681,-0.022577312086914,0.00532918753031978,-0.00500949364898211,-1.00090239796044,-0.045644962223572,-0.0137705081548906,-0.00233823720413943,0.0122459634647991,-0.00711735883231804
0.485,-0.227607603157091,-0.0485603537554736,0.970235943084515,-0.016244135119426,0.0100341200400525,0.00595963945927156,-0.989314094768124,-0.11196651886467,-0.0871572486843286,-0.0247224333055188,-0.00799188392408182,-0.00150153406366037,-0.977005485904944,-0.114098648142153,-0.178474685750978,-0.0242381534689838,0.0043047358114682,-0.00509559911747173,-1.00020751513619,-0.0452689515153065,-0.0130799130183164,-0.000624072205743729,0.0127712251099084,-0.00697811496914732
0.49,-0.227614102670968,-0.0474864593084048,0.970037920486443,-0.0176763274876695,0.00918045686805596,0.00549874613521415,-0.989372945527958,-0.111929713176171,-0.0874103202342047,-0.0258086723810793,-0.00788089489483348,-0.00180638426371155,-0.977052751623979,-0.113520559489042,-0.178777316048045,-0.0253660435912816,0.0033282757547392,-0.00509061575827657,-0.999263134528089,-0.0448808066328582,-0.0120785277412006,0.00106393881097413,0.0130509352854394,-0.00674713059980509
0.495,-0.227710982445775,-0.0463147966892669,0.969920557302054,-0.0184984254917257,0.00815975159492825,0.00508805731422791,-0.989417904625644,-0.111966009590915,-0.0878096457440924,-0.026211511307078,-0.0077377173823291,-0.00203907056209743,-0.977143116574119,-0.112904094586422,-0.179005454859513,-0.0258158465396892,0.00239471368266151,-0.00497425317129844,-0.998132141863004,-0.0444651279534143,-0.0108440336792347,0.00272327378667662,0.0129940382983533,-0.00640516353429877
0.5,-0.227839850989888,-0.0451482936765917,0.969865519260548,-0.0186328717799066,0.00700256069290962,0.0047343507727597,-0.989461120144975,-0.112076471717178,-0.0882861748677767,-0.0258483769213161,-0.00753845778111383,-0.00219070214925546,-0.977265665176064,-0.112341065066608,-0.179175581337721,-0.0255055989504593,0.00149361403170434,-0.00473310001439835,-0.99693678303675,-0.0440243007199966,-0.00954795326061246,0.00435096047078104,0.0125534446128382,-0.005928525726377
0.505,-0.227952028658361,-0.0441113629298231,0.969852683191256,-0.0181062573559455,0.00573108585217456,0.00442022654930036,-0.989512771775708,-0.112255680895687,-0.088744249981484,-0.0247349723375717,-0.0072733232061078,-0.00226680698611173,-0.977396627050064,-0.111932915515714,-0.179316660251614,-0.0244519219692056,0.000612936113351635,-0.00436587669974016,-0.995826175644344,-0.0435799570115781,-0.00840641657451563,0.00594350551676744,0.0117482497488031,-0.0052947816711616
0.51,-0.228015692179416,-0.0433031331490148,0.96986405972174,-0.0170468457799192,0.00436426661516731,0.00410680392011942,-0.989576479930227,-0.112494171528591,-0.0891024743050046,-0.0229851705896347,-0.00694867020714799,-0.0022868362681163,-0.977510358151375,-0.111756704091047,-0.179453265158124,-0.0227697838065721,-0.000258730544461179,-0.00388391100302624,-0.994926968432419,-0.0431643638223243,-0.00760538368379115,0.00749702004396975,0.0106636149298834,-0.00448714052730077
0.515,-0.22801789368124,-0.0427669022926166,0.969885917476135,-0.0156483024295237,0.00292072616234278,0.00374117715325998,-0.989648182892317,-0.112780643863364,-0.0893233130880011,-0.0207761206064831,-0.00658162782045728,-0.00227910800546424,-0.977589577608593,-0.111842993681434,-0.179592504431804,-0.0206375103792494,-0.00113174917826887,-0.0033067866580429,-0.994307817456853,-0.0428097807173442,-0.00724508366730673,0.00900694864472822,0.00942823564060598,-0.00349577871835807
0.52,-0.227963683709831,-0.042491186514441,0.96990931478644,-0.0141198747484537,0.00141954645357442,0.00326779842504073,-0.989717917641744,-0.113102195504595,-0.0894166241621982,-0.0183007802800697,-0.0061916532241171,-0.00227405994250617,-0.977628658830241,-0.112174925138941,-0.179721419087314,-0.0182492265290096,-0.00201593755901857,-0.00265627505086316,-0.993975546398512,-0.0425425025917114,-0.00733124752147985,0.010467329178802,0.00818256683087303,-0.00231713088469115
0.525,-0.227873651680027,-0.0424325894052237,0.969929435161744,-0.0126450620389358,-0.000119351312425136,0.00264206087631057,-0.989772671149507,-0.113443128815107,-0.0894219639835088,-0.0157316816401152,-0.00579409925188054,-0.00229880484050326,-0.977629920407906,-0.112702046757103,-0.179814559128826,-0.0157784746672363,-0.00292078616837865,-0.00195197434738941,-0.993896082303373,-0.0423828069252583,-0.00780449573906541,0.0118706133162143,0.00705256722498946,-0.000953569490769587
0.53,-0.227779710982891,-0.0425395010384508,0.969944360992168,-0.0113586090414917,-0.00167411873811271,0.00184261153390293,-0.989799417088676,-0.113784427995686,-0.0893850097726378,-0.0132046705943185,-0.00539810615454006,-0.00237406812815298,-0.977597732298836,-0.113356230119712,-0.1798469226399,-0.013361725844777,-0.00385472870701849,-0.00120993950837942,-0.994021003272353,-0.0423478181948656,-0.00857910002329721,0.0132088898130968,0.00613561577552092,0.000585042552272035
0.535,-0.227718756562772,-0.0427637032756266,0.969954061812628,-0.0103398469788538,-0.0032199213428304,0.000877247199750713,-0.989788624809753,-0.114105409687195,-0.089340464859175,-0.010816631961101,-0.00500807356436442,-0.0025128010983382,-0.977535357305087,-0.114062475699577,-0.179806449862675,-0.0110958199522831,-0.00482354917388002,-0.000443404148116482,-0.994305837713954,-0.0424533632481207,-0.00956922222417399,0.0144756190528736,0.00549708178423135,0.00227858547851596
0.54,-0.227725421499324,-0.0430614242312396,0.96996027165357,-0.00961618235556339,-0.00472940226265838,-0.00022107902465219,-0.989737846353579,-0.114387073500322,-0.089305765403755,-0.00862743613212844,-0.00462663159481732,-0.00271943949314978,-0.977445917934162,-0.114745739440384,-0.179700622310311,-0.00903964728609315,-0.00582855380531245,0.000335997378388889,-0.994717225889576,-0.0427121098014383,-0.0106993406422764,0.0156661575515977,0.00517300005914965,0.00409473309223298
0.545,-0.227826347382341,-0.04339285333207,0.969967565366547,-0.00917167572675801,-0.00617494663797881,-0.00140573116239921,-0.98965376767901,-0.114615332967974,-0.0892840565227714,-0.00666175015576004,-0.00425723229121828,-0.00298962651141022,-0.977335598079254,-0.115338383856694,-0.179553442741575,-0.00721582230712859,-0.00686540132799281,0.00111748780620899,-0.995232499193059,-0.0431272142717955,-0.0119074229697295,0.0167769695772134,0.00517517498017743,0.00598954280105377
0.55,-0.228037431173187,-0.0437257873690474,0.969985176800027,-0.00895805041269739,-0.00753131811152981,-0.00262776690450123,-0.989551542908331,-0.114782597785284,-0.0892720746304363,-0.00491283817412259,-0.00390526796117433,-0.00331106406440604,-0.977216407603856,-0.115789812308382,-0.179393945962781,-0.0056145746871957,-0.00792440398847812,0.001890962154158,-0.995835861958701,-0.0436832903532693,-0.0131482287429822,0.0178055845799829,0.00549687148247295,0.00791111478190478
0.555,-0.228363841881065,-0.0440408465285149,0.970028026750511,-0.00890676593760485,-0.00877698518367136,-0.00384072496522948,-0.989451696246569,-0.114887087783273,-0.0892672682339593,-0.00335145241797229,-0.00357752194933731,-0.00366598756134745,-0.977106461372909,-0.116073686011779,-0.179243607003589,-0.00420297926362993,-0.00899246934350019,0.00264701676415703,-0.996513582762948,-0.0443405170379344,-0.0143954779365306,0.0187533324702606,0.00611824354938552,0.00980560194377539
0.56,-0.228802060792847,-0.0443318385423435,0.970115170589177,-0.00894036483598689,-0.00989362849828667,-0.0049987103942639,-0.989375597094099,-0.11492982520919,-0.0892693786675302,-0.00193837057469296,-0.00328070363808529,-0.00403457459498739,-0.977026638713694,-0.116185557127688,-0.179111373208124,-0.00293794948678497,-0.0100556418321875,0.00337691129373793,-0.997249330086428,-0.0450403777024359,-0.0156355924992324,0.0196301772942591,0.0070104281505748,0.0116233974795467
0.565,-0.229343062238593,-0.0445989963140573,0.970265553323438,-0.0089804782686284,-0.0108644254794276,-0.00605298305261656,-0.989340741770049,-0.114910267462923,-0.0892761662616622,-0.000634789470535293,-0.00302037236436806,-0.00439756475727188,-0.976994548331583,-0.116129848763919,-0.178998498400448,-0.00177695465136187,-0.0111002753452048,0.00407233825467164,-0.998020593520966,-0.0457256013522853,-0.0168501625431438,0.0204577150008231,0.00813680764596411,0.0133222788676784
0.57,-0.229974848831276,-0.0448396894439788,0.970493392471861,-0.00895099749096497,-0.0116720747835754,-0.00695209052134676,-0.989357716324164,-0.114823277417872,-0.0892784168599254,0.000594154223060148,-0.00280107078959778,-0.0047368275675963,-0.977019492839323,-0.115905669062356,-0.178906904465568,-0.000681566023499872,-0.0121115992985977,0.00472503581445517,-0.998797228793205,-0.0463624228451366,-0.0179969910462368,0.0212662545108164,0.00945097676573832,0.0148657484258838
0.575,-0.230682197130615,-0.0450430845277773,0.97080577471219,-0.00877819328427022,-0.0122976780262462,-0.00764658961857042,-0.989430521596956,-0.114660238671699,-0.0892601733927047,0.00178196857908585,-0.0026272215875619,-0.00503442711838123,-0.977102204255722,-0.11550372437088,-0.178843254997631,0.000385282403729103,-0.0130708424050901,0.00532656873492206,-0.999542852350262,-0.0469461716015107,-0.0190059965481969,0.0220863333143464,0.0108935497625949,0.0162189417857571
0.58,-0.231443488467248,-0.0451910130537068,0.97120240455875,-0.00839183266189268,-0.0127216577405571,-0.00809616248818283,-0.989559393172263,-0.114413910370142,-0.0892049006840848,0.00296460594598205,-0.00250355099551104,-0.00527204429798332,-0.977238876096035,-0.114916307714099,-0.178816752447197,0.00146310995650166,-0.0139538858884385,0.00586877552135259,-1.0002189775915,-0.0474849657351432,-0.0197956133197315,0.0229400575411721,0.0123916147740204,0.0173471951764028
0.585,-0.232227530737252,-0.0452627694267831,0.971675100585335,-0.00772981816402936,-0.0129271164503355,-0.00827633478350786,-0.989742458409056,-0.114082915832892,-0.0891026630073186,0.00418135111110318,-0.00243431052423655,-0.00543201667737217,-0.977424634088693,-0.114149948923693,-0.178834102298563,0.00259446983775221,-0.0147334609349288,0.00634500420636996,-1.00079076110932,-0.047978259661511,-0.0202977214358797,0.0238377480812667,0.0138630719982285,0.0182198352109568
0.59,-0.232993837656487,-0.0452408091241376,0.972205833223084,-0.00674511068940374,-0.0129044010286421,-0.00818248371362852,-0.989973588955702,-0.113672097329105,-0.0889532255276971,0.00547196438687839,-0.00242172367141527,-0.00549958557742032,-0.977652561294251,-0.11322976869115,-0.178895255588391,0.0038215995029456,-0.0153840349400719,0.00675152146629001,-1.00123245649917,-0.0484106560389882,-0.0204741677040003,0.0247805043843017,0.0152245734690652,0.0188163119911948
0.595,-0.233697254494522,-0.045115576536396,0.972765355008119,-0.00541171812202581,-0.0126545797338624,-0.00782948157274535,-0.990238297399516,-0.113189222066273,-0.0887642364161807,0.00687131555487112,-0.00246464761395202,-0.00546508078492157,-0.977909714219839,-0.112194518384297,-0.178991366082945,0.00518066898778513,-0.0158867176457592,0.00708819955422149,-1.00153049573191,-0.0487630944448165,-0.0203185629831235,0.0257649216748517,0.0163998533678388,0.0191296824529232
0.6,-0.234295207012274,-0.0448883788871734,0.973315438213415,-0.0037276997652679,-0.0121901660214815,-0.00724703568483954,-0.990512150964012,-0.112641715573852,-0.0885469345710115,0.00840317567746294,-0.0025581214156697,-0.00532521352751816,-0.97817470971512,-0.111088762670331,-0.179105515587896,0.0066954538719851,-0.0162321150879658,0.00735812337715104,-1.00168291001351,-0.0490272997350828,-0.019848425502278,0.0267861872340337,0.0173260472124431,0.0191655138619052
0.605,-0.234755204380664,-0.0445718265820747,0.973815210205727,-0.00171522070805448,-0.0115329132679307,-0.00647299997301123,-0.990763998204271,-0.112036125062262,-0.0883118781829404,0.0100748847105287,-0.00269394778065458,-0.00508339015831708,-0.978419458591726,-0.109957615944146,-0.179216304415108,0.00837211204053797,-0.016420665439548,0.0075664877940605,-1.00169569398652,-0.049211514902792,-0.0190951219411231,0.0278385683981417,0.0179571910637622,0.0189380950852964
0.61,-0.235060313007627,-0.044188628416934,0.974228980601507,0.000581267388780122,-0.0107095697817141,-0.00554751762847094,-0.990962419261691,-0.111380067738366,-0.0880659138526956,0.0118741967092822,-0.00286215331672701,-0.00474930232995097,-0.978614010913996,-0.108845064124285,-0.179302926376437,0.0101962514122846,-0.0164610565195026,0.00771937510176917,-1.00157848150667,-0.0493367099608428,-0.0180961177889682,0.0289144840663194,0.0182650798959863,0.0184666966867755
0.615,-0.235210483581837,-0.0437702352721324,0.974532022197642,0.00309745192859103,-0.00974700032732049,-0.00450957589600163,-0.99108211174748,-0.11068475250037,-0.087810633923978,0.0137683926768517,-0.00305296577999918,-0.0043381021468054,-0.97873194841204,-0.107794258992016,-0.179349275110357,0.0121322936218178,-0.0163676490488588,0.00782273243234576,-1.00134164740721,-0.0494290255727952,-0.0168905427981871,0.0300037189627664,0.0182381958455234,0.0177732715699167
0.62,-0.235219046158501,-0.0433559752241514,0.974712254672766,0.00575115374659321,-0.00866825303723223,-0.00339612222489102,-0.991107866318771,-0.109966404149126,-0.0875420526404971,0.0157047555412468,-0.00325881636510228,-0.00386936538447796,-0.978754387838412,-0.106847516379063,-0.179345545507939,0.01412420663993,-0.0161575971214173,0.00788150414297057,-1.00099515709254,-0.049513947375615,-0.0155165437389783,0.0310934903040523,0.0178793878487536,0.0168814143081742
0.625,-0.235105998900351,-0.0429917746054644,0.974768067795907,0.00844369059488449,-0.00749081844715734,-0.00224314259363385,-0.991035620801658,-0.109246104359132,-0.0872515765641587,0.0176117229905417,-0.00347592957020928,-0.0033658435330964,-0.978672048983745,-0.106044440710313,-0.179287632966885,0.0160969462570872,-0.0158479480123399,0.00789873831846044,-1.00054867075882,-0.0496137733318054,-0.0140092459735928,0.0321690712250155,0.0172026011079288,0.0158156400068335
0.63,-0.23489087916853,-0.0427266443282947,0.974703751995696,0.0110617058988077,-0.00622768156371653,-0.00108775096676098,-0.990871083591394,-0.108548541241682,-0.0869293670289524,0.0194012398397313,-0.00370513977441071,-0.0028518724515969,-0.978485782903978,-0.105417837082505,-0.179175420583486,0.0179591445815032,-0.0154530833845174,0.00787467734316699,-1.00001307800242,-0.0497464516794746,-0.0124004680683242,0.0332143666502022,0.0162290996263428,0.0146003747660836
0.635,-0.23458780711754,-0.0426054525832716,0.974524499046551,0.0134818693677316,-0.00489114249135251,3.00622249774993e-05,-0.99062657859076,-0.107900315337077,-0.0865711563742515,0.0209741588531076,-0.0039514982985528,-0.0023512992982574,-0.978206078111821,-0.104988177146447,-0.179010905815702,0.0196088655515549,-0.0149834240132377,0.00780618687095976,-0.999404034047628,-0.0499229122713442,-0.0107227240628702,0.0342122351154135,0.0149842178942927,0.0132587745780296
0.64,-0.234205003184075,-0.0426585067132479,0.974234122784663,0.0155815796258937,-0.0034984250081104,0.00106827231474811,-0.990317441485721,-0.107328235227316,-0.0861872842207682,0.0222309008927537,-0.00422221960494064,-0.00188498006118956,-0.9778521006822,-0.104758917857226,-0.178797164550511,0.0209445464875012,-0.0144467009361842,0.00768715602358135,-0.998746914726272,-0.0501403284064493,-0.00901907858047623,0.0351452498689088,0.013496104529018,0.0118121001865776
0.645,-0.233750097411542,-0.0428919963380601,0.973838702349863,0.0172571929799571,-0.00207651219720483,0.00198879488541041,-0.989960166419007,-0.106857819968132,-0.0858092274147384,0.023087689607566,-0.00452298934364222,-0.00146835488412272,-0.977450916599464,-0.104715971217866,-0.178538616196367,0.0218812965095235,-0.0138525471340388,0.00751043910507992,-0.998079843723669,-0.0503726870191031,-0.00735418908717507,0.0359983075768744,0.0117976838579414,0.0102809381727351
0.65,-0.233238894171645,-0.0432857049102476,0.973354891549337,0.0184457579193471,-0.000662715485763108,0.00276799744248189,-0.989573477511346,-0.106511775227937,-0.0854873036621887,0.0234943631126822,-0.00485376100037046,-0.00110992350572119,-0.977036731397068,-0.104832568726894,-0.178241442136071,0.0223684796625038,-0.0132189393092582,0.00727107546718127,-0.997449725097941,-0.0505686334006329,-0.00581339981522431,0.0367629476445449,0.00993100741317398,0.00868898425210764
0.655,-0.232700630220168,-0.0438014142006923,0.972815341198181,0.0191398627528712,0.000700543196724378,0.00340526065527865,-0.989180588594405,-0.106307941324362,-0.085277035509219,0.0234460575958299,-0.00520619494390595,-0.00081109110957835,-0.97664862205683,-0.105076753033675,-0.177912623314167,0.0224010267698552,-0.0125761549817468,0.00696920936084999,-0.996900174582721,-0.0506675604585958,-0.00448132740827587,0.0374396019179401,0.00794999016491971,0.00706759730463957
0.66,-0.232173666473545,-0.0443978597864345,0.972263994490339,0.0193856500635938,0.00197372477700109,0.00392132308935049,-0.988809143825662,-0.106256713463677,-0.0852200673558872,0.0229825143339686,-0.00556451038762198,-0.000567091006563831,-0.976325394800744,-0.105417197651668,-0.177557868571157,0.0220185254554866,-0.0119639904931766,0.00661078307485115,-0.99645823578398,-0.050629256980377,-0.00341202953525422,0.0380332730641843,0.00591738541830486,0.00545735025497399
0.665,-0.231694261513466,-0.0450433270341005,0.971743208456127,0.0192638898405555,0.00312556718548618,0.00434524094192516,-0.988487010778125,-0.106358633729871,-0.0853308573967222,0.0221754416861042,-0.00590947291071103,-0.000368334599254267,-0.976098443519882,-0.105825521233059,-0.177180005182284,0.0212926746059198,-0.0114225085224984,0.00620549675458376,-0.996129158650028,-0.0504560594206144,-0.00261495849358108,0.0385434056163397,0.00389635264472536,0.00390431426466663
0.67,-0.231288297627234,-0.0457199443876918,0.971282633586782,0.0188648066380163,0.00413377915781497,0.00469876473871523,-0.988235769188019,-0.106603030164857,-0.0855961888809534,0.0211103487255275,-0.00622331752136791,-0.000201867881943458,-0.975985574320595,-0.106276529508968,-0.176778639657843,0.0203093765878449,-0.0109814554268606,0.00576342099881557,-0.995901396742362,-0.0501910194226237,-0.00206671476220266,0.0389549291122706,0.00194129699253189,0.0024525976217642
0.675,-0.230971556842745,-0.0464203271009976,0.970896839781558,0.0182690490777275,0.00498391444650357,0.00498907466313357,-0.988065802547189,-0.106968399655585,-0.085985057125076,0.0198698692302283,-0.006493362211369,-5.30459321567856e-05,-0.975988679886283,-0.106748482150827,-0.176350624447491,0.0191522084077186,-0.0106538547902345,0.00529221929669896,-0.995755892443946,-0.0498965929427792,-0.00173521195974959,0.0392373700757259,9.22846909486236e-05,0.00113690501622601
0.68,-0.230753675910203,-0.0471408028813482,0.970589444206108,0.0175398400327785,0.00566959554190261,0.00521295037871819,-0.987975643205644,-0.10742482312999,-0.0864611827327629,0.0185224270829242,-0.00671339902632794,9.25199428047007e-05,-0.976096219418633,-0.107223790291748,-0.175890486738099,0.0178909730235524,-0.0104355369480872,0.00479604472419466,-0.995672974422265,-0.0496321569070941,-0.0015960528481027,0.0393521877888831,-0.00162607059778531,-2.18671047493492e-05
0.685,-0.230638434958481,-0.047875077283334,0.970357578677349,0.0167232509819513,0.00619344407014567,0.00536614598790758,-0.987955077363477,-0.107937852372827,-0.0869921607601892,0.0171170227977264,-0.00688307760739049,0.0002470797997905,-0.976288939479835,-0.107689258155777,-0.175390566859608,0.0165761726089109,-0.0103086781194646,0.00427598773589215,-0.995634859296072,-0.0494432374650993,-0.00163295696842295,0.0392619482074888,-0.00320280101246946,-0.00101712939952445
0.69,-0.230620615058059,-0.0486106509757198,0.970194169809078,0.0158511476080264,0.00656630685251261,0.00545009623027645,-0.987989238197152,-0.108472560091281,-0.0875535110291095,0.0156831301374039,-0.00700593555365998,0.000419396520929349,-0.976545469591249,-0.108135526276839,-0.17484179003585,0.0152385524823932,-0.0102465975289063,0.00373135436681448,-0.995625593022272,-0.0493608378368138,-0.00182897209037227,0.0389352371524761,-0.00463773765058318,-0.0018541111830398
0.695,-0.230685137843719,-0.0493285967507812,0.970089393862919,0.0149440489742317,0.00680467533364082,0.00547376870643196,-0.988061440723758,-0.108996825030041,-0.0881283236847135,0.014233750589764,-0.00708693523452951,0.000614092224755719,-0.976845010023275,-0.108556466328168,-0.174236737670822,0.0138918749906738,-0.0102184410177932,0.00316110452168182,-0.995630726827108,-0.0494022104989914,-0.00215980585108256,0.0383473074060739,-0.00593879450533062,-0.00254609273946725
0.7,-0.230810559633362,-0.0500054433551952,0.970032372606124,0.0140140490308698,0.00692823793253626,0.00545316909066901,-0.988155011256867,-0.10948405020681,-0.0887038367183713,0.0127698586615605,-0.00713048765525006,0.000831531262084241,-0.977167324194653,-0.108949281903642,-0.173575478261299,0.0125371769251351,-0.0101935785781726,0.00256513767143788,-0.995637538094707,-0.0495691451760785,-0.00259444025993131,0.0374807101522636,-0.00711967994337159,-0.00311072274758768
0.705,-0.230973369859086,-0.0506153353212816,0.97001256217292,0.0130680603860769,0.00695828354174808,0.00540997098235687,-0.988255605043904,-0.109915712209286,-0.0892670848035508,0.0112855537532835,-0.00713966996944759,0.00106807170647925,-0.977492652810954,-0.109315193918097,-0.1728715117178,0.0111678059589676,-0.0101454276366292,0.001945408315405,-0.995635491980485,-0.0498469417570256,-0.00310003226186968,0.0363280586896975,-0.00819767998476216,-0.00356673533363152
0.71,-0.231149766062065,-0.0511318335134384,0.970020492078609,0.0121104416360827,0.0069158257220085,0.00536824295284013,-0.988354106106535,-0.110283178705336,-0.0898024686804176,0.009773694511512,-0.00711659275587506,0.00131661715196572,-0.977803458854403,-0.109659913743416,-0.172153405168477,0.00977500179288403,-0.0100540123085205,0.00130687838552503,-0.995616727912807,-0.0502078304006522,-0.00364588222176709,0.0348946797778209,-0.0091910872924329,-0.00393071271472444
0.715,-0.231315321945703,-0.051529737322862,0.970048403404196,0.0111440783118665,0.0068187174359584,0.00534881099130768,-0.988448562312918,-0.110587728451076,-0.0902928894257965,0.00823126962576879,-0.00706316052730603,0.0015674017920137,-0.978087455741898,-0.109992967305405,-0.171460065211426,0.00835328456794874,-0.00990692874944627,0.000658174829923443,-0.995576733756104,-0.0506182900389662,-0.00420454086435534,0.0331980526531075,-0.0101163565665968,-0.00421385693240249
0.72,-0.231444943883997,-0.0517872290573686,0.970091230275867,0.0101701337233262,0.00667855054265117,0.00536276112052984,-0.988543792291445,-0.110838290804702,-0.0907235855105607,0.0066635213892275,-0.00698137536360637,0.00180894832991024,-0.978339993759021,-0.11032527554012,-0.170831681448867,0.00690468562997673,-0.00969905606913529,1.17515099290022e-05,-0.995515072353289,-0.0510466184023063,-0.00475113740831083,0.0312635558773638,-0.010985643318073,-0.00441945500170936
0.725,-0.231515118371816,-0.0518885521059607,0.970147760529547,0.00918748864674057,0.00649893928348879,0.00540648093835313,-0.988648535862977,-0.111047228092675,-0.0910862147872593,0.00508607620565908,-0.006872817725548,0.00202917757953895,-0.978564178067805,-0.110665305821181,-0.170300261129697,0.00544109555416438,-0.00943162992158588,-0.000616620642379817,-0.995435413195112,-0.0514672619384267,-0.00526220737856288,0.0291186759707157,-0.0118056526908748,-0.00454203669273955
0.73,-0.231508596559731,-0.0518273245901318,0.970221234597271,0.00819282324456721,0.00627665132044759,0.00546065714564086,-0.9887713545491,-0.111225285836163,-0.0913801115339996,0.00352434447925136,-0.00673760901872601,0.00221659325991564,-0.978768154740306,-0.111015198271419,-0.169883818776248,0.00398399771016401,-0.00911115894604264,-0.00120915560552119,-0.995344213542188,-0.0518608276100859,-0.00571515552354289,0.0267888226411141,-0.0125785725811358,-0.00456895130539452
0.735,-0.231418965632367,-0.0516097724711541,0.970318220343764,0.007181592620955,0.00600566086546424,0.00549440887412228,-0.988917565109832,-0.111377611289326,-0.0916079050355744,0.00200978267709911,-0.00657380779022574,0.00236137910038499,-0.978960372632066,-0.111368634599011,-0.169587642829742,0.00256115157122385,-0.00874808301488303,-0.00174809630382185,-0.995248273505935,-0.0522120560616258,-0.00609006798465893,0.0242970395582336,-0.0133051083123022,-0.00448437904926121
0.74,-0.231251753003541,-0.0512565420969701,0.970445316678347,0.006149183358757,0.00568192415498315,0.00547300491460379,-0.989088956499683,-0.111502422574999,-0.0917659560985842,0.000573739410502241,-0.00637845118680288,0.0024562693087689,-0.979144840468994,-0.111711418120487,-0.169412317927044,0.001200885482538,-0.00835426775522118,-0.0022181761530948,-0.995152157056253,-0.052509486465449,-0.00637438470458581,0.0216673890506175,-0.0139885522421614,-0.00427493234756371
0.745,-0.231021368554805,-0.0508019325840941,0.970605118483028,0.00509114156719914,0.00530594333693972,0.00536584520026484,-0.98928562331395,-0.111592363816655,-0.091835794071631,-0.000759524066187476,-0.00615070030987108,0.00249712132046509,-0.979318649452777,-0.112024355634295,-0.169362372769306,-7.44855512511733e-05,-0.00793855572782033,-0.00260901040924565,-0.995056680557578,-0.0527478256282512,-0.00656797639645177,0.018929359958918,-0.0146383237931969,-0.00393543759087929
0.75,-0.230746076058495,-0.0502896501398161,0.970793781674435,0.00400215314270434,0.00488208664752033,0.00515210345588429,-0.989507521729032,-0.111637519974083,-0.0917848220716376,-0.00197885147250263,-0.00589590884075868,0.00248314875958001,-0.979473073265772,-0.112287128576489,-0.169448102359859,-0.00125440366819945,-0.00750129234307797,-0.0029169060445989,-0.994959441967983,-0.0529299902888316,-0.0066852443993209,0.0161202566675639,-0.0152717162283692,-0.00347329823888804
0.755,-0.230443403548015,-0.049765169791906,0.971001273760047,0.00287470475197907,0.00441589076536688,0.00482279390334081,-0.989753981834691,-0.11162908458104,-0.0915789564684939,-0.00308922951124975,-0.0056282132416213,0.00241682657916902,-0.979597651653537,-0.112481871695595,-0.169678519066578,-0.0023430238457274,-0.00703056647576413,-0.00314557046016789,-0.994857338692252,-0.0530656266246414,-0.00675268294730915,0.0132839175560939,-0.0159130621939334,-0.00290988160082693
0.76,-0.230127417050783,-0.0492673871230739,0.971213540386411,0.00169871950170846,0.00391134558439814,0.00437901582560612,-0.990021006975708,-0.111562555745084,-0.091200948425954,-0.00411028830275391,-0.00536965583807949,0.00230355774796293,-0.979684611307963,-0.11259570471821,-0.170049891614167,-0.00335785507301123,-0.00650278659536815,-0.0033053949780636,-0.994749562614491,-0.0531668925033592,-0.00680227161906994,0.0104660219674889,-0.0165903145675014,-0.00227815958923634
0.765,-0.229808436844769,-0.0488237962630857,0.971414996048654,0.000462706089150697,0.00336994223243733,0.00382783755754381,-0.990297683190685,-0.111439099756739,-0.0906635675133728,-0.00507098226070345,-0.00514573061487946,0.00215118086902175,-0.979730606972415,-0.112621976173619,-0.170537207171651,-0.00432475886923034,-0.00588800553761762,-0.00341157891717857,-0.994639893012795,-0.0532453896400194,-0.00686359284173245,0.00770798523063906,-0.0173303185402995,-0.0016176711524248
0.77,-0.229494306096306,-0.0484508369009551,0.971589945898647,-0.000843948693924669,0.00279214803744304,0.00317898917608649,-0.990564440939215,-0.111264663996665,-0.0900096276264879,-0.00600349421623926,-0.00497929231487351,0.00196931686592258,-0.979735001467075,-0.112560326913785,-0.171095232858879,-0.00527224101341493,-0.00515789541780364,-0.00348189409210249,-0.994539589854358,-0.0533126968791588,-0.00696119843792668,0.00504203332316813,-0.0181542757033007,-0.000969342153132577
0.775,-0.229191208194009,-0.0481566658267294,0.971722548881982,-0.00222815173339923,0.00217976009117929,0.00244478081599055,-0.990795735306945,-0.111048035278617,-0.0892986420326494,-0.00693891393622107,-0.00488569037452677,0.0017685651910926,-0.979696703016766,-0.11241575250295,-0.171671536955741,-0.00622749468523443,-0.00429322865906866,-0.00353477179175906,-0.994472544017431,-0.0533827165541955,-0.00712229520266916,0.00248892306679782,-0.0190731469885228,-0.00037218501773847
0.78,-0.228903318392899,-0.0479427113659046,0.971796716000887,-0.00369011305364109,0.00153634414376773,0.00164258357466327,-0.990966726221024,-0.110799334737501,-0.0885879253477088,-0.00790452642795565,-0.00487118761733577,0.00155970883505385,-0.979612386458473,-0.112196807730451,-0.172225591403414,-0.00721399412013619,-0.00328854774882236,-0.0035878222413257,-0.994479613799542,-0.0534717378804897,-0.00738893275905633,5.82623976554871e-05,-0.0200816137805858,0.000137955487667428
0.785,-0.228632944489797,-0.0478037100275709,0.971798585098205,-0.00522070864059104,0.000864926255460166,0.000796926053793282,-0.99106044933242,-0.110529173092089,-0.0879187265772103,-0.00892118045981919,-0.00493466254068337,0.00135316556698587,-0.979477766676881,-0.111913449241905,-0.172741436205705,-0.00824910057539416,-0.00215336894747161,-0.0036566123416417,-0.99461403243923,-0.0535943451439572,-0.00781805444801086,-0.00224923605880113,-0.021151593882709,0.000528716984497316
0.79,-0.228382916159851,-0.0477288291199029,0.971722804844433,-0.00680056082163274,0.000165594947975248,-6.12896546334735e-05,-0.991072278302431,-0.110247730388544,-0.0873127925028414,-0.0100008243434714,-0.00507079043328872,0.00115875288310689,-0.979291743561625,-0.111575521025278,-0.173224737558148,-0.00934174678525365,-0.000910210377045657,-0.00375378954285763,-0.994922234162286,-0.0537576332408328,-0.00845712599882103,-0.00443856024886274,-0.0222304631711229,0.000771659368059698
0.795,-0.228160466081068,-0.0477053018411159,0.971579853764725,-0.00840276070426405,-0.00056343085316119,-0.000899059444801378,-0.99101112221092,-0.109963551244396,-0.0867762043359601,-0.0111463613750397,-0.00527280101281989,0.000985583566458618,-0.97906122905259,-0.111192572608795,-0.173687779638291,-0.0104923245705735,0.000410471615676955,-0.00388894231196102,-0.995415761313005,-0.0539578656477712,-0.00930416640961414,-0.00651770082040722,-0.0232500432355761,0.000843184241175295
0.8,-0.227979734209408,-0.0477225997918448,0.971398602268675,-0.00999980974361666,-0.00132074154651664,-0.0016880669534295,-0.990897891564859,-0.109682838093858,-0.0863042316204799,-0.012355213988182,-0.00553428413426591,0.00084189386223954,-0.978803151415611,-0.110774522895802,-0.174135681221635,-0.0116961677872407,0.00177825803807828,-0.00406937257204892,-0.99605208605579,-0.0541810438026838,-0.0102818335131626,-0.00849640131229173,-0.0241470781548601,0.000725639270265846
0.805,-0.227860724168045,-0.0477739249085586,0.971220295008213,-0.0115719283528128,-0.00209592755692459,-0.00241143499379405,-0.990760690566524,-0.109409884897508,-0.0858858777031253,-0.0136247367288757,-0.0058505139396389,0.000734820922289273,-0.978541266840918,-0.110331947905488,-0.174563509857509,-0.01294883198567,0.00317149873746844,-0.00430130693799498,-0.99674265037928,-0.0544049635810218,-0.0112534781428498,-0.0103855827683895,-0.024886818198469,0.000408083571367979
0.81,-0.22782509830226,-0.0478539569111068,0.971086287877439,-0.0131110832675242,-0.00286678573961738,-0.0030661543517068,-0.990626382735743,-0.109148141582377,-0.0855115656971597,-0.0149555078928901,-0.00621917896228335,0.000670268210661674,-0.978299034233301,-0.109875282881329,-0.174961867034873,-0.0142493043262529,0.00458204307691624,-0.00459063493010243,-0.997389288272587,-0.0545996926394161,-0.0120794620422126,-0.0121955036299989,-0.0254759842515529,-0.000113495709222882
0.815,-0.227890749681227,-0.0479545328692061,0.971026129246064,-0.0146165138901883,-0.00360054053892381,-0.00365766435741377,-0.990511293779734,-0.108900892973617,-0.0851837231346134,-0.0163498987481911,-0.00663944372861153,0.000652899214120905,-0.978092689913577,-0.109413187913346,-0.175322647876373,-0.0155986242036296,0.00601179551792425,-0.00494252690594421,-0.99792750054096,-0.0547269969481527,-0.0126787637690717,-0.0139317889797456,-0.0259563518575248,-0.000836200503905662
0.82,-0.228066530968632,-0.0480607282277394,0.971050764838192,-0.0160830687292004,-0.0042577983678593,-0.00418816893052646,-0.990416306132467,-0.108671369262161,-0.0849224686028134,-0.0178064113038291,-0.00710895540818454,0.000686237101148963,-0.97792790226206,-0.108950748677635,-0.175641972957515,-0.0169943946696505,0.00746204043787161,-0.00536003735041389,-0.998348874346661,-0.0547429350170118,-0.0130564900512245,-0.0155908870499029,-0.0263827226507075,-0.00175010232173705
0.825,-0.228347738809682,-0.0481494050579631,0.971151222915116,-0.0174887211939179,-0.00479836964326748,-0.00464602762636336,-0.990329504398903,-0.108462915009819,-0.0847592168085792,-0.0193121681676713,-0.00762042186462584,0.000772959862448015,-0.977800461641252,-0.108488464181242,-0.175922775983626,-0.0184234610032383,0.00892196115023245,-0.005842405505887,-0.998691376420495,-0.0546067494318503,-0.0132848924745086,-0.0171578975837882,-0.0267983940040671,-0.00283816140727535
0.83,-0.228713799029966,-0.0481921746029539,0.971301763046385,-0.0187884049941738,-0.00518891332456547,-0.00500379640397262,-0.990234413604217,-0.108279485930279,-0.0847212450918439,-0.0208366090905544,-0.00816022401787021,0.000915439912768999,-0.977699771989734,-0.108023752023094,-0.176176499671723,-0.0198556904005524,0.0103634285468549,-0.00638390439133605,-0.999007915316411,-0.0542935152847532,-0.0134555157843232,-0.018608934353762,-0.0272205509611256,-0.00407675283302357
0.835,-0.229130623751775,-0.0481638479011872,0.971467578489953,-0.0199183792565402,-0.00541088424855207,-0.00522642817525038,-0.990118802193919,-0.108126123488634,-0.0848181840420112,-0.0223302600872057,-0.00871005154053335,0.00111613326403247,-0.97761392227022,-0.107556797994657,-0.176418905359075,-0.0212426856344206,0.0117447340869835,-0.00697387813290739,-0.999332383271302,-0.0538030775823275,-0.0136304914844651,-0.0199177879713173,-0.0276404660903558,-0.0054369637009981
0.84,-0.229558126846454,-0.0480540971848054,0.971615961536467,-0.0208113595143168,-0.00546507908922569,-0.00528471436432231,-0.98998012038419,-0.10800930002542,-0.0850384330915705,-0.0237323202191558,-0.00925045608224439,0.00137702356324903,-0.97753498351304,-0.107100044465119,-0.176659014728597,-0.0225252536610098,0.0130206966664649,-0.00759819437925784,-0.999657797169718,-0.0531587031478118,-0.0138134853303002,-0.0210639544157267,-0.0280359367244998,-0.00688601150741186
0.845,-0.229958866637239,-0.0478755275694038,0.971725947833156,-0.021418815613486,-0.00537003405230404,-0.00516770299681681,-0.989826319964438,-0.107937490005634,-0.0853551117434185,-0.0249872804718967,-0.00976445768049769,0.00169767556843277,-0.977462421093028,-0.106686289717237,-0.176888934270029,-0.0236499520386253,0.0141540384905166,-0.00824174733641903,-0.999933513116243,-0.0523951573347281,-0.0139489956744031,-0.0220378882232471,-0.028389349967063,-0.00838782682500308
0.85,-0.230301987491177,-0.0476603039347227,0.97179015838753,-0.0217327827643269,-0.00515591150390371,-0.00489046578238997,-0.989672228652943,-0.107921915668875,-0.0857368807151206,-0.0260642114128748,-0.0102397817190272,0.00207250691378416,-0.97740248060781,-0.106368588987295,-0.177084385438238,-0.0245884137077601,0.0151230282464749,-0.00889092625215078,-1.00008343882019,-0.0515423800354732,-0.0139504027565451,-0.0228406325408479,-0.0287031742061047,-0.00990232202769807
0.855,-0.23056061584594,-0.047443926966055,0.971807430538522,-0.0217968870920714,-0.00485894643034866,-0.00449585548895423,-0.989532685872017,-0.107976494635263,-0.0861589191077666,-0.0269677184662564,-0.0106688850319138,0.00248871976046241,-0.977363259922778,-0.106209232029641,-0.177217928522735,-0.0253484590465892,0.0159217020123123,-0.00953453415440048,-1.0000403896003,-0.0506138259981073,-0.0137474878159872,-0.0234777976847208,-0.0290046881248847,-0.0113837104584643
0.86,-0.230706696093681,-0.047245587393777,0.971772308859149,-0.0216998368467212,-0.00452040592295437,-0.00405022215341695,-0.989415985680421,-0.108115922329523,-0.0866086700096217,-0.0277329087259321,-0.011046769715294,0.00292612937635556,-0.977348301104375,-0.106262637886683,-0.177276917569043,-0.0259692862815573,0.0165520590148695,-0.0101623163579145,-0.999780773417747,-0.0496070264446417,-0.0133296479573206,-0.0239507884001454,-0.0293358082446768,-0.0127791321146401
0.865,-0.230709401161955,-0.0470589050444963,0.971670678593567,-0.0215551533133953,-0.00418967101610546,-0.003635470420249,-0.989322628487939,-0.108352197066649,-0.0870818948778816,-0.0284074728593142,-0.0113680575792988,0.00335903719241492,-0.977353423570454,-0.106561621391437,-0.177275177323658,-0.0265036968664235,0.0170126374970531,-0.010762046050169,-0.999339350598927,-0.0485166325775384,-0.0127571161279801,-0.0242501945336583,-0.0297326752846643,-0.0140293170756134
0.87,-0.230540589047133,-0.0468584358153477,0.971486596173089,-0.0214797328128213,-0.00392739079319186,-0.00334190249900894,-0.989251368781081,-0.108691650563587,-0.0875716199932838,-0.0290327665286456,-0.0116256587563858,0.00375918256765004,-0.977369839237647,-0.107114111240212,-0.177252638809319,-0.0269990733307134,0.0172907595534907,-0.0113173695664343,-0.998796372383894,-0.0473495128382307,-0.0121339548843355,-0.0243555523494064,-0.0302066004710754,-0.015072030413863
0.875,-0.230185173776691,-0.0466143069011479,0.971216225113762,-0.0215819368991821,-0.00380424356417427,-0.00326474142739121,-0.989208117403599,-0.109134537683411,-0.0880603534852817,-0.029634220405285,-0.0118121331451681,0.00409842341600674,-0.977391774351298,-0.107909835481727,-0.177264733619304,-0.0274874259679074,0.0173625151707828,-0.0118078456513878,-0.998249930544836,-0.0461282605698835,-0.0115670356337334,-0.0242413801363623,-0.0307357918293685,-0.0158467173397098
0.88,-0.229649224256351,-0.0463031188720581,0.97087747274317,-0.0219596380538069,-0.00389389153317763,-0.00350294792512403,-0.989209208951662,-0.109676823030014,-0.0885245724799472,-0.0302220203006464,-0.0119222966219283,0.00435034074182105,-0.977422510878399,-0.10892947615545,-0.177367131778423,-0.0279856266506782,0.0171977558402431,-0.012210661785205,-0.997794940450037,-0.0448805810828732,-0.0111429425190269,-0.0238845419311538,-0.0312680579480393,-0.0162976502684448
0.885,-0.228959340714232,-0.0459103285652377,0.970506032195998,-0.0227003946559652,-0.00426301532099301,-0.00415610739199546,-0.989273951321164,-0.11031138982469,-0.0889495124331731,-0.030795490764275,-0.0119542167328194,0.00449100359151413,-0.977473283147241,-0.110148024777603,-0.177601019189531,-0.0284994335301005,0.0167636520235751,-0.0125025238339884,-0.99751927845987,-0.0436269122560951,-0.0109325977232912,-0.0232672632805697,-0.0317274810979185,-0.0163749178585252
0.89,-0.228154476746395,-0.0454282289835102,0.970140314969272,-0.0238764961562633,-0.00496303847592222,-0.00531622579319257,-0.989410927373925,-0.111026499948286,-0.0893418585056607,-0.0313450632016671,-0.0119070181713986,0.00449979180851288,-0.977555420314013,-0.111530549370405,-0.177983108260629,-0.0290251689957403,0.0160231753829596,-0.0126609631290662,-0.997508835951301,-0.0423801672645195,-0.0110054405948263,-0.0223744696012422,-0.0320188509564968,-0.0160357241255792
0.895,-0.227278059891823,-0.0448554024767285,0.969807931955525,-0.0255347669269837,-0.0060258194374388,-0.0070551963657063,-0.989609558544011,-0.111802676471889,-0.0897282724384972,-0.0318514922006685,-0.0117769451285589,0.0043608568387419,-0.977672310272271,-0.113026437698237,-0.178504096126755,-0.029548573552158,0.014931185081103,-0.0126655281860781,-0.997845083039004,-0.0411575726736676,-0.0114289917193605,-0.0211895115304973,-0.0320300822257743,-0.0152486634421083
0.9,-0.22637601257557,-0.0441991026061881,0.969523690205529,-0.0276871410209208,-0.00746234842663186,-0.0094123669060453,-0.989844879412388,-0.112611623193912,-0.0901391118890987,-0.0322860609517386,-0.0115551081532134,0.00406488932466144,-0.977817866093482,-0.114569846419072,-0.179136391444981,-0.030044530038816,0.0134342910526519,-0.0124995338359939,-0.998587985300612,-0.0399912811430712,-0.0122485146008556,-0.0196937132000249,-0.0316374712968463,-0.014000202243505
0.905,-0.225498304866327,-0.0434784931404833,0.96929698635122,-0.0303081997199606,-0.00926296234563975,-0.0123873798979515,-0.990092104289084,-0.113419459529378,-0.090588340301972,-0.0326146070321385,-0.0112293120234758,0.0036103292403734,-0.977982084490625,-0.116088460751344,-0.179846048898686,-0.0304806161216667,0.0114782096519625,-0.0121522905127144,-0.999752020212146,-0.0389269857848815,-0.0134616442917564,-0.0178715345110303,-0.0307173019796046,-0.0122994504286032
0.91,-0.224698434050443,-0.0427265485838372,0.969139022158302,-0.0333417568989008,-0.0113991776356724,-0.0159410250056902,-0.990339909550067,-0.114192706496067,-0.0910617694741915,-0.0328051893165292,-0.0107894336714239,0.0030034449140366,-0.978158295688152,-0.117515608216776,-0.180600936524195,-0.0308244639860711,0.00902116899227906,-0.0116212189444959,-1.00128839897242,-0.0380139410021642,-0.0150039367920174,-0.0157185529565923,-0.0291630727522541,-0.0101781975852985
0.915,-0.22403047414654,-0.0419879339013277,0.969064251772143,-0.0367137148909787,-0.0138276310787448,-0.0200026993130701,-0.990593799304821,-0.114903165714922,-0.0915183236847235,-0.0328371503775806,-0.0102337932389762,0.00225741030063808,-0.978346059103196,-0.118798006881354,-0.181372142285758,-0.0310527289638331,0.00604896160252031,-0.0109133812217311,-1.003082134284,-0.037297427345093,-0.0167505575356623,-0.0132482458896337,-0.0269051152095443,-0.00768696546362544
0.92,-0.223549433918107,-0.0413085744617401,0.969088688933936,-0.0403433944997271,-0.016494490125194,-0.0244787293252447,-0.990868633232197,-0.115529292990651,-0.0919029005833782,-0.0327071312244301,-0.00957389292391242,0.00139106242634745,-0.978547655510136,-0.119894072574823,-0.182133283513381,-0.0311572052839405,0.00258691105191811,-0.0100459018170566,-1.00496720059852,-0.0368175475367858,-0.0185341910206169,-0.0104953440154245,-0.0239282760474126,-0.00489009761901049
0.925,-0.223318561940115,-0.0407157318057898,0.969230063275877,-0.0441418551506067,-0.0193364077939097,-0.029253609287668,-0.991175153534521,-0.116054822487435,-0.0921674029641496,-0.0324249066313649,-0.00883563494692256,0.000428190227875491,-0.978760854468097,-0.120763683605133,-0.18286282158873,-0.0311409916094928,-0.00129588980657402,-0.0090441941073272,-1.00675740803519,-0.0366083282477755,-0.0201772452913312,-0.0075151455251262,-0.020281835787107,-0.00186166938900985
0.93,-0.223418085913953,-0.0401971681910734,0.969510205145825,-0.0479894476701118,-0.0222750201230679,-0.0341795026268483,-0.991507375540319,-0.116466829274132,-0.0922933134419418,-0.0319936364093618,-0.00805598331779605,-0.000602093340294648,-0.978973013795791,-0.121356346762475,-0.183547465177669,-0.0309993533479464,-0.00549336439118581,-0.0079370770354858,-1.00828188561536,-0.0366925166194415,-0.0215272498376438,-0.0043788595449894,-0.0160768293852134,0.00131829297272542
0.935,-0.223943652398098,-0.039695173116598,0.969954965933292,-0.0516986460600581,-0.0252065976087577,-0.0390581005494065,-0.991837024968542,-0.116754629412704,-0.0923046202113023,-0.0313787202101082,-0.00727560760129037,-0.00166411104235008,-0.979160391823552,-0.121607313430514,-0.184180771501733,-0.0306893763955996,-0.00987889353504115,-0.00674968710585238,-1.00941073111907,-0.0370760790190354,-0.0224794635759762,-0.00116629351499018,-0.011471879027135,0.00456804284530908
0.94,-0.224986307821568,-0.0391265385030577,0.970586793656036,-0.054983477781622,-0.0279935991029655,-0.0436272889950652,-0.992118030940139,-0.11690990687589,-0.0922612582851257,-0.0304810041732264,-0.00653020053009344,-0.00271465572644163,-0.979292981855879,-0.121448552276601,-0.184755526593166,-0.0301038933251431,-0.0143246928342791,-0.00549728612194078,-1.0100665890052,-0.0377481919356664,-0.0229846423424591,0.00204146729397224,-0.00665390754026791,0.00780806094341059
0.945,-0.226596955629241,-0.0384257645093784,0.971410018141987,-0.0574619262028724,-0.0304665519547827,-0.0475671400140834,-0.992299239489919,-0.116928011987044,-0.0922331839224075,-0.0291341678022665,-0.00584431174909108,-0.00370397076305162,-0.979342180571923,-0.120834321373261,-0.185254132529987,-0.0290692346241193,-0.0187164243174922,-0.00418364552340115,-1.01022997874677,-0.0386858692799891,-0.0230551493403041,0.00516732587021433,-0.00181827166725766,0.0109632152299417
0.95,-0.228750303274021,-0.0375940669668437,0.972395883287584,-0.0587084415027287,-0.0324407869609246,-0.0505343352926219,-0.992339655194298,-0.11680961445801,-0.0922667970273943,-0.0271392043677135,-0.00523051245800896,-0.00457995468386443,-0.979287995268437,-0.119771390843971,-0.185641762440096,-0.0273795899538879,-0.0229591453128892,-0.00280621269426588,-1.00994301038138,-0.0398582725384919,-0.0227732439986289,0.00814137065579705,0.00285207007841468,0.0139623780156326
0.955,-0.231328906761144,-0.036726525346094,0.973478159209099,-0.0583513834087367,-0.0337443704402193,-0.0522219395358954,-0.992220170997115,-0.116561211596648,-0.0923605580294366,-0.0243321897278686,-0.00469405786444965,-0.00529534771562968,-0.979123722978009,-0.118336317348035,-0.185866114032028,-0.0248642498825125,-0.0269751691189565,-0.00136725538252716,-1.00930238212713,-0.041228620211167,-0.022282974177925,0.0109029716369933,0.00720798122662884,0.0167360138939262
0.96,-0.234139739978669,-0.0359926255029245,0.97456541179,-0.0561809925779141,-0.0342467028578352,-0.0524254753841254,-0.991948519442266,-0.116193987019464,-0.0924630323062111,-0.0206594721572579,-0.00424039501433004,-0.00581559234953613,-0.978857790877988,-0.116664884834921,-0.185867255291618,-0.0214621858225945,-0.0306968432293222,0.000113714708703869,-1.00843007149474,-0.0427545140440438,-0.021747457673684,0.0134019973054036,0.0111493416116644,0.0192136894002234
0.965,-0.236956085094118,-0.035570517367522,0.975564278236451,-0.052216607698337,-0.033877758353516,-0.0510872695211941,-0.991556996531895,-0.115722301319812,-0.0924955308520065,-0.0162210470315837,-0.00388117069251137,-0.00612400462749555,-0.978513211532448,-0.114915264419757,-0.185596404076271,-0.0172652557440886,-0.0340583927212686,0.00159346135811539,-1.00742825454716,-0.0443869330360769,-0.0212845490212607,0.0155988614752886,0.0146246129986395,0.0213248032272974
0.97,-0.239562593756814,-0.0355697157177893,0.976399979096387,-0.0466988974411474,-0.0326347261349098,-0.0483004197964432,-0.991093718997374,-0.115162946850235,-0.0923874544477253,-0.0112556023325932,-0.00363504393527092,-0.00622214305798848,-0.978124256818373,-0.11322492403685,-0.185034356674851,-0.012503910908197,-0.0369914465760424,0.00300948379023568,-1.00634537464317,-0.0460687316555936,-0.020921917164414,0.0174640317303466,0.0176131791367214,0.0230049616006325
0.975,-0.241783873795344,-0.0359874706178538,0.977023743201609,-0.0400168608184399,-0.0305786963290385,-0.0442766982313707,-0.990609498862221,-0.114534750978246,-0.0921055888453645,-0.00607565330576003,-0.00352271040481941,-0.00612607035967196,-0.977729815852395,-0.111684480698094,-0.184198246948906,-0.00748369192713751,-0.0394274877028876,0.00429379072927586,-1.00517712227596,-0.0477353890051447,-0.0206032244357893,0.018978548585107,0.0201010967363276,0.0242064054458019
0.98,-0.243491727439043,-0.03671805916016,0.977407507184178,-0.0326132693309368,-0.0278255645124237,-0.0392999664963225,-0.990144940735288,-0.113857958548143,-0.0916649306403005,-0.000988818998581712,-0.00355878686387367,-0.00586118968812593,-0.977365265112487,-0.110337162749661,-0.183133530995415,-0.00250797041193342,-0.0413071929222015,0.00538892944745882,-1.00389920678473,-0.0493194170326705,-0.0202379673891183,0.0201364527626261,0.0220654456046269,0.0249075329670251
0.985,-0.244599829032804,-0.0375990287703852,0.977534412359544,-0.0249105161377805,-0.0245346743522177,-0.0336859580331128,-0.989723524043505,-0.113153638580891,-0.0911200305915496,0.00376013347674354,-0.00374430336444817,-0.00545806332289391,-0.977056568281838,-0.109195029425554,-0.181898728472346,0.00217904734564614,-0.0425931499635774,0.00625936454115008,-1.00250477267307,-0.0507576753100061,-0.0197562555539188,0.0209482366392869,0.0234749405638847,0.0251174221760004
0.99,-0.245058908668203,-0.0384644723072176,0.977394195605778,-0.017273088714495,-0.0208971137509263,-0.027756577569482,-0.989353385745796,-0.112443191912234,-0.0905432247018872,0.00801308235105907,-0.00406290054039535,-0.00494990380086132,-0.976818753925961,-0.108256652721486,-0.180553074382779,0.00641595264466122,-0.0432800413953027,0.00689532934409059,-1.00101995031255,-0.0520014025339464,-0.0191320463344137,0.0214427974523833,0.024301874626196,0.0248743379006961
0.995,-0.244858986056763,-0.039183799253592,0.976986198862889,-0.00999967040718478,-0.0171231314304484,-0.0218256835665826,-0.989034669548182,-0.111747678485348,-0.0900004418389102,0.0116941068505523,-0.00448232863865581,-0.00437099438235056,-0.976657767042612,-0.10751667515587,-0.179150869677666,0.0101203007077867,-0.0433966770209042,0.00731004342511775,-0.99949323158524,-0.0530273819764113,-0.0183694441306199,0.0216651767411578,0.0245333807943806,0.0242391873745088
1,-0.244034340585712,-0.0396793061009442,0.97632475436283,-0.00332930970199333,-0.0134273623595931,-0.0161897271979184,-0.988765744231984,-0.111087162207526,-0.0895363293390821,0.0147905102512516,-0.00496042729296961,-0.00375503203377586,-0.976572961336227,-0.106967051830823,-0.177740021727951,0.013270780734733,-0.0429987825614788,0.0075329975806188,-0.997977309543189,-0.0538439414848006,-0.0174797690211805,0.0216696673586677,0.0241739461719924,0.023285758076931
1.005,-0.2426631306931,-0.0399264672760746,0.975440171765114,0.00255170505148102,-0.0100128251665701,-0.0111175460468105,-0.988543964387261,-0.11048055064344,-0.0891740717078702,0.0173316800692287,-0.00545253872511889,-0.00313300577891152,-0.976558134968271,-0.106595106439692,-0.176362030250177,0.0158874122399687,-0.0421576533652397,0.00760223468022802,-0.996524810766169,-0.0544853984937861,-0.0164814094208871,0.0215114446873786,0.0232419663558832,0.0220901815565164
1.01,-0.240859879815286,-0.0399449820048982,0.974375227029896,0.00750918324183711,-0.0070565938858648,-0.00683584704328435,-0.988362941519273,-0.109945988212812,-0.0889249644152259,0.0193725731197966,-0.00591720051599728,-0.00253098395169562,-0.976601704198276,-0.106383462476348,-0.175052293059541,0.0180162128195184,-0.0409518945525665,0.00755779140883032,-0.995199158215739,-0.0549963559542264,-0.0154234631097284,0.0212412241062117,0.0217696406909641,0.0207221368815702
1.015,-0.238765805988178,-0.0397878135565137,0.973183264236645,0.0114658534026893,-0.00469870077436197,-0.00351111438603108,-0.988212353929555,-0.109501420877979,-0.0887973379172637,0.0209824512865306,-0.00631898364448581,-0.00196856258293841,-0.976688940293881,-0.106314015596739,-0.173839175239551,0.0197187449859564,-0.0394651421723462,0.00743718916142613,-0.994080300865204,-0.0554153304789866,-0.0144003700872098,0.0209046642508907,0.0198102807230592,0.0192396339847455
1.02,-0.236541223172532,-0.0395318798257285,0.971931736196631,0.0144049225884381,-0.00303332321858567,-0.00123365276349045,-0.988083852252184,-0.109164735578398,-0.0887973169208628,0.0222354149262029,-0.00662963735258498,-0.00145858916847687,-0.976807749848064,-0.106374488114391,-0.17274111609752,0.0210630537463628,-0.0377859953084595,0.00727264883319555,-0.993247686563208,-0.0557668311606741,-0.0135287006066773,0.0205438594252735,0.0174458524173774,0.017687969951974
1.025,-0.234358602713748,-0.0392695775332357,0.97070697583898,0.0163655520025355,-0.0021009895251502,-1.04849402342679e-05,-0.987979878484928,-0.108952970458881,-0.0889219953696366,0.0231993831695683,-0.00682949074138115,-0.00100824340124533,-0.976955064857812,-0.10656337132015,-0.171764679546149,0.0221127446537157,-0.0360041341946059,0.00708922089081743,-0.992747883028893,-0.0560625740908878,-0.0128969093310267,0.0201969480336309,0.0147837777625166,0.0161020501637556
1.03,-0.232391202529463,-0.0390980553621848,0.969611388826562,0.0174296527521629,-0.00188284357511486,0.000230378197064692,-0.987918214710863,-0.108880641493171,-0.0891522340279486,0.0239242412724682,-0.00690991042889519,-0.000620904044533791,-0.977138808472791,-0.106889254630838,-0.170907633333775,0.0229150492105617,-0.0342009756093327,0.00690346931847288,-0.992572571631017,-0.0563055595190678,-0.0125281941542485,0.0198948795071105,0.0119406664111883,0.014510361651217
1.035,-0.230795219709512,-0.0391049966347317,0.968749105016995,0.0177058353008183,-0.00230064139247825,-0.000373183936415273,-0.987927958854544,-0.108957894933403,-0.0894525184191621,0.0244338584938179,-0.00687577599214241,-0.000297865842977595,-0.977373506451485,-0.107364204923624,-0.170166808017686,0.0234926628073536,-0.0324391862289091,0.006723043351202,-0.992664060924512,-0.0564912487972596,-0.0123841083921082,0.0196579885209615,0.00902193262563553,0.0129387955448935
1.04,-0.22969164012207,-0.0393531336068894,0.968206778252207,0.0173177403099291,-0.00322538278944035,-0.00163438964473324,-0.988039104742647,-0.109189344414083,-0.0897802260771275,0.024726677618377,-0.00674606635966726,-3.92294878538268e-05,-0.977672557831574,-0.107995064521345,-0.169545687308845,0.0238440702568849,-0.0307571557876508,0.00654771493982847,-0.992942325495952,-0.056603936305921,-0.012401728865721,0.0194957384524794,0.00610880799529394,0.0114133920541297
1.045,-0.229157287243406,-0.0398679352183054,0.968040816470458,0.0164009035302584,-0.00449247246480198,-0.00333346263882301,-0.988271720947737,-0.109573597535919,-0.0900998503180962,0.0247860147908976,-0.00655130642915499,0.000156015440109404,-0.978041786987826,-0.108777070737344,-0.169057019888187,0.0239534539710981,-0.0291717163543766,0.00637219096548538,-0.993334126297123,-0.0566108745030721,-0.0125355482789012,0.0194112164019751,0.00325794574356419,0.00996251060592039
1.05,-0.229226694872356,-0.0406335560323051,0.968274948470311,0.0151069984415455,-0.00591745120640253,-0.00522990652769133,-0.988629460957722,-0.110102186791447,-0.0903930483588025,0.0245965183246194,-0.00632833621829866,0.000290245605590308,-0.978476423107708,-0.109690846731721,-0.168719548268487,0.0238066366218961,-0.0276875676875736,0.00619020954136873,-0.993788443597597,-0.0564625096040606,-0.0127772789465419,0.0194090294077782,0.000510543939841063,0.00861905275983612
1.055,-0.229897024000198,-0.0415997881686357,0.968902370469746,0.0136089491766315,-0.00730847114331771,-0.00707262961756153,-0.989098176487189,-0.110756879999912,-0.0906580034656432,0.0241596176361154,-0.00611447513604694,0.000367489636611369,-0.978960731760016,-0.110701057133894,-0.168550567972082,0.0234060613608732,-0.026307749179837,0.00599832793877483,-0.99427476359457,-0.056107078109097,-0.0131442577672824,0.0195021473093993,-0.00209702415540924,0.00742141682642502
1.06,-0.231129628885086,-0.0426966073055121,0.969886540135448,0.0120993634979803,-0.00847651657952806,-0.00861166703668618,-0.989647618496046,-0.111506714303792,-0.0909008370303434,0.0235012522166926,-0.00594319891194265,0.000393817688434009,-0.979468958417163,-0.11175583498783,-0.168557222112571,0.0227783536368477,-0.025039259711807,0.00579757031412959,-0.994771756579363,-0.0555157078238567,-0.0136491345605547,0.01971267832182,-0.00452839376862722,0.00641063662422721
1.065,-0.232850473947797,-0.0438481617709403,0.971161621490999,0.0107801457789425,-0.0092458016589496,-0.00961327502339386,-0.990234681329015,-0.112307696464614,-0.0911270863192942,0.022670607776447,-0.00584190086847962,0.000377980065809091,-0.979967211737588,-0.112788281927551,-0.168731148114743,0.0219732723461949,-0.0238922338082209,0.00559246808822745,-0.99525746930164,-0.0547021439323022,-0.0142753729037101,0.0200653536300483,-0.00674997766725409,0.0056232052239054
1.07,-0.234955176504259,-0.0449803028810953,0.972637136046651,0.00984787257514423,-0.00946452504911957,-0.00987619487500822,-0.990808636745255,-0.11310653681128,-0.0913368786115701,0.0217342305689472,-0.00583112898834556,0.000332153133233738,-0.980416413567944,-0.113721593099536,-0.169051186095322,0.0210582285811311,-0.0228755820216961,0.00538878495727146,-0.995707413704864,-0.053724663482227,-0.0149749368706157,0.0205774177905798,-0.00873725058364126,0.00508242566227878
1.075,-0.237319496515064,-0.0460219566871731,0.974207813335679,0.00948103290501344,-0.00901420746264946,-0.00924504236124502,-0.99131850816948,-0.113846960303856,-0.0915225757317698,0.0207705769206628,-0.00592495588852666,0.000272349031177023,-0.980776175945739,-0.114477448726158,-0.169493430828388,0.0201131344365761,-0.0219926530966308,0.00519168525257903,-0.996099213569711,-0.0526716778560375,-0.0156850500893382,0.0212500753947183,-0.0104789773653831,0.00479213610635221
1.08,-0.23980953306147,-0.0469039466554426,0.975764287073155,0.009831772217883,-0.00781633234285398,-0.00761860862086142,-0.99171989142973,-0.114476266918616,-0.0916701988315159,0.0198670198934397,-0.00613229934320741,0.000218079816316535,-0.98100931100963,-0.114985408648444,-0.170039970810569,0.0192274259631876,-0.0212387747630016,0.00500527069349197,-0.996418421966762,-0.0516409497700313,-0.0163485466715924,0.0220645791869468,-0.01197677738561,0.0047348883817259
1.085,-0.242285515282761,-0.0475583453455971,0.977199665206048,0.0110210870112948,-0.00583685297353478,-0.00495429674089321,-0.991977741259437,-0.114950855816696,-0.0917683070192765,0.019118964913741,-0.0064578662234312,0.0001912383557927,-0.981086761006319,-0.115190936773512,-0.170677014613033,0.0184989153546826,-0.020601707616118,0.00483342864209175,-0.996661349421248,-0.050720810261673,-0.0169250768310607,0.0229835249067884,-0.0132413275889936,0.00487438138395857
1.09,-0.244599886564675,-0.0479204103075015,0.978411922439634,0.0131352015372403,-0.00309009548636071,-0.00127139023779145,-0.992065419967443,-0.115240231446395,-0.0918215769003596,0.018629992851647,-0.00690069816425048,0.000214483139032284,-0.9809924307769,-0.115061144004724,-0.171383216927245,0.0180335048903323,-0.0200657402007431,0.00468142947271532,-0.996834255766254,-0.0499773823313413,-0.0173913921702734,0.0239563490674344,-0.0142881630147354,0.0051608148672103
1.095,-0.246597542609186,-0.0479345885499167,0.979307132845305,0.016221579407827,0.000357577420160616,0.00334624810181792,-0.991964302268573,-0.115328975587997,-0.0918584288944964,0.0185111851077155,-0.00745003870824654,0.000309387638957162,-0.98072683787853,-0.114588670010206,-0.172119203649635,0.0179440506138051,-0.0196184346101274,0.00455753669435119,-0.996950702752042,-0.0494493156594206,-0.0177369044391327,0.0249268430870039,-0.015134894281869,0.00553772581566967
1.1,-0.248125773130128,-0.0475644895236086,0.979808070653662,0.0202843741717083,0.00438644293733471,0.00875089168703571,-0.991667100312143,-0.115216498966054,-0.0919252928104684,0.0188769245448382,-0.00808101246458097,0.000494389341978804,-0.980308571657774,-0.113794217295376,-0.1728274180736,0.0183457734306624,-0.0192568180113698,0.00447388646462033,-0.997028832753756,-0.0491493486358494,-0.0179605033684602,0.0258398181275487,-0.0157996144230659,0.00594909464651328
1.105,-0.249053581949327,-0.0468039925846805,0.979866920381735,0.0252802985396096,0.00882786740529233,0.0147388838915513,-0.991183206633358,-0.114915440188977,-0.0920718102868438,0.0198351990544125,-0.00875321970593645,0.000782523486045046,-0.979773293364228,-0.112727318872998,-0.173440925345748,0.0193463089785062,-0.0189898578677365,0.00444613452339524,-0.997088862463662,-0.0490694145254077,-0.0180696979384622,0.0266449559070749,-0.0162995263592576,0.0063457969005288
1.11,-0.249292464502778,-0.0456846956883798,0.979475739423343,0.0311164972920949,0.0134763521164827,0.0210666468908974,-0.990541782127772,-0.11444999365565,-0.0923367763029474,0.0214733496210943,-0.00941330818962363,0.0011792114881692,-0.979170381740386,-0.111463804580613,-0.173894570002677,0.0210313753430365,-0.0188365568160622,0.00449185747526891,-0.997150372836199,-0.0491859565848036,-0.0180800925454333,0.0272980983714922,-0.0166496403868194,0.0066907390627519
1.115,-0.248810188480069,-0.044275719992048,0.97866898996383,0.0376519671409214,0.0181074781923894,0.0274713390816997,-0.989790350307028,-0.113854432520752,-0.0927392642281573,0.0238434231177163,-0.0100005089320617,0.00168075042218467,-0.978557213629697,-0.110098531357049,-0.174135561089035,0.0234502425501437,-0.018821141785926,0.00462817419997072,-0.997229552941213,-0.0494649931230388,-0.0180140646141283,0.027761702842135,-0.0168622139006189,0.00696204129033334
1.12,-0.247634165192034,-0.0426756070852366,0.977517480558717,0.0447034358959276,0.022497702357548,0.0336910041727455,-0.988989766670411,-0.113170909825266,-0.0932734695950983,0.026952079051065,-0.0104537644711156,0.00227414728389026,-0.977991562914402,-0.108734211672093,-0.174133506742633,0.0266059489389718,-0.0189669151605843,0.00486926123418524,-0.997336971620962,-0.0498679425767854,-0.0178990556566876,0.0280058115429064,-0.0169474177168606,0.00715363360800467
1.125,-0.245845122177586,-0.0410006518939242,0.976116791730186,0.0520551145923188,0.0264423365302299,0.0394807196432567,-0.988207254664968,-0.112445657351297,-0.0939065911418844,0.0307573374139579,-0.0107194542138781,0.00293837579441332,-0.97752383153429,-0.107470104628212,-0.173886716738745,0.0304524923239929,-0.0192896821359277,0.00522428516801407,-0.997476279247514,-0.0503576819098955,-0.0177656052170947,0.0280097394759813,-0.0169150293139299,0.00727313444749011
1.13,-0.243562194113726,-0.0393764187516638,0.974573022201761,0.0594690145890296,0.0297696125114947,0.0446235413656981,-0.987508523222041,-0.111723713098753,-0.0945815635648463,0.0351697591239049,-0.0107585858120134,0.00364638709738492,-0.977191394339101,-0.106395056642057,-0.173418763838076,0.0348964964581587,-0.019791684855411,0.00569576763097319,-0.997644370830645,-0.0509032972188772,-0.0176444721150793,0.0277638368103317,-0.0167764682261842,0.00733766657325441
1.135,-0.240920683659595,-0.0379368850343741,0.972987211429819,0.0666896788871986,0.0323494349362076,0.0489355176845199,-0.986949938681257,-0.11104335752098,-0.0952247728027242,0.0400518756310046,-0.0105520687648949,0.00436685027460475,-0.977016319815351,-0.10558689609086,-0.172763686730955,0.0397971166886241,-0.0204571693804613,0.00627775582777162,-0.997833615629257,-0.0514830362258565,-0.0175629360897535,0.0272701334225709,-0.0165462571556008,0.00736858397526058
1.14,-0.23804750596734,-0.0368287183453848,0.971440661183173,0.0734374826192047,0.0340955143708493,0.0522636167669212,-0.986572262762114,-0.110431882991578,-0.0957554673274189,0.0452100917280729,-0.0101031974311783,0.00506489136543999,-0.977005822077096,-0.105115890158389,-0.171947084203681,0.0449584180029915,-0.0212502165547638,0.00695299860173146,-0.998035638211561,-0.0520854554891341,-0.0175419339475155,0.0265407717960338,-0.0162420653123166,0.00738583950693196
1.145,-0.235044659324883,-0.0362104801992014,0.969986019246691,0.0793911825183526,0.0349610758584885,0.0544771223195743,-0.986397046563695,-0.109903814254761,-0.0960942259303514,0.0503794171011521,-0.009437537794311,0.0057018893552045,-0.977153563480927,-0.105046095199043,-0.170975023610733,0.0501145823990823,-0.0221147282072398,0.00768917307249375,-0.998244509361859,-0.0527076374544737,-0.0175955348550323,0.0255945230806476,-0.0158831159262825,0.00740253557407979
1.15,-0.231990466930976,-0.0362338501260808,0.968648847624565,0.084171933974893,0.0349316964039443,0.0554579939599131,-0.986425222323736,-0.109461682650287,-0.0961729553296542,0.0552111307271654,-0.00860086547763645,0.00623530469161723,-0.9774405002279,-0.105427302636539,-0.169838372865312,0.0549179509977806,-0.022976627123683,0.00843587258177984,-0.998457082368166,-0.0533492882476255,-0.0177318145229584,0.0244534902249047,-0.015487734004186,0.00742050943961273
1.155,-0.228958358392933,-0.0370002941250983,0.967439120594547,0.0873506474410733,0.0340207440688485,0.0551000715910692,-0.98663650310656,-0.109098906292295,-0.0959519894682681,0.0592815939205913,-0.0076549321661103,0.00662018280379472,-0.977835810628638,-0.106273819021417,-0.168530737195669,0.0589479110649021,-0.0237495026074535,0.00912553740563508,-0.998670115686077,-0.0540040534154698,-0.0179522683380647,0.0231420821041278,-0.0150714198592003,0.0074284370113157
1.16,-0.226041194846816,-0.0385026525080721,0.966366148258018,0.0884995314364349,0.0322703364890346,0.0533254716874088,-0.986989249821992,-0.108804161081508,-0.0954441640529672,0.0621405079394375,-0.00666959456762719,0.00681398298786574,-0.978299420188024,-0.107535272689473,-0.167070929073677,0.0617587209620693,-0.0243456311759255,0.00968150356820862,-0.998876114436386,-0.0546519425128989,-0.0182484836430304,0.0216879876892202,-0.0146465121774935,0.00740417527072969
1.165,-0.223364738759203,-0.0405822845421795,0.965448998896109,0.0872909860556084,0.0297560629843963,0.0501179696664605,-0.987422928328819,-0.108566025627196,-0.0947326514778718,0.0634026232061369,-0.00571042754183353,0.00678511099648126,-0.978786680438949,-0.109076672609448,-0.165518426831703,0.0629702467170503,-0.024692644414229,0.0100338102291309,-0.999060796637457,-0.0552567910213325,-0.0185988436430016,0.0201229752466072,-0.0142235349219117,0.00732193762019912
1.17,-0.221077475576054,-0.0429418352756939,0.964716777596885,0.0836139406330565,0.0265907648414901,0.0455606525335747,-0.987866681754769,-0.108376149416875,-0.0939619907582546,0.0628573796222392,-0.00482444092831386,0.00652276667842936,-0.979254490533223,-0.110690251105778,-0.163971600770559,0.0623763625173314,-0.0247516361491369,0.0101383455565674,-0.999204432105375,-0.0557710522579026,-0.018969941866329,0.018482064875412,-0.0138133503531869,0.00716218154505939
1.175,-0.219315527249634,-0.0452287709721336,0.964197868508152,0.0776484315869315,0.0229216863247401,0.039855489337603,-0.988254705247277,-0.108229938038435,-0.0932950275633996,0.0605436091107753,-0.00403029664036159,0.00604315002603643,-0.979667873941601,-0.112146959457517,-0.162545229215001,0.0600186939484937,-0.0245281761008949,0.00999027108666364,-0.999287216413759,-0.0561474380469829,-0.0193240714923317,0.0168011987920296,-0.0134286932366259,0.00691954671402042
1.18,-0.218160134822243,-0.0471525810928753,0.96390515744129,0.069847703254626,0.0189172174289693,0.0333069986872923,-0.988542661813902,-0.108125322705288,-0.0928566799780028,0.0567427765667854,-0.00331864359567292,0.00538776756038353,-0.980005697116736,-0.113265272861638,-0.161336196936301,0.0561796783191957,-0.0240690562794609,0.00962371569789519,-0.999295959182135,-0.0563523737925261,-0.0196284046726316,0.015113849401431,-0.0130839710808432,0.00660466713437696
1.185,-0.217615551914925,-0.0485684721424584,0.963829144742174,0.0608307958040267,0.0147461952815111,0.0262736814082396,-0.988716189793369,-0.108061054796839,-0.0926990770028991,0.051891004241341,-0.00266205453356895,0.00461405683832744,-0.980263459136512,-0.113958406496056,-0.160395474383476,0.0512952208782462,-0.0234458647160866,0.009097680735621,-0.999227978462332,-0.0563734034765973,-0.0198597609258384,0.0134470882606607,-0.0127935084609274,0.00623959083174583
1.19,-0.217620844047721,-0.0494873148711106,0.963944386125136,0.0512423130592827,0.0105593845965027,0.0191113595144587,-0.988787675201833,-0.108035707606285,-0.0928040690679792,0.0464579798712686,-0.00202826218816115,0.00378297387748905,-0.980451500552666,-0.114237776153191,-0.159721108580921,0.0458345779195818,-0.0227344910431581,0.00847631062512848,-0.999090252286031,-0.056216615801989,-0.0200036978196925,0.0118185913716019,-0.0125696455757513,0.00585042184001394
1.195,-0.218082690971652,-0.0500258048949094,0.96422246400931,0.0416419739891712,0.00648117589532496,0.0121323344800875,-0.9887858218733,-0.108047745411178,-0.0931092613010065,0.0408483232787428,-0.00139039055660073,0.0029487998092474,-0.980589102009931,-0.114182039739384,-0.159273821626405,0.0402024831082723,-0.0219998476160251,0.00781298187963087,-0.998895751565653,-0.0558981126917435,-0.020052494923861,0.0102364808356672,-0.0124219201820028,0.00546123412833665
1.2,-0.218905836455555,-0.0503392934194209,0.964640900357789,0.0324512873419611,0.00261113400817133,0.00558761388869721,-0.988745369357403,-0.108096149224456,-0.0935342226301072,0.035352371823782,-0.000732218567997953,0.00215375872071118,-0.980697141519985,-0.113896660416652,-0.159004210143556,0.0346902249101693,-0.0212888863901064,0.00714271129191103,-0.998660275464981,-0.0554369159214581,-0.0200061277603803,0.00870253025922054,-0.0123572443764106,0.00509085262249215
1.205,-0.220008917443743,-0.0505705479173093,0.965184526930476,0.0239488423700502,-0.000970681835777773,-0.000334525016270542,-0.988700548819652,-0.108180706005029,-0.0939966005810843,0.0301417520585923,-4.98900286093945e-05,0.00142709422761071,-0.980792553674761,-0.113483007964864,-0.158875635930958,0.0294711187501562,-0.0206296482652386,0.0064819673404156,-0.998400979897315,-0.0548527807073779,-0.0198744894659005,0.00721719382554483,-0.0123801986687292,0.00475183630827747
1.21,-0.221328162014079,-0.0508251055349108,0.96584318909977,0.0162919723798672,-0.00419920935392587,-0.00550265370175593,-0.988681519791678,-0.108301590569142,-0.0944214716078745,0.0252905156617252,0.000648334056111136,0.000786776946001694,-0.980886316668068,-0.113023107774885,-0.158872131429165,0.0246213461234121,-0.020033214967425,0.00583260159542506,-0.99813539450699,-0.0541671688772947,-0.0196763011867964,0.00578405575256121,-0.0124930463563366,0.00445057867456082
1.215,-0.222816029349414,-0.0511681288977249,0.966609857524989,0.00954606397792811,-0.00702105688618091,-0.0098338531786641,-0.98871212036692,-0.108458794349162,-0.0947483645275214,0.0208034779526192,0.00134372382979403,0.000241975212205811,-0.980984244729625,-0.112577247430132,-0.15899233496846,0.0201479495703713,-0.0194969027966277,0.00518690071690811,-0.997879791892355,-0.0534044967886088,-0.0194339160861941,0.00441209095197553,-0.0126957855325625,0.00418803220208909
1.22,-0.224438424714167,-0.0516321269342189,0.967479492151364,0.00371139599398882,-0.0093912286314316,-0.0132845839869025,-0.988808412493535,-0.108652151472407,-0.0949359436442359,0.0166410768899306,0.00200981365342274,-0.000204831434275545,-0.981088627813684,-0.112188285713833,-0.159238593697112,0.0160133789085781,-0.0190080050784228,0.00453205551966769,-0.997647169150512,-0.0525922419373662,-0.0191674293733378,0.0031155836841087,-0.0129865169503587,0.0039609314091468
1.225,-0.226170703151686,-0.052226210697171,0.968447278638146,-0.00125580802235742,-0.0112699749053716,-0.0158420686212144,-0.988978102242389,-0.108881846094074,-0.0949634145973812,0.0127378022129681,0.00261565050634644,-0.000556365992409049,-0.981199424903509,-0.111886989137308,-0.159608967169375,0.0121536692816465,-0.0185476286807122,0.00385354421440042,-0.997445646579939,-0.0517595044275347,-0.0188909602056957,0.0019125784607431,-0.0133620147097656,0.00376340309865326
1.23,-0.227992245779803,-0.0529421996522826,0.969505830436239,-0.00542792121492953,-0.0126208271986046,-0.0175176323277962,-0.989220716196816,-0.109148394956554,-0.0948292335944511,0.00901549606008667,0.00312908009815904,-0.000819504129770736,-0.98131483597147,-0.111695272745635,-0.160093948966636,0.00849155633930828,-0.0180943819334504,0.00313759021932824,-0.997277801092116,-0.0509344773974111,-0.0186114105243785,0.000822884326010198,-0.0138182780382235,0.00358882185821254
1.235,-0.229879899512616,-0.0537572442005873,0.970641880916064,-0.00889476597108708,-0.0134106561251109,-0.0183424503705825,-0.989528312904332,-0.109451369500414,-0.0945481282422724,0.00539339572580858,0.00351984880830651,-0.00100445603115953,-0.981431548224782,-0.11162689917214,-0.160676351959156,0.0049463873622016,-0.0176277618719552,0.00237298784635877,-0.997141168410911,-0.0501421815421358,-0.0183289611370206,-0.000133886446325133,-0.0143508862470389,0.00343168646124586
1.24,-0.231800694699896,-0.054634237034473,0.971832877053172,-0.0117556159446786,-0.0136121929149486,-0.0183652324305915,-0.989886632042752,-0.109787282437733,-0.0941471534150998,0.00179598177794266,0.0037624369427891,-0.00112409207718467,-0.981544954770026,-0.111686495880067,-0.161332984489713,0.00144187731690739,-0.0171310420867502,0.00155248994164587,-0.997029854520889,-0.0494032580195643,-0.0180387119089806,-0.00094028709546708,-0.0149550200354675,0.00328921608589827
1.245,-0.233704877387775,-0.0555210570763994,0.973043803699741,-0.0141135133432265,-0.0132093245335884,-0.0176517338783557,-0.990276678294326,-0.110147766920528,-0.0936609629829585,-0.00184046253268305,0.00383859179525645,-0.00119331008458782,-0.98164933158527,-0.111867751161471,-0.162038275794847,-0.00208738926103757,-0.0165935559583889,0.000673895833468516,-0.996936959459452,-0.0487333443041315,-0.0177336947141482,-0.0015829563187747,-0.0156251132369181,0.00316244731241514
1.25,-0.23552143548228,-0.0563497739212387,0.97422505287177,-0.0160710132350355,-0.0122050610594791,-0.016286360478515,-0.990676663906041,-0.110518910208228,-0.0931259613161792,-0.00556140865062758,0.0037393606948569,-0.00122825657097478,-0.98173760192847,-0.112151467415844,-0.162770472860845,-0.00568953066300473,-0.0160122902858333,-0.00025903576629224,-0.996857556746369,-0.0481427021950047,-0.0174102824853348,-0.00205399695375772,-0.0163540660858707,0.00305670271077259
1.255,-0.237159033740408,-0.0570372676053764,0.975312900001162,-0.0177260922852285,-0.0106311097440987,-0.0143752386073579,-0.991063997285336,-0.110881944599819,-0.0925738244089819,-0.00938687251091776,0.00346619933571529,-0.00124522344873399,-0.981800500044018,-0.112504197327939,-0.163519437181898,-0.00938811480083426,-0.0153925735968344,-0.00123579079948154,-0.996791987835162,-0.0476366429783543,-0.0170761241922929,-0.00235133928390077,-0.0171317466334997,0.00298131202608317
