Header,foot_Accel_X,foot_Accel_Y,foot_Accel_Z,foot_Gyro_X,foot_Gyro_Y,foot_Gyro_Z,shank_Accel_X,shank_Accel_Y,shank_Accel_Z,shank_Gyro_X,shank_Gyro_Y,shank_Gyro_Z,thigh_Accel_X,thigh_Accel_Y,thigh_Accel_Z,thigh_Gyro_X,thigh_Gyro_Y,thigh_Gyro_Z,trunk_Accel_X,trunk_Accel_Y,trunk_Accel_Z,trunk_Gyro_X,trunk_Gyro_Y,trunk_Gyro_Z
96.94,-0.073049989912236,0.3267763398132,0.886171896062175,-1.3506068866882,-4.74094099861769,1.68900396528217,-0.316533259469368,0.249063198851843,0.106071827151006,-1.70599185885093,-2.54870721536787,-0.713897034864808,-1.11915320497963,-0.362360020816253,0.133829919125459,-0.768317865875751,1.03766709537932,2.90226991384917,-1.25648843555889,0.175911994421113,-0.032076487818137,-1.13505163370624,-0.623745855129883,0.0235367598156822
96.945,-0.150130159127758,0.27028085528515,0.887391160692666,-1.39531450460906,-4.92372872921763,1.61932247264685,-0.327764818881066,0.257800411764317,0.08458989281439,-1.76340998996958,-2.7620801833914,-0.72242436674493,-1.0860502186434,-0.378759199683778,0.137069076071484,-0.796447366480706,1.0557724473947,2.82671569956229,-1.18212111090617,0.173205556006752,-0.044952293675942,-1.26532859247455,-0.765931774146231,0.0552806376320531
96.95,-0.22643133348112,0.222828871290145,0.891141871970769,-1.43767433500699,-5.10848797486364,1.51736461747615,-0.343930611315036,0.265388574683709,0.0625772009302324,-1.81634495396094,-2.96966435425283,-0.728675858328631,-1.0565273725458,-0.394589577881825,0.141762710857382,-0.822286153587305,1.06971390533404,2.75343043156648,-1.11712826506535,0.165455032278708,-0.0540551345218904,-1.3571377324458,-0.813604012278672,0.0867794619355436
96.955,-0.300623734419304,0.18577822988831,0.895828203354942,-1.47629794241807,-5.29408353358107,1.38831463655337,-0.364647366859906,0.271555835733799,0.0403491934440708,-1.8656234469292,-3.17176674390354,-0.733094959317659,-1.0304186912453,-0.409518851416632,0.147830160491407,-0.846646269122451,1.08001611546279,2.68177205133526,-1.0316925943386,0.16285120396875,-0.0720463369381984,-1.42865844198033,-0.794673058434695,0.142821916401732
96.96,-0.371677265318587,0.160161670636656,0.900094442183153,-1.50975240767408,-5.478806378355,1.23810349916184,-0.389552314429472,0.276117039147115,0.0181036121310963,-1.91206468910056,-3.36868732363186,-0.736161625142949,-1.00742628806071,-0.423277032519175,0.155229651223381,-0.870380062265534,1.08718323357591,2.61092593084087,-0.977454101001977,0.154518742330951,-0.0831961008778195,-1.47412699536132,-0.737198294826414,0.211219660336392
96.965,-0.438814377961944,0.146701133554852,0.902877770270417,-1.53662744290666,-5.66049798413212,1.07320756256919,-0.41832024493656,0.279006941689647,-0.00406490606693816,-1.9564617292823,-3.56069078627815,-0.738362485910226,-0.987155490704639,-0.435641352464022,0.163929715266611,-0.894347729737019,1.09168659534219,2.53996584853177,-0.929416127824635,0.126725016102027,-0.0821365700474372,-1.4940058960622,-0.637633536919153,0.32519513304924
96.97,-0.50143687170871,0.145840135272641,0.903396438507307,-1.55558426086495,-5.83665983889999,0.900469901724908,-0.450681497231453,0.280301307705539,-0.0261438089182751,-1.99955629119107,-3.74798535941389,-0.74016267874201,-0.96916152459114,-0.446413638692201,0.173888788083843,-0.919381384112436,1.09394687734128,2.46791740002838,-0.896424933470632,0.0906176556884198,-0.0837773150467966,-1.49452429263859,-0.551636206582687,0.428165400636111
96.975,-0.55909331979498,0.157768816268161,0.901142601731099,-1.56540831583947,-6.00454882287599,0.726909905040991,-0.486416267012956,0.280244809200606,-0.0481915774142677,-2.04202576728935,-3.93071187890498,-0.741978533649264,-0.953013811180992,-0.455413100982782,0.18504592213028,-0.946253388105811,1.09432783087251,2.39381290667061,-0.877557661777842,0.0231073923718366,-0.0803155527984152,-1.48857856118545,-0.495122191948051,0.501552452342433
96.98,-0.611469485689862,0.182488277635,0.895871111374705,-1.56506072131274,-6.1612832334063,0.55954543706121,-0.525316702675821,0.279235547879986,-0.0703587996195394,-2.08448232428715,-4.1089378767509,-0.744154911939001,-0.938320999016746,-0.462494380702143,0.197293072200461,-0.975653862796752,1.09314092795091,2.31673218420502,-0.85153309937192,-0.0134291435469486,-0.0753601245948358,-1.46965419444374,-0.47377389207781,0.541830373118233
96.985,-0.658386499152658,0.219850018674623,0.887563636651703,-1.55369702301662,-6.30396868355107,0.405284231881192,-0.56715409789236,0.277782283757977,-0.092901861933009,-2.1274582903221,-4.28264915883492,-0.746950043327724,-0.924723715615321,-0.467562239710597,0.210451917119509,-1.00816938477706,1.09063766020306,2.23583595106788,-0.826782608771779,-0.0607781504340366,-0.0748521467510358,-1.46739988933184,-0.506002859089621,0.51165985694839
96.99,-0.699821839375526,0.269497578444797,0.876355612597399,-1.53067660142598,-6.42980571843574,0.270823743107055,-0.611678298376382,0.276486074215717,-0.11615852777568,-2.17138970258516,-4.45174305755167,-0.750524777270601,-0.911915411434426,-0.470565001842781,0.224294687834859,-1.04426402861533,1.08700106553332,2.15039465792731,-0.811055334945992,-0.092503303006904,-0.0738650093058719,-1.4642188303496,-0.545216966158553,0.449550141100618
96.995,-0.735946547562906,0.330790775702907,0.862446821732768,-1.49559580156441,-6.53614476008228,0.162495216429425,-0.658619275117303,0.276017207687788,-0.140526705454263,-2.21662118465078,-4.61602818012039,-0.754934932924506,-0.899667432447793,-0.471490766423492,0.238571290005271,-1.08427170470316,1.08235701099102,2.05980910669959,-0.788350604310152,-0.131183330137045,-0.0710299949061208,-1.44315059231056,-0.602506210742206,0.347149927264362
97,-0.767158875471364,0.402776710656054,0.846043188927108,-1.44832501931387,-6.62050853272835,0.0861009405483995,-0.707674346480983,0.277050711696732,-0.166466983336109,-2.263414514462,-4.77522435088988,-0.760131111565619,-0.887811244555241,-0.470374032537071,0.253002894079396,-1.12839720202227,1.07678791108428,1.96362503070305,-0.759903648816622,-0.155029027782954,-0.0857506333864652,-1.40193041389118,-0.645389506716744,0.220612406095909
97.005,-0.794107656375377,0.484166682575507,0.827344110877002,-1.38903542778616,-6.68060898372516,0.0467790046401879,-0.758504637225341,0.280185160500711,-0.194495756473154,-2.31194519396333,-4.92895860381086,-0.765968887049512,-0.876209106395065,-0.467296538800973,0.267282121309241,-1.17672133264993,1.0703335966853,1.86154641544165,-0.738437768783308,-0.172086970675465,-0.116323004123862,-1.36404348152526,-0.614744579750203,0.0783823750062998
97.01,-0.817703618505376,0.573323433804171,0.806556116245502,-1.31822708267383,-6.71436041726652,0.0488756715636329,-0.810741115571281,0.285860908743553,-0.225170157289756,-2.36229747274666,-5.07676237478306,-0.772226362930414,-0.864748116762775,-0.462389254371222,0.281112917828095,-1.22921087640015,1.06298868519685,1.75344809424301,-0.725082681836292,-0.181472188821162,-0.135525729808236,-1.32395572820309,-0.504537134983907,-0.0691143650121033
97.015,-0.839120752040812,0.668300615220321,0.783926247022239,-1.23674527043552,-6.7199026706351,0.0958435911025466,-0.863984291771996,0.294282047360925,-0.259085544673185,-2.41445595115578,-5.21807367349329,-0.778624188543546,-0.853343697317646,-0.455840459557765,0.294252622792158,-1.28572721054804,1.0546961896067,1.63938527458252,-0.724335464427462,-0.164977610851728,-0.137856389966148,-1.28845631331576,-0.296056535709185,-0.228070361831482
97.02,-0.859779396533815,0.766907334262205,0.759773448407222,-1.1457684365244,-6.69565620634562,0.19019082989573,-0.917818012882978,0.305377359916208,-0.296852045914954,-2.46828795729218,-5.35224259725368,-0.784847493769262,-0.84193862465772,-0.44787968082594,0.306516882614739,-1.34602997355593,1.04533257460613,1.51959669081248,-0.744181440037279,-0.144717410684945,-0.138852579264386,-1.24615266922246,-0.0719324785536026,-0.344032089804088
97.025,-0.881293194127255,0.866758367466865,0.734487790249213,-1.0467878646213,-6.64038022694508,0.333448903434614,-0.97186053238921,0.318810273280142,-0.339020288125203,-2.52353076512759,-5.47853959301112,-0.79057268190223,-0.830503066306327,-0.438723740272672,0.317762736993405,-1.40978421697346,1.03469471437433,1.39450292915281,-0.761344272281649,-0.112391289656331,-0.131013536454637,-1.22388677013653,0.157637884416369,-0.410093072586899
97.03,-0.905398728827619,0.96533278227507,0.708533594280476,-0.941598456392669,-6.55319781080842,0.526133068537994,-1.02581956036668,0.334014225809155,-0.38598708874385,-2.5797961048262,-5.59616888374268,-0.795499754894469,-0.819046925280756,-0.428522448266471,0.327883956986627,-1.47657745931904,1.02249745877083,1.26470418300154,-0.791085506822563,-0.0777634392082415,-0.12932545489479,-1.27016615760146,0.405723093872327,-0.43801314821462
97.035,-0.933908862387843,1.060075807668,0.682467903408014,-0.832299191439896,-6.43362128183616,0.767708561938424,-1.07950815209606,0.350259824800468,-0.437923339757566,-2.63660319380589,-5.70428598529538,-0.799388555106358,-0.80763682113139,-0.417330573892773,0.336807976711786,-1.545954197208,1.00838910352539,1.13097229823605,-0.809035965902514,-0.0394267378844721,-0.127687173927572,-1.34667174421717,0.565927198403591,-0.415035850958577
97.04,-0.968673600576932,1.14853769317024,0.656898437246352,-0.721293540183755,-6.28159880367237,1.05657440720277,-1.13283074983594,0.366751034718756,-0.494730829069822,-2.69344174586249,-5.80201209111091,-0.802095530455651,-0.796387056464132,-0.405084961992692,0.344467244881762,-1.61747012424229,0.991984917202308,0.994233753666755,-0.823494671452924,0.00327712649895828,-0.122206813903195,-1.43970475018092,0.673220530667819,-0.350839443345011
97.045,-1.01151524528369,1.22851615609268,0.632386715667124,-0.611273246815528,-6.09754251565318,1.3900696541419,-1.18576845522268,0.38272592240341,-0.556005431572034,-2.7498424820647,-5.88844176436386,-0.803604290963279,-0.785433737202903,-0.391581971540354,0.350768571408008,-1.69075038399055,0.972901676518179,0.855549395926826,-0.850181048063161,0.0390578375709438,-0.10704097997815,-1.52723490054998,0.72157988245212,-0.26675585569013
97.05,-1.06412096131379,1.29831437187443,0.609826194449104,-0.505186975397896,-5.88232501965669,1.76449636544368,-1.23877539980128,0.397637501467049,-0.620780060371714,-2.80545066978087,-5.9626477927336,-0.804044844641919,-0.774937075542881,-0.376491910393389,0.355585353839074,-1.76554729093487,0.95079029587678,0.716089805765282,-0.88176364067747,0.0764398534605846,-0.091042731165583,-1.61483911953978,0.719489511276205,-0.184399751150342
97.055,-1.12790957095096,1.35692384860913,0.590537967489211,-0.406201661429162,-5.63726206731348,2.17514699276741,-1.29286211756472,0.411294515148883,-0.687380802955869,-2.86010896442589,-6.02368724814185,-0.803698486566044,-0.765104985052256,-0.359413562447692,0.358762949756149,-1.84180087918905,0.925372208672041,0.577104496127348,-0.909261609908145,0.102437722525957,-0.0865229862631566,-1.67469089652608,0.679613820794706,-0.129255354010618
97.06,-1.20412855818343,1.40370049834404,0.574661225955571,-0.317636864717342,-5.3640842861932,2.61635248462916,-1.34815410761193,0.423733396254621,-0.754241278446507,-2.91393042974267,-6.07060888607662,-0.802982397554948,-0.756192497515547,-0.339923867949806,0.360142582855023,-1.91968751314072,0.896469398404401,0.439885454726263,-0.937851643040173,0.117039575282459,-0.0903897643077002,-1.70596718599359,0.632966820992786,-0.103144930055327
97.065,-1.29401284860951,1.43820388614019,0.560544611897024,-0.242862898479454,-5.06489663937084,3.08156460552528,-1.4034176440691,0.435187821614237,-0.820421199871302,-2.96734715171589,-6.10245701307355,-0.802411898272357,-0.7484722042534,-0.317608671511811,0.359603938835679,-1.99964705721677,0.864022374776417,0.305721159909765,-0.951873067451312,0.127667504583819,-0.0987698374422893,-1.72176107091973,0.593943846314763,-0.106034583719105
97.07,-1.39858792688937,1.46051363765147,0.546160369335151,-0.185182831658582,-4.74212376013885,3.56345135952484,-1.45735261509136,0.446266885292534,-0.885000131846187,-3.0211351120397,-6.11826832222431,-0.80254585128996,-0.742206420260046,-0.292100751755566,0.357104820733284,-2.08239164742621,0.828099086122964,0.175848086062465,-0.964200652320395,0.123728428739433,-0.112862831345847,-1.7252775701155,0.566318762855641,-0.129068967117332
97.075,-1.5184913397417,1.4712096585608,0.529417566840864,-0.14770730450204,-4.39844299685401,4.05399584482888,-1.50883575705895,0.457942056537517,-0.946977267672434,-3.07640931727536,-6.11706558702479,-0.803920478855631,-0.737633333443367,-0.263132629499632,0.352712986436228,-2.16889195588436,0.788893145526889,0.0514114679910961,-0.961898863067412,0.120693546734674,-0.128036869900686,-1.73199960221301,0.550901513691445,-0.147607338206077
97.08,-1.65393538831836,1.47111846856242,0.507755012859359,-0.1332198253308,-4.0367216845032,4.54460763839326,-1.55650929902686,0.471411507168653,-1.00564510484929,-3.13458232342731,-6.09785311270056,-0.806976433970462,-0.734954404728378,-0.230582594921183,0.346630423417273,-2.26033565074976,0.746710122338339,-0.0665637992921438,-0.951864535172942,0.116953207537075,-0.146201917385553,-1.73886493101656,0.557797090909557,-0.142866954151137
97.085,-1.80458904351874,1.46118485108296,0.478253994231956,-0.144035337555134,-3.65997302188407,5.02625308863816,-1.59880455060628,0.487989211373163,-1.06069198441134,-3.19728435977368,-6.05961533864363,-0.811985259548605,-0.734317510166549,-0.194496453635072,0.3392036365819,-2.35805641195688,0.701944575254077,-0.177192457439479,-0.91260253345472,0.105503559174817,-0.17718014839287,-1.73789310333239,0.585407015486552,-0.111644782648971
97.09,-1.96944180203693,1.44237734609034,0.43782834935478,-0.181858427620295,-3.27133336111893,5.48961374890106,-1.63402306590735,0.50897938673329,-1.11224625743626,-3.26624730682071,-6.00132012322582,-0.818981757001729,-0.735800161849571,-0.155085195071109,0.330913721413526,-2.46343433510374,0.655052572255925,-0.279736528896678,-0.881335070639717,0.0917011354748007,-0.195283689676485,-1.73275256119853,0.653614765634439,-0.0655876380092337
97.095,-2.14665955222617,1.41561252976277,0.383428745454469,-0.247645063553381,-2.87405428545636,5.92528371023156,-1.66043332842371,0.535521704973123,-1.16087970958325,-3.34315193619375,-5.92192868986501,-0.827708417374183,-0.739381861439862,-0.112688887481442,0.322338956668556,-2.57776582691384,0.606522552499431,-0.373601525227631,-0.84210983322451,0.0737963887058842,-0.211481720425197,-1.71119989331008,0.756634688124641,0.000230639119159387
97.1,-2.33370580484972,1.38142102254609,0.311649911930661,-0.341460965111926,-2.47149304182048,6.32401398949045,-1.67591370175293,0.568302051721044,-1.20809861621829,-3.42942398617941,-5.82041327251716,-0.837577171857997,-0.74491094312712,-0.0677017674457937,0.314104076560315,-2.70208829897058,0.556840918274978,-0.458321343813421,-0.817479989200762,0.0555473872215064,-0.22922731727329,-1.62583180840882,0.963340035035173,0.105688688307412
97.105,-2.52812299844055,1.3391679781764,0.217375816055553,-0.462350706067271,-2.06710216984313,6.67699618317267,-1.67695190661866,0.607122890177869,-1.25785105907572,-3.52599033597573,-5.69578690130513,-0.847659035640002,-0.752112252127104,-0.0205098327958488,0.306836363938772,-2.83696816815466,0.50645732229161,-0.533532289398907,-0.82849894931653,0.0444966198223215,-0.219414989308755,-1.51785116372801,1.14170864422425,0.194825464487762
97.11,-2.72643092314053,1.28812919860404,0.0975350359034527,-0.608264315601549,-1.66443915643362,6.97615931610446,-1.6614316842758,0.651196220200732,-1.31367743455672,-3.63305220051442,-5.54714983012822,-0.85671328719942,-0.760640032572084,0.0285197924562493,0.301114927476115,-2.98230289835462,0.455769712224271,-0.59894310695241,-0.86505944055171,0.0345065569664832,-0.192067151065674,-1.43306138853359,1.31116342173035,0.264753206585167
97.115,-2.92224405063178,1.22885176125029,-0.0445385166337149,-0.776059426386874,-1.26718744363336,7.2144590580094,-1.63138600052246,0.699463644915597,-1.37451612471255,-3.74990633514596,-5.3737480884316,-0.863255567778798,-0.770118950480038,0.0790380460139071,0.29740195031104,-3.13716520103225,0.405135459810049,-0.65431199672842,-0.929538995050276,0.0223511187383905,-0.125979294589547,-1.33223175229057,1.49237535187751,0.318500649543804
97.12,-3.10828037071828,1.16152248147295,-0.203696187971839,-0.961552830683588,-0.879154720816766,7.38615314557167,-1.58934791007306,0.750013780723726,-1.43831853412252,-3.87479832791928,-5.175036310689,-0.8656577882709,-0.780153441958118,0.130729939267757,0.295977881220156,-3.29967451699768,0.354893544973463,-0.699433154990325,-0.99579942601644,0.00832306185597018,-0.0544878744728213,-1.27129093017517,1.59879879923187,0.325090451098153
97.125,-3.27834566990837,1.08498534933999,-0.375953959283378,-1.15960286329745,-0.504234200990876,7.48705888430405,-1.53644122449616,0.79983808058611,-1.50493209007298,-4.00480678237261,-4.95074178987221,-0.862276128431817,-0.790332953095299,0.183319904431434,0.296894530503174,-3.46689310667294,0.305386955737818,-0.734127253962964,-1.03710263878376,-0.00797802498328381,0.0100224193735027,-1.15351755652621,1.63978234404085,0.323611939499989
97.13,-3.42721187259232,0.997450347476668,-0.556511534920564,-1.36422552118208,-0.146333145326196,7.51477789275087,-1.47403051697129,0.845086439955009,-1.57452428527115,-4.13578423152376,-4.70092809231431,-0.851601999080367,-0.800246195584621,0.236549628851674,0.299939193167333,-3.63476856227968,0.256984367787684,-0.75823227331499,-1.08968437722582,-0.021786933369846,0.0632177700087545,-1.07496830751857,1.62466291784713,0.283584152778205
97.135,-3.5505207905963,0.896882103373977,-0.739439475157975,-1.56874848637573,0.190722153751168,7.46886867382995,-1.4038834375207,0.881283872738537,-1.64679965250169,-4.26238050100535,-4.42605522598267,-0.83242429766805,-0.809500510056749,0.290133856692656,0.304612796738588,-3.7981455733217,0.210099866280123,-0.771596523658235,-1.12319577879585,-0.0206831921291134,0.0789759327297663,-1.19583111744788,1.49073006357261,0.226994529923744
97.14,-3.64475496620875,0.781245646387661,-0.918177457503875,-1.7660077421267,0.503298702368833,7.35094295182021,-1.32772826558976,0.903622190968066,-1.72074903870501,-4.37816938748107,-4.12703374482492,-0.803985140104758,-0.817744637989066,0.343702105271634,0.310140082502283,-3.95086708002191,0.165208433107741,-0.774081138107036,-1.14310966175678,-0.0131887460994753,0.0602624066292822,-1.47909410059066,1.21382967626811,0.158043690980706
97.145,-3.70787277222786,0.648939864753243,-1.08571656074711,-1.94859482891332,0.788088982245964,7.16465193852662,-1.24756553538734,0.907494908438631,-1.79486204329318,-4.47589443288263,-3.80527042497949,-0.7661078010485,-0.824703668417361,0.396729292030645,0.315530134337348,-4.08598217822889,0.12285457898316,-0.765579697240142,-1.14357311399208,-0.0265179592657235,0.0139413859768695,-1.77889738870406,0.881930680328391,0.100693668309468
97.15,-3.73972121208585,0.499369908718914,-1.23482224922322,-2.10917206411252,1.04223812575402,6.91554325100451,-1.16591048158838,0.889157551622985,-1.86726456316768,-4.54785524160634,-3.46270141112936,-0.719276509733942,-0.830235328005541,0.448439571797368,0.3196855684604,-4.19608622502309,0.0836520642333102,-0.746057590342461,-1.13463176208796,-0.0282427787920889,-0.0308617524917779,-2.00952439798926,0.547466305793595,0.0632472889577785
97.155,-3.74173821547989,0.333544011162057,-1.35839930025304,-2.24088993855181,1.26340372788837,6.61078150142668,-1.08559690210012,0.846403164683058,-1.93551452744095,-4.58646360780463,-3.10180519080931,-0.664648237707692,-0.834380286371561,0.497694233868996,0.321540506155175,-4.27382905015966,0.0482757424007275,-0.715614818329146,-1.11462249443493,-0.0270647387475006,-0.0734713292576542,-2.15327334509524,0.220217741231346,0.0415532923978976
97.16,-3.71590442939557,0.154986921541678,-1.44877229643955,-2.33786937090988,1.44975071295055,6.25875631399639,-1.01025413432744,0.779233652273945,-1.9953402861236,-4.58491084629884,-2.72559104173115,-0.603975811054578,-0.837362901515968,0.542937257076057,0.320220981297221,-4.31254038996975,0.0174401276471909,-0.674570629617518,-1.07717578554249,-0.0399323389321292,-0.113055979321509,-2.21767385528374,-0.00350648117840445,0.024097733803764
97.165,-3.66522984308918,-0.0307437694983659,-1.5004564864938,-2.3955936623254,1.59996943759745,5.86868027870386,-0.942924017634023,0.689774517520867,-2.0430222546845,-4.53776961087111,-2.33756955281704,-0.539436786630632,-0.839548403232437,0.58225467970972,0.315203821350579,-4.30680093020422,-0.00814750111494544,-0.623546206610969,-1.07265186171938,-0.025965681058899,-0.100638223936508,-2.23002500970488,-0.112024222856495,0.0263390292166786
97.17,-3.59527367497752,-0.217298019755763,-1.51448893297163,-2.41112410715837,1.71333838466775,5.45025167279472,-0.884058538423664,0.581863591076591,-2.07979231358201,-4.44142105155269,-1.94170763532302,-0.473393484438273,-0.841394633323752,0.613525730372531,0.306409375075784,-4.25285295108605,-0.0278551594662089,-0.563517328135319,-1.13657356524326,0.0100728558943759,-0.0593316283426191,-2.20445603776429,-0.0784520466801607,0.0483906445846597
97.175,-3.51180305945283,-0.396753069287359,-1.49411262371827,-2.38321610806497,1.78975522153848,5.01333089869337,-0.833871849315397,0.461187184754349,-2.10768777203549,-4.29434498730414,-1.54235795624176,-0.40812736673198,-0.843410420172674,0.634603074120285,0.29419757024972,-4.14889173343642,-0.0411944967490521,-0.495831454550875,-0.951383821020393,-0.111265824092042,-0.135334101142891,-2.37171731654523,0.166005984025722,0.073932619701499
97.18,-3.41831361480393,-0.559336984186571,-1.44019469787085,-2.31242422804121,1.82967989058745,4.5675665263264,-0.79418880527996,0.335108111167579,-2.12496859787434,-4.09732564968692,-1.14415712436745,-0.34558954870425,-0.846117015236902,0.643485629655997,0.279296788606889,-3.99529117430202,-0.0478753777738114,-0.422196687493397,-0.946011645447732,-0.132406575867327,-0.0818399121156328,-2.06567999347627,0.172407462368937,-0.0439234474822949
97.185,-3.31681824738067,-0.695038942478801,-1.35336133138835,-2.20118691938381,1.83401489180131,4.12199574220311,-0.76689453387021,0.211890947441872,-2.1283977560196,-3.85355498418522,-0.751898593355662,-0.28720183960084,-0.850025047893796,0.638496067252683,0.2627167972766,-3.79474073781871,-0.0478427658285012,-0.344642662858947,-0.924712604968227,-0.164211265157671,-0.0618228384449734,-2.1221088790581,0.017990494705925,-0.0358993202435836
97.19,-3.20860394920252,-0.79510756131465,-1.23574358800115,-2.05379051167891,1.80401866951998,3.68470419960641,-0.752959581236894,0.0997159627943691,-2.11528634974002,-3.56855168863259,-0.370394657320829,-0.233732143162152,-0.855631511030225,0.618470536521334,0.245672898632798,-3.552203138008,-0.0412915183461241,-0.265450332067556,-0.910865269610864,-0.165154958465073,-0.0982008568127624,-2.14319097958574,-0.134664483251926,-0.0473162721763343
97.195,-3.09432108933479,-0.853113272906953,-1.09099660585311,-1.87612185362736,1.74132720535853,3.26261277388541,-0.752446980148887,0.00565753552055226,-2.08384670038801,-3.24983136439724,-0.00433937381250302,-0.185260140474821,-0.863411717980757,0.582937192326664,0.229491996628848,-3.27462083709073,-0.0286546099413116,-0.18705736652275,-0.95193806577105,-0.193991906992191,-0.0926113909943184,-2.18568815890703,-0.210247889850632,-0.0705337815542065
97.2,-2.97417259297927,-0.865818977124767,-0.92409927415537,-1.67524681293132,1.64805852430222,2.86138207547748,-0.764590422637547,-0.0651766620470957,-2.0333759358201,-2.90637739778008,0.34182937262573,-0.141243944860031,-0.873789575036168,0.53224222339784,0.215475307452196,-2.97041778757541,-0.0105687403970546,-0.111949074044715,-0.932227103957775,-0.232022736681163,-0.127631449239038,-2.18227990168907,-0.257492873033646,-0.0679675730246442
97.205,-2.84814423904704,-0.833662704514187,-0.740975724825727,-1.4589303274387,1.52692640530028,2.48538606067017,-0.787924978982484,-0.110187722269183,-1.96426512265639,-2.54803516910299,0.664070639986891,-0.100681195672563,-0.887095964452396,0.46757961978249,0.204750503781567,-2.64891768699338,0.0121719282069161,-0.0425412476929203,-0.908488668582478,-0.258809845772674,-0.141436327255454,-2.06483858482638,-0.286586685748763,-0.0709219543451192
97.21,-2.71618732020237,-0.760715639027351,-0.548065548616802,-1.23515421097474,1.38132513684045,2.13774610849859,-0.820471687346396,-0.129463927471448,-1.87788404140282,-2.18490410475904,0.95887261023373,-0.0623323041498373,-0.903530344471166,0.390922162768112,0.198160724807991,-2.31975268428395,0.0386655145466586,0.0189378515431847,-0.882367852613556,-0.295354962636473,-0.153782049235458,-1.98406865860889,-0.323383366467804,-0.0303758519811267
97.215,-2.578358953716,-0.654154587570865,-0.351892641205997,-1.01163295576018,1.21538026066687,1.82043522987643,-0.859955930123149,-0.125574964918912,-1.776380613266,-1.8267487308674,1.22336232353506,-0.0249592688511012,-0.923137639842064,0.304884463742563,0.19619822902489,-1.99228506404356,0.0679520591988793,0.070559414110286,-0.865295143851728,-0.290423410002582,-0.154098506776807,-1.91352220800246,-0.3369833868972,-0.0232165102249138
97.22,-2.43496775046076,-0.523396395241917,-0.158610273159816,-0.795378159201243,1.03393373279935,1.5344049762789,-0.904019354192558,-0.103005460808716,-1.66242129908645,-1.48248125698139,1.45538902114782,0.0124623857806366,-0.945800594872583,0.21253622428187,0.198961964288571,-1.67509833982914,0.0990603048576036,0.11079089875932,-0.832599199135468,-0.306758205758133,-0.177892898733296,-1.78689139737251,-0.245144048048525,0.0784211379996685
97.225,-2.28667966524998,-0.379002411974018,0.0264065257118433,-0.592391388147889,0.842413832630723,1.27967993794411,-0.950404608464628,-0.06740576546555,-1.53893965756263,-1.15978421725618,1.65358022889816,0.0505865751278108,-0.97123596100994,0.117182540931778,0.206156274826769,-1.37563037753995,0.131046672620081,0.13856409912844,-0.82393867035362,-0.291471943843996,-0.146748244873567,-1.64719478131215,-0.174724448118802,0.0243055341144223
97.23,-2.13451595951665,-0.23144870214143,0.198794343451247,-0.407458436922809,0.646610003757702,1.05548256929705,-0.997113250640736,-0.0248583986504303,-1.40896090812169,-0.864853976836499,1.8173627835242,0.0896116053790211,-0.998994846861592,0.0221366194239083,0.217162962621631,-1.09992925572571,0.163023338323551,0.153309571651336,-0.81832240584241,-0.278324649695976,-0.114081394575625,-1.5131663400171,-0.0351758424786326,0.0578178263946189
97.235,-1.97981260456097,-0.0900115338988311,0.355288838209682,-0.243982242758841,0.452414609456489,0.860461488728247,-1.0425133168313,0.0188218863132698,-1.27548717633997,-0.602216838723659,1.9469434367637,0.129275740594469,-1.02848456073705,-0.0695037347107591,0.231147883421769,-0.852480114130275,0.194178383348972,0.154962080235643,-0.806356130553813,-0.239666675899188,-0.0789166657117513,-1.4315736672349,0.0577255170912252,0.0714485915925943
97.24,-1.82421798158891,0.0379635488471334,0.493751008239872,-0.103916507164321,0.265536192369759,0.69292000380285,-1.0853723127685,0.0587327994643205,-1.1414052464237,-0.374660438920361,2.04325437618996,0.168926242814308,-1.05901533235667,-0.15506294251146,0.247152344243278,-0.636143365267219,0.223793392613475,0.143932180383146,-0.810854958468857,-0.215766756701608,-0.0484842882573683,-1.38913064985997,0.166950542548293,0.0833121109937154
97.245,-1.66965992603038,0.147404957701361,0.613099195073715,0.0121506219537006,0.0911942493751323,0.55093798724061,-1.12483111641339,0.0913128753167516,-1.00942295103639,-0.183308028214004,2.10786924905449,0.207640638795975,-1.08985123180981,-0.232446644087767,0.264181380759002,-0.452229818547748,0.251260452011868,0.121038084669474,-0.829548457865285,-0.183627723556898,-0.0185991547310808,-1.36695546477871,0.252354287256103,0.0620473336837901
97.25,-1.5182359179903,0.235589346495184,0.713152054670854,0.104819123123548,-0.0661431738930164,0.432441205428429,-1.16034507742078,0.114481413423694,-0.882023682838449,-0.0277907523347093,2.14289419346166,0.244372815271413,-1.12025242719421,-0.300232194996433,0.281295024101906,-0.300664876260439,0.276095921663846,0.0874096054697951,-0.869982044253003,-0.13112033375504,0.0205388023325865,-1.34634105447195,0.303400600393661,0.0219411427536766
97.255,-1.37208451082833,0.301965925835407,0.794462157786382,0.175640005896134,-0.20295060248064,0.335276113957544,-1.19160573219792,0.127559934471817,-0.761419848791244,0.0935049776253894,2.15084476442008,0.278095198530642,-1.14951080301928,-0.357686442396103,0.297676999633915,-0.180218389520096,0.297948021581748,0.0443817026668525,-0.918678275454016,-0.0734274239788295,0.0536956859738915,-1.34361085084587,0.302416866999152,0.0012860486670573
97.26,-1.23326725050569,0.347753115919262,0.858158151853089,0.226839392221113,-0.316768653920654,0.257278108053964,-1.21845790409233,0.131044815272828,-0.64951074386249,0.183141196776001,2.13452037189415,0.307916698641936,-1.17697689099828,-0.404714892431595,0.312669835153483,-0.08877636305444,0.316598252354109,-0.00661140662555834,-0.977756046532314,-0.00547467383596294,0.086594218790307,-1.42078930585883,0.228102141310627,-0.0627719694829698
97.265,-1.10359570594911,0.375438567172667,0.905902018713899,0.261049329297492,-0.40625432307723,0.196317413600868,-1.24089020777333,0.126300974130345,-0.547725336433735,0.244333771759024,2.09688296232204,0.333167247100801,-1.20207632270259,-0.441764843950674,0.325784494815268,-0.0236070956319296,0.331957390107286,-0.0641338371788445,-1.02734171528832,0.059423676532056,0.0790955136885076,-1.5367679656475,0.160592005007585,-0.168350646085619
97.27,-0.984567359922196,0.388224788634915,0.939683464029148,0.281067984009701,-0.471157420610139,0.150319400844707,-1.25896156319736,0.115221503752582,-0.457046668440807,0.280682374568625,2.04094471121322,0.353444956489611,-1.22432143761242,-0.469701701169192,0.336696562765878,0.0183978112129369,0.344056202985624,-0.126829590196794,-1.10225601832831,0.131266001909086,0.0531858644465324,-1.72434842215987,0.102086135968586,-0.305298589312185
97.275,-0.877534684128921,0.389452209923291,0.961272938912219,0.28965548128461,-0.51223391639399,0.117268328515451,-1.27254894663297,0.0998843835912543,-0.378418452614873,0.295929998546415,1.96967110585286,0.368626776466726,-1.24332206665786,-0.489657219395856,0.345233634476563,0.040509125352187,0.353031639107585,-0.193481847748988,-1.16076040569713,0.210025589526683,-0.00978863368854127,-1.91619946027753,0.0870893021685417,-0.429738147289116
97.28,-0.783636996678935,0.382259272952085,0.972260232654328,0.289369776840253,-0.531116229626403,0.0952049201698009,-1.28139954045894,0.0823125075339973,-0.312603480054038,0.293758252312088,1.88590720642505,0.378847994576247,-1.25879051251947,-0.50287013207262,0.351343415094499,0.0459755024472671,0.359109435062393,-0.263047259420116,-1.22863914208369,0.271199906095207,-0.0964104626001044,-2.09963547578845,0.100744530072089,-0.559873270192193
97.285,-0.70352140998297,0.369458833123321,0.97452171385632,0.282432712558893,-0.530164974519407,0.0822134246878015,-1.28544302099955,0.0643409963853937,-0.259645369542659,0.277613978582866,1.79232998974876,0.384456524459865,-1.27053529498023,-0.510553697648955,0.355045003830975,0.0378630925279156,0.362583782984713,-0.334662650717671,-1.30466955970531,0.348342064402494,-0.187900068132006,-2.24465154279536,0.14274063242363,-0.678720133005654
97.29,-0.637322529785682,0.35340797832517,0.970080542328621,0.270641339027244,-0.512301731488628,0.0764082223110661,-1.28482079431137,0.0474787694237254,-0.218944086505834,0.250582367369133,1.69142108634766,0.385952519532565,-1.27845010703849,-0.513779244723011,0.356401826994743,0.0189350227759305,0.363794455910732,-0.407626986574815,-1.38280939880043,0.406553600158666,-0.282419387394985,-2.34696340288505,0.194401895368751,-0.764076511718179
97.295,-0.584731082252715,0.335951621705029,0.960768995934036,0.255376227057773,-0.480799333691958,0.075958757666606,-1.27980266805324,0.0327968076529289,-0.189541734969206,0.215352288533991,1.58545215115071,0.383930471432317,-1.28250225959579,-0.513375788272737,0.355520093029302,-0.00838243468127377,0.363101598128155,-0.481372013467597,-1.45440946507521,0.437041667128179,-0.36083589691729,-2.38334642421111,0.221637514207246,-0.790384536240674
97.3,-0.545030916349972,0.318452223497045,0.948184104021168,0.237677784507887,-0.439054655604155,0.0791525298517326,-1.27077463872502,0.0209425268075142,-0.170192123165486,0.174248104169551,1.47648112279863,0.379028427203387,-1.28271875158737,-0.509899810978092,0.352518081076526,-0.0419715748682933,0.360859241124853,-0.555426684602481,-1.50639965388161,0.444346204448544,-0.411216040736359,-2.38230006130598,0.219391814617537,-0.799152724888488
97.305,-0.517202084939472,0.301812830980167,0.933762158116228,0.218280105748091,-0.390415654534727,0.0844344454291955,-1.25821681968496,0.0122514673745115,-0.15939056390705,0.129229992982673,1.36636036352341,0.371875082745988,-1.27918435556858,-0.503674632713023,0.347473978887899,-0.0800294271918117,0.357392317436517,-0.629371108936814,-1.52827180086231,0.453277697924734,-0.433005590696775,-2.32196247834883,0.12055690310105,-0.786765656779163
97.31,-0.500003262505568,0.286539256064516,0.918785049165293,0.197589827009325,-0.338074805524209,0.0903936126604678,-1.24268940356677,0.00682609700156846,-0.155456642002037,0.081851744042469,1.25675142740106,0.363039550258404,-1.27205555944712,-0.494834315023351,0.340425542924414,-0.121117940834348,0.352982710478089,-0.702791311625363,-1.51891840196915,0.47352294539275,-0.42534369049046,-2.23868268821439,-0.0614056734827305,-0.70968943401813
97.315,-0.49196725280428,0.272884434693413,0.904262699029804,0.175717091387447,-0.284965136887057,0.0957649859167158,-1.22481955160665,0.00452825393281294,-0.156673201481512,0.0332699996430748,1.14913490624346,0.35300075707324,-1.26156375624343,-0.483355367662809,0.331424850978234,-0.164162372563696,0.347860888569346,-0.775251499408118,-1.49228281523726,0.475829404790022,-0.401641562511243,-2.12974421019088,-0.364218977768165,-0.610679573226806
97.32,-0.491405810529143,0.260985044552962,0.890870457393254,0.152604962604296,-0.233627907342167,0.099503470871538,-1.20526803320692,0.0049994956566556,-0.161385926367982,-0.0156557690625252,1.04480872284141,0.34214065981907,-1.2479989652706,-0.469102536115681,0.320572542645171,-0.208356743718038,0.342197145633203,-0.846282825618955,-1.45680677805136,0.463294272425553,-0.362448551469522,-2.01933261802376,-0.7033873362814,-0.543646829308866
97.325,-0.496530191059289,0.250893044023232,0.879055778536437,0.128150268337008,-0.186120987968019,0.100849911908388,-1.18467465927044,0.00778957968585904,-0.168025085485427,-0.0642641593516413,0.944885658805866,0.33074844088247,-1.23169158943408,-0.451897138018563,0.307993377956112,-0.253068006804814,0.336098130333822,-0.915377100750693,-1.4098515157926,0.451258945744213,-0.329044475838839,-1.94060602871491,-1.07024786549415,-0.445150608569576
97.33,-0.50558880638631,0.242579857410933,0.869149531624029,0.102225484823293,-0.144025090313788,0.0993067609871657,-1.16361260368502,0.0124808229005523,-0.175126190364306,-0.11207177392036,0.850300041238732,0.319024377542431,-1.21300980898803,-0.431610333141806,0.293817399768951,-0.297818328227535,0.329615022603125,-0.981982594622082,-1.3128690427239,0.432380623116461,-0.326362358711276,-1.92542018128369,-1.32691001268396,-0.272156026533998
97.335,-0.516908491488738,0.236009932674294,0.861332462869622,0.0746715267486587,-0.108483312254801,0.0945914905764483,-1.14257822503293,0.0186997632865183,-0.181409693537937,-0.158780970617124,0.761808446224136,0.307088622633018,-1.19237647794631,-0.408267825137259,0.278229221071797,-0.342293917044875,0.322758663181989,-1.04551514266936,-1.25783862836226,0.409240745348696,-0.341432533902526,-1.98141069090175,-1.31772498254318,-0.0588272171211553
97.34,-0.528919803609801,0.231218343551353,0.855572243496039,0.0453440777086714,-0.0802065289080067,0.0866442242451731,-1.12199610866176,0.0260791336093582,-0.185876700398476,-0.204248274717648,0.679973492870448,0.295002654906165,-1.17027954288007,-0.382115603566231,0.26153167030344,-0.386312964524171,0.315515674929163,-1.10539237618135,-1.22567476208512,0.353052556366836,-0.371121667943886,-2.07919364738712,-1.14629824112135,0.204762022233683
97.345,-0.540271603485721,0.228284507597234,0.851683891824165,0.0141792512335515,-0.0594808643771001,0.0756554266807756,-1.10220659137531,0.0342761142833725,-0.187851490438962,-0.248432066000216,0.605147648292316,0.282796587906211,-1.14725339749869,-0.353625373900966,0.244136187886955,-0.429773367755947,0.307864121001142,-1.16107856975898,-1.15433650048243,0.275964819406815,-0.40621489216031,-2.15352064795042,-0.881302348139408,0.31847698230108
97.35,-0.549989212448743,0.22721656141121,0.849457797344124,-0.0188064081085228,-0.0462406805914828,0.0620272721528434,-1.08344308977213,0.0430414680619568,-0.186972420433484,-0.29138245161155,0.537475930714919,0.270488246058819,-1.12384522131616,-0.32346676374182,0.22648739647378,-0.472645565544607,0.299788926032592,-1.21212507168386,-1.06109143232505,0.230460486749186,-0.413180713753732,-2.15538343145023,-0.539030533607143,0.374403412491614
97.355,-0.557531613995396,0.227884067742034,0.848683245482239,-0.0535826076727016,-0.0401923007239958,0.0462508915021014,-1.06583609011878,0.0522259183481504,-0.18319062894156,-0.333273899884834,0.476917078461259,0.25809181998666,-1.10058871739012,-0.29245624718477,0.20901480229769,-0.515011095359787,0.291294898691691,-1.25820216929562,-1.00279580519391,0.202150797569649,-0.393001147745508,-2.10539372406907,-0.320036709509243,0.364915071474489
97.36,-0.5627070087267,0.230060301315584,0.849054915652079,-0.0901290686759435,-0.0408996029341447,0.0288055708995242,-1.04945668499874,0.0616805890418057,-0.176786163861181,-0.374392770413969,0.423267547986323,0.245627934113109,-1.07799151839879,-0.261486824855664,0.192154636375184,-0.557056916534811,0.282411457848363,-1.29912677544444,-0.950998840790566,0.17545492400336,-0.337108974416616,-1.9830846260421,-0.253042882447159,0.261150747351313
97.365,-0.565566285198775,0.233465389748449,0.85011918167785,-0.128373870838505,-0.0477962029142869,0.0101452420453958,-1.03436709060532,0.0711607106464686,-0.168342835635368,-0.415049605646873,0.376179424435846,0.233137964282843,-1.05652649503577,-0.231460856396465,0.176373259113528,-0.598994041690676,0.273187515247359,-1.33488673359012,-0.933188827951741,0.140003292350931,-0.264175237947574,-1.83476910340697,-0.390051188800404,0.103724544735894
97.37,-0.566356422164978,0.237742213991946,0.851338069659895,-0.168119685681685,-0.0601710867049571,-0.00928811074952904,-1.0206483418126,0.0803129500287866,-0.158656879642229,-0.455479811687606,0.335178985087099,0.220692523949128,-1.03661538136413,-0.203230918483022,0.162138405794676,-0.640964008885377,0.263681084569017,-1.36565146161459,-0.917411736632804,0.106449113534137,-0.194065410955869,-1.64162634548612,-0.753462167157054,-0.184463678072042
97.375,-0.565514316267862,0.242427762902731,0.852230828930636,-0.209016485021638,-0.0771752311313675,-0.0290761782094556,-1.00840434305711,0.0887190047670216,-0.148616521204639,-0.495782882752216,0.299694127265561,0.20838826574069,-1.01860602140642,-0.177543552208253,0.149867093977442,-0.682983046028712,0.253947973684624,-1.39175934282724,-0.904229180761444,0.0738601999624653,-0.136961358154223,-1.41153616789399,-1.39206641037794,-0.531438978193735
97.38,-0.563641597623697,0.246977002902728,0.85248374474843,-0.2505928251426,-0.0978771768981373,-0.048854534825801,-0.997751693082592,0.0959368641706092,-0.139104569634369,-0.535914549110538,0.26909313950215,0.196334806294589,-1.00274902968786,-0.154989328950569,0.139887181986669,-0.724938081147904,0.24403262552012,-1.41368347602406,-0.891498234802125,0.0778429706899923,-0.138611445091535,-1.2898006387338,-1.90972345709794,-0.77683344578652
97.385,-0.561399842456824,0.250819997249748,0.851928421103603,-0.292297293971709,-0.121334729489999,-0.0683255676916898,-0.988809359939013,0.101510035211318,-0.13093037964684,-0.57569177069485,0.242727820564578,0.184639592201856,-0.989178944712622,-0.135957436223795,0.132413709375658,-0.766593711781167,0.233960295737708,-1.4319828859067,-0.872693677759579,0.101691356535656,-0.174880199025038,-1.35160292710891,-2.14224428900721,-0.891258199596907
97.39,-0.559339993794544,0.25342315727091,0.850523648743471,-0.333500767027155,-0.146619393791054,-0.0872418161554338,-0.981715279686211,0.104997045458999,-0.12469552563256,-0.614768348285022,0.219970138625189,0.173396256605954,-0.977909311073317,-0.120604162166381,0.127526302515126,-0.807566412278135,0.22372876184638,-1.44724213223014,-0.849322933747884,0.125284456783574,-0.22885671685755,-1.52490753823233,-2.08431181229901,-0.863251702401236
97.395,-0.557809665486479,0.254344920603051,0.848404558266071,-0.373505747187685,-0.172818387571609,-0.105392831720874,-0.976624550938406,0.106046053224358,-0.120669527837926,-0.652629141788636,0.200241669921904,0.162673524729424,-0.968846261431153,-0.108843685242725,0.125159996148053,-0.847314469270199,0.213304359201604,-1.46000560370775,-0.825196776840924,0.132824960964679,-0.253379467847177,-1.62858280224561,-1.79192174834823,-0.779710961571227
97.4,-0.557041629236726,0.253251912286185,0.845753134553135,-0.411593264760989,-0.199063884228904,-0.122604590351949,-0.973610092743802,0.104428474146386,-0.118923618184018,-0.688632372745172,0.183040899593721,0.152506175923932,-0.961812986901136,-0.10033841826048,0.125131090328486,-0.885175427024596,0.2026268601258,-1.47072035573165,-0.79392033941494,0.139099892561785,-0.271965485150372,-1.68789280219073,-1.29387590625481,-0.685262874329414
97.405,-0.557171706244046,0.249933960897851,0.842664528995067,-0.447048845763566,-0.224555017054819,-0.138729682240329,-0.972623390532928,0.100022055528209,-0.119431527561793,-0.722038346810186,0.167967614478495,0.14289510137202,-0.956574419806932,-0.0945088725603701,0.127176607942106,-0.920390232445555,0.191619980059691,-1.47969290517046,-0.765785112346856,0.149701010738849,-0.274906480816436,-1.74324446940381,-0.882738841932783,-0.6257077203991
97.41,-0.55810317916185,0.244356625880982,0.839259968756821,-0.4791598958246,-0.24854270764992,-0.153621335587338,-0.973571879015593,0.0928336406557615,-0.121907326916581,-0.752018919355744,0.154735286459793,0.133811708891074,-0.952857131918498,-0.0906249870342072,0.13096879229006,-0.952108066306361,0.180202253955962,-1.48705979916299,-0.759262369654152,0.167424322940646,-0.258124239327044,-1.84515871068674,-0.497665055116671,-0.545948869348385
97.415,-0.559514377864021,0.236687557132907,0.83575409622604,-0.50725936086968,-0.270327831506118,-0.167111944600457,-0.976313875696181,0.0830572279158572,-0.125769483481424,-0.777727363538632,0.14316809482968,0.125196347132503,-0.950363629738952,-0.0879176896742731,0.136111801618111,-0.979452260138366,0.168297434925723,-1.49277568196567,-0.759433018125534,0.189097097766816,-0.239146613584547,-2.00168965461166,-0.160103088962504,-0.431765783190606
97.42,-0.560959682747017,0.227288806653764,0.832375176627496,-0.530797806438494,-0.289293532647043,-0.17901081069998,-0.980614638472689,0.071077993489869,-0.130276654434286,-0.798401097563079,0.133194505471475,0.116958658065674,-0.948784062209344,-0.0855957673565926,0.142160389268288,-1.00162057380888,0.155846733807516,-1.4966154411729,-0.763900564378715,0.208808228913095,-0.210820005430772,-2.29482701986417,0.211980496061016,-0.25187505489137
97.425,-0.561926256096141,0.216682644049338,0.829300804456845,-0.549354405157114,-0.304922399443102,-0.18910190472676,-0.986155359841151,0.0574337875672305,-0.134625031007064,-0.813395161647153,0.124844058695486,0.108991124699467,-0.947816141064652,-0.0828453235456646,0.14865600484458,-1.01791763618285,0.142822518752673,-1.49818459877426,-0.780026667962701,0.221051348519698,-0.187408052377555,-2.57152708038533,0.484723560533488,-0.113753924311488
97.43,-0.561913536552638,0.205486916601201,0.826662964209664,-0.56264040933096,-0.316802819541504,-0.197156809762323,-0.992548064774606,0.0428117141999013,-0.13800048207888,-0.822206914649833,0.118238876423266,0.101183884996497,-0.947193352494452,-0.0789207535327671,0.15514407022292,-1.02778065968924,0.129239471911914,-1.49694510705747,-0.785188167971665,0.213676378162622,-0.15745934715692,-2.79821237517923,0.727277922939147,0.00731202131986027
97.435,-0.560484281068932,0.194380190065346,0.8245202802978,-0.570550998629472,-0.324651423969367,-0.202981705989021,-0.999355665577387,0.0280069226401492,-0.13965954163804,-0.824553296681706,0.11357618984622,0.0934325695627962,-0.94669863038389,-0.0732169162900752,0.161186688945673,-1.03085996014934,0.115160486253257,-1.49225810947738,-0.794086387195419,0.2142838767906,-0.12364640589162,-2.89594633217444,0.868356975925437,0.105977002856853
97.44,-0.557258186380987,0.184094610581279,0.822800512684641,-0.573145434826957,-0.328302533518987,-0.206425706291545,-1.00612700977019,0.0138133072022303,-0.139022654881781,-0.820367248130366,0.111106473106035,0.0856511979092157,-0.946165722655666,-0.0652668636617824,0.16639658597936,-1.02701896014259,0.100697786242842,-1.48342818150115,-0.800218106838337,0.212382177016054,-0.0889395759245748,-2.92897185070729,0.950923206702121,0.234341553817367
97.445,-0.552000799067838,0.175342377318782,0.821419520741096,-0.570583423065237,-0.327678916581683,-0.207351514099501,-1.01243048577723,0.00101714501956295,-0.135665541341,-0.809743875386923,0.111107903424265,0.0777851636140498,-0.945497518520095,-0.0548157349990709,0.170474975844464,-1.01628453188196,0.0860097900256579,-1.46975188231993,-0.842588021364291,0.21791889922296,-0.0534394534971041,-2.88517920322988,0.924623837003223,0.403268619306404
97.45,-0.544784754460653,0.168707296518907,0.820429937560169,-0.563208828788693,-0.322839489363842,-0.205689804339597,-1.01787337957166,-0.00954382684226008,-0.129303734056014,-0.793047359046284,0.113860470894531,0.0698095647824772,-0.94467770479715,-0.0419426148035153,0.173235671647801,-0.998960665636254,0.0712932762409478,-1.45058171179679,-0.844466538374408,0.117164519726312,0.0723943729893309,-2.74562081166655,0.49939669931444,0.51150702233751
97.455,-0.535968323943882,0.164624685232662,0.819887752946659,-0.551666033580589,-0.314046511567027,-0.201535505828747,-1.0221181358702,-0.0170848624961287,-0.119908068371396,-0.771049985255561,0.119625271408849,0.0617272507439552,-0.943737875079499,-0.0270278756467844,0.174606328130283,-0.975774199580212,0.0567725681789255,-1.42538358313812,-0.784445552715776,0.157493849907193,0.0948918170825514,-2.22394549970624,-0.212348713705053,0.37494243840512
97.46,-0.526028551689051,0.163400850602468,0.819657825147134,-0.536818485930653,-0.301726226436725,-0.195140834665717,-1.02490658465935,-0.0210628069275228,-0.107803316824002,-0.744842200140018,0.128624229894543,0.0535796198228072,-0.942719362891597,-0.0106142938686412,0.174606786289528,-0.947788488419746,0.0426876362729561,-1.39377301956583,-0.804188039759421,0.158530328505593,-0.0428732779746787,-1.90372852262945,-0.582204991533812,0.346243230683067
97.465,-0.515497994799218,0.165171462958347,0.819479524420111,-0.519583035063517,-0.286381410140166,-0.186846463384902,-1.02608580802715,-0.0212305202851381,-0.0936088567401471,-0.715635562202543,0.141017530703493,0.0454531036307587,-0.941670302012274,0.00665717698403756,0.173331566263999,-0.916208828686981,0.0292797412911181,-1.35554653729241,-0.87623678113299,0.231630127541533,-0.0673970277333219,-1.94626561357162,-0.27650481737503,0.429892189510903
97.47,-0.50496669989853,0.169853515532467,0.819092857547785,-0.50085262040871,-0.268556128550486,-0.177051049058952,-1.02562624456664,-0.0176213976162271,-0.0781461163709103,-0.68465469520518,0.156886278282478,0.0374715085125066,-0.940651754353691,0.0240690898015766,0.170950494748164,-0.882276875198541,0.0167758461878654,-1.31071023906479,-0.922397876194271,0.261834150556503,-0.0303633795202678,-2.00608238081608,0.0215697240852113,0.674888400580939
97.475,-0.495002125556416,0.177146599278449,0.818218192371793,-0.481425822528565,-0.24880347033868,-0.166184178639451,-1.0236285842264,-0.0105803930371762,-0.0623978914987942,-0.653032103802777,0.17622098248699,0.0297860604888559,-0.939730525046667,0.0408880612993101,0.167700527036366,-0.847165865109635,0.00537795551493758,-1.25949266929618,-0.897628009748132,0.212847760803345,-0.0518210620670976,-2.09367170248894,0.260926422424535,0.879197998297294
97.48,-0.486073623948795,0.186542761964936,0.816586865589088,-0.461893016089778,-0.227614816653476,-0.154648315150602,-1.02030848218022,-0.000737571710887715,-0.0474104277772881,-0.621650662529755,0.198909308551962,0.0225640616693801,-0.938969439856591,0.0563949073813646,0.163840631656796,-0.811820986047184,-0.00474389917628537,-1.20234530947647,-0.89254434811835,0.140711375557733,-0.0796801105342261,-2.13274753093287,0.517079864317921,0.787034637338628
97.485,-0.478576920234156,0.197335239171294,0.814124900734253,-0.442619700122473,-0.205393188985341,-0.142790908059431,-1.01596286361026,0.0111347632670295,-0.0341143947802182,-0.5910967529738,0.224724983374209,0.015963163410993,-0.93842476274192,0.0698585324814713,0.159603171589901,-0.776909823922223,-0.0134664604142081,-1.13994313848042,-0.94049417410427,0.171352515997312,-0.0800703397970328,-2.12634193195362,0.671864424262069,0.695527295015942
97.49,-0.472859766367112,0.208670089103188,0.811042993760739,-0.423863214889356,-0.182506578422356,-0.1309345764265,-1.01094968362825,0.0242338399571682,-0.0232168038404914,-0.561773572231706,0.25332524851744,0.0100977619809693,-0.938153672819365,0.0805560157722644,0.155210171904216,-0.742932670068503,-0.020734573648968,-1.07318032467185,-0.977649403846992,0.198239885574285,-0.0861349851320913,-2.14231938315422,0.746957491185584,0.719309042113751
97.495,-0.469174762806587,0.219644979411731,0.807704265698169,-0.40586265901234,-0.159328501931247,-0.119407190448656,-1.00568457744544,0.0377313437789109,-0.01523027186431,-0.533997531528964,0.284257935349467,0.00502214309870902,-0.938227505639901,0.087861365603351,0.150928324610608,-0.71031395425202,-0.0265696217511455,-1.00314534104228,-0.991272713450609,0.187786444387746,-0.0792309372949372,-2.2014948189416,0.751952099355264,0.708938561535489
97.5,-0.467632689687993,0.229406919531406,0.80447759678432,-0.38882441094457,-0.136210989044974,-0.108529811933177,-1.00062075566837,0.0507752912897754,-0.0105238710259235,-0.507985507743745,0.31697431693072,0.000733614873367622,-0.93873685658498,0.0913140948784804,0.147065761962549,-0.679383300531202,-0.0310603259519221,-0.931079163301595,-0.999990650553547,0.150415235675252,-0.0706477792703685,-2.22763382798657,0.670401300404015,0.597311576097848
97.505,-0.468214822818524,0.237214458942755,0.801730449348287,-0.372892188798134,-0.113450278861819,-0.098583626295184,-0.996205459331985,0.0625537380521084,-0.00930924520683598,-0.483827305774227,0.350846931010713,-0.00282323492994258,-0.939783585698195,0.0906374775246324,0.143913679217332,-0.650342913339388,-0.0343527183536236,-0.858331451635777,-0.983942699408066,0.124600762646925,-0.0779640472940597,-2.20529315320005,0.526622859959177,0.356777217866223
97.51,-0.470801228501539,0.242469983103813,0.799842749012478,-0.358161744720834,-0.0912925813659623,-0.0897892018366687,-0.99283507139271,0.0723692140120453,-0.0116106865249751,-0.46151011458156,0.385194610519529,-0.00575642524630704,-0.941464916198324,0.0857395654823004,0.141705221848989,-0.62328832442253,-0.0366453101515472,-0.786314299777224,-0.955971047215969,0.115930151012213,-0.099336424776281,-2.19168749834727,0.486889053831653,0.180986443902172
97.515,-0.475164632034607,0.244745695741872,0.799128968576214,-0.344706611902599,-0.0699440426455771,-0.0823020912482065,-0.990815199207425,0.0796828088221747,-0.0172701600902606,-0.440958300225158,0.419311794031221,-0.00822280677282436,-0.943849344698361,0.0767004832604148,0.140594699134329,-0.598244381810668,-0.0381821260160281,-0.716445864694613,-0.927897792493858,0.105807654154746,-0.118349886934054,-2.18637070047118,0.540818847845623,-0.00260842562972843
97.52,-0.48096030972834,0.243816774929619,0.799751620342728,-0.332587284086752,-0.0495518166760183,-0.0762098444203844,-0.990325465933046,0.0841418833845032,-0.0259735277657335,-0.422058019682642,0.452495161360603,-0.0104196566030933,-0.946950814213087,0.0637535035780885,0.140638572237197,-0.575185313132666,-0.0392421058388714,-0.650086457834556,-0.904964826754991,0.0897468754178499,-0.124093231929038,-2.21190185154107,0.655363957312986,-0.206198803580034
97.525,-0.487763413685895,0.239691393952728,0.801720534230927,-0.321850444688512,-0.0301839726641995,-0.0715259075462154,-0.99139845564093,0.0856002315564866,-0.0372841110069564,-0.404672498735162,0.484070126708015,-0.0125724600729238,-0.950714141459206,0.0472819191231109,0.141794247872526,-0.554045861049733,-0.0401253114395799,-0.588473435885743,-0.907614422434885,0.0891299216839922,-0.101602588406752,-2.21955068838008,0.719479962096719,-0.529232257866064
97.53,-0.495129230701132,0.232618298437697,0.804932926977134,-0.312526073987326,-0.0118405562794772,-0.0681822583962102,-0.993915537433232,0.0841204805078024,-0.0506854066212845,-0.388654598375088,0.513422626545097,-0.0149187332049563,-0.955010495112534,0.0278093519025563,0.143930480919806,-0.534731296486617,-0.0411356191338499,-0.532659013929034,-0.963212495150868,0.123755065823778,-0.0549695702436722,-2.1605478319637,0.494550562678616,-0.69316471604351
97.535,-0.502627204614318,0.223051545508506,0.809176866930392,-0.304623199172339,0.00551687872171081,-0.0660211583870906,-0.997619236239887,0.0799539991139023,-0.0656275613039463,-0.373856269667938,0.540029757194433,-0.0176915604931945,-0.95964109361752,0.00597335809229805,0.146828282886773,-0.517125809311533,-0.0425634896134133,-0.483459288261711,-1.03848398981599,0.171469047806603,-0.00810573712762752,-2.02051652547069,0.0155070099181903,-0.667311418469455
97.54,-0.509848134873401,0.211582924923374,0.814114539915929,-0.298115857333671,0.0219507307432734,-0.0648007206956729,-1.002147930146,0.0734997570218818,-0.0815662498261456,-0.360118674821195,0.563483196722457,-0.0211050083238926,-0.964355967511072,-0.017500489705703,0.150189819681148,-0.501082615765697,-0.0446705386193587,-0.441419356290958,-1.07209672556071,0.227633077942459,0.00160826019566031,-1.83283416564278,-0.489012810288686,-0.432610339052905
97.545,-0.516410724635769,0.198895350319443,0.819319467894718,-0.292918814752397,0.0375539563895187,-0.0642126996700423,-1.00709097552412,0.0652500999994869,-0.0979869333573821,-0.347243555278287,0.583502939030206,-0.025341112695247,-0.968886096397825,-0.0418594015676833,0.153689700675303,-0.486396112000388,-0.0476755774701828,-0.406796752826927,-1.03304763331442,0.305916159697146,-0.0123208523045131,-1.70617603585954,-0.834702598608855,0.0908261381747895
97.55,-0.521995004221506,0.185725814910354,0.824368128458419,-0.288875959643265,0.0524513234891033,-0.0638845889846417,-1.01204946025614,0.0557418633275444,-0.114421926967138,-0.334987758147823,0.599935313545903,-0.0305396345672429,-0.972981893665551,-0.066410825122407,0.157043432377728,-0.472798169122447,-0.0517445471866531,-0.379572512501472,-0.945814720672288,0.247398605140717,-0.0155321855670109,-1.76747076692986,-0.858058850558808,0.569180809519523
97.555,-0.526395590359697,0.172776791899223,0.828907079627238,-0.285773055806269,0.0667850584542769,-0.0633849053002687,-1.01668727985869,0.0455231210695229,-0.130466663199478,-0.323088443793026,0.612741770390864,-0.0367922265164029,-0.976452292744908,-0.0905470481547033,0.160031004874495,-0.459986448401184,-0.0569861525414058,-0.359485495314787,-0.913782379301915,0.0969908789816611,0.00987822473862582,-1.76235986377874,-0.803234505571646,0.497885900934017
97.56,-0.529542926348662,0.160624992071488,0.832672446783087,-0.28335889205368,0.0807044709552503,-0.062270405050512,-1.02076357844569,0.0351225767032841,-0.145786864852803,-0.311280168949945,0.621991275081762,-0.0441410307554387,-0.979189644869696,-0.11372904836659,0.162493295415522,-0.447645378488125,-0.0634518344892962,-0.346071117670388,-1.03707210991457,0.0979653967106988,-0.0358859270480184,-1.7647690914749,-0.65516861338607,0.351936764169767
97.565,-0.531476805903032,0.149703957971631,0.835503757111944,-0.281366146712371,0.0943651321553739,-0.0601425141223262,-1.02414242219427,0.0250125515547246,-0.160114979883947,-0.299305325775816,0.627849946725159,-0.0525805266983034,-0.981168503267735,-0.135520818306026,0.164353056193272,-0.43546029759685,-0.0711387959106975,-0.338703485054583,-1.09514295859185,0.0612283825193954,-0.100201949694133,-1.58323519651303,-0.424558589569583,0.166818389649696
97.57,-0.532315254313011,0.140318147638077,0.837359084108174,-0.279537833070279,0.107923840357494,-0.0566722223773614,-1.02678498032224,0.0155824700311086,-0.173245145912747,-0.28694308833666,0.6305587942279,-0.0620620522710697,-0.982431094326458,-0.155638749356341,0.165634768543682,-0.423149707511808,-0.0799961989122733,-0.3366484147788,-1.01484497421256,0.114281769827946,-0.14010532024344,-1.3678828646866,-0.0685995512122574,0.0224417042221846
97.575,-0.532241011739121,0.132639678542819,0.838311312727886,-0.277657659142631,0.121527459840066,-0.0516128558800674,-1.02873606671765,0.00713587138379167,-0.185029441263102,-0.274046394838355,0.6304072267096,-0.0725006222883826,-0.983077791986803,-0.173948702922972,0.166449315514033,-0.410505369955841,-0.0899337666495203,-0.339119422402315,-0.945543852875994,0.132242677370844,-0.117374959895981,-1.42583529390041,0.445820666472181,0.00798433578837803
97.58,-0.531490480952893,0.126708320990001,0.83852798612209,-0.275576251959907,0.1353026823449,-0.0448198360905183,-1.03010879535347,-9.89052598766208e-05,-0.195372082003342,-0.260568519177968,0.627710411826459,-0.0837825866150436,-0.983260733389712,-0.190429492430861,0.166964341267119,-0.397421808080536,-0.10083079580247,-0.345327254286543,-0.882020744611632,0.0701396883872419,-0.0272286764808994,-1.39127265574024,0.691885372931003,-0.0379651145212734
97.585,-0.530337601637345,0.122446368444125,0.83824427772653,-0.273229597724627,0.149348337069674,-0.0362715252326032,-1.03106363370393,-0.0059557406694633,-0.204219874103699,-0.246577557783468,0.622791480183129,-0.0957725674546374,-0.983170424965026,-0.205133687354618,0.167379108210923,-0.383913418639424,-0.112544045866026,-0.354520632674288,-0.859013420959792,0.099296802043115,0.0302526854467585,-1.16388851922997,0.723324302056108,-0.138960299570286
97.59,-0.529074810370259,0.119681289514645,0.837733190460185,-0.270650520603371,0.163729921444131,-0.0260871266255178,-1.03177952250561,-0.0103188463172223,-0.21155294471601,-0.232261746169324,0.615969589572731,-0.108319385678527,-0.983011021879435,-0.218162936236398,0.167900113035415,-0.370121819117879,-0.12491429610096,-0.366015012441654,-0.903148504793421,0.122288226546471,0.0469805041145075,-1.16432047659096,0.747635307813267,-0.108986459901835
97.595,-0.52798501637044,0.11817930173756,0.837270600469836,-0.267975603711385,0.178473033989287,-0.0145356358035475,-1.03241860722808,-0.013117167275595,-0.217385870584979,-0.217930370714688,0.607551301201768,-0.121261972488718,-0.982965905108685,-0.229671220007892,0.168714213960489,-0.35631785754815,-0.137772721572725,-0.379210009915601,-0.976970653486545,0.0965035116027921,0.0467191799899703,-1.1110513960831,0.703869554408962,-0.143680490601415
97.6,-0.527302121510708,0.117686704734201,0.83708197519009,-0.265440276025523,0.19355635372551,-0.00202448293290213,-1.0330952588116,-0.0143327688981411,-0.221786334228722,-0.204003343715376,0.597819864845984,-0.134435527932892,-0.983166222556076,-0.239855457508656,0.169956890695775,-0.342891196486086,-0.150947420526788,-0.393600297313956,-1.03263091835811,0.142799830847351,0.0387644158922516,-1.0467452885944,0.614654697261177,-0.121205571595104
97.605,-0.52717742135897,0.117965171503139,0.837283487592237,-0.263339416648324,0.208916075301302,0.0109356240274515,-1.03386016917813,-0.0140223862246527,-0.224899422796328,-0.190957077698221,0.587026302077996,-0.147676129929558,-0.983674049132525,-0.248877384985673,0.171679608780152,-0.330295432427217,-0.1642678852683,-0.408777719557122,-1.03428512069925,0.123017431388154,0.0342222593487974,-1.05548560270749,0.556088784840439,-0.131114638949597
97.61,-0.527666213776802,0.11881848353978,0.837857187850696,-0.261945770601368,0.224461866403012,0.0237837516352022,-1.03469295163031,-0.0123354460975868,-0.226950057912619,-0.17921151209678,0.575393879657944,-0.160822412579027,-0.984470608106441,-0.25676077626225,0.173837227876901,-0.318933975874189,-0.177565659613236,-0.424414740147188,-1.0622647960165,0.132647348371318,0.0378813362325111,-1.04829305157562,0.515098401339614,-0.143688976143853
97.615,-0.528736502756571,0.120110763363447,0.838676881497035,-0.26141459885205,0.240089181363681,0.0359728658845536,-1.03549904402831,-0.00949390954759598,-0.228206132271505,-0.168998938525797,0.563136069873884,-0.173714829139816,-0.9854500376288,-0.26337180525516,0.176304443893957,-0.30902692910212,-0.190672026018132,-0.440226718782716,-1.08938295454984,0.111194489218614,0.0552382164275546,-1.01802901380114,0.422082144679285,-0.206330031428666
97.62,-0.53031273378465,0.121755790480397,0.839583197412338,-0.261729402362934,0.255679598134998,0.0470191564632698,-1.03612703765345,-0.00571175139007578,-0.228907193917787,-0.160291235438504,0.550473389787343,-0.186195221052906,-0.986447582356303,-0.268505572483326,0.178899756239593,-0.300536083394405,-0.20341658301328,-0.455933681880557,-1.10361358666014,0.111324456900275,0.076654771501043,-0.973762678417788,0.265940670952408,-0.294793730491213
97.625,-0.532332821474072,0.12368195911276,0.840464216309324,-0.262738066474606,0.271086183478349,0.0564968353708401,-1.03640873990823,-0.00111918904965381,-0.229205545671522,-0.152845831129643,0.537638982312093,-0.198111405596547,-0.98729574745843,-0.271980993128979,0.181405407948384,-0.293210500462673,-0.215632566479847,-0.471249384778301,-1.10728503454515,0.106842004018823,0.0950470824807846,-0.940801668601367,0.0447992336718512,-0.381348205264111
97.63,-0.534747662799027,0.125826716896933,0.841253920679568,-0.264235470105689,0.286117835833259,0.0640033682692024,-1.03619584183374,0.00420898508025726,-0.229181920753636,-0.146311968061129,0.524877448263745,-0.209325828077373,-0.987857496177244,-0.273643683472228,0.18359348731884,-0.286694291104885,-0.227167079974994,-0.485892288777441,-1.12177356197345,0.133151487760204,0.112306034714823,-0.918278117358327,-0.188669572575199,-0.423350776026417
97.635,-0.537479658150653,0.128164807281285,0.841882294127528,-0.265983917147132,0.300551656919995,0.0691703994874126,-1.03537502391939,0.0101756081384857,-0.228895107442676,-0.140262411216165,0.512445310283798,-0.219720545493713,-0.988025536009842,-0.273322482594199,0.185257175377504,-0.280559240024227,-0.237886300423171,-0.499589333773337,-1.10263637282911,0.107102603671373,0.120231333713773,-0.935804576041525,-0.468899511499497,-0.432862790647797
97.64,-0.540446632205509,0.130702473751377,0.842317892838468,-0.267694823850188,0.31415678917091,0.0717076358065244,-1.03386573966956,0.0166759001330913,-0.228361914927482,-0.134181708095522,0.500612618804784,-0.229198419413582,-0.98771978208992,-0.270859882399498,0.186237222673996,-0.274293080238803,-0.247675984290017,-0.512071911906626,-1.09571824238425,0.118503208466807,0.146491330557983,-0.835219923219301,-0.911857506175932,-0.460569179224157
97.645,-0.543628163696802,0.133433049130966,0.842648190793497,-0.26909136138331,0.32667814371967,0.0713993161297477,-1.03161361192179,0.0236593862619143,-0.227509069733842,-0.127559692203216,0.489662723976105,-0.237687938544399,-0.986889163775346,-0.266182606282306,0.186437495891297,-0.267393861580785,-0.256447101598108,-0.523082532912754,-1.08089539858004,0.112617246793603,0.102847201677105,-0.809148289577885,-1.12055202710381,-0.389612471497327
97.65,-0.547029690008842,0.136325891117082,0.842990439997061,-0.270007933861688,0.337806012949652,0.0680690867018156,-1.02859700741495,0.0310812161719882,-0.226229672266866,-0.120029936952413,0.479891177254975,-0.245149580546359,-0.985509918571763,-0.259292346942306,0.185822574748811,-0.25950947716682,-0.264143975988913,-0.532385371442358,-1.05856209810178,0.125737974627004,0.0706786025915443,-0.812296222229686,-1.07403148782435,-0.275317239073326
97.655,-0.550568710505152,0.139353659920129,0.843304691556929,-0.270370599445872,0.347222662084621,0.0615987301667819,-1.02484965721448,0.0387911628224904,-0.224497542584644,-0.111353506521865,0.47159804356699,-0.251574925371564,-0.983592506235104,-0.250218059749839,0.184403218073275,-0.250420781578662,-0.270743488369226,-0.539770070770339,-1.01321752065254,0.119773177523294,0.066781009400513,-0.768592895881626,-0.871443626813852,-0.144693408532723
97.66,-0.554068880184229,0.142493877158425,0.843401596029971,-0.270092632458479,0.354709368073708,0.0519871901808096,-1.02047198255384,0.0465407315482593,-0.222371116985131,-0.101293308225624,0.465068190853579,-0.256981377981637,-0.981195006337089,-0.239045914375645,0.182229853622253,-0.239914534447998,-0.276248717419623,-0.545062396089968,-0.988210945729298,0.104901258366539,0.0821593852526511,-0.680690734730062,-0.670121625788173,-0.07095926895033
97.665,-0.557371266893745,0.145699123140883,0.843126227454964,-0.269058624028407,0.360194779985104,0.0393639394368248,-1.01561642265672,0.0540870376650208,-0.219903369916261,-0.0896016610891034,0.460550402481174,-0.261412754811696,-0.978420857931285,-0.225984973303697,0.179396449613124,-0.227770694275703,-0.280690202124156,-0.548147155466725,-0.985780701156707,0.0898762645230951,0.097820227808949,-0.621015468482128,-0.530719773728948,-0.0512879651840838
97.67,-0.56040004266768,0.148885591859776,0.842448738510499,-0.267200089545489,0.363726266428008,0.0239536186412332,-1.01046761072047,0.061235281264049,-0.217106736891225,-0.0761229634526422,0.458247496440277,-0.264944516865168,-0.975400673130626,-0.211359370620991,0.176039097232171,-0.213865167123318,-0.284133537077981,-0.548984178752529,-0.971699893703553,0.0934285197433249,0.101268432138537,-0.600457501255345,-0.433753845592843,-0.0571899238559607
97.675,-0.56314630935775,0.151953844684267,0.841431631582661,-0.264544029653794,0.365437111614636,0.0060493045155447,-1.0052302901658,0.067812946035592,-0.21398237155283,-0.060858110347368,0.458316160767208,-0.267685461123023,-0.972274658182028,-0.195554159227301,0.172327267959924,-0.198233215537887,-0.286682801474418,-0.547605598719894,-0.962086952731364,0.0972845569631028,0.108627240759997,-0.610283021497108,-0.407082560733681,-0.0723598509085573
97.68,-0.565631590465274,0.154816674608449,0.840181145430796,-0.261221230753671,0.365524467868876,-0.0139925009058644,-1.000125634462,0.0736498999930844,-0.210549275997776,-0.0439770286830375,0.460869228605362,-0.269775463264068,-0.969187738070085,-0.178995154376945,0.168452049875932,-0.181080300964355,-0.288479193018991,-0.544104711848412,-0.951192308249255,0.105682692797853,0.123111051030986,-0.639880094233316,-0.476529739037706,-0.0525293123785635
97.685,-0.567860688423983,0.157411700291814,0.838776249403007,-0.257452783197904,0.364243440405078,-0.0357457398811599,-0.995400764870443,0.0785577208620293,-0.206878775802795,-0.0258042969445423,0.465971510629092,-0.271381673332756,-0.966300342807219,-0.162138838378486,0.164606968558726,-0.162765993947385,-0.289697671002386,-0.538630729594119,-0.927239854929526,0.101278387749227,0.103507615884467,-0.681355426998252,-0.526910928587386,-0.0370211780690309
97.69,-0.569802092989627,0.159694363517309,0.83723734078656,-0.253492703560704,0.361939136710415,-0.0587003347041417,-0.991330352833405,0.0823183932833817,-0.203108115003253,-0.00674366786597948,0.473629503028835,-0.272692481537857,-0.963792930622737,-0.14543048289657,0.160969462930674,-0.143726816438623,-0.2905400406255,-0.531388391510139,-0.901265572416702,0.105886608030399,0.0789171192413842,-0.733735446751042,-0.457370740909712,-0.0253561922070068
97.695,-0.571431541784185,0.161622454401778,0.835608997604068,-0.249574719459632,0.359062012030308,-0.0822591535057759,-0.988188475852471,0.084722699214672,-0.199388859676059,0.0127982755755104,0.483789551581175,-0.273911446863212,-0.961844694788817,-0.129279637975828,0.157699903411958,-0.124398615218746,-0.29122724057063,-0.522630228521902,-0.87496203088552,0.118464320680299,0.0555981473821447,-0.763121680898026,-0.246115939639597,-0.0186831488374812
97.7,-0.572770460634156,0.163138841086306,0.834032126708794,-0.245923821662025,0.356124568359945,-0.10576179320381,-0.986215376079571,0.0856175113425555,-0.195827482942714,0.0324043154846867,0.496345957395912,-0.275254302832472,-0.960606417748059,-0.114083787343854,0.154949681809775,-0.105223581876024,-0.291995628875044,-0.512642028130157,-0.885930139314435,0.135742718791121,0.0526582827799304,-0.745629583259416,0.0141463705126494,-0.00664480698624994
97.705,-0.573876325358339,0.164146127455822,0.832712054189464,-0.24279698920018,0.353650037774171,-0.128523895639741,-0.985604266892311,0.0849108508071885,-0.192482198908575,0.0515992247748633,0.511146777357118,-0.276947479690826,-0.960191494252825,-0.100232893594101,0.152851036235215,-0.0866968998361151,-0.293095367359779,-0.501730801647811,-0.909338481582685,0.148012178433819,0.0655660678084593,-0.732732282388916,0.239787477703891,0.0156656370446197
97.71,-0.574818949770413,0.164481295347847,0.83185341450168,-0.24050064647383,0.352146720131711,-0.149885176637895,-0.986502142936935,0.0825486741376986,-0.189388498659467,0.069840204456451,0.527998357225028,-0.279225744462038,-0.960679761182824,-0.0880581228862586,0.151496899464013,-0.0693758673263447,-0.294787086539839,-0.490214737055919,-0.926701533393994,0.15261315806267,0.0758397163203976,-0.71230401650993,0.395039655461876,0.0144723112879711
97.715,-0.575660774253049,0.163925131938653,0.831625501940114,-0.239377574514113,0.352102388127191,-0.169258375702899,-0.989008627232693,0.078494982540233,-0.186560520942416,0.0865538794964762,0.546675001281124,-0.282327703402849,-0.962112521455949,-0.0777894831097471,0.150951359985847,-0.0538425022099033,-0.297335136651629,-0.478406258406138,-0.930398945070323,0.151581726901291,0.0842009799752701,-0.680746146832077,0.502766751405155,-0.00237866943322006
97.72,-0.576442945269751,0.162258665806297,0.832158011667323,-0.239790835682664,0.35398412455637,-0.186157620576407,-0.993162900894181,0.072728944129061,-0.183979042740729,0.101166707937998,0.566933319370486,-0.286489203453499,-0.964474548920251,-0.0695638807009399,0.151269816626201,-0.040671741892271,-0.300998360567939,-0.466581924229802,-0.921421143769037,0.150973882639377,0.0837650058476457,-0.624657419133923,0.580617675706863,-0.0304230287937935
97.725,-0.577165481754457,0.159324645582683,0.833523210142372,-0.242111741599598,0.358227683893612,-0.20019184631814,-0.998934124498458,0.0652357336997866,-0.181620517579268,0.113117066446731,0.588525941072312,-0.29193781796835,-0.967688638954907,-0.0634295886720712,0.152472960875108,-0.0304179215407193,-0.306022315578333,-0.454952703021788,-0.923014742261004,0.152851251589777,0.0863861067336966,-0.587418233409696,0.641267351414922,-0.0469234998319941
97.73,-0.5777683914261,0.155046324408211,0.835703197542439,-0.246670942300325,0.365233748877705,-0.211026985949573,-1.00622916294493,0.0559962470301142,-0.17949278882607,0.121917844752078,0.611210094384599,-0.298889181685775,-0.971630612575056,-0.0593147359547607,0.15451185875488,-0.0235520832754055,-0.312633071070619,-0.443649151948323,-0.927865343102745,0.175607487048503,0.0773392900784539,-0.555151075461906,0.677006635816683,-0.0577964181276155
97.735,-0.578158135645341,0.149406049191484,0.838606771825949,-0.25369399736486,0.375377044857069,-0.218359768318509,-1.01490106086236,0.0450306696477871,-0.177601864814321,0.127245532998458,0.634757289478677,-0.307540822518327,-0.976143519438398,-0.0570141151016061,0.157284139274952,-0.0203731792358536,-0.321028628427904,-0.43270784392254,-0.932567618414285,0.203007471857946,0.0666957261150417,-0.537048157453326,0.711678012000928,-0.0620660982495561
97.74,-0.578260305686819,0.142431564447606,0.842117585849225,-0.263288721959375,0.389001721181689,-0.221944189858325,-1.02475097048746,0.032471628779843,-0.175896978391959,0.128960857208385,0.658969040480028,-0.318061704175384,-0.981046435124056,-0.0562198619378625,0.160666315612449,-0.0209873771540987,-0.33136771994423,-0.422049596419099,-0.934570015865946,0.237110772020742,0.0504857315107975,-0.527810806283139,0.725908532540526,-0.0647637397087762
97.745,-0.578039062565592,0.134217530623304,0.846104890074596,-0.275468862148727,0.40640528632493,-0.221641469052832,-1.03553381083591,0.0185951336751492,-0.174265522714171,0.127077612970488,0.683692311527134,-0.330580462992095,-0.986145588326029,-0.0565536265601047,0.164516476889803,-0.0253395735934967,-0.34375877494625,-0.411462132187374,-0.896224242467885,0.276048718985688,0.0175509687455217,-0.533672259949348,0.676055062597499,-0.0398943282999062
97.75,-0.577493041140404,0.124955942760705,0.850412991105258,-0.29017133804831,0.427829197537658,-0.217451583959915,-1.0469697663405,0.00381890495499601,-0.17255167291861,0.121735443933386,0.708830773457014,-0.345175098986418,-0.991248860108783,-0.057582382954459,0.168663837392467,-0.0332418303797228,-0.358250806352268,-0.400594496050606,-0.800607446547795,0.301968367610073,-0.0267030960288609,-0.567888665671403,0.716785397430702,-0.0233990313441096
97.755,-0.576660006016382,0.114947066855318,0.85486578393808,-0.307271897741603,0.453454521775885,-0.209531888369965,-1.05876327970476,-0.0112994255246632,-0.170565941663681,0.113171351736176,0.734352884363412,-0.361864451869447,-0.99618669186422,-0.0588356194382474,0.172914262007099,-0.0444040652215261,-0.374826420778003,-0.388963109655154,-0.949274966893271,0.256986554150728,0.0378386191522715,-0.453077406976475,0.828646200198442,-0.0173365602260418
97.76,-0.575622214285678,0.10459421812999,0.859275517230261,-0.32660714147298,0.48340179323266,-0.198215449010805,-1.07062545209467,-0.0260792162024906,-0.168099168872751,0.101679811315008,0.760296339696519,-0.380600279868026,-1.00083136943986,-0.0598301589347187,0.177073381633435,-0.0584770757756822,-0.393395669099198,-0.375969559544049,-0.926569019550757,0.248337853721188,0.0354962134315573,-0.52035804216943,0.743020807285179,0.00240254581963539
97.765,-0.574499347532543,0.0943928077967821,0.863445382765614,-0.347991386577148,0.517736253931144,-0.184019131660069,-1.08228815615052,-0.0397608533025064,-0.164949028309675,0.0875764619396178,0.786767684898491,-0.401259876820058,-1.00510104007142,-0.0600960498581483,0.180969831546277,-0.0750923220150903,-0.413790184510537,-0.360926832125372,-0.997835584335826,0.269989191330066,0.0248460317191771,-0.568216339850117,0.682082682184191,0.0122413518072757
97.77,-0.573444907011871,0.0849086974461595,0.867181634566188,-0.371221890218196,0.556474867223118,-0.167631142328887,-1.09351791281173,-0.0515493070767577,-0.160937705814257,0.0711753934450211,0.813937290684576,-0.42364100376698,-1.00896297721641,-0.0591995033255135,0.184467075837062,-0.0938879564489628,-0.435759139851949,-0.343090326837241,-1.01514906752216,0.242979936010585,0.0297804614464098,-0.731746607466537,0.542514758659334,-0.00688157742762727
97.775,-0.572663773543844,0.0767335592112323,0.870329663263384,-0.396092448897312,0.599593774637278,-0.149892922536882,-1.10414000707115,-0.0606357769390739,-0.155904841335504,0.0527569630920125,0.842032509783624,-0.447462047135391,-1.01245069174053,-0.0567673674013987,0.187464673457728,-0.114544446010708,-0.458970078445584,-0.321693273715899,-1.01001821521073,0.224385489657688,0.0372421677376256,-0.726445628462636,0.332790967443898,-0.107832113998237
97.78,-0.572425163636248,0.070425133518201,0.872803457216792,-0.422436849717205,0.647032570966454,-0.131793088958657,-1.1140551532022,-0.0662296649277008,-0.14970442061716,0.0325017801069091,0.871331110895325,-0.472370270398806,-1.01567044567671,-0.0525129184831154,0.189896683410963,-0.136854266193469,-0.483017257122649,-0.295985614734654,-1.00761921259225,0.202762894802541,0.0708443255559325,-0.74237078943597,-0.00914167939562169,-0.275889214320133
97.785,-0.573035729130041,0.0664570505632221,0.874561858484612,-0.45017557019616,0.698699116897175,-0.114458930229725,-1.12323147570618,-0.0676325374945358,-0.142239153436167,0.010426822303867,0.902152451667953,-0.497956064390666,-1.01877507616954,-0.0462477397883604,0.191734741919377,-0.160788716689409,-0.507434673861168,-0.265271449193611,-1.0221077565947,0.189380218490098,0.104711640692196,-0.681415178579919,-0.366090527882822,-0.419420160494251
97.79,-0.57479196409826,0.0651871562660854,0.875556227834153,-0.479322855801811,0.754486605681918,-0.0991244000199099,-1.13168212914287,-0.064322206824146,-0.133507212834331,-0.0136210193954429,0.934844057157124,-0.52376750091549,-1.02192185195342,-0.0378711950978875,0.192990115231473,-0.186505551627383,-0.531708003436814,-0.228939892239856,-1.05845242243,0.174838192284395,0.131012790539058,-0.757239498827039,-0.665344967099185,-0.502323174110413
97.795,-0.577956274224001,0.0668388477883525,0.87572018353048,-0.509960019478264,0.814298566154553,-0.0870781882196217,-1.1394456925554,-0.0559984554558716,-0.123614704202953,-0.0399213957189999,0.969767276123183,-0.549324650425887,-1.02523887821807,-0.0273536620836452,0.193700423930875,-0.214304803929297,-0.55528559937214,-0.186485594315174,-1.07891259620734,0.143275864462356,0.146842980680938,-0.74889752803235,-0.896400646131873,-0.582745087030764
97.8,-0.582759538990249,0.0714933375293221,0.875010033657774,-0.542213855542952,0.878060426141571,-0.0796046554366005,-1.14657370243058,-0.0425886249167396,-0.112756498024612,-0.0688372424038858,1.00728662040382,-0.574138486791742,-1.02880558936124,-0.0147339776378406,0.193903007377891,-0.244583618739318,-0.57759377602467,-0.137518064492427,-1.09183717552382,0.084158248555773,0.151734326721676,-0.666717997454198,-1.01097222007244,-0.67099793583292
97.805,-0.589393783500658,0.079091045527224,0.873428070315134,-0.576253007265468,0.945709947649404,-0.0779231203468379,-1.15312756027027,-0.0242476287557102,-0.101201850047265,-0.100789503356586,1.04776048904491,-0.597735074895933,-1.03264556170825,-0.000126096151928789,0.19362077814971,-0.277808214745291,-0.598057068195741,-0.0817646501584368,-1.08756851398218,0.0617548090625026,0.155399570630016,-0.658427951071138,-0.941709865328067,-0.694237562250864
97.81,-0.59798413760964,0.0894367243192377,0.870999442303335,-0.612276457307683,1.01719314854217,-0.0831246391232224,-1.15918782518916,-0.00136053535138874,-0.0892913991691831,-0.136219896056685,1.09152780386632,-0.619678654017123,-1.03673413154166,0.0162682677036732,0.192870396985659,-0.314472848639954,-0.616117552344916,-0.0190708120159565,-1.08670180886799,0.0230922378369429,0.145795435163478,-0.676359926597662,-0.686406297275849,-0.703807639003557
97.815,-0.608569489964113,0.102204627454584,0.867767312423888,-0.650491756138115,1.09248224756947,-0.0961132727155614,-1.16486722252353,0.0254765466444978,-0.0774226714389589,-0.175542163901652,1.13888674678418,-0.639591052420451,-1.04101869109541,0.0341196182912805,0.191670475455146,-0.35504635717736,-0.631251349293415,0.0505975793507396,-1.10584989896189,-0.00960089016526312,0.13831647333681,-0.686288501931019,-0.307888176107215,-0.67671712758888
97.82,-0.621101725616257,0.116948281594391,0.863836376450424,-0.691111767106849,1.17158963070391,-0.117560562402181,-1.17031667863012,0.0554806173231841,-0.0660301453819066,-0.219119176527843,1.19006248790345,-0.657171474866111,-1.04543713546734,0.0529389715517235,0.190043941832798,-0.399944507247645,-0.642986300510001,0.127141215882096,-1.08322395499174,-0.0208885242361016,0.0936544345871184,-0.637008561330517,0.0555239561565909,-0.609642612619153
97.825,-0.63545515620088,0.13311750830047,0.859410352012802,-0.734353712592887,1.25455994613209,-0.147861842466535,-1.17572451441064,0.0876882172797537,-0.0555780060783804,-0.267242101715064,1.24517226214908,-0.672214748477347,-1.04992557957629,0.0721256289363236,0.188025213895413,-0.449504390432969,-0.650919307217173,0.210314364908335,-1.19575581098815,-0.0617071138041688,0.143053646656668,-0.526773605012197,0.518040605773427,-0.631689210954661
97.83,-0.651441272249351,0.150078958507965,0.854794811656367,-0.780414863204944,1.34145077003827,-0.187094516964446,-1.1813116903609,0.120977648292428,-0.0465483220060125,-0.320076427892972,1.30420351059016,-0.684622294957824,-1.05442556723698,0.0910468582481004,0.185668279664699,-0.503925512381531,-0.654729000236707,0.299731045263876,-1.2554092287262,-0.0733220334001125,0.152271812749937,-0.447921938262213,0.734100883685679,-0.568523349777948
97.835,-0.668815008387771,0.167147209661999,0.850389127119758,-0.829446121469606,1.43231296477242,-0.234992729530254,-1.18731937278108,0.154122896104398,-0.0394096225763235,-0.377608868014593,1.36700132279538,-0.694406814766609,-1.05889490049476,0.109061170055714,0.183056425243711,-0.563212650360805,-0.654185322206332,0.394880079298681,-1.36857686094699,-0.0854148467349654,0.138521444528248,-0.413052719522722,0.845012678123788,-0.525138078316925
97.84,-0.687277466612043,0.183621691398848,0.846684267996341,-0.881542946671765,1.52716600180237,-0.290933184601075,-1.19398165128491,0.185851821138921,-0.0345833325004303,-0.439630344277897,1.43325487667062,-0.701693131777509,-1.06330929194859,0.125514045453289,0.180313890564672,-0.627156502822294,-0.649157814567708,0.495133488041947,-1.46088816894906,-0.0711011678145394,0.117626836512613,-0.318151711114628,0.781697920430211,-0.507593351136287
97.845,-0.706476963452673,0.198813148501907,0.844235776588692,-0.936748380649837,1.62595706572481,-0.353929639919162,-1.20148489899071,0.214888583679852,-0.0324304487945318,-0.505746605087395,1.50248763260448,-0.706715149291054,-1.06764979315582,0.139759376829379,0.177610502874709,-0.695344057082218,-0.639622005813127,0.599751645829335,-1.53443631115973,-0.0534531578161278,0.0726412420876651,-0.272758757943351,0.559305374833721,-0.475873457080046
97.85,-0.725996165953956,0.212068941814014,0.843593996267476,-0.995045126322207,1.72851803177875,-0.422636766071061,-1.20991834608816,0.240001363975317,-0.033242134255539,-0.575384050480241,1.57405404194999,-0.709806542931786,-1.07188102023142,0.15118779622747,0.175161531892739,-0.767166162780318,-0.625662766804181,0.707888587810609,-1.60002069237514,-0.0207283071829252,0.0166548116889393,-0.23110192280431,0.188363843424679,-0.520190624292587
97.855,-0.745347833853372,0.222793839694115,0.845237898096375,-1.05634231803269,1.83453043845201,-0.495372521863699,-1.2192227803159,0.260079997080806,-0.03720707727284,-0.647802903507179,1.64714226065679,-0.71138336094338,-1.07592574460066,0.159253919792464,0.173212838878269,-0.84183342400874,-0.607471748191089,0.818601798926866,-1.55260541096001,-0.0102335620037817,-0.0758776464334305,-0.213777840631317,-0.306392754862988,-0.679805810566622
97.86,-0.763980447357076,0.230465337890532,0.849519661084461,-1.12047685501341,1.94348798023704,-0.570177404966802,-1.22916166298874,0.274196926789294,-0.0443947959079209,-0.722136460849667,1.72078999734641,-0.711922402060326,-1.07964783171488,0.163542150095705,0.171999211890011,-0.918418838265786,-0.585339919714996,0.930875315658191,-1.58449473011196,0.0586752307285599,-0.115220183654172,-0.134411048139054,-0.684560377383746,-0.68605929098178
97.865,-0.781267745042227,0.234687651629796,0.856603117821817,-1.18718544608175,2.05467090105557,-0.644886570413614,-1.23932598540826,0.28163746965168,-0.0547710367926698,-0.797392808230526,1.79391575000267,-0.711935067176003,-1.08285529109475,0.163831290614591,0.171709719305361,-0.995863874835905,-0.559649524600387,1.04365580691398,-1.59146327733192,0.0761278032733637,-0.231643225854699,-0.0839263581551163,-1.25020123204919,-0.549068401483712
97.87,-0.796400307024721,0.235305590933564,0.866584544581929,-1.25604455441373,2.16714202890284,-0.717188772728467,-1.24923377618147,0.281981102985643,-0.0680216459518255,-0.872430196790994,1.86535446300032,-0.711934634618869,-1.08532463311573,0.160060326594626,0.172492084354628,-1.07295861998864,-0.530864101089463,1.15588862294575,-1.50079758603683,0.0724530032829738,-0.323208363543854,-0.207940044441619,-1.41304241792075,-0.481958679662306
97.875,-0.807963091390278,0.232592645827703,0.880139062794689,-1.32646346933734,2.27973424221364,-0.784703050942766,-1.25872609474885,0.275246889989664,-0.082837245840153,-0.946019582396365,1.93388872505418,-0.712405586087699,-1.08683429938818,0.152244655878979,0.174471132256037,-1.14840909982405,-0.499511557518772,1.26654124939708,-1.39017209100921,0.0550863215821477,-0.3770524188109,-0.261788737383355,-1.37981790924791,-0.436113325452902
97.88,-0.814507067348671,0.227056046065146,0.898155346633247,-1.3977415488874,2.39100842379707,-0.845100287418159,-1.26773719240908,0.261847077507424,-0.0975537457913464,-1.01698092990361,1.99828039608493,-0.713781141672604,-1.08718173525815,0.1404720264802,0.177740514685444,-1.22097815409759,-0.466160061521491,1.37461827429053,-1.27798236954991,0.0499693428407293,-0.398224477127683,-0.307831567461534,-1.23817313753301,-0.42417378711728
97.885,-0.815655521352117,0.21902213207157,0.920474432056866,-1.46909939046561,2.49921448306935,-0.896230282228402,-1.27552384069064,0.242382589209711,-0.111724683773353,-1.08426044238551,2.05730705819737,-0.716423747426383,-1.08617518742861,0.124968993413857,0.182327284844162,-1.28956546303755,-0.431394353025353,1.47918355096578,-1.21760019061894,0.0316116937923121,-0.39227174530054,-0.276854341361417,-1.05013915043805,-0.382012187495322
97.89,-0.811462885813581,0.208830788405945,0.946408594040745,-1.53963727889388,2.60229865323249,-0.93620540289113,-1.28104885935139,0.217626962424563,-0.125397361612519,-1.14690140433688,2.10979873366292,-0.720603212550869,-1.08362862823774,0.106133774018765,0.18816735398875,-1.35317816326291,-0.395799314683533,1.57939407415732,-1.16759304563407,0.00349137520654454,-0.366557073000559,-0.234638826303817,-0.942950599205896,-0.361281230705063
97.895,-0.801740477595331,0.197083523479796,0.975617778939211,-1.60828676865085,2.69793458390889,-0.9634607230792,-1.28356622574023,0.188588650388744,-0.138135982469511,-1.20400140364235,2.15467250412584,-0.726476176550417,-1.07938335834668,0.0844966084335708,0.195113590035261,-1.41088577799395,-0.359946371355555,1.67453334213982,-1.11133359843132,-0.0223602803686796,-0.325230010924269,-0.174836208795384,-0.901036840495065,-0.352762942427129
97.9,-0.786385554561719,0.184511553695304,1.00793772369788,-1.67382217684399,2.78353899455774,-0.976826634683532,-1.2825188818473,0.156467767672458,-0.149364808587296,-1.25473175321588,2.19096412721567,-0.734075156814185,-1.07334146308166,0.0606564097411336,0.202961053812272,-1.46183665180866,-0.324376798235515,1.76403260709363,-1.0493737219022,-0.0362348746951152,-0.279842027383028,-0.116016822638595,-0.863188651528667,-0.341404457481091
97.905,-0.765506577015664,0.171865530352821,1.04318637059402,-1.73489837480594,2.85630434991037,-0.975597124726975,-1.27749062548244,0.122536682280904,-0.158613007695286,-1.29836882466019,2.21785045050997,-0.743306758690365,-1.06548301953277,0.0352514075885023,0.211472652583869,-1.50528567033171,-0.289587070562812,1.84747809096106,-0.995148848453868,-0.0502779442936742,-0.230980881331054,-0.0424420727300884,-0.777691628004579,-0.312376891153991
97.91,-0.739369564218472,0.15990343349469,1.08101317117381,-1.79004227719265,2.9132999529036,-0.959554724831181,-1.26822955114435,0.088008855184779,-0.165620104020274,-1.33424989969688,2.23465893145438,-0.753949342906767,-1.05586135088689,0.00896393487009769,0.220405576662691,-1.54054627202205,-0.256027683410187,1.92460458650751,-0.945380807069865,-0.0777378323948893,-0.185906119037581,0.0705462974805624,-0.649137484584778,-0.283135501907735
97.915,-0.708406464216607,0.149428595702522,1.12081926326055,-1.83758353410569,2.95163608124291,-0.928938789501276,-1.25464712551159,0.0540279614910673,-0.170379450142424,-1.36164970281917,2.24086806701513,-0.76564126901784,-1.04461926099797,-0.0175365215691507,0.229557831967466,-1.56686350752051,-0.224117342492471,1.99527438546211,-0.882040495118957,-0.091114570101537,-0.139654429617072,0.196295574607692,-0.475271949101362,-0.258214485807981
97.92,-0.673311126235075,0.141247948780094,1.16190163215102,-1.87565322750146,2.96862517450782,-0.884415158142823,-1.23682562890395,0.0217818182276608,-0.173036789853967,-1.37974476809339,2.23610061223428,-0.777868734026378,-1.03205810914381,-0.0437654366892821,0.238835617473968,-1.58337236046476,-0.194243428300687,2.05944342034787,-0.832477397588425,-0.0885667957750125,-0.0979996239555803,0.300381077593683,-0.315568009780235,-0.22447186887107
97.925,-0.635091598168568,0.13598566275572,1.2036880003174,-1.9023849196704,2.96187196224739,-0.827115847279591,-1.21505128399749,-0.00749846422350582,-0.173778577093584,-1.38780188033895,2.22010646681518,-0.789982243304817,-1.01867513320047,-0.0695228970591861,0.248276153249883,-1.58927607769182,-0.166725519974693,2.11712121820393,-0.772721917003357,-0.107320632731876,-0.0802896162624584,0.388212327482257,-0.182426415647992,-0.195490753545163
97.93,-0.594880403899838,0.133934629593026,1.24569283880683,-1.91617180528266,2.92931777492015,-0.758689155666886,-1.18972460123901,-0.032741645570171,-0.172816717935909,-1.38538327635326,2.19273931793811,-0.80124091278817,-1.00509032832074,-0.0947771141386336,0.257995722015462,-1.58404360169449,-0.141780776064488,2.16833014529534,-0.723043297206015,-0.109196975634989,-0.082536935861804,0.444692561288639,-0.132166318123937,-0.179106725402628
97.935,-0.553660657271897,0.135107750927748,1.28728053518426,-1.91577464423196,2.86931398774461,-0.681265106199368,-1.1612127215504,-0.0531884404893958,-0.17039400357028,-1.37235171758456,2.1539353101757,-0.810848152842564,-0.991947207795121,-0.119521846712363,0.268145459793234,-1.56741241899523,-0.119526526234336,2.21306774055505,-0.684312890533156,-0.110396320147057,-0.093659444530965,0.481968925337521,-0.106156073457172,-0.1501518478587
97.94,-0.512220648316441,0.139374675331018,1.32762308110786,-1.90033663438017,2.78073346988486,-0.597350773047011,-1.12988757993255,-0.0683669672677531,-0.166784517954379,-1.348792345092,2.10369187435608,-0.817970389724415,-0.979870939703343,-0.143761912521848,0.278912488375457,-1.53930815413081,-0.0999946693027512,2.2512799390261,-0.653941887641453,-0.108630961095453,-0.106044235806418,0.521411072585256,-0.110327267239885,-0.149015616924604
97.945,-0.471188053762791,0.146513813147513,1.36578472800964,-1.86941320937091,2.66307425674106,-0.50970635625917,-1.09617366346719,-0.0780356874661879,-0.162254566070526,-1.31498634595679,2.0420462359859,-0.821758230507188,-0.969444371129529,-0.167528887806762,0.290496319509229,-1.4998145666642,-0.0831365107105225,2.28285079016669,-0.62913883270742,-0.102305183360106,-0.123690951069586,0.585132189752777,-0.121003312555174,-0.141328513897002
97.95,-0.431017762636855,0.156189836090068,1.40078632937647,-1.82301353750073,2.51651410499095,-0.4212231586823,-1.06049942450986,-0.0821623262003269,-0.157003682154297,-1.27141835631972,1.96906190318236,-0.821378993142362,-0.961173785538925,-0.190857364193773,0.303052178235037,-1.44918111608366,-0.0688267044562437,2.30760484109794,-0.612419861006003,-0.103726415979944,-0.126748662337073,0.632320093391396,-0.0929654659346523,-0.130118052466919
97.955,-0.39201722247347,0.167920662952747,1.43166692372196,-1.76162641210446,2.34191232673611,-0.334818160587346,-1.02328266864122,-0.0809071009617486,-0.151150228867042,-1.21878423676678,1.88482472418739,-0.816054352395675,-0.955469576273451,-0.213758785675022,0.316674781986385,-1.38783597335922,-0.0568695425250587,2.32531641288163,-0.608300871389595,-0.113352244645086,-0.11594075018321,0.67620968938412,-0.0788116867822025,-0.146098400035407
97.96,-0.354385629983342,0.181062411073661,1.45753272762339,-1.68621517456474,2.14078247181133,-0.253361839969217,-0.98494589278457,-0.0746056600610792,-0.144736807160102,-1.15798636042832,1.7894430745627,-0.805090898754186,-0.952638528617807,-0.23620834251607,0.331418127936601,-1.31638745568307,-0.0470020504703996,2.33572516145562,-0.605252488402752,-0.118730968280601,-0.104530515067096,0.727144375066019,-0.0813594483181534,-0.189739648378919
97.965,-0.318247201783451,0.19482913239201,1.47756837256619,-1.59818182950125,1.91524522607489,-0.179623851839301,-0.945900583053496,-0.0637679042032608,-0.137761645748016,-1.09011929817923,1.68305231462672,-0.787905071243538,-0.952856747949778,-0.258129801122859,0.347276286429746,-1.23561669277996,-0.0388956799614485,2.33856037224744,-0.629963142246459,-0.122748482795255,-0.0876234280431583,0.77282173799556,-0.0861712968613263,-0.214366822950667
97.97,-0.283755448261448,0.208282681955506,1.49085600928757,-1.49930392574184,1.66795507476175,-0.116188774039944,-0.906379486789593,-0.0491125789667171,-0.130381764925262,-1.01645207403689,1.56582865694101,-0.764055162868115,-0.956126055105968,-0.279380021203956,0.364129534684188,-1.14647350202486,-0.032166199900772,2.33357486900146,-0.660599601503721,-0.129352006425616,-0.0832683359563489,0.800134107574578,-0.0996994956263432,-0.214215133447182
97.975,-0.250972073934522,0.220488505096873,1.49665336111499,-1.39163797111802,1.40200325724942,-0.0653388800504236,-0.86662488632901,-0.0315321315614286,-0.122702099354546,-0.9383949894916,1.43801127839165,-0.73327725052861,-0.962248910209488,-0.299749250808311,0.38172543595359,-1.0500648061258,-0.0263951724972989,2.32058446455472,-0.697600072816424,-0.13900808207741,-0.0809408140923038,0.816996123432099,-0.106599412345729,-0.209854830285919
97.98,-0.219655481205421,0.230777181765584,1.49499107596845,-1.27738885586239,1.12081822577965,-0.0289435184608083,-0.827351785787137,-0.011986216229591,-0.11431606835833,-0.857438669921525,1.29992502025277,-0.695509565087925,-0.970833546404895,-0.318977434978447,0.399697593013383,-0.947618182841693,-0.0211581114391344,2.29950643508106,-0.712567343299433,-0.148691258383006,-0.0883088700418107,0.830535700405815,-0.104696029252071,-0.209122270345688
97.985,-0.189565332377034,0.238668032044307,1.48626231197187,-1.15876508878152,0.828071157896892,-0.00837020061444932,-0.789450170635954,0.00853000315685647,-0.104757504067003,-0.775077156616646,1.15200146464134,-0.650901602920472,-0.981316254815783,-0.336777762934653,0.417571757348842,-0.840429215387915,-0.0160542378060147,2.27039310255737,-0.743071236632976,-0.158862729501148,-0.099253381522482,0.835449857480434,-0.0682166595926201,-0.197518349761281
97.99,-0.160749884102169,0.243753875402702,1.47070787510642,-1.03785158520715,0.527563480735395,-0.00441790738945951,-0.753562326474167,0.029009361821795,-0.093988366300468,-0.692740617558764,0.994800074408901,-0.599815190092907,-0.992997934731246,-0.352866924964003,0.434767219467222,-0.729818099894865,-0.0107331898320558,2.23345614353599,-0.77005690086204,-0.16417397791681,-0.114959015631934,0.844969158134574,-0.0299373898831222,-0.181036341158012
97.995,-0.133433911842428,0.245814739503372,1.44857195052501,-0.916510202669959,0.22310576936652,-0.0172704646736314,-0.720189615327225,0.0484954777332865,-0.082233194382745,-0.611742918873087,0.829024485958605,-0.542818005239653,-1.00509611742996,-0.36699715629225,0.45064320277653,-0.617098562108863,-0.00491631922322888,2.18907642240475,-0.810817234681436,-0.161673307521414,-0.136042653646794,0.840650344557831,0.0147813536585272,-0.177358224987984
98,-0.107907097897335,0.244909220963662,1.42019286365792,-0.796297567132524,-0.081568399428867,-0.0464570553755013,-0.689789887258395,0.0661320880177019,-0.0698439447462052,-0.53323380021358,0.655527404180187,-0.48066325820467,-1.01680736307784,-0.378979941833808,0.4645707771705,-0.503544136981243,0.00158770931651109,2.13780027266484,-0.863272858005078,-0.163781678630777,-0.160010041287179,0.833787548626788,0.0525265670927315,-0.1807985105674
98.005,-0.0844986202086956,0.241374300206656,1.38599684236039,-0.678411481047683,-0.382858326702805,-0.0908342408506919,-0.66276564973494,0.0812176400136801,-0.0572753579016482,-0.458163150661743,0.475304004772764,-0.414257515648889,-1.02737521659646,-0.388698574576614,0.475970403799356,-0.390357090653051,0.00887564511362571,2.08032404188876,-0.896632144503494,-0.150508082096448,-0.185043115342558,0.821380958880279,0.10930414923363,-0.203720588483528
98.01,-0.0635624157598308,0.235789853637555,1.34653480851011,-0.563683056501647,-0.677356517818289,-0.14861442960288,-0.63944757233837,0.0932538744996216,-0.04505242978228,-0.387268950173287,0.289475937828507,-0.344624560427215,-1.03615455492321,-0.3961136595483,0.484328617012418,-0.278652838546333,0.0169518507762035,2.01746415536883,-0.939612916010973,-0.139449073967739,-0.211203476572369,0.807537113609741,0.166234740766423,-0.239774478590554
98.015,-0.0454457220502546,0.228937722867081,1.30251690284326,-0.452603863867722,-0.961920361761244,-0.217423397807441,-0.620083028230987,0.10196058030095,-0.0337310202517493,-0.321086966884498,0.0992668896045056,-0.272867539297993,-1.04266028025019,-0.401262948275257,0.489233977280115,-0.16945800841059,0.0257395010006219,1.95011452164844,-0.975763667502873,-0.119532744641602,-0.213583025800632,0.766751786572527,0.227307272914739,-0.275749625698372
98.02,-0.0304420927111919,0.221738767262002,1.25482062742212,-0.345375742066644,-1.23374641983404,-0.294371058229611,-0.604835928666743,0.107263572977227,-0.0238455042544278,-0.259979849147373,-0.0940285099811534,-0.200130106111719,-1.0465888860613,-0.404244487047869,0.490415953953966,-0.063718976258538,0.0351013948525638,1.87919927227627,-1.03116947390849,-0.0936327826366617,-0.198500277452838,0.707672998997638,0.269682976118409,-0.315835654484805
98.025,-0.0187403763685009,0.215162510347667,1.20446290246202,-0.241975527619399,-1.49042820043342,-0.376144235277057,-0.593797391987673,0.109267342631141,-0.015850736244673,-0.204175998847392,-0.289078553691724,-0.127558795026904,-1.0478071502944,-0.405179969702577,0.487758522968189,0.0376865680674597,0.0448653435827672,1.80563045048632,-1.09225666682596,-0.0677943898895655,-0.18135576783491,0.583755616574488,0.306342013657549,-0.353360498932104
98.03,-0.0103961787832938,0.210137136731067,1.15256873435577,-0.142223671497166,-1.72998376811133,-0.459122434484468,-0.58699780762978,0.108226977544671,-0.0100786829446186,-0.153806010099784,-0.484546970634566,-0.0562684886343498,-1.04632710878679,-0.404186247160115,0.481290088313344,0.133943803694682,0.0548472008425692,1.73027987277291,-1.12739323782522,-0.0378213914458044,-0.157880804238681,0.469150814734257,0.315789904914138,-0.368819975525115
98.035,-0.00534188497010882,0.207484762202471,1.10035754427831,-0.0458517549608046,-1.95087445630576,-0.539511628455934,-0.584410023939408,0.104523717863001,-0.0067268155841725,-0.10893746188557,-0.679123861447655,0.012687528287803,-1.04228968160474,-0.401373430456997,0.471168880985874,0.224297709345221,0.0648713569817648,1.65396367745064,-1.16186661271451,-0.00684471359236278,-0.132900813838025,0.339053934947151,0.314396053552628,-0.369968341160226
98.04,-0.00341209298770594,0.207880858943243,1.049103473299,0.0474403572997646,-2.1520296624878,-0.613477522325548,-0.585950252481041,0.0986290159770111,-0.00587001700020793,-0.0696079087635378,-0.871555242810387,0.0783432227697058,-1.03594795004429,-0.396845390398954,0.45767488535849,0.308050512503656,0.0747890331646061,1.57742936399117,-1.19785161561585,0.0223813129647537,-0.108688762739801,0.194583379759467,0.296281219031847,-0.35897467072837
98.045,-0.00436940241555852,0.211810573242194,1.0000552697984,0.137942062305653,-2.33285244845326,-0.677264980004886,-0.591487311407877,0.0910603580882875,-0.00747430927323058,-0.0358521020073866,-1.06066718095952,0.139840248458144,-1.02763849164396,-0.390686943123598,0.441195862286684,0.384560521757986,0.0844919356435984,1.50134391507254,-1.22808474573424,0.0574927195440944,-0.0756525710340243,0.00929007213170029,0.274327129650024,-0.343307622878134
98.05,-0.00793673193679659,0.219528791037347,0.954357808385469,0.225895754954129,-2.49319089857884,-0.727315999786135,-0.600851960664645,0.0823445406346264,-0.0114135628465805,-0.00772335180547251,-1.24538218612982,0.19644108048262,-1.0177494346697,-0.382957330610808,0.422200346474996,0.453240512469887,0.0939201178333186,1.42628771499955,-1.24238243081514,0.0746330572588867,-0.0563549664008831,-0.144885344973819,0.235273979799935,-0.342286974191666
98.055,-0.0138282838613736,0.231056415085823,0.912987588573564,0.311469731568655,-2.63328943965954,-0.760383001312158,-0.613839097312244,0.0729838115518275,-0.01749864846499,0.0146949953502576,-1.42473009235157,0.247536520444738,-1.00669259391037,-0.373697758160177,0.401215127387182,0.513559277919662,0.103062829558228,1.35275332920046,-1.26127023474197,0.0992713130489528,-0.0319693188028989,-0.294188939434192,0.165704568248814,-0.347402975750662
98.06,-0.0217748658735619,0.246206076102969,0.876698449697159,0.394749324502572,-2.75372340030021,-0.773619359279371,-0.630208778806749,0.0634213922393049,-0.0255116512388638,0.0312938685892746,-1.59785540062432,0.292651172527809,-0.994880697338539,-0.362941987378966,0.378817287930017,0.565052616604035,0.111951339855127,1.28114576132349,-1.26552148896483,0.114912238047655,-0.0151131606943663,-0.399043222157006,0.0924098713687269,-0.357297964576103
98.065,-0.0315576946409598,0.264614225653235,0.846009126467659,0.475740884924653,-2.85532076260205,-0.764643788416883,-0.649684465062317,0.0540179329131386,-0.0352356149878509,0.0419531321392046,-1.76402082357036,0.331447126006096,-0.98271137435149,-0.350735112238268,0.355626495994994,0.607339360804473,0.1206472264165,1.2117828650243,-1.26614326767905,0.112993214790124,-0.00795146404284115,-0.480197351826725,-0.0235848052357004,-0.379070067523272
98.07,-0.0430464591343283,0.285768975191232,0.821237022491652,0.554375968740179,-2.93909947821721,-0.731580422409537,-0.671945374128562,0.0450408494840213,-0.0464757490586231,0.0465522042260094,-1.92260692968371,0.36372203357357,-0.970554573650357,-0.337164609255473,0.332285410394357,0.640128895297615,0.129231919860473,1.14489552348589,-1.25356298606263,0.125386332539262,-0.00721667963434793,-0.544474007422207,-0.131712239160872,-0.40701767196487
98.075,-0.0562173994290396,0.309029860926652,0.802524604703001,0.630510388763737,-3.00623008229763,-0.673079791303581,-0.696623728037268,0.0366579759418632,-0.05906814545938,0.0449728154454582,-2.07310902182368,0.389399890678265,-0.958733365905722,-0.32238021042144,0.309433087026371,0.663216771415727,0.137798303901784,1.08062928823145,-1.22236506407242,0.105248186261294,-0.0136589425962351,-0.610295166812361,-0.236879323176417,-0.4357518166593
98.08,-0.0711506133306817,0.333644787555868,0.789840661195077,0.703921904897905,-3.0579985949851,-0.58833057695702,-0.723313035052987,0.0289385968507218,-0.0728755730559514,0.037104614825768,-2.21513094096577,0.408518046777239,-0.947496940773565,-0.306590393704675,0.287676425536519,0.676480111215298,0.146440520555245,1.01905303837557,-1.1937833085104,0.0937154359948839,-0.0311719362184708,-0.637583964313607,-0.313585238306828,-0.438527912551637
98.085,-0.0880226193705552,0.358777204900867,0.782987713976643,0.774305294122128,-3.09576108399173,-0.477069537643435,-0.751579808434831,0.0218682897245536,-0.0877777961086667,0.0228547426404523,-2.3483748587504,0.421212416901241,-0.937001023641944,-0.290054394095065,0.267562681519874,0.679875777275454,0.155242642609383,0.960179103832331,-1.14947551967187,0.0661462905509864,-0.0626852250075081,-0.657274307282925,-0.314755649980411,-0.399559436178311
98.09,-0.107088163638827,0.383560949677454,0.781612884662972,0.841263005893104,-3.12090020490255,-0.339583936153507,-0.780976093287847,0.0153642469690786,-0.103668857302773,0.00215359387101283,-2.4726285107058,0.42770071862059,-0.927307776108095,-0.273074977767436,0.249567836038356,0.67343512310076,0.164270002159961,0.903991538358167,-1.10968505196718,0.0400947331151518,-0.0941543533496199,-0.6655313372612,-0.283662501432619,-0.339789409774638
98.095,-0.128649639743681,0.407167319229583,0.785209657687223,0.90430466120936,-3.13477878126939,-0.176685034146673,-0.811054873747117,0.00928759346964579,-0.120462010911324,-0.0250385597321744,-2.58775268369923,0.428267029881057,-0.918403747573963,-0.255981482466994,0.234097288860953,0.657260324802098,0.173562038486533,0.850472616893225,-1.06857574387666,0.0103172083863792,-0.117694250906437,-0.668042882507954,-0.21916302812334,-0.252441115330298
98.1,-0.153038047670078,0.428834814247374,0.793134095380834,0.962856077386378,-3.13868821068564,0.0103387947095537,-0.84138526052647,0.00347302717412064,-0.138090373431814,-0.0587214842381893,-2.69367082273758,0.423248900512352,-0.910230350367249,-0.239107551382005,0.221468041034292,0.631524526389297,0.183125531871024,0.799619741111306,-1.02695029666,-0.0290420628138109,-0.148057081369237,-0.659090750139587,-0.113477797178994,-0.128636800707831
98.105,-0.180610000983304,0.447869720111923,0.804654119880338,1.01626085604589,-3.13380390536003,0.219753412218199,-0.871568662985882,-0.0022311263472267,-0.156502622707761,-0.0988489966697975,-2.79036122778613,0.413023676312961,-0.902728534337216,-0.222777848331475,0.21188596924569,0.59646766118346,0.192929681790097,0.751450672522092,-0.987610606004189,-0.0607772328839961,-0.158515774122708,-0.632332674096536,-0.00744534412184174,-0.0298088247658661
98.11,-0.211746137075688,0.463667466771701,0.819013346607046,1.06377218837515,-3.12116067632196,0.449404964843659,-0.901257530978437,-0.00793828216800199,-0.175665976042918,-0.145339360918728,-2.87785308194231,0.397992054574424,-0.895893210031116,-0.207308088325379,0.205458041176972,0.552376363511582,0.202907643966146,0.705993394095749,-0.95739074709062,-0.0943245441497823,-0.149627849776203,-0.575067017014155,0.0846637529246607,0.0626622758001575
98.115,-0.246843304023985,0.475731092883111,0.835455975810792,1.104545820365,-3.10164951281586,0.696770655013518,-0.930167769991344,-0.0137175288787218,-0.195580470230732,-0.198105920712029,-2.95622517215575,0.378560470917185,-0.889795460857655,-0.19298944943969,0.202207316092971,0.499544957539408,0.21296679258711,0.663259047237161,-0.936924629965952,-0.120981937768237,-0.133212682502655,-0.512675368931861,0.143458604411149,0.119198692134678
98.12,-0.286296196751561,0.4836357635002,0.853197315486353,1.13764958087664,-3.07601084432064,0.959012275977195,-0.958080634216808,-0.0195929040762574,-0.216287534260077,-0.257073037651681,-3.02560056875095,0.355127604583192,-0.884547119275034,-0.180037979622934,0.202045991019823,0.438250030626898,0.222992635680048,0.623211861680553,-0.915210453139518,-0.149769822791733,-0.104284515587926,-0.450965492574754,0.162202946306802,0.143863578377675
98.125,-0.330473503466194,0.486984549447247,0.871398194283177,1.16208885576253,-3.04480884780001,1.23299400981518,-0.984837709178126,-0.0255364452259301,-0.237860461597048,-0.322155955091897,-3.08613404889797,0.328077039470591,-0.880256998938616,-0.168554564234772,0.204753218645492,0.368759879987526,0.232838074667104,0.585753295945661,-0.902452379366337,-0.175497073444337,-0.073415627399971,-0.384528265257923,0.136694576078798,0.142827162182727
98.13,-0.379689448400597,0.485431189635789,0.889165599465311,1.17683555846737,-3.0084060665409,1.51528729576686,-1.01032740657838,-0.0314646138574337,-0.260392660484571,-0.393238045629879,-3.13799597770647,0.29777354675034,-0.877018052205308,-0.158531704898334,0.210012079072976,0.291350358969503,0.242315205625739,0.550718093587947,-0.888702966064709,-0.194543397261361,-0.042888377960814,-0.32655706756477,0.0934565537961782,0.127250406040238
98.135,-0.434174699444442,0.478734821935834,0.905550935531861,1.18086524889823,-2.96694988753903,1.80221501457472,-1.03446432471293,-0.0372360561446485,-0.283991117020271,-0.470167923870708,-3.18135585391722,0.264562217534105,-0.874906938481708,-0.149884682685979,0.217466336228724,0.206306410496732,0.251200301352915,0.517871559471363,-0.88032117321603,-0.204466977272617,-0.0245739084243082,-0.29948425661691,0.0784189188757736,0.105124405772079
98.14,-0.494067289034121,0.466779440860226,0.919538255274131,1.17319652784592,-2.92036500280282,2.08991605576865,-1.05716681441027,-0.0426292847627081,-0.308771836155883,-0.552772737540782,-3.21636629038016,0.228770236931961,-0.873973613447715,-0.142472692913413,0.226741210297625,0.113911687475207,0.2592487179267,0.486910763131114,-0.868697466170879,-0.215540169136534,-0.00549896430544542,-0.286236035156719,0.0830884803530625,0.0919848128284176
98.145,-0.559436787963538,0.449564529700549,0.929981590052865,1.15293248005455,-2.86834818916591,2.37438951289915,-1.07829831059541,-0.0473313183789758,-0.334908970257863,-0.640867244425509,-3.24314524266822,0.190715024308227,-0.874214181522797,-0.136091298801469,0.237441568668495,0.0144456149942596,0.266212369425694,0.457477398070451,-0.862901106393704,-0.224806139535271,0.000847466153978605,-0.278028145907835,0.132478703724288,0.0787840029085302
98.15,-0.630346557185061,0.427180499976501,0.935467593570514,1.11932793101857,-2.81036558821688,2.65154052017449,-1.09754639308131,-0.050963300054103,-0.362772165234194,-0.73423288325368,-3.26175521349285,0.150721845443481,-0.875551289611349,-0.130466084453931,0.24915803206549,-0.0917887995432467,0.27185102796386,0.429180728133915,-0.860319365324584,-0.225246765743365,0.00575028448639236,-0.270924001932144,0.193135220367822,0.0772567558891072
98.155,-0.706706834080677,0.399920018327537,0.934543818088623,1.0718672652158,-2.74565754123408,2.91724669034944,-1.11457826208986,-0.053070194482196,-0.392739922619542,-0.832588719574908,-3.27218580463229,0.109143294297072,-0.877843806521355,-0.125284061983034,0.261476204115931,-0.204428904409608,0.275943178746963,0.401624556742413,-0.86390332165031,-0.227418177457808,0.00405500061937447,-0.252174477491034,0.277086306807806,0.0788281846193817
98.16,-0.788033510984543,0.368424076763169,0.926056292258987,1.01033466013198,-2.67325553257534,3.16744482324241,-1.12926522289459,-0.0531194610829397,-0.4248962319771,-0.935571755866262,-3.27434455401239,0.0663755772967236,-0.880894011413657,-0.120226319547987,0.273980198982525,-0.323025438692967,0.27830056550093,0.374436032304637,-0.870730935828532,-0.219825990821589,0.00383620086157958,-0.231694190889903,0.352415971800216,0.0848124053213536
98.165,-0.873564212796449,0.333569987154331,0.908940425456943,0.93489592341759,-2.59201161980427,3.39824869628306,-1.1414684294893,-0.0505934797899688,-0.459263452204706,-1.04269700047905,-3.26805381138854,0.0228739317364617,-0.884445248251747,-0.114970762154194,0.286260757734587,-0.446997627665294,0.278775444588145,0.347295970786272,-0.879314955299501,-0.216259453494658,0.00535259322312125,-0.210416483567633,0.407635828567262,0.087288305296137
98.17,-0.962402462706977,0.296324222359165,0.882124694211274,0.8461719732309,-2.50064273092216,3.60607241139966,-1.15090359369426,-0.0450562268365665,-0.49597928989789,-1.15330661707037,-3.25305411101767,-0.0208360293407961,-0.888210161743516,-0.109197514461043,0.297932973152994,-0.575580005780207,0.277263520640585,0.319965488391312,-0.887709155380005,-0.211455328720872,-0.0018955048006757,-0.182420798183218,0.43120238730923,0.0861551247964698
98.175,-1.05349196310674,0.257701445025258,0.844772135430986,0.745264859793207,-2.39779807981898,3.78772402987112,-1.15726102039673,-0.0361658987297023,-0.535163575652418,-1.26654527618418,-3.22901736111882,-0.0641561151535505,-0.891923332452226,-0.10261030589959,0.308653414318886,-0.707796884192809,0.273713657630372,0.292300176987909,-0.898023164198674,-0.213136908220256,-0.00798575801403776,-0.163222315423233,0.455533112450296,0.0771402746794422
98.18,-1.14562854398714,0.218713804506542,0.796416031410812,0.633743024117069,-2.28214926758004,3.94048071555554,-1.16026996344653,-0.0237108205441305,-0.576861650926435,-1.38135658606568,-3.19556968205799,-0.106422424119944,-0.895380130454273,-0.0949512663561112,0.318130816108906,-0.84246067190522,0.268139592278622,0.26424802274957,-0.911707279009555,-0.205444996249742,-0.0181526067552045,-0.143175935548865,0.45388119399595,0.0612960972654838
98.185,-1.2374862869997,0.180306315154123,0.737008608990361,0.513600965002615,-2.15247915582798,4.06216013623283,-1.15973409549318,-0.00765927566493778,-0.621021464478722,-1.496484238144,-3.15232138835099,-0.146920226023991,-0.898452007730073,-0.0860055333632831,0.326132739158907,-0.978178294702489,0.260626098919068,0.235836119590541,-0.922126603908252,-0.201469899652054,-0.0235489095208735,-0.147186984537364,0.446790936379359,0.0409011179476178
98.19,-1.32766062275506,0.143281061646909,0.666955298778459,0.387191319507377,-2.0077547086968,4.1511782241096,-1.15555561746333,0.0118026847116156,-0.667467369309053,-1.61048034141822,-3.09890139552663,-0.18490688108257,-0.901082571549682,-0.075611357381566,0.332489035917122,-1.11336665905159,0.251329547761773,0.207154135126021,-0.94185659041041,-0.205124471881694,-0.0298088771260615,-0.171185175121187,0.433026741448766,0.0121307365061526
98.195,-1.41473833921841,0.108229466512616,0.587148745515404,0.257128764541673,-1.8471994284504,4.20658374035699,-1.14774177510544,0.034253484810092,-0.715883337665243,-1.72172784314146,-3.03499308200148,-0.219642018128954,-0.903268515791215,-0.063678155500179,0.337092998154728,-1.24628253161066,0.240474523438662,0.178338556926128,-0.961983435441619,-0.202494921043878,-0.0389038419268155,-0.203859915783961,0.420104633154602,-0.0133301332921584
98.2,-1.49737996863119,0.0754917859834173,0.49897676495073,0.126173025438465,-1.67037301421106,4.22806997451204,-1.13640889220536,0.0590366067529734,-0.765812994981682,-1.82847813253616,-2.96036840490451,-0.250422203985486,-0.905034288918972,-0.050197987857709,0.339903995407101,-1.37506677729892,0.228347199688917,0.14955904728509,-0.98223139454161,-0.203771178071334,-0.0419699839533519,-0.235249633475027,0.405573522021497,-0.0313589260561097
98.205,-1.57440745835017,0.0451422407185425,0.404302496606175,-0.00289534714301221,-1.47724452829106,4.21596667723027,-1.12180219542456,0.0852816534207231,-0.816676851905962,-1.92889676091494,-2.87491752349526,-0.276615940773177,-0.906411254044981,-0.0352478080796733,0.34095121086279,-1.49779490703188,0.215284916096135,0.121008450582854,-1.00141054419798,-0.201602284538955,-0.048582336217715,-0.260798651708977,0.389539790254696,-0.0444941822382713
98.21,-1.64484301252297,0.0169831734876529,0.305397854949628,-0.127399564729828,-1.26825175398951,4.17120667298978,-1.10426367309103,0.111948664913828,-0.867762790300951,-2.02111672547875,-2.77867318008191,-0.297696474126504,-0.907427280580642,-0.0189976088545293,0.340331595405037,-1.61253261314978,0.201662761277699,0.0928969088064471,-1.01626187495934,-0.202117678622993,-0.0571177915207476,-0.267646606193547,0.363024013295284,-0.0560534276044566
98.215,-1.70792291114884,-0.00943316197852022,0.204859929042435,-0.244893497533202,-1.04435697034874,4.09525887374093,-1.08416973961723,0.137887148653007,-0.918224160914288,-2.10330913156955,-2.67183007490859,-0.313271311718813,-0.908096682464111,-0.00171695902111759,0.33819926975807,-1.71740568857673,0.187879817800771,0.0654483722928605,-1.03259807208752,-0.207672729940475,-0.0659924800713774,-0.26762377837589,0.319726711648658,-0.071197859435054
98.22,-1.76315828758211,-0.0347313404712374,0.105565062980839,-0.353267397592547,-0.807105826483228,3.99004841379513,-1.06195428814939,0.161890423847472,-0.967158679301901,-2.17375112464926,-2.55475711185399,-0.323104120172224,-0.908402171343111,0.0162419516914759,0.334752222859185,-1.8106647567201,0.174342215779337,0.0388985856382707,-1.03936810769627,-0.204051253846759,-0.0726549738887687,-0.253591957027568,0.261248742043738,-0.0769946783171444
98.225,-1.8103594176253,-0.059644116398426,0.0105950916891768,-0.45080699091223,-0.558673143077015,3.85788544060136,-1.03813288493753,0.182750622129244,-1.0136780694228,-2.23086387326625,-2.42800152770251,-0.327126569556279,-0.908291725554079,0.0344648810310308,0.330215990051685,-1.89071859596992,0.161439346124409,0.0134937552901066,-1.05171414855769,-0.201573935178131,-0.078043242107944,-0.236053932825959,0.174546260026056,-0.0764895803420926
98.23,-1.84960320738042,-0.0849543356965043,-0.0768707100228933,-0.536232203497807,-0.301886139555433,3.7013777970097,-1.01327833396176,0.199337130662757,-1.056927807509,-2.27324939389345,-2.29228756946504,-0.325444397490423,-0.907703020467652,0.0524832337074501,0.324829611242728,-1.95616519517431,0.149519654283499,-0.0105140219506245,-1.07287044821823,-0.193478710604157,-0.0786733944819707,-0.219694946944811,0.0721338079361062,-0.0635088960088211
98.235,-1.88118457392509,-0.111389366221514,-0.153676244407026,-0.608720107686191,-0.0402291946949155,3.52333056077082,-0.988005645308922,0.210658376349729,-1.0961313966722,-2.29973585017252,-2.14851061764006,-0.318334873976277,-0.906592173819927,0.0697944816728991,0.318868974551968,-2.00583024226998,0.138871856978257,-0.0328789546919166,-1.08443079108956,-0.18390773775779,-0.079763080909911,-0.208832303021891,-0.0128191356447696,-0.0429390600922687
98.24,-1.90555763737779,-0.139523346830201,-0.216840632591214,-0.66787058835064,0.222186146122253,3.32667805298541,-0.962958659336136,0.215899485348495,-1.13065253676195,-2.30939137060568,-1.99772781331267,-0.306226373983992,-0.90495926234351,0.0858869109237477,0.312691007113129,-2.03877387656944,0.129712383715144,-0.0533873592800882,-1.09754023783335,-0.178314539155621,-0.0800059487983702,-0.197257019202747,-0.0927560459133383,-0.0167997347107149
98.245,-1.9232985970981,-0.169748926187895,-0.263703801159548,-0.713642106971952,0.480695078312345,3.11441815726261,-0.938786899457845,0.214498296770151,-1.16002031125181,-2.30152666594359,-1.84114698443629,-0.28966579401549,-0.902872684385148,0.100249908966158,0.306719068151872,-2.05428822138515,0.122181501280379,-0.071901781608688,-1.10011778126549,-0.170036142776112,-0.0785879787924742,-0.198714580175752,-0.152762891732489,0.0145541940080203
98.25,-1.93506499126288,-0.202243226262191,-0.29205236562472,-0.746307285034489,0.730186639062671,2.88950800394162,-0.916120588487578,0.206221929480499,-1.1839214293194,-2.27572408246839,-1.68010884882044,-0.269285611058088,-0.900472122837046,0.112390299797905,0.301383552021816,-2.05192469152654,0.11634613960995,-0.0884097376491101,-1.10275804859438,-0.150499252477847,-0.0768386692495593,-0.213210062944822,-0.222630370329573,0.0617218956793437
98.255,-1.94150664789586,-0.236883217973056,-0.300255500202847,-0.766407272171577,0.965244795478115,2.65478164300339,-0.895548334663672,0.191170319525387,-1.20219034979334,-2.23187054531795,-1.5160572997718,-0.245771760762434,-0.897941666284914,0.121854392354475,0.29708888083704,-2.03152648569917,0.11220422373769,-0.103048221503604,-1.10882157627028,-0.14063472550372,-0.0792770073530491,-0.260549365422984,-0.277151194228882,0.107967792681235
98.26,-1.94314190760901,-0.273191409211895,-0.287439307262894,-0.774677764843778,1.18033589352836,2.41293544068126,-0.877588217741933,0.169720241315372,-1.21480360844149,-2.17016500705259,-1.35050364551492,-0.219830358107991,-0.895471158570865,0.128254829153492,0.294207008742931,-1.99323479813827,0.109689211962559,-0.116095319882091,-1.11242606752853,-0.126080691231643,-0.0779591079352581,-0.324334196016561,-0.335283499584102,0.139664177686933
98.265,-1.94025730610995,-0.310368371714821,-0.253652697058522,-0.771937781388806,1.37006189033032,2.16655555721256,-0.862656257409703,0.142454547731708,-1.22186403954311,-2.09107744422181,-1.1849931229215,-0.192151693668291,-0.893224598161015,0.131303226659692,0.293069119302096,-1.93744670587777,0.108675610007364,-0.1279478931428,-1.10090112813149,-0.113569095192369,-0.083303472832202,-0.374081660353157,-0.388217066650079,0.155572593368674
