Header,foot_Accel_X,foot_Accel_Y,foot_Accel_Z,foot_Gyro_X,foot_Gyro_Y,foot_Gyro_Z,shank_Accel_X,shank_Accel_Y,shank_Accel_Z,shank_Gyro_X,shank_Gyro_Y,shank_Gyro_Z,thigh_Accel_X,thigh_Accel_Y,thigh_Accel_Z,thigh_Gyro_X,thigh_Gyro_Y,thigh_Gyro_Z,trunk_Accel_X,trunk_Accel_Y,trunk_Accel_Z,trunk_Gyro_X,trunk_Gyro_Y,trunk_Gyro_Z
83.255,-2.38638549770118,-1.05623950003605,-0.271507146639014,1.04635897537396,-0.498970299335012,-0.148574761799757,-1.12871062071664,-0.0348522833790351,-1.2722969732218,0.655166977050663,-3.22946676302197,0.386591173604284,-0.880248330042046,0.625967279942529,-0.0724009854121742,1.10718699247784,0.297434433720931,-0.339237567977715,-0.843731099310568,0.0668645274028049,0.286922318705008,-0.0405979564712662,-0.0912649241903631,0.472844283531127
83.26,-2.40801942349878,-1.01677914631311,-0.39165934087354,0.750702362628088,-0.241029572511671,-0.174603522713398,-1.05641580311761,0.00710595636756267,-1.2786844143255,0.473326902582185,-2.84941473221264,0.310007688392952,-0.889677330245222,0.663393998422996,-0.0580504537974129,0.87107424220335,0.254179532044945,-0.263035658710749,-0.846372434868451,0.0904766347035759,0.305629869237023,-0.0267262111235716,-0.07606639445423,0.468021226223531
83.265,-2.4137045487376,-0.978461056580194,-0.494932439020126,0.459578516079751,0.00845445815423375,-0.206498463745246,-0.992486004057837,0.0419228531052913,-1.28105126167213,0.293381943042196,-2.46011280116469,0.240013649443843,-0.901128557500437,0.694734936025788,-0.0441367349398662,0.638342308549921,0.208805204715143,-0.184290552312205,-0.850957133647339,0.115206990750099,0.326340519312642,-0.016169501489188,-0.0585450858403183,0.457839953642696
83.27,-2.40442949344173,-0.941252797650532,-0.575987669868721,0.175109761437792,0.249093074990295,-0.241748943913306,-0.93943155296691,0.0702872969901864,-1.27723634716396,0.117666611556394,-2.0652811639955,0.176090249808195,-0.914927664427787,0.718984232343477,-0.0311397089280431,0.411194859751981,0.162122928571029,-0.104756507076779,-0.85766947419987,0.141105823519665,0.348651198198055,-0.00909642820337439,-0.0380665009212436,0.44161673644532
83.275,-2.38167699102648,-0.904751319917943,-0.630152850666264,-0.101457851381575,0.480064777763329,-0.278143957177229,-0.899140182773249,0.0934112661616953,-1.26515647668438,-0.0525467277534697,-1.66874840100792,0.117567140481548,-0.931318242320868,0.735440398541643,-0.0194293653988048,0.190795465778576,0.114948203719253,-0.0261776583753413,-0.866655262546487,0.168278113936747,0.371888621546359,-0.00555797070520069,-0.014002060454232,0.418686992255367
83.28,-2.34720027942135,-0.868426187031994,-0.653723670657963,-0.369610504853595,0.700026906389324,-0.313935022468492,-0.872807869474461,0.11271869030385,-1.24306314226068,-0.216897232943968,-1.27437298870295,0.0637232158835886,-0.95045347574395,0.743842050924906,-0.00929143594396762,-0.0225695750779334,0.0680803444011503,0.0497797298457816,-0.878028780599205,0.196909825901393,0.395077017216467,-0.00547775815605986,0.0141873058902625,0.388415539593975
83.285,-2.30286227952525,-0.831880833313971,-0.644182343318222,-0.629330580649503,0.907087603017011,-0.347928519837935,-0.86092757859219,0.129569638403805,-1.20974140890352,-0.375664693441175,-0.885955381098833,0.0138631162133043,-0.972397982856322,0.744442914067083,-0.000932858497932654,-0.229213981384026,0.0222915205047436,0.121591712402178,-0.891855141901506,0.227221468149789,0.417038590472507,-0.00865479788323095,0.046861688744675,0.350198375100131
83.29,-2.25052268796966,-0.7950424554824,-0.600345097480405,-0.880837861956827,1.09883484936164,-0.379532646033168,-0.863330850750582,0.145046327269654,-1.16463811477635,-0.529460340414231,-0.507137762691901,-0.0326316826320916,-0.997127304571271,0.73801028597687,0.0055394513188288,-0.429739515262997,-0.0216756113604032,0.187947317241002,-0.908113682657213,0.259349363077887,0.436554338665705,-0.014781378647886,0.0841583828725298,0.303481432870526
83.295,-2.19192161523656,-0.758222162640228,-0.52249493903495,-1.12432923692796,1.2724325898682,-0.40873492968839,-0.87927198524058,0.159782426945107,-1.10795659489869,-0.678920342802317,-0.141297436185528,-0.0762755432787481,-1.02452296989554,0.725749011767262,0.0101427495115528,-0.624728816030601,-0.0631085198843718,0.247823181619841,-0.9266810579884,0.293302970597029,0.452420203241707,-0.0234573914816959,0.125986276192901,0.247804058574401
83.3,-2.12857434056718,-0.722064394067329,-0.412483407824852,-1.3597050753554,1.42480390912641,-0.435980443712709,-0.907537628500726,0.173862668230143,-1.04071175982194,-0.824403874966126,0.208549093192859,-0.117470856593684,-1.05436492934746,0.709167669128752,0.0130272881983699,-0.814446362512971,-0.101331361326262,0.30053056828028,-0.947340359185483,0.329037028885777,0.46339739295273,-0.0341982765260428,0.172008420053045,0.182824288166657
83.305,-2.0617310377227,-0.687435073903162,-0.273715853907845,-1.58630940686399,1.55288909161169,-0.461975499740506,-0.946556343882758,0.186838947267774,-0.964691207208929,-0.965725780720246,0.539822565516057,-0.156513448968551,-1.0863063557383,0.689901750310489,0.0144673789385364,-0.99857799225372,-0.135721551158248,0.345722999224496,-0.969783266497032,0.366441877663795,0.468193608448599,-0.0464492025804215,0.221602311369811,0.108317068323563
83.31,-1.99240966326632,-0.655287343394351,-0.110981867057038,-1.80275175119085,1.65392792914071,-0.487467749621365,-0.994500112541559,0.197856686292018,-0.882309751300543,-1.10199204315169,0.850442233371471,-0.193607210427841,-1.11983794483205,0.669506735706423,0.0148429842025847,-1.17607468508023,-0.16573870025352,0.383390843124754,-0.99359753348058,0.405189074089285,0.46554178502702,-0.0595989091596152,0.273831968638721,0.0242017177573137
83.315,-1.92145619952093,-0.62653572837388,0.0698255222905129,-2.00686613893606,1.72572423506027,-0.513047692453198,-1.04938446969092,0.205837406162303,-0.796403822076372,-1.23158545696925,1.13886994687795,-0.228885269980658,-1.15427582835989,0.649250957333944,0.0146207831241255,-1.34514736911077,-0.190965174955585,0.413850099663191,-1.01826666311712,0.444611029592815,0.454334352551234,-0.0729816907713425,0.327454113076291,-0.0693870341552299
83.32,-1.84957232735788,-0.601949907371634,0.2620206481969,-2.19581503993228,1.76687679851647,-0.539001848952521,-1.10915714958065,0.209642061656611,-0.710031154763953,-1.35229152896216,1.40412493731798,-0.262433748246022,-1.18877663415726,0.629963314593892,0.0143384493351908,-1.50340452202475,-0.211151578593133,0.437703733699493,-1.04319276770713,0.483704944304634,0.433741327966448,-0.0858731225906931,0.380955884733006,-0.172029596867441
83.325,-1.77729353431525,-0.582060563587868,0.458419028037639,-2.36626603367398,1.77697339408946,-0.565206620396469,-1.17175561742222,0.208179397462477,-0.626312821646822,-1.46148358988695,1.64576295666049,-0.294311382640428,-1.22235893459696,0.611968157540057,0.0145869481144085,-1.64805192538069,-0.226255504925489,0.455766819481021,-1.06773307155283,0.521193072289309,0.403270475276472,-0.0974957513387729,0.432611346498502,-0.282982519481979
83.33,-1.70497270130105,-0.567083363676645,0.651670363687271,-2.5145687211189,1.75673516023134,-0.591048571821308,-1.23513541044379,0.200523217965743,-0.548277129562864,-1.55629484773966,1.8638218506318,-0.32455932791659,-1.25393833595828,0.595056252887609,0.0159753950241052,-1.77608062339385,-0.236463994656504,0.468965460081129,-1.09124375518783,0.555582846983187,0.362808034933821,-0.107044298282372,0.480546756237019,-0.401166629758468
83.335,-1.6328107390168,-0.556879501902561,0.834686163970978,-2.63697310099226,1.708076744473,-0.615412721361492,-1.29728650620729,0.186087743435651,-0.478656996206239,-1.63380937353836,2.05873515348341,-0.353202671955165,-1.28239404746578,0.578450549713738,0.0190746979921361,-1.88447217837144,-0.242196978528278,0.478223322704504,-1.1131241574611,0.585226633218846,0.312696586223473,-0.113716353397734,0.52282327326873,-0.525171014425091
83.34,-1.56089724189688,-0.550944277000938,1.00108736838054,-2.72993824830737,1.63405781306284,-0.636779770807026,-1.35624293674529,0.16478907880037,-0.419683322438197,-1.69130739647499,2.23121779967317,-0.380246662957057,-1.30665097532032,0.560829797250441,0.0243589944829888,-1.97045351793751,-0.244090039684493,0.484350746327571,-1.13285284885911,0.608389976594784,0.253808283457448,-0.116731177364735,0.557549256966879,-0.653268427752075
83.345,-1.48922422542268,-0.548390656075914,1.1455746699918,-2.79046513726689,1.53873149291508,-0.653402809339163,-1.4100858507267,0.137117131579637,-0.372940611750376,-1.72650588570368,2.38213711160772,-0.405665623897351,-1.32575349267655,0.540455166359311,0.0321673349578551,-2.03174032533244,-0.242954077820766,0.487952160331814,-1.15001618552511,0.62334421800423,0.18753718445947,-0.115340914256153,0.583010074998224,-0.783441208476701
83.35,-1.4176978564612,-0.547926574280503,1.26419443776169,-2.81636552353031,1.42690373092727,-0.663504176650265,-1.45695375216504,0.104132425131813,-0.339293304401074,-1.73773342565468,2.5123818129482,-0.429382614239037,-1.33893443643426,0.515359367363305,0.0426950547106731,-2.06670760430862,-0.239714007543684,0.489355929832721,-1.16433100328915,0.628509642653455,0.115725857814308,-0.108848139148587,0.597792570433653,-0.913426650038496
83.355,-1.34619465583533,-0.547872470769809,1.35449445015005,-2.80643599715687,1.30382918157581,-0.665465896646975,-1.49507074974323,0.0674300052912041,-0.318858877309063,-1.72402747945245,2.62274012720166,-0.451240132710321,-1.3456752774155,0.483578914501277,0.0559886892002086,-2.07447606139574,-0.235331964181068,0.488563845565022,-1.175655856872,0.622589778508559,0.0405750037662257,-0.0966374251554872,0.600895769664083,-1.04079709027108
83.36,-1.27466091416377,-0.546251396612142,1.415578630511,-2.76054397466909,1.17487297531723,-0.658018556693157,-1.52279230533167,0.0290753736901351,-0.311004546085418,-1.68516372844662,2.71381144063753,-0.470968346266412,-1.34573185881954,0.44342324717809,0.0719092927735024,-2.05492439420875,-0.230724707117809,0.485240529152264,-1.18398902145649,0.604603020854711,-0.0354790327053226,-0.0782136077725514,0.591821320233658,-1.16304950925979
83.365,-1.20317437345626,-0.540911425037775,1.44809442244663,-2.6796502466239,1.04515800215894,-0.640415348385406,-1.5387006322245,-0.00852029170789101,-0.314338325623015,-1.62164916190431,2.78597352383822,-0.488165914525115,-1.33913112299564,0.393720107597903,0.090099087366923,-2.00866108195397,-0.226689678635364,0.478763074136738,-1.18945799064079,0.573889368275854,-0.109924873487032,-0.0532363356208483,0.570626718871076,-1.2776663517113
83.37,-1.13175311180366,-0.52949714894722,1.45453571148575,-2.56577114946767,0.919242528123315,-0.612539960417489,-1.54198601643318,-0.0427628339714739,-0.326313880593169,-1.53469670106483,2.8394013639371,-0.50230221112305,-1.3261701964483,0.333990109019889,0.11001004807025,-1.93697817786462,-0.223848571031538,0.468308344222192,-1.19230349875855,0.530220655792968,-0.180321283249289,-0.0215564407719753,0.537935623418242,-1.38217200142592
83.375,-1.06047510411547,-0.509727835097139,1.43872813026125,-2.42186735079872,0.800885195286079,-0.574912141428599,-1.53249855761888,-0.0711424628472965,-0.343659512966407,-1.42617188537986,2.87412606278976,-0.512739378177058,-1.30741434866908,0.264554524877768,0.130969922954539,-1.84178256276244,-0.222610000761198,0.452944359111852,-1.19285900341906,0.473951445522694,-0.244415415701355,0.0167409709948398,0.49491277129941,-1.47422823973514
83.38,-0.990072772240915,-0.480139271138644,1.40410249208385,-2.2516785792365,0.692912570196704,-0.528605579523896,-1.51010760086382,-0.0915872888491785,-0.364002070487672,-1.29851740984662,2.89013029631112,-0.518775269605592,-1.28366713987279,0.186576261158599,0.152228221444401,-1.72551336390589,-0.223153935529969,0.431720655052112,-1.1915251842914,0.406080286160333,-0.300273435869919,0.0612972336191908,0.4432022655521,-1.551757920693
83.385,-0.921750010540871,-0.4402513015613,1.35363793892535,-2.05954026430609,0.597173464759109,-0.475116083562227,-1.47484581731539,-0.102657338209543,-0.385783086216768,-1.15467072779411,2.8874719478205,-0.519709264516323,-1.25591340272257,0.102020747285207,0.172982109574061,-1.59106192728145,-0.225440279375678,0.403763246243561,-1.18873967384656,0.328211536156395,-0.346415419524909,0.111456610466855,0.38482508401514,-1.61306009961088
83.39,-0.856583265061757,-0.390347416078273,1.29087138510905,-1.85019833433965,0.514567875135082,-0.416211447555335,-1.42761298467451,-0.10361120769712,-0.407191844574245,-0.997971883623607,2.86641573577813,-0.514924536218071,-1.22525594079496,0.0135323041951648,0.192410219705808,-1.44169145716366,-0.229239228972229,0.368368313303837,-1.18494695645721,0.242471624690941,-0.381912222945486,0.166263154219609,0.322044337051484,-1.65689962303652
83.395,-0.79548498049939,-0.331576155728177,1.21967715584474,-1.62862668016261,0.445141296503732,-0.353782886525436,-1.37016375906798,-0.0944768114822914,-0.426380036936263,-0.83205307646882,2.82754879517587,-0.503974446067481,-1.19285742795873,-0.0757655371291363,0.209719416651342,-1.28094650409538,-0.23417791993298,0.325081643313815,-1.18057329136287,0.151403429690218,-0.406426286606466,0.224479987937402,0.257213319383909,-1.68256955617716
83.4,-0.739271841656589,-0.265999509180051,1.14381627133295,-1.39985332896201,0.388226320193552,-0.289711066221014,-1.30486385644334,-0.0760518815191342,-0.441893404679249,-0.66071120772418,2.77186115159595,-0.486660378137932,-1.1598889564161,-0.162522430100852,0.224195593288905,-1.11255093818429,-0.239796894055313,0.273753737307559,-1.17600591382555,0.0578371618298819,-0.420188488617333,0.284630429416988,0.192622205408156,-1.68992508952389
83.405,-0.688609167373312,-0.196404277155796,1.06684311615691,-1.16879663663308,0.342608729570064,-0.225752336201808,-1.23455948608046,-0.0497950628251568,-0.452729696308003,-0.487768059334883,2.70078040616715,-0.463089303930924,-1.1274892237883,-0.24343901687753,0.235248490324127,-0.940295323209487,-0.245609595586217,0.214566327429349,-1.17157996511519,-0.035247251789424,-0.423925495765808,0.345055113564958,0.130362714926331,-1.67938545766196
83.41,-0.643979989619341,-0.126024109375092,0.992033675228093,-0.940124679555589,0.306701904211214,-0.163455918765724,-1.16239346185181,-0.0176298321288116,-0.458336005245003,-0.31693169001921,2.61615538150522,-0.43370337060645,-1.09674107962692,-0.315548507220828,0.242436191892769,-0.767923219109083,-0.251158124521533,0.148026892217967,-1.16758461397035,-0.124835414246568,-0.41879097997003,0.403990790925624,0.0722163111318723,-1.65191083761604
83.415,-0.605677575250187,-0.0582162446581582,0.922317860354788,-0.718169684733401,0.278716958074562,-0.104134649701815,-1.0915817232487,0.0183013973283535,-0.458561829684556,-0.151685447178943,2.5201880499398,-0.399279976071685,-1.06865794655379,-0.376468202454193,0.245469437790807,-0.599039070499705,-0.256058177223972,0.0749278637861585,-1.16428063156504,-0.207993745889659,-0.40629374308619,0.459687563411507,0.0195540178535971,-1.60897094464752
83.42,-0.573809437050151,0.00388236639143059,0.86019482444666,-0.506885308565125,0.256813332750015,-0.0488795635034215,-1.02518027920533,0.0558650593498149,-0.453606774127605,0.00479330137226353,2.41532389063067,-0.360901689245782,-1.04416211933947,-0.424575982661014,0.244217142928965,-0.437036006411715,-0.260028684126284,-0.0037196046925505,-1.16190245377126,-0.282033428374319,-0.388148974718998,0.510550163582544,-0.0267384850415071,-1.55249775072164
83.425,-0.548307705718334,0.0576722562499841,0.807630325360702,-0.309791265910044,0.239222339714817,0.00142578961362652,-0.965874482329579,0.0931154767522824,-0.443974748339865,0.149710939639214,2.30411932793777,-0.319894924965161,-1.02405574343513,-0.459094629220293,0.238717391344116,-0.285014534965698,-0.262906597349197,-0.0867581304207564,-1.16064573979969,-0.344688481603563,-0.366072949655532,0.555264038178289,-0.0662770859476293,-1.48480057003038
83.43,-0.528949000909984,0.101314649421595,0.765970980909695,-0.12989662240827,0.224347136427714,0.0461021964912458,-0.915811848554168,0.128434144943686,-0.430414082897221,0.280735707062253,2.18910219841438,-0.277743184858771,-1.00899750252748,-0.480099615903937,0.229175983036417,-0.145688430291854,-0.264648732761394,-0.172953884361244,-1.1606625543839,-0.394242254738657,-0.341615188038065,0.592891528186283,-0.0991367113814187,-1.40844911419697
83.435,-0.515380005641195,0.133832751954787,0.735904903292804,0.0303675718790901,0.210838362624271,0.0846657169044106,-0.876490107865637,0.160620283205107,-0.41384200747642,0.396056689483905,2.0726376734521,-0.235987542827946,-0.999484092856302,-0.488461783400574,0.215950703225565,-0.0212999099982662,-0.265322228650167,-0.261061918315749,-1.16206255896466,-0.429593085569261,-0.316057620858066,0.622941966845494,-0.125771742584078,-1.3261439972344
83.44,-0.507142200572214,0.155103420241934,0.717472093675501,0.169194455850837,0.197639561103498,0.116812994797815,-0.84870827577131,0.188918182567769,-0.395268336599354,0.494413614690875,1.95681260235163,-0.196126815761754,-0.99583054873961,-0.485726971883493,0.199531684853894,0.0864418870465615,-0.265086044378582,-0.349883640034426,-1.16490881008655,-0.450275888471632,-0.290363727867021,0.645415811546569,-0.146915304474711,-1.24058929362459
83.445,-0.503687642727582,0.165760215316634,0.710112970770207,0.285424341360381,0.184002847186302,0.142406902809047,-0.832573948233612,0.212986419153495,-0.37572355478065,0.575096950155925,1.84334889977563,-0.15952736282598,-0.998150229260835,-0.473948569230714,0.180518672961844,0.176394221071374,-0.264166454083107,-0.438313433769762,-1.16920965474028,-0.456460855239397,-0.265158893997497,0.660820326308519,-0.163470089263329,-1.15437719278909
83.45,-0.504386618197777,0.167033103137257,0.712744612902001,0.378544646266959,0.169480177588015,0.161463022955684,-0.827559552218464,0.232820503211292,-0.356200480374525,0.637924140738644,1.73355098214509,-0.127349692213662,-1.00633513985444,-0.455497118023912,0.159595891176839,0.247987777718192,-0.262830375554517,-0.525371691752317,-1.17490981387028,-0.448942564738108,-0.240733070071473,0.670150545095259,-0.176397106296829,-1.06988355293674
83.455,-0.508538877214399,0.160559872701546,0.723859185867643,0.448677285831798,0.153897857978843,0.174140349851376,-0.832607745226518,0.248646954040328,-0.337618472195349,0.683206585974285,1.62828772969652,-0.100494767921581,-1.02003771067288,-0.432859601905468,0.137507989528444,0.301219064084043,-0.261361198925511,-0.610221780033541,-1.18188275790426,-0.429109755534662,-0.217080489747377,0.674834084927025,-0.186609404634519,-0.989170278122918
83.46,-0.515389356382619,0.148206719869006,0.741641813240004,0.4965628990673,0.137324788511857,0.180742399849629,-0.846260880236212,0.26082187167703,-0.320791652479577,0.711719568684646,1.52800748220693,-0.0795701141283265,-1.03866350978586,-0.408442023326794,0.115031298770714,0.336638373647333,-0.260040540722915,-0.692170086798651,-1.18992678518967,-0.398872652124921,-0.193979379322398,0.676650393228135,-0.194885386215657,-0.913897467346567
83.465,-0.524162155526995,0.131906961350192,0.764120568633635,0.523530717321042,0.120034023594418,0.181725112273892,-0.866788142402847,0.269772189683528,-0.306384083277037,0.72466545563295,1.43278194553966,-0.0648768482313155,-1.06139075889903,-0.384406112805032,0.0929314155133551,0.355322279139914,-0.259134724455067,-0.770654452181002,-1.19876246100379,-0.360522740789761,-0.171079542982581,0.677634020930007,-0.201811584712477,-0.845259368367663
83.47,-0.534119470663951,0.113510501042854,0.789338021240254,0.531425052777067,0.102445060041728,0.177687315557027,-0.892307763471881,0.275981873520596,-0.294863077948987,0.723604155625041,1.34237025351712,-0.0564190227442797,-1.0872191882762,-0.362557620015278,0.0719120385795421,0.358804370277998,-0.258880250008306,-0.845233193022475,-1.20803220806555,-0.316540510509724,-0.14797502887093,0.679961328491355,-0.207750835436912,-0.783965369181179
83.475,-0.544611186271037,0.0946607529114329,0.815491871661923,0.522482150329627,0.0850494631809459,0.169327378348776,-0.920904342552568,0.279985137457667,-0.286467475582978,0.710348193437352,1.25629349417574,-0.0539323358597464,-1.11502978826285,-0.34426663338211,0.052569198558459,0.348962790240106,-0.259466253835513,-0.915581129119963,-1.21731125086675,-0.269404485282862,-0.124288164688815,0.685820430427564,-0.212830724200773,-0.73027008945744
83.48,-0.555095294528575,0.076726725517904,0.841014218335787,0.499185539556473,0.0683413752334742,0.157378791356935,-0.950735893516492,0.28234752872743,-0.281200752322398,0.686849612250683,1.17391344120156,-0.0569253422076066,-1.14364040215114,-0.330406481507092,0.0353571358580908,0.327893535169615,-0.261018690141094,-0.981489134637806,-1.22613353566745,-0.221437928690642,-0.0997794514194046,0.697280360249972,-0.216963823323535,-0.684040117420994
83.485,-0.565136569883257,0.0608069454880457,0.864602408388149,0.464131472808235,0.0527681444634464,0.142547082479676,-0.980120110132957,0.283638391699794,-0.278854971920221,0.655103610555872,1.09451095418829,-0.0647258160801794,-1.17185168988613,-0.321331292633584,0.0205671731836977,0.29779659196798,-0.263590470752591,-1.04286145695376,-1.23402234937823,-0.174738845035371,-0.0744105060689401,0.716182060569539,-0.219906069398458,-0.644840692002587
83.49,-0.574381084571786,0.047784113153185,0.885231792193464,0.419934767158193,0.0386973790146306,0.125482153885794,-1.00759617944849,0.284386486455582,-0.279054014970443,0.617082263153261,1.01735983777222,-0.0765272132581059,-1.19848192238474,-0.316903525949745,0.00832541778580024,0.260890736963855,-0.267160010791164,-1.09970287394572,-1.24051513485114,-0.131202254690535,-0.0483120889264931,0.74404642238339,-0.221322524064627,-0.612006097030808
83.495,-0.58252203112314,0.0383544782532278,0.90217496986184,0.369182313134235,0.0263908576163953,0.106804943869716,-1.03197278427539,0.285034377622746,-0.281286269716301,0.574695918201582,0.941791782186105,-0.0914353048765441,-1.2224116927419,-0.316556071492633,-0.00139170257838754,0.219355690686914,-0.271639566877194,-1.15209343020609,-1.24518701689391,-0.0925069894442413,-0.0217533332506149,0.781984839959532,-0.220833644867466,-0.584674589997364
83.5,-0.589293159062926,0.0329950270156834,0.915017831612681,0.314389500020004,0.015988212875046,0.0871386452615734,-1.05236644711827,0.285929770282299,-0.284923189838776,0.529758949630238,0.867245932937609,-0.108516460688055,-1.24265639894913,-0.319377894715159,-0.00873769804460999,0.175278551521316,-0.276888658483484,-1.20016473419921,-1.2476806823373,-0.0599838640670067,0.00481318488536656,0.830635216093573,-0.218064831406411,-0.561830976675121
83.505,-0.594483935629015,0.0319313768264791,0.923639918819855,0.257926547285384,0.00750930022556709,0.0670951203447223,-1.06821777732124,0.287339772532335,-0.289255459983474,0.483946323248447,0.793299512470405,-0.12684493548969,-1.25843699775791,-0.324219602058146,-0.013976731846676,0.130592247675994,-0.28272665592759,-1.24408849585179,-1.24773457381773,-0.0344895405386154,0.0307134248071937,0.89015097832246,-0.212720206337476,-0.542389512754194
83.51,-0.597954932739349,0.035145944526265,0.928170567308296,0.201944530734129,0.00087460909660185,0.0472439714341467,-1.07927532302037,0.289452143741646,-0.293560820882437,0.438757168365259,0.719682696438544,-0.145544321724382,-1.2692189978485,-0.32981910389621,-0.0174553466576396,0.0870238153676467,-0.288945775411422,-1.28406983395962,-1.24519566102178,-0.0164030842905757,0.0551278744224435,0.960231077645494,-0.204658228290249,-0.525284973911313
83.515,-0.599661723019289,0.0423757773892268,0.928969975886139,0.148327136609513,-0.00407879798142105,0.0280909755036818,-1.0855567297358,0.292367298781515,-0.297177245690852,0.395492695400024,0.646279576433789,-0.163821043408176,-1.27473256833938,-0.334950551949895,-0.0195611118719281,0.0460606181458966,-0.295325211059288,-1.3203418328027,-1.24001224391019,-0.00570005599238587,0.0772830328506694,1.0401514058562,-0.193926557561992,-0.509536488185409
83.52,-0.59967000441907,0.0530909787452211,0.926612167355919,0.0986459979715068,-0.00760628649355615,0.0100469386700356,-1.08731064447053,0.29608886234979,-0.299550765114732,0.355227377305273,0.573114619710984,-0.180993295456633,-1.27498224885067,-0.338559700882091,-0.0206773609972521,0.00891339089215872,-0.301642815471569,-1.35316524415248,-1.2322174951408,-0.00201775888548361,0.0966199187660359,1.12877966540227,-0.180731521273867,-0.494284654124417
83.525,-0.598133492868189,0.066527765038836,0.921798189411434,0.0541074222117204,-0.0100608113937209,-0.00660898961382161,-1.08498152902572,0.30051548933682,-0.300263225417095,0.318770878149835,0.500330262081323,-0.196517018069339,-1.27022796002444,-0.3398273708105,-0.021149475516773,-0.0235265766785884,-0.307684846615503,-1.38282733672041,-1.22192270199385,-0.00469348517069604,0.112802568963579,1.22461597937498,-0.165379855255424,-0.478818327705665
83.53,-0.595261625531279,0.0817839542624602,0.915224859101942,0.0155245181577263,-0.0118596326683942,-0.0217409267338394,-1.07915841937339,0.305445457498654,-0.299063490188483,0.28665489086883,0.4281637062243,-0.210001147407895,-1.26093340462538,-0.338172398230761,-0.0212679441280075,-0.0507017030024608,-0.313257476002261,-1.40963458876499,-1.20931784482456,-0.0128159833023863,0.125645228631168,1.3258855281618,-0.148247291747734,-0.46259618328338
83.535,-0.591311063838859,0.0979092355080257,0.907495805600436,-0.0166629591738233,-0.0134296022005973,-0.0353407121953943,-1.07050982804241,0.310599088463875,-0.295893855188574,0.259161015671805,0.356925257544064,-0.221207199936877,-1.24770398540216,-0.333251339537297,-0.0212608441996161,-0.0723576611914872,-0.31819996678655,-1.43390248546344,-1.19465791651944,-0.0253105514072702,0.13510590969779,1.43064524157735,-0.129765002073942,-0.445251281197953
83.54,-0.586590840731711,0.113974553110676,0.899095287261778,-0.0423422975479628,-0.0151615233727716,-0.047502760014974,-1.05972430313895,0.315654522757212,-0.29088859306171,0.236365251255504,0.286977785620146,-0.23003817067411,-1.23122989866212,-0.324960787203546,-0.0212880437128276,-0.08849292666808,-0.322394877978681,-1.4559435930059,-1.17823007398251,-0.0410283003700551,0.141329445947432,1.5368809527296,-0.110391509689959,-0.426575520244129
83.545,-0.581454614436897,0.129135029088352,0.890390786374344,-0.0616696797206137,-0.017383808988894,-0.0583932148728492,-1.04746833608455,0.320280879949796,-0.284344025976154,0.218181987607291,0.218718408105838,-0.236520220814216,-1.21223427483247,-0.313415032766214,-0.0214352377986676,-0.0993058448297666,-0.325771805848323,-1.47605373960825,-1.16031874615932,-0.0588159615068806,0.144656904985245,1.64259665512702,-0.090568794662328,-0.4064954132624
83.55,-0.576265194320558,0.14267475347699,0.881637254890951,-0.07500314890685,-0.0203480777851509,-0.0682129371046365,-1.03436052806875,0.324161409498348,-0.276662314557525,0.204408369503783,0.152562799280751,-0.240779324558731,-1.19142953509027,-0.298906008812181,-0.0217190760128601,-0.105139462797728,-0.328306207040629,-1.49449674935945,-1.14118781750885,-0.0775728053895606,0.145582498825305,1.74589247454699,-0.0706768694453415,-0.385046025279027
83.555,-0.571349148459597,0.154029116868111,0.872988073421277,-0.0828468592232205,-0.0242135117798697,-0.0771652637342978,-1.02095260488524,0.327020497467666,-0.268277844635078,0.194759863896842,0.0889301855216093,-0.24301887213707,-1.16948705392911,-0.281866992969738,-0.0221128101554353,-0.106434560042702,-0.330015638519519,-1.51148667939933,-1.1210828500787,-0.0963001349975531,0.144685585595913,1.84503885373226,-0.050999110036465,-0.362342370066571
83.56,-0.56696937580434,0.162798509247518,0.864525457449398,-0.0858168175183436,-0.0290362192656948,-0.0854393178889752,-1.00771646721747,0.328649960448933,-0.259598017216968,0.188889267672774,0.0282275542359111,-0.243501064259,-1.14701611682057,-0.262831837107291,-0.0225731210699705,-0.10369954434247,-0.330953789596166,-1.5271706609376,-1.10023669399489,-0.114127263148457,0.142567524084903,1.93854893952116,-0.0317029667174847,-0.338550113516264
83.565,-0.563302889740771,0.168763522727941,0.856284574788309,-0.0846072621689442,-0.0347737339616708,-0.0932003115971974,-0.99504088948826,0.328906725595103,-0.250974760549568,0.186403228461169,-0.0291659190709878,-0.242528502481386,-1.12454605032983,-0.242371663308834,-0.0230424418206523,-0.0974839670958567,-0.331203370921082,-1.54161928728069,-1.07886473826341,-0.130302303048089,0.13979662598054,2.02523099714904,-0.0128351300776615,-0.313864690026808
83.57,-0.560417722369148,0.17188726834897,0.848266277166976,-0.0799354371203271,-0.0412923471663417,-0.100568347422724,-0.983234465963492,0.327690958346864,-0.242689614495489,0.186896700884813,-0.0829122625412678,-0.240422728269635,-1.1025154879985,-0.221031044351753,-0.0234407326844336,-0.0883358993213267,-0.330870271830194,-1.55482681781236,-1.05715712893671,-0.144171022998231,0.136860968308896,2.10420973251342,0.00566770089635357,-0.288505473428276
83.575,-0.558278159198115,0.172288411356079,0.840480459674315,-0.0724829015095314,-0.0483785330840077,-0.107594029104088,-0.972530273354229,0.324950039688004,-0.23493042176888,0.18999086553986,-0.132725605070549,-0.237504565917278,-1.08127694111057,-0.199303252056029,-0.0236807908508931,-0.0767581355503161,-0.330078628024894,-1.56671861196826,-1.03528113614233,-0.155175398136272,0.134148334265467,2.17492634119132,0.0239561491839738,-0.262720626564285
83.58,-0.556765808472448,0.170206998798491,0.832989574219988,-0.0628690963396968,-0.0557723274926779,-0.11425618980714,-0.963090944526339,0.320702482654,-0.227768146503963,0.195341402277339,-0.178381923417205,-0.234082879913778,-1.06110812775304,-0.177625497206429,-0.0236997716885425,-0.06319621370534,-0.328963983385209,-1.57716264984515,-1.01339548372929,-0.162874972430339,0.131943901201187,2.23713126985212,0.0422435419520994,-0.236793430857291
83.585,-0.55568548421948,0.165982675946545,0.825882314459863,-0.0516441532237424,-0.0632023967696252,-0.120476460685748,-0.95501394547676,0.315033085252471,-0.221167755772731,0.202635020381941,-0.2197274120347,-0.230447683681858,-1.04221577685279,-0.156351499240924,-0.0234728660091641,-0.0480397861073647,-0.327666428668962,-1.58598333393022,-0.991669147892197,-0.166966111258538,0.130406975814584,2.29086986176881,0.0607765225397033,-0.211042517743221
83.59,-0.554782285308789,0.160027786329491,0.819220740097629,-0.0392666639265072,-0.0703942650517807,-0.12612950646628,-0.94833400672448,0.308067841289323,-0.215032861244689,0.211611826135413,-0.256682872357901,-0.226860916858571,-1.02473791393578,-0.135724862875857,-0.0230097430653208,-0.0316000449654236,-0.326327282553126,-1.59297976130857,-0.970291008756071,-0.167276934412149,0.129543311544512,2.33645176415053,0.0797905063510807,-0.185817242173494
83.595,-0.553790232052747,0.152786697376266,0.81303454882301,-0.0260772142832684,-0.0770713587086689,-0.131051345634725,-0.943022709441383,0.299968787256526,-0.209245180008491,0.222096013208011,-0.289242826796523,-0.22354791738025,-1.00875266564403,-0.115891692617952,-0.0223566237078617,-0.0140810991040894,-0.325086833213192,-1.59794976817366,-0.949464609048483,-0.163757752551342,0.129225196934665,2.37440390152013,0.0994606307945364,-0.161494652613743
83.6,-0.552486720457278,0.144697052268802,0.807345246644652,-0.0122930565737983,-0.0829701826785445,-0.135056458159919,-0.938994284712163,0.290946030659959,-0.203682785664225,0.234004312844903,-0.317470305694057,-0.220694555662166,-0.994291397417446,-0.096933543702397,-0.0216015511593475,0.00442499928174669,-0.324080242277583,-1.60071323929735,-0.929396209761373,-0.156487522474294,0.129255576490717,2.40541859170961,0.119868561240745,-0.138472522483577
83.605,-0.550734736719646,0.136166709018318,0.802194868732174,0.00197347885782684,-0.0878619848515906,-0.137963557141479,-0.936126124103768,0.281270682697998,-0.198223572103624,0.247330735341361,-0.341487352194118,-0.218448902713103,-0.981359576577273,-0.0788933866704203,-0.0208657919587792,0.0239192244379721,-0.323431472252471,-1.6011281582242,-0.910279072874348,-0.14566622623417,0.129444324049026,2.43030415749083,0.140992558495712,-0.117155532913519
83.61,-0.54849028700667,0.127567986705818,0.797665028481022,0.0166773144137795,-0.0915760621013915,-0.139626059036652,-0.934285193992383,0.271269853077332,-0.192740468103092,0.26211017118277,-0.361462831883495,-0.216924583633494,-0.969956342953456,-0.0617839563664391,-0.0202837930461967,0.0444558306504891,-0.323244779024033,-1.59909917735288,-0.89228241970964,-0.13158846352214,0.129657897094073,2.44993745443068,0.162722161275683,-0.0979461566201814
83.615,-0.545764393784042,0.119233229454581,0.793846703059032,0.0318073781057912,-0.0940145150048262,-0.13995522806478,-0.933339031090417,0.261281195311299,-0.187111283884068,0.278386387566775,-0.377601345685203,-0.216203403181801,-0.96006968173277,-0.0455683514114338,-0.0199884697579197,0.0661073858642368,-0.3235980406981,-1.59458152053518,-0.875562554075806,-0.114644173843479,0.129789995698907,2.46521823306998,0.184879421574033,-0.0812371925208828
83.62,-0.542591355866394,0.111436628390094,0.790780532567995,0.0473853796069334,-0.0951450739725737,-0.138923788432875,-0.933149536352982,0.251597474251525,-0.181249509019821,0.296218192544016,-0.390131698772014,-0.216336436746692,-0.951656655082316,-0.0301405792177312,-0.0201058195067162,0.0889673191609008,-0.324543568137896,-1.58758263012943,-0.860280808501883,-0.0953466243983053,0.129698973218267,2.47702737197612,0.207217455844416,-0.0673899015527324
83.625,-0.539043549152023,0.104375058611736,0.788442225266557,0.0634759237212053,-0.0949817002741796,-0.136558244771452,-0.933573126586039,0.242455036474452,-0.175122221857519,0.31570063996468,-0.399291527612324,-0.217346461384862,-0.944645113761203,-0.0153543181068233,-0.0207405778838916,0.113166908703217,-0.32611279977898,-1.57815992646451,-0.846589218896556,-0.0743229243136249,0.129236820494093,2.4861946195483,0.229409300416027,-0.0567004741598172
83.63,-0.535256004574486,0.0981700372768965,0.786791901849572,0.0801692165699007,-0.0935708059132245,-0.132937081493198,-0.934478864111356,0.234058891366638,-0.168731143670524,0.336953689510033,-0.405312366939189,-0.219232547067597,-0.938960690758389,-0.00107933860949565,-0.0219444826915352,0.138860797752943,-0.328316594514624,-1.56641409785171,-0.834584989447538,-0.0522336063686617,0.128356082087859,2.49347856422683,0.251068847586902,-0.0493811869010143
83.635,-0.531401018628695,0.0928935332692025,0.785818420771374,0.0975407615416258,-0.090991237173716,-0.128197416337711,-0.935764125258034,0.226586942082418,-0.162078568596975,0.360078573577233,-0.408410968954222,-0.221973631145883,-0.934538319141943,0.0127940988900594,-0.0236997465349654,0.166182119021937,-0.331140120589588,-1.55248070917453,-0.824289583748758,-0.0297047341434892,0.127137766918966,2.49955314858554,0.271803856424523,-0.0455725664583255
83.64,-0.527603281374353,0.0886004669619932,0.785502237621927,0.115637596757283,-0.0873549804352374,-0.122528042591641,-0.937354046565738,0.220136524087181,-0.155160575588884,0.385138243420124,-0.408783741610335,-0.225529662054236,-0.931293403579053,0.0264196052380647,-0.0259418661724326,0.195222517967984,-0.334541313539692,-1.53651824106354,-0.815687739434873,-0.00736911669627534,0.125692106629611,2.50499881273166,0.291252189927386,-0.0453554342949561
83.645,-0.523821826432431,0.0853617609998591,0.785833260607094,0.134532175024714,-0.0827796352882663,-0.116124337901609,-0.939248022364736,0.21467313299362,-0.147892155469487,0.412214731849311,-0.406597401238448,-0.229841344185709,-0.929094526200002,0.0400242222687735,-0.0285873654236662,0.226088476929344,-0.338459957600629,-1.51869043944696,-0.808772190722444,0.0140708084095186,0.124077571314074,2.51030193190409,0.309074942292739,-0.0487232097018661
83.65,-0.519993491338626,0.0831652868141718,0.786765889674603,0.154378316490914,-0.0773492791231169,-0.109140998683494,-0.941455228916944,0.210071394048347,-0.140213024667332,0.441476961507386,-0.401977340601516,-0.234834109812197,-0.92779190459127,0.0538174761214633,-0.0315297219601835,0.258967049415849,-0.342830144246724,-1.4991515703862,-0.803519232885958,0.0339253313296415,0.1223529129419,2.51586184964442,0.324943626395624,-0.0555452464595476
83.655,-0.516327583107846,0.0817950731008162,0.788085187443578,0.175349087241736,-0.0711251544247498,-0.101711253158496,-0.943832441362078,0.206219551422031,-0.132338347155166,0.473120261905801,-0.395003557454307,-0.240430427217487,-0.927267072293095,0.0678923520890739,-0.0346227260061343,0.294063639657185,-0.34758233287164,-1.4780439383712,-0.799828963376247,0.0516717170115497,0.120667914534802,2.52200177542849,0.33856553243754,-0.0655904408642327
83.66,-0.513126451663221,0.0810054695610469,0.789560568146238,0.197524759511204,-0.0641879668606341,-0.0939947302823841,-0.946190319241206,0.203052629820646,-0.124539204659811,0.507239677649945,-0.385717929712908,-0.246558247281034,-0.927425440850363,0.0822732711727493,-0.0376890206122802,0.331476262693454,-0.352636538433591,-1.45549831333172,-0.797530557541247,0.0669512875421629,0.11924382733217,2.5289801760578,0.349726703898522,-0.0785907528818188
83.665,-0.510490430542306,0.0806821360163905,0.791065724069695,0.220899356811917,-0.0566306727870256,-0.0861632361960599,-0.948436953507739,0.200481622763692,-0.116899160830924,0.543828690492764,-0.374132940439441,-0.253146593899612,-0.92815210145751,0.0970136609721259,-0.0405498946654812,0.371196985149747,-0.357902267822884,-1.43162471300005,-0.796442442129117,0.0794497584569261,0.11827949213617,2.53699934843147,0.358302316445859,-0.0942579916844949
83.67,-0.508399841984444,0.0807577228909642,0.792501708605077,0.245450458350541,-0.0485228186659176,-0.0783592563601305,-0.950519746074127,0.198370089888766,-0.109432052296588,0.582856214200253,-0.360234889728357,-0.260121247880779,-0.929305895959171,0.112181247419879,-0.0430390888821601,0.413190246376739,-0.363287042953356,-1.40650218026735,-0.796389662898214,0.088884419253488,0.117914746301425,2.5462103410039,0.364239876575314,-0.1122605865029
83.675,-0.506847026254279,0.0811628862671227,0.793827008874431,0.271142487840419,-0.0399198829007071,-0.0706933863101027,-0.952381842683922,0.196591932752199,-0.102140473061771,0.624268785131047,-0.343986367582272,-0.267407493021224,-0.930743836914574,0.127798592092551,-0.0449911635659697,0.457395081915219,-0.368701412966546,-1.38017793348806,-0.797174861826363,0.0950831005976069,0.118252350515513,2.55671694189723,0.367551406664383,-0.132228868567003
83.68,-0.505834317769305,0.0818595012846324,0.795081210967007,0.297900138216857,-0.0309016180817821,-0.063250601934814,-0.953970133672313,0.19506159414301,-0.0949877331915148,0.667947304395144,-0.325330991852276,-0.27493191465959,-0.932333788486057,0.143838364815529,-0.0462403335685998,0.503682264123635,-0.374058572578597,-1.35267092709246,-0.798577542933817,0.0980052639489774,0.119359882267462,2.56858069708912,0.368314302512138,-0.153787943411505
83.685,-0.505341097466329,0.0828410487966717,0.796338277281469,0.325591580174343,-0.0215851637707823,-0.0560910295361092,-0.955241872534103,0.193737195880901,-0.0878875190928668,0.713681388696732,-0.304200876817771,-0.282622849455849,-0.933959013524218,0.160230198669449,-0.0466456269532579,0.551829591063027,-0.379275758302206,-1.32397473209137,-0.800392721280891,0.0977054791156804,0.121242649764916,2.58182341719823,0.366663705295831,-0.176578865449428
83.69,-0.505328268885966,0.084120273680477,0.797690090788941,0.353997395620933,-0.0121120758505083,-0.0492711219376329,-0.956166346497647,0.192622954999948,-0.0807175038991645,0.761146757325343,-0.28052807010366,-0.290413101871074,-0.935521482700475,0.176848441842898,-0.0461030733570773,0.601500432891777,-0.384278898559151,-1.29406198421235,-0.80245268973639,0.0943151028700525,0.123827967654067,2.59642494603576,0.362776996368739,-0.200262622381974
83.695,-0.505760351954925,0.0857491298531411,0.799257615695499,0.382795060330773,-0.00264881433587824,-0.0428568715972823,-0.956722884549546,0.191756065388461,-0.0733589459021999,0.809890595546823,-0.254255624969739,-0.298240463543244,-0.936939835211655,0.193514575211097,-0.0445310361632835,0.652230063131832,-0.389005803376083,-1.26289204797406,-0.804617343581355,0.0880483239436642,0.126967820807507,2.61232326123948,0.356858209046425,-0.224527073561896
83.7,-0.506606333538014,0.0878303655353428,0.801170266087217,0.411581211307146,0.00659794919109563,-0.0369079824067163,-0.956902715385956,0.191200670702433,-0.0657167859877565,0.859341241518508,-0.225345259129361,-0.306043975778533,-0.938151700560822,0.210012123140729,-0.0418712703690188,0.703435899983833,-0.393406264298548,-1.230420323569,-0.806779694355079,0.0791877160551226,0.130441060903998,2.62941906339329,0.349121078484147,-0.24910035177535
83.705,-0.507828909011303,0.0904980815137102,0.803524031253161,0.439886473897833,0.015391211175752,-0.0314754589679628,-0.956714032307959,0.191059744749384,-0.0577123828258842,0.908824390183606,-0.193785984839793,-0.313760898319628,-0.939121744243223,0.226087754730918,-0.0381102485404454,0.75443413320609,-0.397441954904587,-1.19660906211793,-0.8088884357775,0.0680515587053055,0.133963610922327,2.64757708234663,0.339768309380751,-0.27375431647575
83.71,-0.509377922861987,0.0939112919221664,0.806368579691668,0.467173802902479,0.0234931855940902,-0.026618036547225,-0.956183116108409,0.191470668832343,-0.0492862370809829,0.957575002971112,-0.159604457384592,-0.321325675580168,-0.93984146050222,0.241452111777801,-0.0332848984707739,0.804452187432606,-0.401086485635298,-1.1614384198446,-0.810946234354555,0.0549813364281052,0.137219136749819,2.66662657606819,0.328974456744682,-0.298299346770331
83.715,-0.511181397746356,0.0982589251041545,0.809705583890887,0.492857409553517,0.0306853956296572,-0.0224001733589991,-0.955350309229562,0.192580327117301,-0.04041340990053,1.00476162051511,-0.122873206532526,-0.328668483122749,-0.940320242010483,0.255797341402343,-0.0274771384383937,0.852653759632459,-0.404324012175971,-1.1249141670145,-0.812992780815853,0.0403347922660997,0.139893878658532,2.68636626858479,0.316878011546854,-0.322580709460005
83.72,-0.513142808967601,0.103741468686509,0.813477166393427,0.516340457657001,0.0367873631436471,-0.0188783303644769,-0.954261641124984,0.194524930713566,-0.0311141477281918,1.0495282496857,-0.0837160519581826,-0.335713828222163,-0.940574543827261,0.268818080135962,-0.0208152356260926,0.898181394171654,-0.407146883258186,-1.08707230690769,-0.815095029510142,0.0244590623758526,0.141704353292746,2.70656541492101,0.303580727326671,-0.346470161996046
83.725,-0.515153722349157,0.110541578894458,0.817575080083488,0.537050910007351,0.0416744384409658,-0.0160929411203921,-0.952956384818834,0.197413546056334,-0.0214567752918201,1.09103861430002,-0.0423091804482776,-0.342381027341064,-0.940612502106731,0.280228376024722,-0.0134716068825252,0.940201212130408,-0.409553398688571,-1.04797985905616,-0.817331401856436,0.00766296200930012,0.142420577516696,2.72695911742212,0.289154626891988,-0.369848914649857
83.73,-0.517106017453841,0.118802063702235,0.821867111245801,0.554474364166446,0.0452763078737721,-0.0140556625799643,-0.951456749661197,0.201304638817275,-0.0115563582285084,1.12851201366569,0.00112523063038422,-0.348587359274284,-0.940417476326606,0.2897783316935,-0.00564916105294579,0.977939208980449,-0.411546452824891,-1.00772722324624,-0.81976670150377,-0.00979405447373832,0.141888035266016,2.74725009436117,0.273657698738396,-0.392588472709514
83.735,-0.518884131501292,0.128603718602273,0.826193431199995,0.568186005670807,0.0475628633806598,-0.0127288803528018,-0.94977142690315,0.206174391462266,-0.00158100402219773,1.16125455394408,0.046330982142521,-0.354253092758289,-0.939945560066182,0.297263539620104,0.00244076661636658,1.0107130691028,-0.413133183615691,-0.966412894478936,-0.822433860826329,-0.027693086898143,0.140059689967164,2.7671198864444,0.257157339174616,-0.4145343153034
83.74,-0.520342378159837,0.139925384657115,0.83033289523925,0.577890566289028,0.0485482133765435,-0.0120054218018119,-0.947915009726568,0.211876384141556,0.00822829264333361,1.18870765267428,0.0930267579509128,-0.359305369814704,-0.939140221392738,0.302519146869887,0.0106058897272855,1.03798148395307,-0.414324006846305,-0.924129469884585,-0.825332830689585,-0.0458353140352794,0.137027139425308,2.78623146112888,0.239764195427257,-0.435495292354951
83.745,-0.521312603538939,0.152582144182553,0.834010381174417,0.583468268960676,0.0483204109206224,-0.0116993283633073,-0.945922415596245,0.218118182257644,0.0175509983948095,1.21051812638407,0.140906851967652,-0.363681301553783,-0.937945288910419,0.305406007653871,0.0186924216637708,1.05941486654929,-0.415131911812106,-0.880959196965422,-0.828443266611214,-0.0640356395806606,0.133005842392056,2.80421206311511,0.221669664067424,-0.455237839378801
83.75,-0.521663470405214,0.166187398393783,0.836974151950436,0.584989324096697,0.0470557215541537,-0.0115602177760082,-0.943841017903536,0.224489440781124,0.0260160712813619,1.22657968138668,0.189642508326989,-0.367335532535407,-0.936303795657717,0.30580180811669,0.0265843092138238,1.07493623237382,-0.415576408863632,-0.836977041502447,-0.831733984267059,-0.0821284254880755,0.128273643061454,2.82064042682624,0.203165406373351,-0.473483380507043
83.755,-0.521356196264871,0.180183820397113,0.839064975443756,0.582678353584666,0.0449888136345369,-0.0113043647689556,-0.941715818216012,0.230520533080431,0.0332398836929615,1.23701019323541,0.238891925307309,-0.37025259899579,-0.934155071410365,0.303600752638446,0.0341927719109908,1.08469643622842,-0.415692414476104,-0.792254707959746,-0.835159736595265,-0.0999538216086109,0.123121841256717,2.83506303781764,0.184636833814842,-0.489913354400634
83.76,-0.520451364532267,0.193913458642197,0.840208601689424,0.576863505155269,0.0423670315066921,-0.0106406421418602,-0.939593936010517,0.235722342487624,0.0388345984602835,1.24210123383128,0.28831396343467,-0.37245753624864,-0.931447980002341,0.298719893348782,0.041456064498831,1.08902125046762,-0.415538893728715,-0.74686380044884,-0.838653658029195,-0.117317237157329,0.117861966455929,2.8470297462985,0.166545048100836,-0.504185244959562
83.765,-0.519085435779113,0.206666024067648,0.840369298775394,0.56795077476646,0.0394305878395369,-0.00928690640190241,-0.937552691287041,0.23959441376957,0.0423937734299852,1.24229588351067,0.33757772295353,-0.374018393068668,-0.9281717655131,0.291107115477859,0.0483565130924389,1.08838729100326,-0.415201787615549,-0.70087892430663,-0.842126140417956,-0.133941002140107,0.112868443989264,2.85612233968007,0.149418219293764,-0.51595898491776
83.77,-0.517451398458031,0.217699962435977,0.839546808058368,0.556424716962494,0.0364238832416195,-0.00698874651065159,-0.935721209096155,0.241632493688299,0.0435009963551927,1.23820298409564,0.386364652809488,-0.375041129054352,-0.92438105651658,0.280747995074539,0.054935152096318,1.0834348112424,-0.414791412930729,-0.654384503019617,-0.84547827607231,-0.14944403996423,0.108569606540442,2.86196291413352,0.13385407361104,-0.52493311890146
83.775,-0.515799059768527,0.226287715201758,0.837822594036304,0.542838753571356,0.0335996113003944,-0.00354370192696632,-0.934266363664958,0.241378440449333,0.0417794032712293,1.23059694294219,0.434367342116196,-0.37566420626815,-0.920195707866554,0.267674059569321,0.0612760265673813,1.07496512851847,-0.414440639349634,-0.607490445448548,-0.84862780743979,-0.163372121323467,0.105350636033444,2.8642193288859,0.120499349108806,-0.530883663863253
83.78,-0.514439687611629,0.231805788660992,0.835385814431025,0.527773971442518,0.0311935855790414,0.00117461103712863,-0.933363882913712,0.238504409311018,0.0369425270504941,1.22036848207863,0.481290948700441,-0.376054970053742,-0.915793178397419,0.251964542589613,0.067471106947756,1.06388764250979,-0.41430507878231,-0.560354232548276,-0.85153126594726,-0.175239565184485,0.103465571618752,2.8626269683234,0.109988596317833,-0.533696093438745
83.785,-0.513730883066362,0.233834686969832,0.832515151100209,0.511788347219977,0.0293937648941759,0.00719770134969999,-0.933184842913842,0.232883435733705,0.0288183818799949,1.2084530443987,0.526854327120863,-0.376402487858454,-0.911411521977426,0.233732877319205,0.0735963274862543,1.05114457089868,-0.414559735324757,-0.513203198354683,-0.854193156271616,-0.184542477546021,0.103023162689047,2.85701709848052,0.102871215612572,-0.533391761637914
83.79,-0.514041354632118,0.232235541764718,0.829544206993841,0.495376474569973,0.0283202414658751,0.0144535413303552,-0.933888122068914,0.22463180528189,0.017366283928718,1.19576273110302,0.570786102009166,-0.37690477399056,-0.907349812483571,0.213118320536038,0.0796988984151732,1.03764041321,-0.415389738544849,-0.466354457272491,-0.85666591502312,-0.190769502259483,0.104002698219107,2.84733743253266,0.0995496076647973,-0.530152270462696
83.795,-0.515704524198448,0.227185410353323,0.826817586762964,0.478940106621133,0.0280163901345679,0.0227635869171811,-0.935604074867008,0.214126357311096,0.00270143015143855,1.18312559880837,0.612819122432866,-0.37775182854156,-0.903950539326208,0.190305973120775,0.0857849499753853,1.02418042679392,-0.416975914176524,-0.420226257433235,-0.859041433102288,-0.193441154963677,0.10626990587677,2.83366465691437,0.100230905785534,-0.524336166463424
83.8,-0.518965510949857,0.219166891100799,0.824646370148966,0.462770111112739,0.0284547360849454,0.0318378886331072,-0.93841023677092,0.201984712302841,-0.0148837443241564,1.17123962979436,0.652688654820591,-0.379106423064987,-0.901561856349838,0.165554801455893,0.0918116856247308,1.01142600948128,-0.419476654139017,-0.375331385843685,-0.861431537715976,-0.192169633039797,0.109601300525902,2.81620990874614,0.104898428048356,-0.516479763102361
83.805,-0.523931398214632,0.208923146915863,0.823287982508557,0.447038310948525,0.0295488229214332,0.0412767064320894,-0.942302496286296,0.189004778177153,-0.0349124166862597,1.1606383516419,0.690134261021826,-0.381087113492109,-0.900484684608465,0.1392019876791,0.0976895789782661,0.999863904837285,-0.423010355577496,-0.332253202380771,-0.863939269767506,-0.186723949342548,0.113722026249363,2.79531123627223,0.113309313690685,-0.507277821226076
83.81,-0.530535635461697,0.197382067945089,0.822950530762031,0.431793516208489,0.0311542748746741,0.0505910070685825,-0.947171997082555,0.176073650184238,-0.0567339384791836,1.15165722733725,0.72490355921881,-0.383758337926981,-0.900918129696108,0.111649699077344,0.103288065017848,0.989777591346289,-0.427643112538355,-0.291611420494516,-0.86663207573179,-0.177095929462265,0.11836091525771,2.77140830135902,0.125019840265224,-0.497543306292108
83.815,-0.538524217797843,0.185542349804379,0.823793700854053,0.416961357367253,0.0330575902803305,0.059242149852992,-0.952803471097522,0.164055270736822,-0.0795588642459893,1.1444054812578,0.756758751240972,-0.387130659091613,-0.902920608786118,0.0833582089837296,0.108438892624889,0.981225003848285,-0.433384778215708,-0.254019092979139,-0.869531175627236,-0.163557900540691,0.123310170313676,2.74500697002983,0.139438568656368,-0.488144491062063
83.82,-0.547467684374471,0.174330111285519,0.825902798673312,0.402354121912874,0.0349695120347093,0.0666890972729577,-0.958901538039507,0.153667134045037,-0.10252678002103,1.13876300522369,0.785488308008551,-0.391171036980865,-0.906398150153601,0.0548567560076574,0.112952901686256,0.974041665352122,-0.440194112027828,-0.220030244379781,-0.872615775842401,-0.146684264649607,0.128450976147736,2.71664598649836,0.155900262791692,-0.479922239405094
83.825,-0.556795706421292,0.164471603278543,0.829255888620652,0.387704597042482,0.0365437844129761,0.0724298926552488,-0.965136279930528,0.145372880144463,-0.124794382106357,1.13442678723809,0.810923399214545,-0.395816978724562,-0.911120908093115,0.0267537511071735,0.116660834946155,0.967892597751218,-0.447988942361556,-0.190085355353942,-0.875833033161842,-0.127314654480697,0.13372341317548,2.68686848563679,0.173741034841979,-0.473605638651998
83.83,-0.565856139655621,0.156427509780769,0.833737127525964,0.372722888529619,0.03741712362467,0.0760377975949545,-0.971191191813045,0.139338415729707,-0.14560376311189,1.13099901657972,0.832953443563169,-0.400989681592345,-0.91676226598153,-0.000293017733317706,0.119450014272533,0.962364008029514,-0.456658187825898,-0.164468835316959,-0.879120544826776,-0.106474845510854,0.139057174861942,2.65619614959543,0.192353904980541,-0.469745940235738
83.835,-0.573994833725718,0.150392728684628,0.839194932669476,0.357138411637636,0.0372428142654299,0.0771892429376095,-0.976798928176833,0.135472616241342,-0.164309323029217,1.12806020709878,0.851535237110284,-0.406608575789926,-0.922949674872687,-0.0256410978204931,0.121267684934953,0.95703724017467,-0.466077147358909,-0.143289779937523,-0.882447378565978,-0.0852974386320594,0.144288199722552,2.62510797138377,0.211212275929667,-0.46867420616294
83.84,-0.580629034613191,0.146350640447039,0.845479045360844,0.340706017920048,0.0357072213244773,0.0756747691696541,-0.981758974104141,0.133511959632269,-0.180390953507825,1.12519745409676,0.866695980752332,-0.412607389835344,-0.929310504548476,-0.0487123384649165,0.122101056775371,0.95151507501295,-0.476124466510783,-0.126485972657192,-0.885853117318005,-0.0649674498627106,0.149098637248754,2.59402751011313,0.229858137348593,-0.470476980306078
83.845,-0.585291733073627,0.144163984939583,0.852429306193152,0.323204652824319,0.0325420596864908,0.071403660904633,-0.98594774725549,0.133097642950063,-0.193478876077903,1.12201872673468,0.878534012889568,-0.418945569885948,-0.935507778143368,-0.0690217328013795,0.121965326016004,0.945432458984964,-0.486694989802758,-0.113840359382072,-0.889456683556482,-0.0466689543559599,0.153037289635469,2.56331578085562,0.247871935014538,-0.474983019766728
83.85,-0.587642442532656,0.143658151011693,0.859855247710757,0.304450430795263,0.0275468799054669,0.0644155749799738,-0.989336339146562,0.133827463983723,-0.203372079124689,1.11817601188818,0.887215917546505,-0.425611078804512,-0.941275346150705,-0.0862222651504208,0.120915994548401,0.938476416689595,-0.497705292652887,-0.104999503076865,-0.893436779433312,-0.0315024246153521,0.155620707764164,2.5332608625102,0.264859637137907,-0.481766035978523
83.855,-0.587456608679996,0.144660216503801,0.867538107421727,0.284314228349724,0.0206244681592167,0.0548933020349453,-0.992002108523227,0.135289447193225,-0.21002916997951,1.11338626905714,0.892963448398604,-0.432616876892109,-0.946444698942563,-0.100141395402335,0.119063556537214,0.930405219852932,-0.509093726904287,-0.0994940173502963,-0.898016475605935,-0.020416249278169,0.156407495112701,2.50406343812431,0.280469979937465,-0.490172480849424
83.86,-0.584627762229073,0.147001265600478,0.875240528583917,0.262732895948911,0.0118139911874119,0.0431617829268857,-0.994104936073916,0.13709707120857,-0.213545827462436,1.10744334639727,0.896034092992474,-0.4399951137555,-0.95094098962553,-0.110748466502588,0.116555974846505,0.921058931980833,-0.520818476386829,-0.0967645043512913,-0.903469153639873,-0.014220361244763,0.154966540601545,2.47582646094564,0.294408949000191,-0.499360831057402
83.865,-0.579197999381392,0.150517470027107,0.88270053819636,0.239716305030797,0.00130531168549136,0.0296624547623116,-0.995837445920027,0.138935782386104,-0.214145957433285,1.1002305984451,0.896710281256403,-0.447789584835082,-0.954755636358266,-0.118084470579098,0.113537107897605,0.91036949777049,-0.532854373185219,-0.0961888320114048,-0.910122871064369,-0.013649325743169,0.150828519938499,2.44855267198698,0.306422385666724,-0.508326559488848
83.87,-0.571384385504657,0.155073905057784,0.889619516664223,0.215352996027001,-0.0105636348619369,0.0149095464492913,-0.997389005466365,0.140602350659144,-0.212187752045288,1.09173555648831,0.895300088287972,-0.456045519995961,-0.957928557523481,-0.1222532773499,0.110124590151786,0.898372037436476,-0.545187397880389,-0.097106250396946,-0.918335691595033,-0.0193701551215798,0.143543848092813,2.4221490994131,0.316268085575866,-0.515912435366066
83.875,-0.561569703852921,0.160594724956506,0.89566688852322,0.189809864688382,-0.0233160723661024,-0.000548678572986024,-0.998934696221919,0.142015854244639,-0.208159467716528,1.08205010210227,0.892135758744193,-0.464798455878437,-0.960546687216517,-0.123474277930717,0.106422733327695,0.885202336207658,-0.557807227828808,-0.0988418368227735,-0.928445534442406,-0.0319109954696291,0.132805463170866,2.39643775290215,0.323714421009247,-0.520830285158772
83.88,-0.550273414544637,0.167059376995473,0.900500806373096,0.163323486687477,-0.0363500808422559,-0.0161557466052643,-1.00062640544233,0.143205600405449,-0.202649494693701,1.07135048971564,0.887564397040328,-0.474064312596157,-0.962734198299338,-0.122091373787791,0.102539800280813,0.871075532743202,-0.570698909376859,-0.100732194611492,-0.94072005429496,-0.0515994041822881,0.11851369625359,2.37116962771385,0.328565825907402,-0.52170746447647
83.885,-0.538133266690863,0.174458591842787,0.903791338265819,0.136186862913336,-0.0489611655890527,-0.0313798663570823,-1.0025771490953,0.144292924685405,-0.196306155416621,1.05987417986623,0.881942249977881,-0.48383067600526,-0.964627585066805,-0.118508097128517,0.0985849155870809,0.85626238726195,-0.58383433435165,-0.102143846560419,-0.955324153834746,-0.0785655494786835,0.10077082381535,2.34604009665984,0.330690635833683,-0.517140627108624
83.89,-0.52589205457949,0.182749645859774,0.905244197464934,0.108733828272101,-0.0603740421653542,-0.0457649494387157,-1.00485394853934,0.145469095206955,-0.189809235787884,1.04790448719951,0.87563938427471,-0.494049745077401,-0.966357805856139,-0.113135467885301,0.0946605719537199,0.84107349432694,-0.59716487454439,-0.10248002958784,-0.972301889976134,-0.112753988088837,0.0798743119489033,2.32070754346371,0.330042570043497,-0.505740704005082
83.895,-0.514369321905561,0.191836475979267,0.904630462895708,0.0813209553016181,-0.0697798624690763,-0.0589832671033175,-1.00748386827891,0.146968154659616,-0.183851812734239,1.03575616872671,0.869044766592918,-0.504634269862129,-0.968049696751331,-0.106396487447813,0.0908690616578102,0.825844526837564,-0.610616419194566,-0.101185255317574,-0.991563077841057,-0.1538900256972,0.056319159427998,2.29481425129913,0.32668202407306,-0.486177730429454
83.9,-0.504421079885802,0.201558181843153,0.901813741261428,0.0543088313748162,-0.0763790570351005,-0.0708789158718332,-1.01046201781768,0.149043281136082,-0.179116535578971,1.02375845159626,0.862563171130858,-0.515455889948176,-0.96982402165195,-0.0987286253761806,0.0873192135641393,0.81091923510776,-0.624086260966953,-0.0977555047115783,-1.01287502510232,-0.201433461028578,0.0307677399532139,2.26800375236986,0.320794840025839,-0.457236296498832
83.905,-0.496895572532093,0.211672787291087,0.896752778371596,0.0280463962268665,-0.0794253827245634,-0.0815119559509556,-1.01376030410555,0.151949737413082,-0.176244358966714,1.0122452573509,0.856608938720336,-0.526344355031362,-0.971795947510739,-0.090551533291005,0.0841205629184993,0.796640130413094,-0.637441282471621,-0.0917479466877579,-1.03586867691694,-0.254567565242304,0.00398957780477779,2.23993219468667,0.312699896427337,-0.41787379077785
83.91,-0.49258624782305,0.221856105073745,0.889485607820462,0.00286056918236419,-0.0782552950247516,-0.0912058223198736,-1.01734404220687,0.155929680830463,-0.175808707897262,1.00155770295899,0.851599972527488,-0.537087586696942,-0.974081751643767,-0.0822440410482063,0.081382148067732,0.783351978904219,-0.650518177655653,-0.0827854741352854,-1.06006052382531,-0.312217123448243,-0.0231836032378899,2.21027799198689,0.302844492677632,-0.367270405894901
83.915,-0.492193010721202,0.231733376015428,0.880138886780992,-0.020948133223013,-0.0723004972874112,-0.100582732826646,-1.0211931184777,0.161198234831303,-0.178299769536526,0.992050861904502,0.847947053590324,-0.547432120356381,-0.976814517353063,-0.0741483756862539,0.0792332230298719,0.771410072183151,-0.663124911915198,-0.0705622895614962,-1.0848741549309,-0.373060705055275,-0.0498777044344681,2.1787525170771,0.291792624021275,-0.304874357072744
83.92,-0.496280823741087,0.240935111232793,0.868989006047394,-0.0431021184430188,-0.0611065180408784,-0.110574244506989,-1.02532789063264,0.167932595900284,-0.184090356609828,0.984099748397349,0.846038119290287,-0.557081714126813,-0.980153893257958,-0.0665704053986179,0.0778542094022924,0.761188370478352,-0.675040834962372,-0.0548530818249499,-1.10965020384718,-0.435524573427813,-0.0752040733417648,2.14510609778897,0.280208950808559,-0.230452207919809
83.925,-0.50524830023501,0.249135446773522,0.856494519236956,-0.0633352584640831,-0.0443698210770223,-0.122405415650972,-1.02981512006957,0.176262680324317,-0.193412301884883,0.978106281971483,0.846221477863253,-0.565693673833844,-0.984281353832248,-0.0597641111652877,0.0774903195074438,0.75308956144119,-0.686015090680589,-0.0355206447163829,-1.13366078328484,-0.497792603285102,-0.0983139318001147,2.10912408762961,0.268837690486718,-0.144145045746688
83.93,-0.519341138870055,0.256040001747701,0.84322573528306,-0.0813784557095336,-0.021975529892422,-0.137565542181677,-1.03472818262282,0.186267111828435,-0.206394226328631,0.974509034900112,0.848789091023218,-0.572875297248733,-0.989384161148179,-0.0539124928776323,0.0784337786046596,0.747558882224625,-0.695765986918235,-0.0125182876852443,-1.15614796508195,-0.55787360872821,-0.118464092412923,2.07061951101374,0.258473071470928,-0.0465150590300041
83.935,-0.538646646622263,0.261367582181983,0.829806616598235,-0.0969467417845073,0.00598156352318606,-0.157786968700926,-1.04012513408116,0.197990225235216,-0.223060775423657,0.97379861370186,0.853960484446302,-0.578181493234438,-0.995639870364381,-0.0491264498174994,0.0809887116890201,0.745104137501312,-0.703983048073089,0.0141118740745443,-1.17637944974594,-0.613703378096718,-0.135064785631483,2.02943121795121,0.249919657035791,0.0614354525122122
83.94,-0.563064596945784,0.264862719719969,0.816920417697855,-0.109736190664528,0.0391871803455906,-0.185037878987873,-1.04606172959397,0.211476257189885,-0.24327917667852,0.976526609740961,0.861866926209747,-0.581114204625734,-1.00321126259965,-0.0454783609759946,0.085441288294874,0.746309289939907,-0.710330851896492,0.0442399751589524,-1.19370184441401,-0.663224480144247,-0.14769849663562,1.98542905453948,0.243947645577594,0.178270576926193
83.945,-0.592325163417311,0.266326568687899,0.805289537036949,-0.119439012489203,0.077100036341996,-0.221513238505966,-1.05258057969303,0.226786685321969,-0.266764574764355,0.983287972539448,0.872534785889949,-0.581125824858728,-1.01224290167353,-0.0430401985704712,0.0920490126943683,0.75182123245488,-0.7144534553023,0.0776460872454477,-1.20757579998138,-0.704430069385325,-0.156128064051765,1.93852493826922,0.241249688910541,0.302138844084775
83.95,-0.626019415192392,0.265661562474296,0.795641967120678,-0.125762843162566,0.118945662518203,-0.269597229182997,-1.05968791834583,0.243987202435924,-0.293113391117595,0.994688007205368,0.885872414116694,-0.577625056444167,-1.02284501233714,-0.0418833051957919,0.101046353562532,0.762321145423047,-0.715978635528433,0.114019669827974,-1.21759084777866,-0.735401489186833,-0.16031182562436,1.88868541708286,0.242402351998235,0.43079495526219
83.955,-0.663603479907387,0.262905685623057,0.788675860271028,-0.128441781194308,0.163709448024928,-0.331787589927459,-1.06732977348488,0.263119140886608,-0.321826976828869,1.01131215040167,0.901665987778039,-0.569983541211951,-1.03506405960177,-0.042062460148347,0.112638642303543,0.778498371403283,-0.714522497243028,0.15296541286769,-1.22348423946651,-0.754386385509067,-0.160418608685893,1.83594047499679,0.247831059975757,0.561629314105372
83.96,-0.704387226882665,0.258247966464707,0.784972340874376,-0.127234891266595,0.210136155809757,-0.410594106861131,-1.07535439006105,0.284167852948477,-0.352362234758199,1.03371401141826,0.919577409743106,-0.557544243751983,-1.04885091907039,-0.0436314423837318,0.126970732841963,0.801041421185588,-0.709698625191039,0.194006243508731,-1.22517611789329,-0.759924129052791,-0.156815386712776,1.78039004880798,0.25777549995258,0.691727821966483
83.965,-0.747548376484816,0.252051293083954,0.784899781893855,-0.121899271861761,0.256754583143628,-0.508415731034757,-1.08348962119686,0.307054997364288,-0.384182554549366,1.06244156915807,0.939136020280305,-0.539629449967819,-1.0640475097342,-0.0466706932008036,0.144092926471192,0.830665848151435,-0.70113439657975,0.236575699148006,-1.2227895248972,-0.750947191190021,-0.150023447778093,1.72221194575856,0.272263543169536,0.817974001335896
83.97,-0.792198026199659,0.244872179035662,0.788601362070569,-0.112166191860414,0.301925447779175,-0.62740492096109,-1.09135977284999,0.331669348934675,-0.416745797412755,1.09805672819543,0.959737504695064,-0.515552021641187,-1.08039851408743,-0.0512760348491194,0.16393778757748,0.868134247255627,-0.688489762105589,0.2800161516262,-1.21663614906974,-0.726820537527075,-0.140688457497127,1.6616737080748,0.291105312973195,0.937165179453098
83.975,-0.837443063179327,0.237446981931425,0.796038008802126,-0.0977606378930175,0.343891027021439,-0.769335950926882,-1.09851269231953,0.357898472960741,-0.449455835630148,1.14109303713474,0.980664124590751,-0.484637966484338,-1.09756756940264,-0.0575313892641123,0.186297742719457,0.914212148342795,-0.671474029838233,0.323596392084457,-1.20719475586962,-0.687380606238794,-0.129580570511436,1.59914549407784,0.313898982965351,1.04612022754385
83.98,-0.882400847756738,0.230648318142903,0.806996571067749,-0.0784494293686813,0.380821306787111,-0.935487383938608,-1.10443289364402,0.385634805205162,-0.48164266708892,1.1919772306514,1.00111273442148,-0.446258863586252,-1.11515256943291,-0.0655264242542103,0.210801423429345,0.969584595203068,-0.649861980395468,0.366531957180613,-1.19509874747686,-0.633001114786501,-0.117572532521582,1.5351062182456,0.340036597729189,1.14179399355769
83.985,-0.926181414480719,0.225445685201421,0.82105682997055,-0.0540933049357123,0.410874270937521,-1.12654212753375,-1.10856668373687,0.414758332255075,-0.512563965643423,1.25094719676091,1.02021439343347,-0.399869601756869,-1.13271058681911,-0.0753911098419061,0.236911276082473,1.03476649793011,-0.623509841318686,0.407995548051425,-1.18110845612222,-0.564631967861606,-0.105578200714713,1.47014252024797,0.368718954377938,1.22140374450793
83.99,-0.967868536271423,0.222882133220544,0.837571631138618,-0.0246897971762575,0.432289775017618,-1.34248771401834,-1.11037071162954,0.445091443975685,-0.541413648162461,1.31797427560708,1.03705101324648,-0.345049069819266,-1.14978069257874,-0.0872751406795779,0.263961322728731,1.11001557085236,-0.592368803483493,0.44713038035298,-1.16604684817333,-0.48378584328159,-0.0944908471077938,1.40494233238377,0.398989654567316,1.28254847897029
83.995,-1.00653926090387,0.224034550012031,0.855707718476095,0.00961337083901959,0.443502960502167,-1.5825100977817,-1.10935663176159,0.47634154469252,-0.567365340905393,1.39271660694234,1.0506793609037,-0.281536634323725,-1.16589089714585,-0.101280299546901,0.291225211794955,1.19527502201592,-0.556494181005469,0.483076697052699,-1.15070836446774,-0.392481694316083,-0.085135367654883,1.34028107181943,0.42978326729097,1.32330790678002
84,-1.04131941580298,0.229948234947452,0.874525328419738,0.0485460713655327,0.443232221180023,-1.84491327677442,-1.10511933756048,0.508069247946873,-0.589643470888543,1.47453241404441,1.06016336609678,-0.209254035654098,-1.18056067283891,-0.117403949203,0.317982832123735,1.29017535481985,-0.516048667053031,0.515005831959442,-1.13577234590854,-0.293157644707207,-0.0782241783072885,1.2770018526104,0.459978369841692,1.3423135724323
84.005,-1.071414842149,0.241576553402365,0.893017642942958,0.091770389502512,0.430535572762057,-2.12708635864511,-1.09736237287505,0.539699163692135,-0.607567804917246,1.56253646926137,1.06461045833393,-0.128312979804171,-1.19331558634684,-0.135521086657291,0.343552358490565,1.39407872080176,-0.471299769248677,0.542155052849284,-1.12175429312448,-0.188593665769482,-0.0743105789475704,1.21599125822861,0.488451256234078,1.33879202890035
84.01,-1.09610871672817,0.259733186161264,0.910102409859885,0.138934662099627,0.404873389254507,-2.42551046030907,-1.08592348966153,0.570551906532311,-0.620573682782236,1.65565366318272,1.06320799016808,-0.039019561292742,-1.2037100045256,-0.155390172515877,0.367295343688307,1.50611918224095,-0.422613763278864,0.563861705953007,-1.10899456607052,-0.0818546379141637,-0.0737428730218436,1.1581512811577,0.514132089033451,1.31259358030307
84.015,-1.11477033359751,0.285052318974926,0.924629787372277,0.189724884409698,0.366180500072749,-2.73580129445905,-1.07078523752462,0.599872532706569,-0.628258657213911,1.75266690464514,1.05525907762833,0.0581236388817218,-1.21133970953401,-0.176652620410077,0.388634482948269,1.62523630690108,-0.370447399865241,0.579594293057146,-1.09765521834206,0.023796390446835,-0.0766463898796792,1.10436944216176,0.53606034334838,1.26421093002397
84.02,-1.12688237813277,0.317962068865758,0.935428648777926,0.243932889721146,0.314914145572766,-3.0527887484658,-1.05206398552032,0.626873286809333,-0.630441838307092,1.85229122588142,1.04021880051328,0.162428866766618,-1.21584375852105,-0.198825448165967,0.407080162863469,1.75023572438324,-0.315336719290117,0.588976247010475,-1.08772533674525,0.125031906676127,-0.082961598483493,1.05548587866768,0.553427090878381,1.19477740706463
84.025,-1.13206480764253,0.358655675425297,0.941369084118811,0.301528251636064,0.252060537521312,-3.37064112858339,-1.0299899603736,0.650816466603033,-0.627181804442277,1.95326021684145,1.01772868176289,0.273048448440531,-1.21691635766829,-0.221321106236955,0.422227350695575,1.87986403292051,-0.257881634393901,0.591797474602592,-1.07906164650497,0.218607065955201,-0.0925191089557292,1.01226013604716,0.565588280372744,1.10603971990635
84.03,-1.13007503983708,0.407057379503444,0.941412248003796,0.362694716694703,0.179106550300619,-3.68304625884926,-1.0049034741251,0.671086482493935,-0.618772302785837,2.05437859248357,0.987643940240673,0.38900272378622,-1.21433335957772,-0.243510949282156,0.433746126908982,2.01285228127879,-0.198725461162112,0.588011552113409,-1.07143623658729,0.301510192204254,-0.105035100530186,0.975348802252801,0.572047395066849,1.00030668410646
84.035,-1.12076307175659,0.462807282186823,0.934623837491177,0.427846850110871,0.0980025526082607,-3.98342150811919,-0.97725755315273,0.687179063454826,-0.605758222244315,2.15456337655422,0.950046014392693,0.509211461908231,-1.20797053440237,-0.264799963166155,0.441425585172206,2.14795350471154,-0.138534542255872,0.577731060969566,-1.06453814393623,0.371118387209737,-0.11996280651344,0.94529553147459,0.572460232501589,0.88037413613401
84.04,-1.10402315584088,0.52525325766447,0.920198060654302,0.497670946019374,0.0111282917973401,-4.26511024995161,-0.947599520339286,0.698672842997284,-0.588922857596366,2.25292838137982,0.905237733930534,0.632539451464865,-1.19781005603987,-0.284673618058511,0.445236678422638,2.28403206898174,-0.0779851743390321,0.56123241198368,-1.0579662992633,0.425343715223087,-0.136380875099397,0.922523395901858,0.566701665396666,0.749429386786699
84.045,-1.07981635253861,0.593406891110108,0.897574828724722,0.573145585522986,-0.0787639679427845,-4.52159173487876,-0.916555857450924,0.705287963604082,-0.569188388179205,2.34885908794933,0.853726994017881,0.757847980787844,-1.1839618340839,-0.302727881287694,0.445332529168881,2.42015002601036,-0.0177511675345507,0.538958554292615,-1.05127906437932,0.462770561110069,-0.153067310876577,0.907326064971791,0.554940281829105,0.610931815635332
84.05,-1.04822897495565,0.665869857898253,0.866618405041483,0.655460279845695,-0.16865431170372,-4.74675597222759,-0.884813320465087,0.706962923814724,-0.547472420744023,2.44198678852187,0.796201132935826,0.884031092378313,-1.16668271098462,-0.318687360123258,0.441994137617882,2.55555591365,0.0415199504303937,0.511504815790853,-1.0440837937858,0.48274066285087,-0.168691382182995,0.899857015642989,0.537668655913134,0.468461101505813
84.055,-1.00949321736027,0.740818324628337,0.82773960569775,0.745849838941709,-0.255420002813384,-4.93521718100378,-0.853063255807723,0.703841208042943,-0.524586645170353,2.53209304674794,0.733491573948797,1.01003317238677,-1.14634662251467,-0.332375283987702,0.435575126526664,2.68960422747424,0.099235470004497,0.479583634078727,-1.03611783043471,0.485309033116387,-0.182045708682712,0.900117248111734,0.515674810733652,0.325561273704015
84.06,-0.963982259820055,0.81610037463008,0.781902245329789,0.845426987895492,-0.336038744660766,-5.08258711084205,-0.821949008723436,0.69620408725544,-0.501202255627365,2.61903516562394,0.666534103729474,1.1348601628317,-1.12339258523058,-0.34366225444248,0.426468768596546,2.82169450429058,0.15487577960608,0.443974842550454,-1.02728885665496,0.471129131960189,-0.192210629454492,0.907955697585935,0.489951463878138,0.185622182394745
84.065,-0.912222433399566,0.889384529221001,0.730556133488529,0.955049958521567,-0.407778148993034,-5.18567174049874,-0.792046865790888,0.684421511602883,-0.477846752960075,2.70271141496597,0.596326704007824,1.25759140494377,-1.09830242769239,-0.352458053862764,0.415096055064169,2.9512503897763,0.208001973884252,0.405476737702032,-1.01766798344994,0.44137573361355,-0.198562289594458,0.92308802279674,0.461589260943741,0.0517905298533402
84.07,-0.854925530778173,0.958294063190625,0.675547056145776,1.07521556990095,-0.468354721230574,-5.24260330229937,-0.763856407188916,0.668921273253517,-0.454909713390311,2.78303771982036,0.523884151930972,1.37739012887406,-1.07159269107631,-0.358728003082397,0.401895434350174,3.07771118622788,0.258259671536217,0.364863122653886,-1.00745697332603,0.397678749563139,-0.20070874146657,0.945116667686266,0.431697138527963,-0.0731107556398699
84.075,-0.793016511035056,1.02052770683155,0.618998812755596,1.20597806362885,-0.516062193487746,-5.25291020726462,-0.73779042693566,0.650160984905127,-0.432656491642062,2.85992966040713,0.450195331365768,1.49350972474006,-1.04379725118609,-0.362495556092636,0.387301565027012,3.20052741628056,0.305378818082144,0.322846529575145,-0.996944938579462,0.342029713255828,-0.198448875492987,0.973544013263674,0.401346822560356,-0.186646108946697
84.08,-0.727641893367585,1.07397007585909,0.56317258562619,1.34689857442185,-0.549855605254823,-5.21752047251253,-0.714172422625139,0.628606266474597,-0.411249676254045,2.93328862929998,0.376188668838825,1.60529461488588,-1.01545448793974,-0.363848385190669,0.371729794589715,3.31915789791489,0.349169443638051,0.280051412698314,-0.98645698674438,0.27670274978368,-0.191742907297384,1.00778423394378,0.371533480272306,-0.286811756732907
84.085,-0.660143138675036,1.11678349537166,0.51031508749455,1.49702536101142,-0.569388171008006,-5.13870334394284,-0.69324416982915,0.60470133529178,-0.390783780899394,3.00298591625174,0.302703911030887,1.71217727215898,-0.98710401153833,-0.362955867257124,0.355583274894735,3.43306281312067,0.389517252677644,0.236996607474394,-0.976302583026427,0.204181598362909,-0.180657310765289,1.04717098596909,0.343156765503398,-0.372074800611728
84.09,-0.591989714199144,1.14746470263925,0.462499609455879,1.65491793086706,-0.57499297908515,-5.01994671272833,-0.67517277458059,0.578830919165929,-0.371322851432129,3.06886105893487,0.230467810977135,1.81367556720211,-0.959276446698987,-0.360070616140506,0.339253612309017,3.54170943965834,0.426376329053964,0.19408712550875,-0.966748795671659,0.127030774315379,-0.16533031298691,1.09095961980085,0.317029833509902,-0.441398895105943
84.095,-0.524710417894602,1.16485041430608,0.421501557350019,1.8187079814989,-0.567614321280963,-4.86578902708133,-0.660036975001607,0.551308344943605,-0.352921205395624,3.13073800333139,0.160075653202101,1.90938802927628,-0.932466403260927,-0.355503188259807,0.323080639897063,3.64459155871464,0.459754629293256,0.151610110471407,-0.958034055592404,0.0477286897213688,-0.146043170578009,1.13833669100477,0.293886680216421,-0.494233424740902
84.1,-0.459844597180216,1.16811301246047,0.388726432361262,1.98617112831518,-0.548725172982384,-4.6816382337719,-0.647808373698306,0.522386299816327,-0.335643150579539,3.18843832155048,0.0919834976773383,1.99898234752417,-0.907101082322455,-0.349591437313539,0.307317720740316,3.74123951074311,0.489696023945624,0.109725207564672,-0.950374571246594,-0.0314490808856445,-0.123301191165143,1.18843734113998,0.274347274968248,-0.530466886995617
84.105,-0.398876397530222,1.15678761926252,0.36515104215977,2.15481835698045,-0.520238917250516,-4.47356618779517,-0.638369707334742,0.49225451564479,-0.319592763294389,3.24179519514766,0.026513228467417,2.08218437680015,-0.883530138615755,-0.342691157122343,0.292161841940619,3.83122864252495,0.516264594923844,0.0684606835128857,-0.943919278637093,-0.108461345544962,-0.0977622128195053,1.24035452511216,0.258878822950249,-0.550370861828087
84.11,-0.343129623826159,1.13078701762962,0.351267566285323,2.32201610083619,-0.484386075447186,-4.24806592552462,-0.631564077865912,0.461028802453951,-0.304921331583501,3.29067681664481,-0.036136185057966,2.15877492745733,-0.862042188268762,-0.335184011841836,0.277812627519724,3.91420059072129,0.539533707855822,0.0277317103167115,-0.938703320449792,-0.181498697875061,-0.0700909146033444,1.29314450504943,0.24781058901815,-0.554556900473434
84.115,-0.293663026377896,1.09036702928422,0.347073898947969,2.48510867157446,-0.443551627091199,-4.01180556942553,-0.627229590191746,0.428754313137086,-0.291800138859387,3.33500794554742,-0.0958794700649199,2.22859027835995,-0.842879909630456,-0.327468561541758,0.264491189187109,3.98988585603026,0.559579320094512,-0.0126281909830539,-0.934658309026293,-0.249007513801355,-0.0409111538709173,1.34584387101901,0.241380846935603,-0.54394345032136
84.12,-0.25121153305422,1.03608103767277,0.352133295507404,2.64152378710181,-0.400113610490822,-3.77140796225925,-0.625200900431799,0.395422805945871,-0.280388851280987,3.37478332191212,-0.152736822810933,2.29152026736181,-0.826233754040963,-0.319921190934402,0.252413985530797,4.05811710349986,0.576474138255196,-0.0528403105431991,-0.931665898908054,-0.309734391767546,-0.0108746511453935,1.39749587448716,0.239763787277128,-0.519713203097632
84.125,-0.216171285734265,0.968767753347515,0.365663199204609,2.7888665231538,-0.356321266417205,-3.53325048963907,-0.625301275329801,0.360999770323303,-0.270817787471294,3.41007717211554,-0.206822311129514,2.34750354353485,-0.812234965770021,-0.312855976574456,0.241773287058029,4.11883519245935,0.590280729228824,-0.0931673580534207,-0.929609374327013,-0.362722085239865,0.0192536573199473,1.4471780757201,0.243050762627891,-0.483256603587927
84.13,-0.188608350762085,0.889553339411855,0.386619357602076,2.92500685155757,-0.314205864818147,-3.30328124470314,-0.62735097285907,0.325469092202633,-0.263166204465146,3.44104953746446,-0.258331514298073,2.39652620431195,-0.800970174185299,-0.306513673522886,0.232745156919139,4.17209215892436,0.601048990720797,-0.133911163750645,-0.928385937427448,-0.407237696691435,0.0486114118376999,1.49402158763365,0.251205115579555,-0.436127271969104
84.135,-0.168278789647476,0.799828196854115,0.413783717218376,3.04814430694101,-0.275508695530226,-3.08687635598958,-0.631185034723071,0.28887844160326,-0.257427078756907,3.46793832869834,-0.307532879637686,2.43862503502824,-0.792496035137395,-0.301066126212526,0.225482064570982,4.21804434358289,0.608824220182218,-0.175408707564362,-0.927891346882851,-0.442730049553376,0.0763429777200882,1.53721831920419,0.264040561482225,-0.380024213676279
84.14,-0.154649962977006,0.701218675681411,0.445843889683295,3.15684317910711,-0.241630834332125,-2.88874257012244,-0.636662561339585,0.251348654706454,-0.25348665065243,3.49104127650756,-0.35476025006372,2.47388807996978,-0.786826638218633,-0.296599075035078,0.220074259598248,4.25693707167879,0.613657951157884,-0.218018376354039,-0.928025478859855,-0.468878907015646,0.101649018746692,1.57603471890046,0.281227922890107,-0.316769764472687
84.145,-0.146937835371401,0.595576719875674,0.481452057029241,3.25006133198596,-0.213602440513242,-2.71283007650712,-0.643666395842573,0.213064382827378,-0.251131861880947,3.5107122154872,-0.40040089518513,2.50245150864341,-0.783915691864848,-0.293086129568877,0.216522223103297,4.28910082147392,0.615609698221695,-0.262100782232475,-0.928716901637175,-0.485635758129359,0.123767850476941,1.6098425896094,0.302291604008761,-0.248255738002048
84.15,-0.144177298182872,0.484952924254581,0.519289982449996,3.32717272491564,-0.192069879367595,-2.56225610609911,-0.652099333240203,0.174287590995017,-0.250061270585478,3.52736369479229,-0.444880459332382,2.5244969976804,-0.783667245948876,-0.29040257315905,0.214740651449292,4.31495255463648,0.614746063609602,-0.308003183872452,-0.929923361472919,-0.493159530395908,0.142012649362224,1.63814261168453,0.326597170538854,-0.176385109296709
84.155,-0.145293828254004,0.371539487249797,0.558140148493466,3.38796011146496,-0.177308546712102,-2.439268393374,-0.661883568728338,0.135369330901198,-0.249889489524871,3.54144689719882,-0.488651231551748,2.54024841407958,-0.785958653626744,-0.288368001344616,0.214569570830975,4.33497628947016,0.611148833932568,-0.356050752719672,-0.931609642559677,-0.491731676003059,0.155868783943342,1.66056136453334,0.353364974975669,-0.103043308494555
84.16,-0.149145309383701,0.257608585328984,0.596930334863595,3.43258269562539,-0.169254129350318,-2.34523695956969,-0.672965449643923,0.0967186609297389,-0.250160375975776,3.55341661762171,-0.532183086606037,2.54996381598238,-0.790640121075433,-0.286764590334942,0.215770335036997,4.34968890386975,0.604925841527215,-0.40653707881527,-0.933740495245582,-0.481774130117785,0.165041402441847,1.67684225555686,0.381711527529391,-0.0300806121909886
84.165,-0.154556304641887,0.145448784284017,0.634751247009276,3.46153950934639,-0.167537840977998,-2.2806472077934,-0.685316817716857,0.0587492277919477,-0.250375942876388,3.5637074402305,-0.575950689879762,2.55392171482965,-0.797517545156933,-0.285333429615289,0.218015609057634,4.3596138176422,0.596212225005783,-0.459707297047144,-0.936294769992413,-0.463931623689292,0.169433772007103,1.68685480756752,0.410690104104365,0.0407310859678884
84.17,-0.160370169605884,0.0372864572495135,0.670869693910665,3.47563000495942,-0.171525635374508,-2.24509854449502,-0.698929625786144,0.021839262914317,-0.250033356759289,3.57272093942576,-0.620416293021829,2.55240339131145,-0.806349774492817,-0.283788267668059,0.220898694509165,4.36526245092027,0.585163034968541,-0.515738329807927,-0.939274639953509,-0.439101926315418,0.169127111498273,1.69061389110926,0.439321992745334,0.107764450246999
84.175,-0.165507160202564,-0.0648028984909051,0.704740111883757,3.47590404644645,-0.180364588080937,-2.2373246290652,-0.713810580555945,-0.0136971125684196,-0.248662322007413,3.58080984632208,-0.666012475419928,2.54567384787296,-0.816863915322096,-0.281847591408502,0.223967851698735,4.36711183372088,0.571945145176231,-0.574723100759282,-0.942699523899078,-0.408398917784852,0.164383042154309,1.68828827121692,0.466631605933252,0.169598110436306
84.18,-0.169013377857277,-0.158978916538245,0.736011949848291,3.46360368554474,-0.19303265285764,-2.25523725414571,-0.729976494393995,-0.0476380443099258,-0.245859216448057,3.58825841872089,-0.713126732951086,2.53396346358228,-0.828771179243879,-0.27926526625656,0.226768124925201,4.36557873234657,0.556730503834431,-0.636659988062447,-0.946591832163675,-0.37310129336539,0.155639563408166,1.68019449800883,0.49168884264522,0.225062802802338
84.185,-0.170100773435047,-0.243709593267088,0.764541857032153,3.44010244993219,-0.208393988589567,-2.29598890366042,-0.747446928055516,-0.0798760912067983,-0.241312785106107,3.5952619420194,-0.762087421081892,2.51745099167211,-0.841777554364282,-0.275855844847596,0.228877225599862,4.36099335530787,0.539689924560369,-0.701445751343554,-0.950959249361445,-0.334599867087586,0.143487835468685,1.66678362088557,0.513653917456234,0.273274043539863
84.19,-0.168176521949044,-0.317832673074189,0.790405448578528,3.40684289788743,-0.225266311241794,-2.3560535463432,-0.76623712997129,-0.110425339104585,-0.234816344216957,3.6019027766938,-0.813151463747059,2.49624779391025,-0.855595425247092,-0.271514006284977,0.229931656009726,4.35357031860098,0.520988236822462,-0.768872124404983,-0.955780941434206,-0.294338555909205,0.128638247069933,1.6486258282222,0.531819138804051,0.313648820045257
84.195,-0.162861256339182,-0.380602841316739,0.813897266560056,3.36527104126797,-0.242494720202607,-2.43133050301277,-0.786357721657422,-0.139409925113976,-0.226266526469397,3.60812202122884,-0.866495128564149,2.47038397518371,-0.869960520574037,-0.266228707280721,0.229643421758356,4.34337637751447,0.500781474425096,-0.838626823869862,-0.960996276612568,-0.253754889026875,0.111906302340108,1.62639301650702,0.54564499406887,0.345906871213889
84.2,-0.153995451078962,-0.43171920818389,0.835517749894411,3.31676564019704,-0.25902338563131,-2.51727428127617,-0.807820440553344,-0.167044359359185,-0.215653402762673,3.61368449056805,-0.922208208627932,2.43979705933759,-0.884647265022763,-0.260085072563353,0.227813411487001,4.33029364300119,0.479217470554033,-0.910295257524677,-0.966494485037686,-0.214220689922823,0.0942050644294618,1.600839367355,0.554801587023,0.370058068463771
84.205,-0.141629154562315,-0.47132171559614,0.855933940538763,3.26256947866534,-0.273959579311691,-2.60904274764915,-0.830637172277747,-0.19361561523837,-0.203051239953237,3.61814402584424,-0.980290426798714,2.40432514171288,-0.899469523694829,-0.253237176496681,0.224339243287618,4.3139851396128,0.456437985790466,-0.983362788447216,-0.972127767586301,-0.176990495539877,0.0764638152487248,1.57278136119256,0.559206242027158,0.386377577170687
84.21,-0.126009677565141,-0.499945407652612,0.875920222113388,3.20373748249602,-0.286622635161995,-2.70165212881797,-0.854806370902197,-0.219449270277178,-0.188614359328778,3.62082722622366,-1.04064890901769,2.36370854026544,-0.91427480531953,-0.245872384171812,0.219209485828387,4.29387930030315,0.432577375750453,-1.0572254435525,-0.977744960955892,-0.143152874667329,0.0594989050983952,1.54307515428589,0.559021639827308,0.395376068287951
84.215,-0.107583113365609,-0.518438469511811,0.896315209263765,3.14110161940801,-0.296582866593113,-2.79013279492042,-0.880301447486388,-0.244847550985566,-0.172569533190616,3.62083069594127,-1.10309764594915,2.3176008135964,-0.92895022835632,-0.238201734286102,0.212492365972059,4.26916934307401,0.407760897501367,-1.13121003594184,-0.983206426893559,-0.113566319317652,0.0439568655501837,1.51259059684653,0.554620906337759,0.39776175374294
84.22,-0.0869936173229585,-0.527866167340129,0.917983119569845,3.07524343668653,-0.303697899658582,-2.8696820614844,-0.907069442728717,-0.270022995671742,-0.155198665143392,3.61701559553349,-1.16735976103696,2.26558726014271,-0.94342806916959,-0.230451928625479,0.204325076936017,4.23881328481673,0.382108677616118,-1.20459514399085,-0.988380215422582,-0.0888093042846192,0.0303160366896921,1.48218656000479,0.546555509924995,0.394386070190713
84.225,-0.0650697601270566,-0.529414994899157,0.941744853268061,3.006476731444,-0.308132075984383,-2.93581211086432,-0.935028464704403,-0.295044173599147,-0.136819212270391,3.60800954545715,-1.2330697579011,2.20721133318426,-0.95767372957547,-0.222831788454724,0.194894554174096,4.20154376044492,0.355741831258143,-1.2766279245247,-0.993147249007681,-0.0691796989561433,0.0188672116560366,1.45269039860569,0.535523315983186,0.386185845828062
84.23,-0.0428129874066273,-0.524293860478285,0.96830157041805,2.93484354456144,-0.310347236845481,-2.9844916987338,-0.964058649327349,-0.31978633457767,-0.117770726286979,3.59222645710743,-1.29977347162793,2.14200912921594,-0.971672713095413,-0.215503887674121,0.184415378936157,4.1558964703213,0.32878684910241,-1.34653829248166,-0.997410426146065,-0.0547072485239821,0.0097044127225603,1.42487987175685,0.522323455217863,0.37413516719114
84.235,-0.0213894245794516,-0.513635652379917,0.998181133337799,2.86011958258673,-0.311074785766977,-3.01227447947449,-0.993998381516466,-0.34389068251529,-0.0984056383902943,3.56789469586339,-1.36692821806281,2.06954980417755,-0.985432796108393,-0.208579087516616,0.173120100232313,4.10024729919806,0.301381166470213,-1.4135544023678,-1.00109411522991,-0.0451498816985993,0.00277426344305341,1.39946374960952,0.50781157922556,0.359197818493276
84.24,-0.00210447408124508,-0.498415659313751,1.03168884915916,2.78182720065234,-0.311272418023068,-3.01640928128164,-1.02465327268731,-0.366749974071472,-0.0790789300009986,3.53309022209902,-1.43390517675199,1.9894799963356,-0.99898682985401,-0.202104666395077,0.161258904506528,4.03285426223633,0.27368075695687,-1.47691911775487,-1.00414185528911,-0.0400153661066981,-0.00205384525350748,1.37706179447167,0.49286968197731,0.342275548719215
84.245,0.0136607347168126,-0.479383295558128,1.06883433434999,2.69926195689538,-0.312052731394714,-2.9949305974704,-1.05580217868631,-0.387536870690413,-0.0601417142363201,3.48578912251869,-1.49999211797495,1.90157149867076,-1.01237421052649,-0.196028666115698,0.149104897021488,3.95191736288436,0.245864862435435,-1.53590160075314,-1.00652049069439,-0.0386244997408122,-0.00497519423649211,1.35819233387186,0.478384461901693,0.324166842400931
84.25,0.0245489672466415,-0.457000318343581,1.10925193114439,2.61155217676893,-0.314578291422492,-2.94670938248731,-1.08718600672887,-0.405266169669772,-0.0419388096829862,3.42396113971467,-1.56439650369017,1.80577308568259,-1.0256094393717,-0.190164530539808,0.136965235101829,3.85567633343667,0.218132247208791,-1.58980636205337,-1.00822687183291,-0.0401623805000301,-0.00630918060074505,1.34326563446851,0.46521027105622,0.305543322530468
84.255,0.0293222896410768,-0.431422414788909,1.15217724145043,2.51775242957775,-0.319937394703066,-2.87145530467069,-1.11850012889504,-0.418844846359924,-0.024787467615543,3.34569802495721,-1.62625367171999,1.70226264586588,-1.03867541558379,-0.184190873673107,0.125176928972433,3.74253911172078,0.190691279497051,-1.63798893858393,-1.00929158406626,-0.0437011556865299,-0.00652924394888837,1.33257062430723,0.454107684132818,0.286930206297915
84.26,0.0269289558378772,-0.402547024470541,1.19649979613116,2.41693042421144,-0.329023727777648,-2.76970613830484,-1.14940781932414,-0.427096541589884,-0.00893232336415369,3.24933185870585,-1.68464276893718,1.59148723369522,-1.05154607921725,-0.177685515170706,0.114075637903588,3.61119648349736,0.163753383726461,-1.67987425680307,-1.00977788592076,-0.0482437219043959,-0.00619993156020302,1.32625931945464,0.445687823993384,0.268683728631125
84.265,0.0165725018544335,-0.370087642737422,1.24083690526333,2.308227953676,-0.342433455359683,-2.64282355267389,-1.17955312264885,-0.42881025487722,0.00549250112528491,3.13352403276912,-1.73860874193441,1.47418415332492,-1.06419649594189,-0.170157817633961,0.103963845526034,3.46070398613711,0.137531988328017,-1.71496698408747,-1.00977515635257,-0.052805467395813,-0.00590480609098664,1.32434211668109,0.440384722989691,0.250977983802923
84.27,-0.00220030040332174,-0.333650275425559,1.28359938189601,2.19092192565638,-0.360382436492005,-2.49296968939288,-1.20855716849628,-0.422835063373445,0.0184788110835336,2.99735021860369,-1.78718873271467,1.35138662883503,-1.07658608355725,-0.161065470783344,0.0950949039423094,3.29055617456564,0.112240538545639,-1.74285390349924,-1.00938826691464,-0.0564984393247977,-0.00622615854397383,1.32669132080695,0.438440654126091,0.233811557041028
84.275,-0.0294251312746795,-0.292828831794558,1.32308479081874,2.06449590843997,-0.382649851670855,-2.32305045724041,-1.23601282982266,-0.408188387195884,0.0301461647374336,2.84038927355735,-1.8294427475748,1.22441450299121,-1.08864431412782,-0.149843676063243,0.0876650049681973,3.10076112599045,0.0880874259805683,-1.76320369516853,-1.0087230716975,-0.0585855440379184,-0.00771968864181403,1.33304443541817,0.439893186971967,0.217030825083632
84.28,-0.0646913210208827,-0.247310982095471,1.35763231389162,1.92870699995407,-0.408564713133891,-2.13663241832147,-1.26150400591513,-0.384159977645893,0.0407210741951242,2.66279572790883,-1.8644897375249,1.09484625754993,-1.10027153896671,-0.135958920585487,0.0818138078436829,2.89189589207136,0.0652713169601473,-1.77576651917511,-1.00786902093444,-0.0585087159986343,-0.0108470154313352,1.34300599526909,0.444578129807612,0.200359923306025
84.285,-0.107118894920751,-0.196969990455486,1.38577662886628,1.7836489895255,-0.437050088698468,-1.93782662985494,-1.28461501546661,-0.350428166828676,0.0505043610499922,2.46535339493228,-1.89154902392809,0.964473474572463,-1.1113369015208,-0.118961142038568,0.0776303388845782,2.66514210943954,0.0439771469135614,-1.7803729168034,-1.00689205769655,-0.0559254233225068,-0.0159213443639306,1.3560527964801,0.452156706748038,0.18343560823792
84.29,-0.155326879149315,-0.141953561735127,1.40633530155265,1.62982253208133,-0.46671769853915,-1.73112354109519,-1.30489933201453,-0.307182512786881,0.0598417181494011,2.24952499949401,-1.90998411855629,0.835239981380745,-1.12166739126695,-0.0985237591300542,0.0751527016592888,2.4223173870542,0.0243681337131104,-1.77693179876032,-1.0058430652978,-0.0507514088949625,-0.0231072052935682,1.37154563460393,0.462150495929591,0.165858182320329
84.295,-0.207498467159027,-0.082785457579178,1.41850104645334,1.46819955457689,-0.495994389228594,-1.52119027317837,-1.3218936938303,-0.255205275848859,0.0690575846608703,2.01749199042811,-1.91934502150322,0.709165656651489,-1.13104459290188,-0.0744813117717936,0.0743663602067762,2.16589744351687,0.00657360243131599,-1.76543017781994,-1.00476565714629,-0.0431666595111234,-0.0324320334893273,1.38874427567933,0.473972511556421,0.147256116616132
84.3,-0.261543425054278,-0.0204551874068288,1.42193267619278,1.30025808040738,-0.523269977982111,-1.31266488718876,-1.33518191608381,-0.195895181426398,0.0783626883872404,1.77216583670996,-1.91940391382507,0.588257964537621,-1.13921633243827,-0.0468583436552056,0.0752096881008372,1.89901208620241,-0.00932230395649503,-1.74593734449255,-1.00369599715488,-0.033578431928197,-0.0437724743392161,1.4068239502763,0.486960833519225,0.12734649832862
84.305,-0.315256978342681,0.0435439902022343,1.41674885590721,1.12798030207351,-0.547042439217833,-1.10996298677796,-1.34443116916482,-0.13125427054026,0.0877828688486219,1.51716641010261,-1.91017955896125,0.474417620916842,-1.14591710636617,-0.0158874475021135,0.0775957591644819,1.62541200617718,-0.0232888754684173,-1.71861538356568,-1.00265395859277,-0.0225443813454805,-0.0568374598218057,1.42489250441784,0.500417480970189,0.105981131119212
84.31,-0.366472186617027,0.107243309414012,1.40345923736253,0.953817684335292,-0.566028663295863,-0.917093507880777,-1.34941499399348,-0.0638325022837198,0.0971109670608164,1.25676732849187,-1.89194947350118,0.369346081019077,-1.15088957040145,0.0179779996122978,0.0814436094878024,1.34940748129858,-0.0353526190564902,-1.68373795763859,-1.00162919987437,-0.0106634494822163,-0.0711962830028693,1.44200508891831,0.513651334862958,0.0831644363648126
84.315,-0.413227206422841,0.168287528054104,1.38288357930287,0.780621002454637,-0.579236966988905,-0.73748982640858,-1.35003195715312,0.00339964136579358,0.105887863144577,0.995799896741061,-1.86524852259484,0.274459513843621,-1.15389662986745,0.0540688838086248,0.0866706804341266,1.07577098098795,-0.0455962238527933,-1.64171543911755,-1.00059070960455,0.00148635684792751,-0.0863735816665336,1.45717896539307,0.526012224106415,0.0590402124852504
84.32,-0.45394401535196,0.224081945252659,1.35605173219669,0.611526991258892,-0.586006648128826,-0.573874526960396,-1.3463063707541,0.0672691181323025,0.113422024199208,0.739506339557284,-1.83084786240474,0.190810212100959,-1.1547281327052,0.0915254416926637,0.0931355002168349,0.809593322978783,-0.0541564505751805,-1.59311906984185,-0.999519125482852,0.0133254974123844,-0.10192953897112,1.46941290794661,0.536896875787469,0.0338780850731539
84.325,-0.487591569276718,0.272004233147526,1.32410494611646,0.449794274548971,-0.586015218715028,-0.428180264986346,-1.33838457877152,0.124685309624737,0.118849869155179,0.493329144437683,-1.78970977108581,0.119021568816892,-1.15321686513871,0.129331403341329,0.100595926788239,0.556080690038171,-0.0612196840288809,-1.53869363652757,-0.998415651799956,0.0242505764097555,-0.117442037384402,1.47771151145033,0.545747534517429,0.00807575682689496
84.33,-0.513756187795191,0.309679264802233,1.28820221144063,0.298603324606479,-0.579261788675777,-0.30152954622844,-1.32653306627664,0.17292109641144,0.121236161588881,0.262638783348424,-1.74292244393656,0.0592497738766528,-1.14925729282249,0.166378807061267,0.108723516098342,0.320296264973889,-0.0670103365042745,-1.47935147350946,-0.99728083014459,0.0336775777574901,-0.132478001427446,1.48111433050452,0.552074001169021,-0.0178429413917314
84.335,-0.532308051356785,0.335385847011857,1.24971838726006,0.160872219664077,-0.566020832878683,-0.194249860851221,-1.3113289345713,0.209874950671989,0.120085727924798,0.0524542465837134,-1.69162482600389,0.0111850604276486,-1.14281721545872,0.201572690104822,0.117143274049328,0.106900097913501,-0.0717737599818779,-1.41615028954227,-0.996093827479859,0.0411158603796519,-0.146629610470305,1.47872638135719,0.555478383584056,-0.0432519878114925
84.34,-0.543189634920387,0.348315132432296,1.21030761969796,0.039103424396587,-0.546770710685607,-0.105927857573172,-1.29368488262266,0.234291124017272,0.115667268411416,-0.13281627506133,-1.63692975030202,-0.0259083792281081,-1.1339524181554,0.233931311346205,0.125456487735799,-0.0800879268970404,-0.0757565175933314,-1.35025514382431,-0.994803562671845,0.0462088484613485,-0.159528597423626,1.46974683313189,0.555668547882827,-0.0674656377571726
84.345,-0.547390483980967,0.348216885136096,1.17079894830734,-0.0647725734114706,-0.522135776193091,-0.0355271697833333,-1.27405492750315,0.245797513349199,0.107712970949768,-0.289645109729245,-1.57985093886286,-0.0531253144481253,-1.1228212846865,0.262683560268342,0.133249562131668,-0.237534583046219,-0.0791853696923794,-1.28287860287959,-0.99334480789803,0.0487439397472055,-0.170876254398229,1.45349897338997,0.552481330557297,-0.0897846837539373
84.35,-0.547067665226279,0.335343245760555,1.13091159648991,-0.149510584027521,-0.492839176923603,0.0184668118698067,-1.25228538288768,0.244870708125665,0.0950651113323194,-0.415600226602989,-1.52124316402838,-0.0718277336683894,-1.10968130030291,0.287393537702605,0.140111390377896,-0.363386899056457,-0.0822510361063374,-1.21521143364163,-0.991688523782427,0.0486785105408145,-0.180626405215086,1.42945936789861,0.545876161673655,-0.109542621031753
84.355,-0.544042621780835,0.310998925433452,1.09059620231932,-0.21455484941551,-0.459635333841842,0.0579273521920348,-1.22852051519527,0.232851767720705,0.0774325446878874,-0.509412136339005,-1.46176306780582,-0.0835334897930533,-1.09487721388914,0.308027523753287,0.145656908412117,-0.456722479312594,-0.0851005636878052,-1.14836474502916,-0.989873420312929,0.0461555438124384,-0.18910483730469,1.39728146712134,0.535845984075614,-0.126156367616471
84.36,-0.539471353878325,0.277478553999897,1.0503682005512,-0.260007550942084,-0.423256080244891,0.0849621342187383,-1.20330222492204,0.21185946407254,0.0557605601550051,-0.570974329113619,-1.4018484130941,-0.0898053238656999,-1.07883936041661,0.324877373527093,0.149561340593225,-0.517737711989534,-0.087832367152425,-1.08331207562198,-0.987962069856654,0.0414531864196532,-0.196763221548143,1.35681570361252,0.522335142133812,-0.139170688366415
84.365,-0.53430038355107,0.23760697330193,1.01092785283528,-0.28664619786657,-0.38441391814885,0.101746015012973,-1.17720507074554,0.184578299850104,0.0315643148667106,-0.601379368954079,-1.34171404365668,-0.0921540163567303,-1.06207253048176,0.33843720782672,0.151610450820918,-0.547772779899616,-0.0904909524095224,-1.02081038199242,-0.985978286517319,0.0349146298937377,-0.203857116435108,1.30812564860174,0.505283537733993,-0.148280021950877
84.37,-0.529223523321197,0.194461914210638,0.973088582484038,-0.295925493371147,-0.343830953849995,0.110359814463771,-1.15077774507137,0.153945196737832,0.00671008630691815,-0.602906903132444,-1.28136919142994,-0.0919569352834192,-1.04511124142678,0.349352736233267,0.151729874558871,-0.549291240758126,-0.093069560917886,-0.961324119201535,-0.983914603622438,0.0269336887267284,-0.210503704520307,1.25149807257789,0.4847190666954,-0.15333325816452
84.375,-0.524624779794634,0.15111721499165,0.937647438558521,-0.289878647841369,-0.302242979707912,0.112696529358596,-1.12450239825034,0.122815359734076,-0.0168374245863417,-0.57885605139647,-1.22065580738606,-0.090394783770714,-1.02846255865445,0.358380356542681,0.149973874707494,-0.52571093258017,-0.0955246259330466,-0.904994684986988,-0.981773615887122,0.0179568274107573,-0.216901551907783,1.18744691995456,0.460755894690902,-0.154336532833539
84.38,-0.520638336568515,0.110396128472952,0.905322377891675,-0.270960544193034,-0.260384954586933,0.110417218314345,-1.0987753424118,0.0937421824536266,-0.037234241413972,-0.533282554477336,-1.15929841055129,-0.0884124994454728,-1.01256796029793,0.366257726550092,0.146505579863011,-0.481145517310213,-0.0977939252177216,-0.851651575519871,-0.979565342953935,0.00841928229354617,-0.223274214425692,1.11670955806464,0.433545099450935,-0.151447211337722
84.385,-0.517252095827005,0.0746628574916282,0.876752228549731,-0.241913556509132,-0.218989669615938,0.104913796832074,-1.07391320103551,0.0688420498151399,-0.0529159730117627,-0.470752958233763,-1.09695705281692,-0.086706698144592,-0.997781208605484,0.373543666824969,0.141582631286454,-0.420164539477338,-0.0998127896734416,-0.800836415380049,-0.977283533983225,-0.00134852154357886,-0.229677871542564,1.04023828693565,0.403289847077296,-0.144941076594152
84.39,-0.514369990744095,0.0456876225910034,0.852444065356307,-0.205647490887826,-0.178793511508484,0.0972847489616596,-1.05016110209868,0.049675983139541,-0.0627526849813646,-0.396114034095168,-1.03328139466313,-0.085734790393631,-0.984350643948153,0.380531695710055,0.135534372707357,-0.34756951321063,-0.101528622371454,-0.751841356722778,-0.974907311832363,-0.0111417876979513,-0.23598884585585,0.95918941391659,0.37029590020956,-0.135160824975961
84.395,-0.511838816309691,0.0245961110446989,0.832666014720417,-0.165084926383063,-0.140521892422237,0.0883480078965072,-1.02770253476987,0.0371565717863014,-0.0661984792486615,-0.314224213511424,-0.96796430206414,-0.0857369751972239,-0.972412355422739,0.387239671550181,0.128735694124697,-0.268134518888187,-0.102910421268398,-0.703777713912076,-0.972411712875348,-0.0208284303895801,-0.24199876135634,0.874901040604844,0.33498624546074,-0.122472787275617
84.4,-0.509463971293608,0.0118878402041623,0.817368172441555,-0.122961913846201,-0.104846134746277,0.0786988689690604,-1.00668189593169,0.0315114269490379,-0.0633778727169858,-0.22964421324626,-0.900790987212156,-0.086764704868694,-0.962000147190577,0.393428476361378,0.121587627486566,-0.186308099271664,-0.103947957368006,-0.655668512487838,-0.969768889960411,-0.030300057948564,-0.247452301707457,0.788854158323079,0.297887243285105,-0.107242063019417
84.405,-0.507047382253067,0.00747476701409926,0.806206897092786,-0.0816117288179024,-0.0723240824413838,0.0688046071666589,-0.987226768809655,0.0323507598478946,-0.0550459955265957,-0.146327619344481,-0.831680365676819,-0.088714304812441,-0.95306478828432,0.398608857472131,0.114483771647966,-0.105915484808588,-0.104640920252451,-0.606546851367036,-0.966956341731479,-0.0394651344486504,-0.252051191540718,0.702624845181137,0.259612467710623,-0.0898186821692442
84.41,-0.504475826833679,0.0107204975167195,0.798685180836114,-0.0428300676272676,-0.0433639195091437,0.0590692837375958,-0.969451917776266,0.03887290673165,-0.0424095413306767,-0.067422324885229,-0.760716260326446,-0.091370288798355,-0.945495506720979,0.40202144926831,0.107750757621056,-0.0299708955098399,-0.104988715158488,-0.555549053081356,-0.963979432125924,-0.0482669975719089,-0.255476651745121,0.617835873224973,0.220844700110908,-0.0705231105433368
84.415,-0.50178097099319,0.020557320106681,0.794275969713743,-0.00789597706478021,-0.0182393718193232,0.0498124912410516,-0.953461387012703,0.0500820822635267,-0.026931889960666,0.00473464571500363,-0.688166974901223,-0.0944557261261413,-0.939147690821944,0.402663359899006,0.101618497126813,0.0393183493422769,-0.104989508856133,-0.501997308563686,-0.960882740073076,-0.0566742819956473,-0.257419210547726,0.536108923456917,0.182313255181071,-0.0496289815279844
84.42,-0.499102040164633,0.0356878246120403,0.7924196735181,0.022367614686803,0.00288765632863139,0.0412462009211324,-0.939364208974239,0.0648708532450096,-0.0102405465545273,0.0685534100924651,-0.614493176509798,-0.0976725309298988,-0.93387638015377,0.399422859969196,0.0962563236214732,0.100480656330759,-0.104638257999406,-0.445466763685978,-0.95773483309601,-0.0646263512794934,-0.257597447596589,0.459016234516104,0.14476744902291,-0.0273634123090064
84.425,-0.496604140325515,0.0547480012843747,0.79254052388456,0.0475988927693862,0.0199741253714748,0.0335229894504562,-0.927291124713025,0.0820587368324661,0.00599638858116787,0.123179030016104,-0.54034285107988,-0.100725521609133,-0.929559252034141,0.391236833336188,0.091805980668489,0.152762013409499,-0.103916215014035,-0.38583131665818,-0.95461470511195,-0.0720069433977713,-0.255764944994939,0.388031788138852,0.108947699582578,-0.00393301800366237
84.43,-0.494447401813619,0.076374111586313,0.794145117727246,0.06787528937848,0.0330934802034305,0.0267794239947,-0.917382977967369,0.100501801365053,0.0202762464651563,0.168441475848816,-0.466530976214141,-0.103342610624287,-0.926101328429645,0.377188952998285,0.0883621952064734,0.196071623443916,-0.102785691253924,-0.32328426420028,-0.951622162337412,-0.0786897781852435,-0.251717817763384,0.324481406875776,0.0755569618667581,0.0204532788727634
84.435,-0.492819875972007,0.0992278840923815,0.796828867985806,0.0836012068494149,0.0424060276308059,0.0211216738381189,-0.909746328966229,0.119190664063177,0.03136054241046,0.204705677883543,-0.394004397919142,-0.105296300550359,-0.923435221368268,0.356592283345912,0.0859485563809408,0.230829834195559,-0.101198905433288,-0.258331847953698,-0.948891942857594,-0.0845929745361535,-0.245307901897118,0.269493908930781,0.0452341241209328,0.045585293033965
84.44,-0.4919248610453,0.122046207161497,0.800219786957866,0.0953763827300429,0.048143155717068,0.0165983299395299,-0.904427420389864,0.137270276475955,0.0383028237952385,0.232703809455828,-0.323795072348948,-0.106420137307326,-0.921524932622697,0.329092932752491,0.0845261790476712,0.257800666777688,-0.099112362868756,-0.191758759078149,-0.946587842556996,-0.0896879375102928,-0.2364469737129,0.223962688784081,0.0185304288792675,0.0712648325470596
84.445,-0.491925861061922,0.143709485065819,0.804000811562293,0.103894562828455,0.050608313084335,0.0131924346093856,-0.9014118776529,0.154034519407421,0.0405121150113363,0.253402109978025,-0.256963285235971,-0.106617215239101,-0.920364992919593,0.294756313248783,0.0840198445224905,0.277960330439226,-0.0964997413712431,-0.124569874778621,-0.944876881407927,-0.0939797186986312,-0.225093363257422,0.188521536647949,-0.00410838423642004,0.0973154036520137
84.45,-0.492912947554529,0.163296882961571,0.807932035046271,0.109859844465621,0.0501570739960975,0.0108270025506803,-0.900618875230279,0.168919630657161,0.0377789339434709,0.267880014806303,-0.194532640217029,-0.105862231818822,-0.919970573745403,0.254109979063175,0.0843429043766703,0.292378341850505,-0.0933631340592385,-0.0579166564356231,-0.943894863268661,-0.0974914096049605,-0.21122905365671,0.163527231418119,-0.0223499821342296,0.123583779666537
84.455,-0.494849236932484,0.180130558336015,0.811766876568604,0.113939309419623,0.0471808683848983,0.00938653923945363,-0.901895462399163,0.181464672200243,0.030224082697542,0.277248582155338,-0.137424725896676,-0.104195737217714,-0.920360396092081,0.208166222491625,0.085408601640022,0.302138635905793,-0.0897376920641987,0.00698894308152419,-0.943716506651651,-0.100273576865328,-0.1948409814984,0.149049978038038,-0.0359672751691043,0.149938394256704
84.46,-0.49754158400168,0.193796080263737,0.815185410248492,0.116796482887847,0.0421365061439532,0.00876942010686798,-0.905014896219086,0.191281047371106,0.0182309294592922,0.282670606713293,-0.0863992293419118,-0.101709897723516,-0.92153646351624,0.15840500965798,0.0871184441686929,0.308363750127847,-0.0856838570514858,0.0689742412222121,-0.944347882861095,-0.102433546867265,-0.17593714279288,0.144883813032941,-0.0448166834467075,0.176276700078841
84.465,-0.500722265754394,0.204115322682627,0.81790553073182,0.119139193158837,0.0355647867481614,0.00893940150377144,-0.909681785126527,0.198119335375885,0.00244087982282605,0.285399707705716,-0.0420005115953371,-0.0985334504860159,-0.923474772737287,0.106628478772341,0.0893427048159646,0.312257966009932,-0.0812779776338936,0.12700329931589,-0.945747082081787,-0.104135616385094,-0.154602007703063,0.150572708943476,-0.0488231050082478,0.20254343753641
84.47,-0.504150127520299,0.211098460039158,0.81982898654731,0.121656515207649,0.0280375250341082,0.00991339437828585,-0.915558677636743,0.201957971807797,-0.0162389892398158,0.286684754561038,-0.00452211448672719,-0.0948236793017444,-0.926131109818125,0.0547245266599558,0.0919246924553666,0.315014400295602,-0.0766164868716805,0.180242593056588,-0.947841367137083,-0.105553766517359,-0.131022035649535,0.165434451758584,-0.0479799241619404,0.22874168397047
84.475,-0.507608442115765,0.214913695209417,0.821009196931417,0.124903162155728,0.0200906220928279,0.0117156556495208,-0.922303096786874,0.202966090007877,-0.0367293174437557,0.287612445294677,0.0260018035884323,-0.0907606539213125,-0.929442899258911,0.00451932390502046,0.0947044538635909,0.317660134713087,-0.0718239019663115,0.228096161215526,-0.9505220230571,-0.10683405842193,-0.105479643309321,0.188586583276092,-0.042341064843756,0.254927898904882
84.48,-0.510876589595637,0.215847679940473,0.821550654072584,0.129274372700254,0.0122078718480021,0.0143685093986078,-0.929590831926464,0.201407431834376,-0.0579204425229064,0.289064050599426,0.0497876444253103,-0.0865367136628989,-0.933325415477304,-0.0422686354719657,0.0975276202744553,0.321016018135593,-0.067047924623578,0.270229766583953,-0.953658177774511,-0.108087079048192,-0.0784244561125652,0.218986388406644,-0.0320102915441139,0.2812037845577
84.485,-0.513770505044966,0.214241588637355,0.821612038400663,0.135025811178563,0.00481796943110891,0.0178892795873186,-0.937137206254114,0.197606530699023,-0.0787593791414199,0.291734753692524,0.0672832147273407,-0.0823461861645603,-0.937684672092644,-0.0841081784838731,0.100253620735626,0.325717296808061,-0.0624498801092781,0.306571191086168,-0.957133511678947,-0.109358133837692,-0.0505586866670532,0.255469792121806,-0.0171697837615345,0.307705782970895
84.49,-0.516189360080638,0.21044888653583,0.821442970101337,0.14226317472038,-0.00172728452917317,0.0222668634551805,-0.944731875928422,0.191929674725099,-0.0983050001272869,0.296117511838842,0.0791352892550154,-0.0783787970038592,-0.942444172009748,-0.119771036355123,0.102799130979357,0.332196641379925,-0.0581990921215725,0.337276910261463,-0.960849592515271,-0.110574223166251,-0.022760955931883,0.296775392349306,0.00187559080973231,0.334576641994581
84.495,-0.518131921832911,0.204815997288133,0.821388420856144,0.150936169717374,-0.00716913407047812,0.0274516168791648,-0.952257306175083,0.184759963992911,-0.115764897865287,0.302484463363742,0.0861452079913566,-0.0748122854995424,-0.947557137542916,-0.148417218065724,0.105179975939997,0.340664892415446,-0.0544650523921924,0.36268491418886,-0.964706476086443,-0.111539329254944,0.00407254552903695,0.341563131191303,0.0246957528911406,0.361919785878163
84.5,-0.519695460991961,0.197657852222845,0.821856409914639,0.160818826970573,-0.0113597313473483,0.0333450013510394,-0.959671997719092,0.176480183458951,-0.130517587676901,0.310848935939257,0.0892199861663486,-0.0718069527755096,-0.95299734785233,-0.169619374136368,0.107507104186484,0.35107309437622,-0.0514108890779353,0.383264494400128,-0.968607865524555,-0.111990486396189,0.0290994104881271,0.388439439723242,0.0507616256487017,0.389758770416837
84.505,-0.521003429631605,0.1892540233825,0.823179976940129,0.171499622968058,-0.0142694099193798,0.0397925084684299,-0.966983323655796,0.167395923392571,-0.142186159127682,0.32094463999595,0.0893239294818125,-0.0695033929350066,-0.958743675126603,-0.183290576725717,0.109958681550566,0.363091842369171,-0.0491883763062557,0.399564836874026,-0.972484193455202,-0.111630293315391,0.0514856757283445,0.435989482771895,0.0794647564394905,0.418014979871091
84.51,-0.522111701983589,0.179880841132496,0.825470345367663,0.182489575285475,-0.0159348502993566,0.0466273020782861,-0.974212584589923,0.157670901029679,-0.150706255875811,0.332355105064582,0.0874283844541048,-0.0680146157908732,-0.964763038767425,-0.189581756201796,0.112744024061002,0.376240152511435,-0.0479230340138393,0.412157671484135,-0.97631536254624,-0.110105125933303,0.0702916204703326,0.48280140781349,0.110100693530596,0.446490987612465
84.515,-0.523027976327663,0.169854682594017,0.82864056591647,0.193373086687855,-0.0163960111205185,0.0537247840085791,-0.981346888717988,0.147415207911741,-0.156271218969393,0.344697178430663,0.0844606810572569,-0.067413181502473,-0.970994590672816,-0.188876915116137,0.116058919328249,0.390066901669932,-0.0476957470671203,0.42156719295547,-0.980132150415236,-0.10701245869193,0.084485430519251,0.527476555833311,0.141808901522409,0.474849971199162
84.52,-0.523773539970759,0.159577518950012,0.832504386596213,0.203851558967454,-0.0156891096166479,0.0610112150283024,-0.98831608145432,0.136818783856647,-0.159215619930363,0.357667481333004,0.081259905136786,-0.0677224443600782,-0.977346123636219,-0.181853928785406,0.120056093337261,0.404196422220569,-0.0485345476715532,0.42821121480795,-0.983976557587061,-0.101973838795266,0.0932168731968194,0.568646740871105,0.173548728752822,0.502608694939709
84.525,-0.524381127839203,0.149557039647072,0.836817029694093,0.213724231057006,-0.013853132981201,0.0684616671718467,-0.994999997263254,0.126191693730455,-0.159933707791007,0.37100576154699,0.0785400058118642,-0.068912083281341,-0.98369696456114,-0.169485677414685,0.124833003946792,0.418295424308035,-0.0504121751443227,0.43238012671584,-0.987851206502397,-0.0947038925663972,0.0960951965295823,0.605008903764946,0.204178396233392,0.529160921694553
84.53,-0.524906447264473,0.140357013391375,0.841337147384734,0.222864560858544,-0.0109303553863143,0.076096669482607,-1.00122378666401,0.115972223781859,-0.158805372910559,0.384457117032846,0.0768631230667141,-0.0708963979138816,-0.98989351048713,-0.152948964911327,0.130409652064269,0.432041298524569,-0.0532451236770061,0.434244920515828,-0.991698498260011,-0.0850348440979215,0.0932017645646182,0.635367590488234,0.232579075111899,0.553818455482494
84.535,-0.525444903558876,0.132514720919165,0.845886025888978,0.231154901252608,-0.00700782211843179,0.0839354767780459,-1.00675596335582,0.106708465832431,-0.156145569184409,0.397697223289485,0.0766355267164735,-0.0735391297933508,-0.99574745960182,-0.133493224942894,0.136696694806964,0.445052500064475,-0.0568986000614129,0.433882046273781,-0.995409524930608,-0.0729294416169574,0.0849595676161595,0.658681513736336,0.257745060811376,0.575853423565138
84.54,-0.526042475595431,0.12650184009795,0.850261150164042,0.238441569329254,-0.00225453877042595,0.0919439850505684,-1.01134767818528,0.0989306412060793,-0.152255917112964,0.410298030009996,0.0781180187373675,-0.0766632962633886,-1.00105042429533,-0.112338913604502,0.143481468886224,0.456859214236466,-0.0611944091967019,0.431313609899197,-0.998848673610118,-0.0585066384933814,0.0720655501730245,0.6741072409852,0.278845922586049,0.594553140722225
84.545,-0.526595437953069,0.122719863801434,0.854132731897604,0.244603761241768,0.00312422894575003,0.100054214516507,-1.01478412658804,0.0930056679186681,-0.147503145691082,0.421839371782982,0.0814279408389226,-0.0800616956020604,-1.00559504018948,-0.0906390163561523,0.150448029905786,0.467021118916873,-0.0659180854441784,0.426550424425127,-1.00187754419861,-0.0420596010779366,0.0554572251142461,0.681032921918938,0.295284433122144,0.609298436041216
84.55,-0.526908155073023,0.121459356618866,0.85714455121066,0.24965121898202,0.00895443125500245,0.108225739052529,-1.01690721256152,0.0891287832335199,-0.142286215341654,0.432049926146016,0.0865379118077806,-0.0835101648080366,-1.00919298958964,-0.0694779052651904,0.15722591173138,0.475273425181232,-0.0708311667663785,0.419625640007141,-1.0043600033603,-0.0240364261947211,0.0362262529752966,0.679108273879847,0.306737764528959,0.619640917982759
84.555,-0.526842039876358,0.12281222572759,0.85911368190656,0.253713568076411,0.0150862613996262,0.116455341749655,-1.01762304423749,0.0874051147094046,-0.136931576345884,0.440811173167168,0.0932905700807844,-0.0867863628796181,-1.0116952725823,-0.0498667177492618,0.163445355214171,0.481532401098497,-0.0756918345683361,0.410620412471871,-1.00615845633677,-0.00498889660133168,0.0154975393342623,0.66827225366463,0.313171154445931,0.625346647821981
84.56,-0.526388360102118,0.126605393313398,0.860099705592733,0.256931784406313,0.0213376015278232,0.124717176424754,-1.01692001782158,0.0878853422384888,-0.131640520600235,0.448047810655844,0.101428152480691,-0.0896918760242485,-1.01301469818045,-0.0327248634027999,0.168779258743803,0.485784288705681,-0.0802786695190814,0.39968477095369,-1.00713416086155,0.0144749908320622,-0.00563859335782929,0.648770899203863,0.314827948286411,0.626405590085665
84.565,-0.525628742250473,0.132417427798244,0.86032087947363,0.259346850835092,0.0274629861577945,0.132889507108984,-1.01488995396168,0.0905171192180627,-0.126527377667809,0.453620550226469,0.110624446969532,-0.0920726297701728,-1.01313640670851,-0.0188465119756428,0.172968539536093,0.487975839297767,-0.0844106717056398,0.387058577795656,-1.00714541824384,0.0337117901729457,-0.0261202869842317,0.621158985012113,0.31222318776195,0.623028740538078
84.57,-0.524640292044879,0.139677847578023,0.86001034278125,0.260868617546394,0.0331709142200393,0.140737204720717,-1.01172315981131,0.0950507590466587,-0.121721457714146,0.457309175913075,0.120512847703668,-0.0938331856941574,-1.01210159655411,-0.00883498759349325,0.175825270006548,0.48799548737905,-0.0879600659144931,0.373094506904895,-1.006059324401,0.0520403405349348,-0.0449680921916461,0.586287207406802,0.306146973763451,0.615650110153774
84.575,-0.523452199581525,0.147769820832422,0.859328769738361,0.261363729168646,0.038172005672689,0.147985427371316,-1.00766986566885,0.101019064409503,-0.117433878935574,0.458923857648907,0.130710627272605,-0.0949423719098743,-1.00997900868813,-0.00305376639777098,0.177216244347398,0.485781668889371,-0.0908582198858051,0.3582715004046,-1.00377994348367,0.0687463154318102,-0.061416121684465,0.545284155706103,0.297627083005784,0.604936646714698
84.58,-0.522129424948915,0.156054095264978,0.858433880330606,0.260745400157664,0.0422126051702882,0.15439593863172,-1.00300062699705,0.107884068125005,-0.113883938457194,0.458410765037334,0.140841896125322,-0.0954331274727648,-1.00686171874212,-0.00166785649921191,0.177057920320376,0.481423063490562,-0.0930983409618956,0.343189613761108,-1.00025742347446,0.0831380803725041,-0.0749412218867603,0.499531155058053,0.287850483065593,0.591787348327065
