Header,foot_Accel_X,foot_Accel_Y,foot_Accel_Z,foot_Gyro_X,foot_Gyro_Y,foot_Gyro_Z,shank_Accel_X,shank_Accel_Y,shank_Accel_Z,shank_Gyro_X,shank_Gyro_Y,shank_Gyro_Z,thigh_Accel_X,thigh_Accel_Y,thigh_Accel_Z,thigh_Gyro_X,thigh_Gyro_Y,thigh_Gyro_Z,trunk_Accel_X,trunk_Accel_Y,trunk_Accel_Z,trunk_Gyro_X,trunk_Gyro_Y,trunk_Gyro_Z
61.375,-0.536976343702801,0.249362660061058,0.790036966280351,0.169070838451665,0.0764147626755698,0.0719759953021129,-0.934429223218938,0.171127909372766,-0.127295335190722,0.0543515562506475,0.336683745635706,0.215699630253932,-0.958142715803132,0.310444112496951,-0.0779703845275885,0.071030019162477,1.04020738214541,0.117946419011235,-0.855234318537006,0.0262372280185977,0.319856960447479,-0.294262164708233,0.187574342893962,0.0856491515303591
61.38,-0.531191407134813,0.253176440882158,0.781200067651431,0.186367893804008,0.0716068706556583,0.0667086960110384,-0.933635200287754,0.180358886840573,-0.133672404494361,0.0368213161975697,0.353507367408128,0.207844976744481,-0.972237671395583,0.29480585131468,-0.0714752766251538,-0.0264730775647516,1.01349298494794,0.0730845132861817,-0.870588165068311,0.0145262190577859,0.329469154536771,-0.323592908614996,0.221283361006092,0.0608504226908093
61.385,-0.539419528494701,0.248383974168978,0.781391611174874,0.185768950042862,0.0664990728507937,0.0619129244785653,-0.942867080738703,0.176429866833829,-0.13575666969688,0.00763859737719476,0.364305985719075,0.19464933991536,-0.984583884770167,0.288508348860801,-0.0714174338975528,-0.12862790187071,1.0012573582527,0.0364493665458996,-0.892412452575054,0.000842854705587632,0.330724453956382,-0.353722770813616,0.294302000365204,0.0364323810365028
61.39,-0.533445362663111,0.258089623725315,0.783133886823176,0.197145764897397,0.0593407261804426,0.0583101811637351,-0.952746461089393,0.16453508033293,-0.131946986497123,-0.0235338142456467,0.375457286834717,0.179756508707029,-0.994948037157542,0.258832049682508,-0.0700115453198953,-0.221696275242495,0.974739719356254,0.00568032983608013,-0.9103519985969,-0.00248428517072696,0.33656979494528,-0.371214562923787,0.353936784663563,0.0208285929041864
61.395,-0.535288092862005,0.251819500658876,0.791786733771832,0.177785937650349,0.062170004831462,0.0492662921335092,-0.968539096693142,0.154095075418336,-0.135025635887621,-0.0370899962373048,0.382086039379227,0.166514301713685,-0.999307936931296,0.223682828952065,-0.0705080562140201,-0.316307707358617,0.927267650038293,-0.0206996446977273,-0.922646605575244,-0.0111027496142539,0.345100132880154,-0.375820728594048,0.424608962323901,0.00382932957468189
61.4,-0.535011296149259,0.249261546518509,0.783807260246444,0.167252495859385,0.0683345023510521,0.049875685574719,-0.974177386186202,0.145434854811401,-0.133803895706725,-0.041215940954726,0.39302357586886,0.158982570593929,-1.01400627590202,0.198918620935543,-0.0796474831679305,-0.405694157061108,0.865362027973636,-0.0418457011895449,-0.936981903568089,-0.0296433319786955,0.348667517194778,-0.358661654077227,0.480567731537788,-0.0232928363931643
61.405,-0.533456407975372,0.237834547915534,0.792996676845256,0.156438132930171,0.0748021602630615,0.0526977791029489,-0.980570284644375,0.141902233484556,-0.145226068312741,-0.0418156329377199,0.396151064157016,0.155760111416277,-1.00594788899017,0.181219784065591,-0.0861932308064462,-0.478022358422755,0.815430458907628,-0.0577689558267593,-0.942803033415828,-0.0273706379427366,0.352902961437433,-0.353797584142567,0.518046172733969,-0.0473872484431416
61.41,-0.528974328632117,0.237226403546118,0.792246529367024,0.164309456333719,0.0775055069015493,0.051155343672079,-0.989989683194576,0.135506687636181,-0.157482360158589,-0.0400873473289792,0.407658012456633,0.14924737338341,-1.00963113878504,0.158762245665895,-0.0859644100473162,-0.481228413861643,0.764179072166598,-0.058932589084193,-0.941122408100973,-0.0336764336839673,0.347753660040187,-0.305804773245079,0.540134079115467,-0.0847683185612497
61.415,-0.532148006230683,0.222935020600824,0.792496174594215,0.176233180148172,0.0883606970141798,0.0570966030668404,-0.997259062890413,0.11369950170314,-0.158462036874184,-0.0326901497663721,0.415540537814328,0.141718899565277,-1.01590780170554,0.138638569217343,-0.0800440557024908,-0.448208114598021,0.73217944757382,-0.049819685393756,-0.943521005969515,-0.0361357024604531,0.337284536611415,-0.24573392709026,0.551404774188995,-0.124658601417906
61.42,-0.535230872200507,0.220806126129383,0.800032446197639,0.200467217053084,0.091905876994133,0.0670299809255098,-0.999232540238241,0.0930357246476863,-0.16235912269221,-0.0166970770395689,0.426200484750318,0.141336604952812,-1.02564275235766,0.0963173085642749,-0.0697421095110761,-0.357124623798085,0.698163401771777,-0.030401486621029,-0.934811735291619,-0.0321498175828199,0.333370330182226,-0.171764224031831,0.551404774188995,-0.166421138176193
61.425,-0.537521289660065,0.275164261474093,0.792249600013624,0.223339262756836,0.0950271246314243,0.0644147013183502,-1.00298610048769,0.079019537252123,-0.135563733760314,0.0368739613441226,0.446624192021898,0.133965527276233,-1.02374322153125,0.0660543900096105,-0.0577379443471009,-0.274576314555911,0.677962677913916,-0.0070558045099474,-0.947603161447342,-0.0220631539007112,0.323237234800899,-0.108713343476537,0.535166178141248,-0.201753539792715
61.43,-0.53295663445075,0.319583856248611,0.784183990631451,0.168699155526987,0.0938680519720322,0.0390719910401411,-0.994641831995214,0.0908635156825893,-0.0913380369524586,0.0913214264744902,0.484289926780744,0.144753967179028,-1.01875175132696,0.0262557827230824,-0.0456275362532266,-0.17564843030475,0.67939785150498,0.0181199370040517,-0.953642371503528,-0.00420144422536064,0.316159700613939,-0.0642888389078539,0.450615882791623,-0.221987672940578
61.435,-0.526700792014891,0.296948611840544,0.780505666166278,0.104095961323598,0.100722895400999,0.0136113584508885,-0.989749350450519,0.122055674959979,-0.0834911074394623,0.183546436652838,0.530336234765281,0.162483588222699,-1.01565691773843,-0.0117012281895664,-0.0461143337026021,-0.0447415268757806,0.69907047106067,0.0519889356188202,-0.952683113890611,0.0145829318511224,0.316528664310931,-0.0301892998726154,0.342923505861933,-0.214253495017037
61.44,-0.529825741290373,0.279184578450035,0.784373568701159,0.0902634402014659,0.116739579863841,-0.00349741600241783,-0.982247241232958,0.161142647581685,-0.138220079604365,0.296895484459842,0.554154430141816,0.181820161439126,-1.00794790383815,-0.0293058794023127,-0.0484915930729522,0.106689415790419,0.740338571560341,0.0934894353894889,-0.95465467425658,0.0205135351114834,0.320907944416019,-0.0158761598866881,0.166919863362103,-0.199757765367794
61.445,-0.542552053680984,0.281422542212056,0.774729109793683,0.0965027763233547,0.128556713461876,-0.0244718667826726,-0.985447016810011,0.171631661967307,-0.179602044840695,0.306092943271056,0.55226645637464,0.187429350841172,-0.990068583603159,-0.0365500601337239,-0.0653362927430776,0.244270343536196,0.795177456949751,0.127789504257355,-0.953643893762421,0.0126156932529218,0.322611008183655,0.0187483332748273,0.0111705065308431,-0.210946744013451
61.45,-0.540286449772123,0.258057772587174,0.781819863821012,0.0971521384483647,0.134865644122076,-0.0280696681501746,-0.990688498967673,0.173849866257658,-0.197578266628965,0.261065634714151,0.572632460481628,0.178283164787698,-0.983853645332378,-0.0403134331255081,-0.0866048052161697,0.42906009095008,0.861046228010383,0.179862802112512,-0.939899224097911,0.0244374882553056,0.316183492836157,0.0846767754723639,-0.112805707337055,-0.203258288355346
61.455,-0.53801983558598,0.251634094011423,0.785500433540648,0.132455423245168,0.149623713459193,-0.0333608496018349,-0.995295444584166,0.159406402949038,-0.192202577583707,0.236114869689493,0.591034183550779,0.171417640184349,-0.975861912529135,-0.0363156498796295,-0.110326740578809,0.572477459698346,0.912959595774204,0.214253472655367,-0.932279374815237,0.0350866534188859,0.313920820548635,0.149592078872269,-0.202327792659398,-0.171555838692387
61.46,-0.541677452634619,0.267412624924285,0.779165782298257,0.149614245633582,0.159987021081534,-0.042040712805732,-1.00459447206271,0.147906646939734,-0.194369035836151,0.223917393043977,0.594228330006391,0.167079928804274,-0.986498374419311,0.00252815948748928,-0.149876486096269,0.73451166450212,0.992685731202759,0.261704555038425,-0.918135854720413,0.0344230728375937,0.3035193468537,0.195623258205336,-0.241391935898301,-0.157842241617502
61.465,-0.541494527272452,0.250546930792519,0.78589464312484,0.134805720243294,0.181598519102358,-0.0415344758448176,-1.00820733195754,0.136425889178031,-0.206676224327092,0.221794631743893,0.591543638060174,0.158181301436272,-0.970282965488027,0.00675357299158242,-0.162176693860636,0.791989356446614,1.04336303710675,0.295908676383909,-0.901791660371485,0.0446046495551797,0.301807424915225,0.200502452725162,-0.204168959402958,-0.157218726063404
61.47,-0.558422697610028,0.259519842226153,0.761474432788487,0.143060867574197,0.188979580049581,-0.0488221536208112,-1.01018374596093,0.12838282800355,-0.219044706991905,0.218481836632012,0.582749707757358,0.16423466800103,-0.961671133433383,0.0146847329521275,-0.178898550900357,0.869208965723479,1.08917152965492,0.329590509444214,-0.901154629380875,0.0413221335876995,0.304575757732929,0.229518061744261,-0.125448834323148,-0.15691732758734
61.475,-0.597358724082119,0.219054482750022,0.781195219897897,0.0952542085129129,0.213486021149738,-0.0545914098620415,-1.00554938662928,0.111694253224149,-0.243548898832114,0.221632306651655,0.592512567346824,0.157777995489303,-0.959832854276207,0.0285191638330023,-0.185613641400993,0.946189211562179,1.11465951339636,0.342285406195147,-0.916157270289026,0.037246484964351,0.314388731409189,0.241187626557179,-0.0916676064520775,-0.172914661735566
61.48,-0.511802104731951,0.206687078947416,0.836624434226465,0.0853709099705797,0.210036490808318,-0.0442899286879921,-1.01004195851933,0.0962737613229299,-0.242113075438725,0.237403485765299,0.5907288120242,0.157155306983688,-0.965636651018134,0.0431083634943464,-0.191009774824819,0.976485943015708,1.11360995041116,0.333571785471789,-0.932377575782388,0.0437819911950908,0.331956654380481,0.238647222070337,-0.0994468361551222,-0.190454169516122
61.485,-0.468736643307004,0.284363335630047,0.794727475472055,0.147241413842381,0.199978577639767,-0.0293314468827808,-1.01341100904878,0.101449003196198,-0.188461741211847,0.22456014562411,0.595845504241642,0.16773066060001,-0.979579747282634,0.0506604516894726,-0.19230837113273,0.978572727070358,1.09716303614402,0.323483610699946,-0.939703040501219,0.0398554502272388,0.352195277974257,0.247745069544324,-0.168530027153607,-0.205799640543702
61.49,-0.518461091005003,0.291982500059117,0.797275100502754,0.133114447070112,0.257002990509327,-0.050969582558589,-1.01961637179439,0.129619570804845,-0.149371847592377,0.207874975507945,0.596930598673266,0.164496789256687,-0.988440765627168,0.068266700069951,-0.192996698146902,0.927153668076029,1.06710339267027,0.300304522711236,-0.92831969124101,0.0368139310060888,0.364787350478323,0.245576433921394,-0.225132873166652,-0.217028748517885
61.495,-0.540568586144296,0.285884581801509,0.781979446766452,0.131151829828257,0.26229988628249,-0.0740737440867748,-1.01714046903192,0.141034298208688,-0.155107898101996,0.247926311352671,0.580415025794377,0.181659738593446,-1.00378724443563,0.090024184915943,-0.191848756870212,0.839500518914041,1.04151028452818,0.276456186257214,-0.919768299123556,0.0278407927625756,0.380940761205671,0.264906724230459,-0.275245220199791,-0.228299520110189
61.5,-0.548225256428316,0.278911208921224,0.782539811514007,0.117732016726995,0.287491726691461,-0.0935101457026674,-1.00956866416596,0.143038041988217,-0.196004005064551,0.301586820299994,0.566999880376886,0.204382786035634,-1.01704267331035,0.116061030123962,-0.190567785817578,0.707552610644632,1.014705065758,0.249209835866545,-0.909555090927597,0.0165768792918725,0.393715809672783,0.279516500457402,-0.299368601228881,-0.239256825302591
61.505,-0.551388136880576,0.26211478885198,0.79299214554316,0.129713571484615,0.32707473914423,-0.116691776136221,-1.02388316363112,0.155622589408174,-0.208355347414975,0.318470525979598,0.571008442258304,0.2089979451655,-1.00744083550746,0.12471145229928,-0.18472273544688,0.622546456684351,0.996317120679979,0.220570137824285,-0.909654230052945,0.00933529541643355,0.404521652771167,0.27069405959197,-0.322242314405362,-0.273328819574254
61.51,-0.528298558680958,0.25523559408959,0.797067169629554,0.144687852310964,0.350138978108342,-0.119708420433433,-1.03179355823796,0.14772914234569,-0.214510871848518,0.33017446419396,0.595301496156138,0.207789039409264,-1.00878655671733,0.146505423825141,-0.178565598026712,0.56847972181599,1.00023516891072,0.195569152850999,-0.911315247834616,6.52255405373006e-05,0.416645414710726,0.270689238779053,-0.339515680989961,-0.28794919834023
61.515,-0.529171350628023,0.260649253030163,0.791785187002038,0.175738767417912,0.378603550489282,-0.123415970058803,-1.04124950468006,0.144944778750296,-0.203656828017119,0.307298481529743,0.608033502802786,0.191911036807674,-1.0011808387634,0.175261582407185,-0.166645529286863,0.495436334439414,1.01732140436404,0.175150175292929,-0.912605030818015,-0.0138828483355539,0.421623879004139,0.263454224101546,-0.367867565245308,-0.308456636546507
61.52,-0.543938709054592,0.255878210756017,0.78999358926584,0.214843197003603,0.410493638997357,-0.131258925176676,-1.03669165798903,0.136767291948044,-0.189185361406078,0.320116196869598,0.616915908292473,0.188857874345563,-0.993436740295422,0.210574518400924,-0.150652957948258,0.401863397948703,1.01109650818646,0.154161827450113,-0.915826832159709,-0.0398560732436668,0.428029899084919,0.270058992832836,-0.387774690223572,-0.320144704784754
61.525,-0.54552661110888,0.26222475071127,0.784520699710157,0.228622519308948,0.439492840154753,-0.140513157503916,-1.01780570138582,0.133507808450637,-0.188781531644492,0.364769707261461,0.624658421756363,0.187858701961458,-0.988745610142132,0.232751001597094,-0.148201512368446,0.343766868596642,0.99698656486454,0.143336731865577,-0.931597003088193,-0.0534366004356321,0.430688916400353,0.28647447105109,-0.417297891301141,-0.339691357329336
61.53,-0.5509638095764,0.257175049016236,0.777146293428731,0.24472927735562,0.464949222478945,-0.150917807075596,-1.01118090707447,0.144006356608538,-0.1969315439693,0.412332175139824,0.64419781219308,0.192804516539792,-0.972642855639895,0.245064305073919,-0.139173732097173,0.283307665196893,0.969040883062618,0.135764687617934,-0.941527284881353,-0.0610300008677478,0.433594672896587,0.310086224264266,-0.448072143111427,-0.355863767735571
61.535,-0.55401107480233,0.254884344028213,0.78357240055755,0.252655311007949,0.493743064914878,-0.157081345643739,-1.00137261660064,0.15262536723316,-0.19993825888996,0.448946059539345,0.660843039244763,0.185005811644162,-0.970207951784238,0.264359161959739,-0.137461334019287,0.264684503019831,0.944952263670619,0.123302690693565,-0.95216196147212,-0.071858026647945,0.435859339302244,0.341179536563462,-0.482760484943682,-0.369368174317775
61.54,-0.549388650560633,0.257879733211177,0.77911156286525,0.262819921866618,0.518739203551474,-0.160820395130089,-0.993942299098841,0.165109469005387,-0.188737902535148,0.459259179778442,0.684918973144646,0.175779797502179,-0.977479183861136,0.293470199026974,-0.14600809629964,0.246811724098905,0.919473050269698,0.118191728994668,-0.971463547841587,-0.0813860280747551,0.439834405620352,0.375236649872396,-0.499213910619926,-0.386210108578967
61.545,-0.553898520751433,0.276814667251053,0.773392907638798,0.279962487580905,0.538317421954496,-0.16722580188952,-0.988771422108805,0.174926661791727,-0.178578261829791,0.468002279266115,0.724810078437241,0.159565098720042,-0.972167148064177,0.288398565068095,-0.138450420705099,0.242697912655695,0.887410663569319,0.128415951233319,-0.959922730265587,-0.0750488141996322,0.442363679731666,0.416673452030385,-0.540204613826003,-0.39809461972408
61.55,-0.557670713087249,0.305387465996504,0.763318475887602,0.267347416042636,0.579793948413233,-0.18990886724832,-0.983349903745239,0.181830249218233,-0.156813186475808,0.469307191230503,0.760449286101563,0.148846939838685,-0.971645095036289,0.277097993812854,-0.131135940075062,0.254283720557589,0.849762080292783,0.136401350901895,-0.949080474161422,-0.06473120390276,0.439198283673644,0.478566587106165,-0.551785349845886,-0.407501462317499
61.555,-0.561008140802687,0.307478513197778,0.765365083089447,0.225748685100049,0.610348340968047,-0.212829792328206,-0.971388974789419,0.190817724372496,-0.150124511502252,0.459616251002177,0.805834992816391,0.138305407058511,-0.968772713673141,0.266131378919635,-0.117197233067058,0.254064916611807,0.806482234621703,0.149073635780648,-0.93411743629261,-0.0525119354906141,0.435747667198667,0.526773407184287,-0.54288417687899,-0.392567929622998
61.56,-0.553729072882296,0.280251461046815,0.774045986979138,0.189534660091269,0.642898536689298,-0.221520842630203,-0.977214138833143,0.199482911242668,-0.177182384567315,0.458131790161133,0.827902307349838,0.127390589429132,-0.957171107649399,0.243667521112321,-0.0987962991711683,0.252593237447706,0.764600426543283,0.156936181995606,-0.914448496914957,-0.0395700759803204,0.439589821315169,0.577738251753831,-0.505458048383141,-0.387444200825782
61.565,-0.553075956611697,0.275005782415194,0.762601981146994,0.185659183100938,0.681322838882641,-0.238671316742754,-0.982265656221732,0.193442395705954,-0.187347047522694,0.437599387439234,0.866191793681785,0.112102123122967,-0.963698007593466,0.235034123459697,-0.0955823250063566,0.265747136662834,0.726117114963732,0.162835351108456,-0.907204308982348,-0.0173257690386397,0.434076463252766,0.598750052458695,-0.463445485576143,-0.374274851440364
61.57,-0.559440226542681,0.283921361152842,0.759423782893391,0.186375406276345,0.701688686913752,-0.241403554035912,-0.979961473478396,0.197733462258896,-0.187806716581224,0.408606124649052,0.900781881637084,0.0959827185322691,-0.967259185543987,0.220193484485528,-0.0887327409499695,0.258826941251755,0.664718913248393,0.165216530304557,-0.888497257586911,0.0107751653199426,0.437609354862808,0.623716434485266,-0.411871257275077,-0.3668000838586
61.575,-0.576075901998473,0.2744669497374,0.760550943011823,0.173613484622605,0.735023434333571,-0.254467026704284,-0.977483626955134,0.182062720162559,-0.196322356353007,0.390768746643592,0.942800259715577,0.08305682576776,-0.973813416837513,0.207888933786878,-0.0858264175016683,0.265084426234937,0.617134477687876,0.166367302378857,-0.867493991523942,0.0370580595701303,0.435959661156336,0.651961099408253,-0.351637616792316,-0.352130606783428
61.58,-0.575414140923416,0.277180517565343,0.753502524616653,0.179862876978323,0.769828809981638,-0.266700453555326,-0.97281636314914,0.170093754341753,-0.201755961047372,0.393237013337338,0.969745981830949,0.0708649201155234,-0.977643446245735,0.194662646842055,-0.0842115276639022,0.298495845500727,0.546591933594309,0.173006889532627,-0.854346662201663,0.0527319457265166,0.433475129511509,0.67449833726053,-0.282370966456706,-0.336299368531725
61.585,-0.570604266421932,0.272839772533381,0.758223221631352,0.184150468702132,0.802856010678583,-0.280202662252344,-0.9740958498518,0.171589276006267,-0.205886728333663,0.433385049409969,1.01151319415157,0.063028965023963,-0.977396644754737,0.181768255732102,-0.0991274771393078,0.339016620843465,0.516750843275028,0.182142968076165,-0.846500786833967,0.0715738132304181,0.439339824040061,0.671520434500243,-0.243543127491298,-0.315227485472532
61.59,-0.568314428365628,0.280807550421155,0.757595877252754,0.188971325863592,0.841778923608692,-0.295617861154518,-0.976808331606028,0.164612313823035,-0.212420831000229,0.468751982947789,1.04988089246114,0.0485755605588327,-0.977699520320302,0.170389747590367,-0.111396286665394,0.383901517344708,0.480952959751104,0.185882889790868,-0.835535351481684,0.0879167149316823,0.446160683790584,0.650144948887718,-0.166603892123321,-0.291309113695496
61.595,-0.580177403355398,0.291613958360808,0.752609746413997,0.191207483410835,0.877107603121753,-0.321096363226524,-0.983675289688693,0.174532614832422,-0.228837138788172,0.506050467336691,1.08557224480209,0.0395497714260571,-0.981676054431881,0.165142745501635,-0.123280226603269,0.425999374347565,0.442772971808669,0.187405614571781,-0.833958146201515,0.0964293472470696,0.453557149475071,0.614222384291531,-0.101089659456005,-0.276103489389693
61.6,-0.573221984875525,0.281654487023556,0.75594851929386,0.193491211048511,0.915855417710151,-0.342113029538175,-0.99408895434893,0.179314970800087,-0.238762970584568,0.555508727072711,1.10791326102801,0.0363218641472185,-0.976375220732186,0.142362059951005,-0.154815405484897,0.482616915651327,0.394597223562946,0.192572963898566,-0.834534906531808,0.0942457971466938,0.4649139140819,0.559076862473487,-0.00530512274347731,-0.253319368919661
61.605,-0.580120192505997,0.266017168214642,0.751501321452388,0.217977068326312,0.946050189399977,-0.358541885344948,-0.99940256990438,0.165751645413162,-0.250430028229066,0.5772880316293,1.12992991012833,0.0333635021759239,-0.976392474484373,0.135368574283072,-0.170045035236027,0.537092696667904,0.368150427734211,0.200799682499634,-0.832005700889173,0.0910468643079081,0.475766338724296,0.511106951698806,0.0612123606688624,-0.242224549404785
61.61,-0.588306853060683,0.267087097987678,0.748028097880729,0.245164166091944,0.993904415822132,-0.379278830618937,-1.00106313717766,0.153255485730077,-0.270316045207291,0.610532831737011,1.15183952584963,0.0270061164603373,-0.97609461648211,0.12197477168421,-0.192766359996275,0.590312412453782,0.348851334746191,0.206349636229218,-0.836543750019607,0.0842734122421789,0.490978202175626,0.473328871970068,0.152166019805967,-0.231844074251597
61.615,-0.587164409571263,0.257062891300086,0.749562112484531,0.262479042004928,1.03608723531973,-0.389662701295984,-1.00333510642562,0.138551116342772,-0.285421922748663,0.642751881901823,1.16467189788818,0.0214470313882144,-0.966094750422187,0.106631955100689,-0.203826531479968,0.637848281874067,0.325087222779925,0.207350261531577,-0.8455323231626,0.073064808883449,0.513851300605404,0.440602528407512,0.282088206810277,-0.217971422386759
61.62,-0.592297982791128,0.254325684311855,0.74094346774958,0.301380006391307,1.0650400223787,-0.404994721469022,-1.00561549681382,0.128195106412889,-0.29499471481878,0.673685025525989,1.18373330092285,0.0179454684257507,-0.951269442572242,0.0983817747205646,-0.22001181996147,0.660097453118617,0.307685208897595,0.20496948174404,-0.851881067105197,0.0542680503918763,0.52581600026116,0.399067596193971,0.385529563743811,-0.216392978377941
61.625,-0.612048737858238,0.239563224849243,0.735753910989885,0.325321652725769,1.13370220636606,-0.42863968183287,-1.00338117340073,0.121145694119904,-0.315327918861778,0.727387072034715,1.1977541351672,0.00528912093470188,-0.938123512468094,0.0914297580280338,-0.232226965033134,0.65196090410273,0.278510537544418,0.207094640747779,-0.858427384681209,0.0408795816402967,0.542953395681216,0.350962451493229,0.433495195367255,-0.214266891179239
61.63,-0.608832401666025,0.249988989941753,0.738161469952338,0.360228237811133,1.16101987299215,-0.433697660515664,-1.00756226009493,0.115532498037067,-0.327205992839554,0.772943229525079,1.20479921566801,0.00586785801802267,-0.931302303236058,0.0825046341016478,-0.246603324222163,0.694951982696913,0.242904292955551,0.208826423251181,-0.865889050858865,0.0225813357318546,0.550091862703446,0.306354789160163,0.462451583972239,-0.215787267330059
61.635,-0.611063530481071,0.240204790833248,0.732868078998235,0.39495758259898,1.19513151374132,-0.444015418023226,-1.00521103362145,0.104379089248385,-0.330275452068312,0.818171750060858,1.21475189601636,0.00473411975813504,-0.927016682071612,0.0684812105619022,-0.262460871144742,0.72623406313439,0.221824672990648,0.209844881715154,-0.873670951404407,-0.00497352551175288,0.551571215455272,0.273201726656624,0.461427144011497,-0.224567806709622
61.64,-0.623003779620267,0.233033606319434,0.727606748161405,0.429275421956365,1.23698216402115,-0.454478069453393,-1.00540086888736,0.0934964037650472,-0.346356548977502,0.865991738118088,1.21284381898783,-0.000204658292705002,-0.921848524646146,0.0490118694102557,-0.26204681988886,0.78647320188518,0.208553332528958,0.212046297988489,-0.881250816453638,-0.0369425645212169,0.557025689555371,0.241807427261906,0.438540054672644,-0.233379040279089
61.645,-0.646864844238488,0.212311765886236,0.71247297039407,0.472082527821673,1.30154401154879,-0.477573053356607,-1.00841074386633,0.0922536106494736,-0.36565231576059,0.920246130589043,1.21598303318024,-0.00468852858293458,-0.923283603811096,0.0133173116450402,-0.248755828282046,0.823021747182532,0.204180071027822,0.202166267570832,-0.892333121708513,-0.0673288273849519,0.552059762849277,0.219529109523772,0.384187765593245,-0.252742966025137
61.65,-0.652991794174036,0.191655701542402,0.710245250337741,0.498375496400781,1.33883760926166,-0.491077512263938,-1.00941376470983,0.0766362392243019,-0.374323124230475,0.97475133503798,1.21905717255424,-0.00262635568307887,-0.926988949306736,0.00672866934505605,-0.233842459204755,0.891123739762949,0.216399253248703,0.192966117620934,-0.907346831899243,-0.0874269427289926,0.559128779995416,0.192440783851616,0.336877681381859,-0.26996145766608
61.655,-0.664867418072675,0.145381247779543,0.717635201110267,0.524294826021141,1.40342388688314,-0.492600157426551,-1.01196796218748,0.0460537756030456,-0.38193684625074,1.00385526886015,1.22767078939489,-0.0145031319941936,-0.925664468705564,0.0192702508525867,-0.208256949777485,0.958403769238605,0.220920289393124,0.181285327437627,-0.918656494113448,-0.104413317845996,0.568963587984258,0.163936698913381,0.294157554709158,-0.296311538523934
61.66,-0.681892452176397,0.13212244697444,0.759903058813538,0.538706277242719,1.46823419796395,-0.47584256163255,-1.02858575520678,-0.00698364973969137,-0.417692966209784,1.04626171174096,1.23751891091696,-0.0499374216121875,-0.911908528857554,0.0524226635973759,-0.185729112713275,1.02433307907072,0.218031371107991,0.183922036868259,-0.927159398030191,-0.120747373646669,0.582431050796283,0.141119864648555,0.279133340241709,-0.317492544618938
61.665,-0.660988675524809,0.197297008679536,0.801703525305893,0.560546274125642,1.51141797088439,-0.411741633947361,-1.05200864279108,0.00258731706163311,-0.416129360823939,1.12809682703995,1.21222101622103,-0.124826549891306,-0.910163915503402,0.121158453920476,-0.163899182862916,1.12920749640671,0.228165518668102,0.183283758955932,-0.926741339740265,-0.135163869183232,0.590980890923573,0.121016331876132,0.281874654342064,-0.343732276728006
61.67,-0.55144354556125,0.353381027527892,0.774527294947696,0.546546146446886,1.62897194196006,-0.292821975533649,-1.10443128062725,0.0850333180661892,-0.312235009897945,1.23969579151526,1.24582407490094,-0.243399728003361,-0.965043903618922,0.249623078201691,-0.153576521287276,1.27471429017731,0.247449446384862,0.183127438724497,-0.956182832071271,-0.155686917591731,0.577669709404779,0.115048563619707,0.318691486636989,-0.349130662574486
61.675,-0.545151550530231,0.297623261102101,0.754493073091114,0.49171379707184,1.73024987165739,-0.23008548058572,-1.14689265499354,0.178518875511133,-0.239369033725293,1.26470242621609,1.30678167958775,-0.32416266227223,-1.05249252396279,0.34550528879246,-0.140199395615804,1.35199344721455,0.266237728591218,0.176216810237593,-1.00313347600691,-0.189921505924131,0.568386442087599,0.11290047007708,0.354871772830273,-0.342857881906527
61.68,-0.629460772911465,0.146630143405237,0.740739816011601,0.557852464419687,1.82520811614107,-0.248323025993947,-1.15996975884758,0.203568954573202,-0.288734435248782,1.20711880385342,1.28836041147146,-0.335293034720469,-1.16714845284445,0.426470031989898,-0.116826477975223,1.35500532932308,0.246612494523741,0.182682021161277,-1.0744726155281,-0.236800028288361,0.576804092597961,0.106653597690056,0.393325342217958,-0.319407694583479
61.685,-0.675486338213699,0.132132555403021,0.800843417274225,0.812669839436532,1.94675310725992,-0.285934981424723,-1.16215003628716,0.112435650849856,-0.347060669287539,1.17137392506032,1.22127746517999,-0.325803086400317,-1.22669070692588,0.459269903735839,-0.0845039207011129,1.2807841522806,0.197644030112427,0.20565166282021,-1.18872707944032,-0.251982267760431,0.571057188321425,0.155443504921917,0.472735340988579,-0.313868638780237
61.69,-0.674063856750415,0.132054115404335,0.795066007478481,0.975052399429201,2.0355701624524,-0.255360115943366,-1.2134676623383,-0.0065928649652121,-0.343826059800631,1.21779811111748,1.22127183445845,-0.335694539005811,-1.19890810888836,0.402528921585661,-0.0251740117354906,1.22188932716313,0.0983674500517844,0.198115381205182,-1.26522249354608,-0.197157517814638,0.564614923593027,0.283684538100241,0.56105339786981,-0.335089634915314
61.695,-0.67202243619216,0.148770066559854,0.750559956978969,1.09820700552305,2.17999623703885,-0.211608237102836,-1.24786579992116,-0.100348660072893,-0.310344738743783,1.31339268945309,1.25814399769006,-0.382034844212521,-1.18400567619126,0.334911396884571,0.00452200579070624,1.10098655433811,-0.0378758109668133,0.14602700219391,-1.33281841858715,-0.100667454285005,0.553300303441614,0.505887036844393,0.662121337715969,-0.370851435667045
61.7,-0.699411862689814,0.208541560321645,0.732832185648948,1.20493196760339,2.36848826899461,-0.192827497292123,-1.28518600886279,-0.151889087798979,-0.247186540360454,1.48932116714625,1.31438315001952,-0.455890155350183,-1.18237434103606,0.2523316443885,0.0398009990251397,0.889231283472829,-0.18531233377919,0.0823357130321285,-1.33962573560966,-0.0222819163205015,0.530820308284646,0.7398966332666,0.686722371401109,-0.401459973706429
61.705,-0.702549834198898,0.302688239475891,0.737075135238652,1.23494064422164,2.55423634289243,-0.208932248530059,-1.30659362645933,-0.182988173257754,-0.172343028535189,1.77213807351245,1.38489770372797,-0.477127465574322,-1.20122954142089,0.14829851271414,0.109462983978879,0.618910395929216,-0.352910322226269,0.0164540292993218,-1.32793768262207,0.0104575237258098,0.518015982586011,0.822094922488427,0.630591598598194,-0.415853759367931
61.71,-0.694513093662684,0.370253710032507,0.741386684101496,1.18802493883392,2.72199816559851,-0.216633161814377,-1.31093646800538,-0.188916727748217,-0.082122167253106,2.03920340710868,1.46278829463067,-0.47979318352418,-1.20269889216961,0.0384407494798604,0.189218714731334,0.274194239560007,-0.506192985554431,-0.0548789952090349,-1.28624123380003,0.0254830263471551,0.496843507144734,0.845939990323433,0.493910942186209,-0.387444115114262
61.715,-0.651081717384974,0.392533689645316,0.738349628572934,1.11578513457529,2.90648262841732,-0.250202641625691,-1.30890092273692,-0.122351580599293,-0.0052427375889268,2.29984162891574,1.56096528526056,-0.456150856065458,-1.22112006477495,-0.0457348100943708,0.260724792202337,-0.016748172709356,-0.592744836374897,-0.115890131243519,-1.23789785931666,0.0160914888589802,0.462814372132426,0.799844656489936,0.242903254820571,-0.334808989454888
61.72,-0.611645998200323,0.368190778705629,0.7393062117157,1.04067058808448,3.20222696390393,-0.319050580573885,-1.31190638674323,-0.0386318154543155,0.0382870350496073,2.42551947502238,1.62240000176102,-0.426580650390019,-1.25268642098404,-0.102355401149297,0.304414997803707,-0.229579275069228,-0.648797044963593,-0.18018868046278,-1.16989453165654,-0.0251970301483269,0.379331559170924,0.690111749482807,0.00424099884618505,-0.268187319482606
61.725,-0.630444648136001,0.359323169479505,0.748268325877082,1.0410792505701,3.46722609788433,-0.385220044479525,-1.33760029117309,-0.059445834753933,0.0217047313960974,2.44172076393897,1.66210841817387,-0.425485847016622,-1.34704939710538,-0.169204064919367,0.327928736888364,-0.355191698423245,-0.695515502561168,-0.241582692382306,-1.14726400169353,-0.0529215915220557,0.291428681625979,0.563043258257158,-0.11069354581097,-0.213875209991113
61.73,-0.659748245438117,0.344084970417222,0.758194028680407,1.07498748822046,3.72574259446226,-0.440409714072395,-1.38806328846139,-0.0463055454291535,0.00937187813372388,2.50601725315689,1.75785234694494,-0.456621484226094,-1.40243562221612,-0.231224430256893,0.349467058830998,-0.428126245782761,-0.755470666055938,-0.298114991310676,-1.15735049692993,-0.07380233705359,0.209729471763438,0.409348836993083,-0.120439003672348,-0.165876484688332
61.735,-0.666147468745879,0.349336755008472,0.775959017581298,1.08153220079398,3.978324204237,-0.490233501255715,-1.44370922201787,0.00281523310459055,0.041760150046872,2.43147232633409,1.85514624723108,-0.467449920571181,-1.40200694575313,-0.302328571867837,0.379826391213957,-0.440117206569795,-0.833847812067943,-0.33995285106183,-1.1856988369875,-0.0674770148443837,0.148334914332296,0.249466148675036,-0.0397462860078077,-0.133350307137087
61.74,-0.665384651814007,0.318755412374451,0.755845390815053,1.05795052748116,4.29041937223749,-0.528410178958061,-1.5124729171711,-0.0279931406248457,0.0703565753902923,2.27957783618963,1.94668868591433,-0.507089388535492,-1.36685047449289,-0.357207531244112,0.405324829551287,-0.386080300910156,-0.914844376910892,-0.379337918903552,-1.20071742000618,-0.0309507452235898,0.0960571511021353,0.101333508770522,0.0876012584514117,-0.107715785633021
61.745,-0.694263669289917,0.368159450532679,0.733947192069929,1.11181238134865,4.61124750502274,-0.510112904048065,-1.54462441998508,-0.00140828623018308,0.113370013514639,2.25240029639371,2.0953943579335,-0.555029273033142,-1.3315938347322,-0.405789060819088,0.409195363808349,-0.289138625476295,-0.998249926122182,-0.433713945384177,-1.19910579283302,0.0181738252261382,0.0820234256980766,0.00449682090584958,0.245967249456978,-0.092340022101526
61.75,-0.651299600388087,0.4586993654001,0.754081802548103,1.08998961999053,5.02973387490051,-0.45754524509208,-1.56708250153324,0.00464091133716575,0.142960480663481,2.1521129666346,2.15229606355739,-0.563829117385383,-1.30346506096769,-0.461183130027156,0.400757077260782,-0.126734509637626,-1.08985443524673,-0.526949688993266,-1.16875176782286,0.0494770899141125,0.0881426543003949,-0.00191886455379673,0.335565790950947,-0.084112214663209
61.755,-0.60308225708159,0.400903051512935,0.749709493996919,1.0483965245379,5.21575754048422,-0.67063172469117,-1.56742055187572,0.0107612338595137,0.145399684649522,2.03888453959309,2.19982229960814,-0.575419182030045,-1.29782158816691,-0.502431244219515,0.377904544940213,0.0942978932585397,-1.18868413525334,-0.64523678977568,-1.11733384832932,0.0768924452690783,0.104450988222117,0.0626412851785466,0.36985489276082,-0.0712143606979293
61.76,-0.636703089507002,0.396186528144945,0.736446774344122,1.05384797265428,5.51823998307935,-0.878460722652459,-1.55980779093208,0.00987948065750321,0.148968785624964,1.99590114220507,2.23298691105094,-0.57345963446187,-1.29307401693659,-0.521283847228797,0.328825205380032,0.326542713916154,-1.25729213162735,-0.741961125748418,-1.07750910465751,0.0875375597931296,0.112398454357222,0.123741317499813,0.345356706143404,-0.0548616041265858
61.765,-0.645858650709284,0.402651873749535,0.773763525893881,1.13581848034839,5.72274057204602,-1.00582349003611,-1.52483838245472,-0.00871877485294029,0.149309365407423,1.93601784892488,2.24115589784238,-0.574184836924946,-1.27867543399899,-0.501442520230799,0.296154211499705,0.608147017874556,-1.30197492502707,-0.793086012324777,-1.03309323869408,0.0916308134918077,0.124305262643349,0.226788054492083,0.238538253139214,-0.0152556094455527
61.77,-0.68988058835529,0.432317650527734,0.775489373846982,1.27044426323931,6.00369110338332,-1.21865798233434,-1.48283412169801,0.0178650848819934,0.16627661161833,1.85128808427639,2.22898962705751,-0.577431335593378,-1.25215284206043,-0.45969094417261,0.242523914290873,0.955170307120324,-1.33268019911265,-0.819378049362418,-1.00526248947768,0.0914937803155515,0.120199955708488,0.294961280627754,0.123918869824579,0.0446423265551398
61.775,-0.690627763463596,0.463428904138455,0.769157214736413,1.36417671041144,6.21778051248738,-1.3687632151101,-1.43190171829399,0.0333473845094941,0.163591122983546,1.75445757607737,2.17875045052151,-0.589594283670861,-1.23854554661686,-0.403780523735937,0.199066444833935,1.3159694588125,-1.35799694780579,-0.822174399887916,-0.993453245243965,0.0999999252302032,0.111606252626361,0.318525225734101,0.0198802037039177,0.117387264250915
61.78,-0.723178980730306,0.498605222747454,0.776060323815424,1.49026657614814,6.47426151269181,-1.53051199291079,-1.44062789763943,0.0366193075575456,0.127232656705351,1.66587526714219,2.11969563110281,-0.604759920955607,-1.21426792025082,-0.320849446308432,0.138927241400375,1.83360612749063,-1.40837599138516,-0.794342369600413,-0.971366820892284,0.102909247801992,0.0996564855078676,0.285871667343282,-0.0624799392304429,0.191442876080398
61.785,-0.813832256523833,0.498473733586583,0.751879175362242,1.657320867586,6.63978008775343,-1.61738634965826,-1.33877714967288,0.0597178760738001,0.123483571798997,1.63274691920259,2.0401486166292,-0.631614259895906,-1.1969354054227,-0.217929243973246,0.0659278581009305,2.16215526215762,-1.43605953191212,-0.763249862510825,-0.947985510896565,0.103627485367753,0.0872351226006687,0.204782707779009,-0.13032071169771,0.288587840075971
61.79,-0.901328449802576,0.55464258954431,0.664153694436733,1.83877989278474,6.73094281839774,-1.6356689632486,-1.30159484034435,0.0914512916285138,0.103961320617657,1.66711842835034,1.92632750069059,-0.64828212699958,-1.18870284613683,-0.101505043044456,-0.0115645747125053,2.62663718415811,-1.48452498499472,-0.697970417057372,-0.918741491981675,0.104154707091391,0.0817494037902931,0.140553245228822,-0.138852596282959,0.34911088173313
61.795,-1.08631112039519,0.57595552932057,0.550692731547313,1.87356408789781,6.77673524247046,-1.65631903823975,-1.23502856193158,0.113004947517399,-0.0300489525057736,1.64148425052306,1.79224759062289,-0.627931698461768,-1.17753505060326,0.0225545964535493,-0.105700956229938,3.08365474867996,-1.52688810733365,-0.597250386294096,-0.88515465136855,0.104329764441325,0.0827329317391559,0.0679914818435026,-0.127922437210294,0.411035821512013
61.8,-1.38987906816369,0.487660857935907,0.52303656499634,1.80499339514677,6.77615612856732,-1.63582311306199,-1.16503912033922,0.0573615202673223,-0.302617488664125,1.4222746123857,1.75627954260365,-0.668111296678507,-1.17768089146669,0.132619798153926,-0.189186152139229,3.43932283758617,-1.53640277199438,-0.497676901235909,-0.850704972555157,0.104920846713507,0.0751487964179451,0.0163895164170082,-0.0986736972762416,0.439493132577212
61.805,-1.79157531971475,0.280131081958665,0.563143509210101,1.81389483625625,6.63616537692052,-1.54314299948998,-1.13824827432647,0.00626872719718021,-0.581057593625035,1.02106885702638,1.83288629931155,-0.781324164727335,-1.18225168372106,0.231364994309562,-0.283027775407959,3.75099522925674,-1.54003397122149,-0.373791388982032,-0.855807382945901,0.0936473030039286,0.08181595444206,0.000590573037786412,-0.041697170800646,0.449725781800726
61.81,-2.06282132449752,0.0206594571588513,0.418080823983307,2.04055027469488,6.35420533981033,-1.44959942012262,-1.14145561484232,-0.00855960754156945,-0.747634729213979,0.685877848987565,1.98152716427708,-0.917848116879796,-1.19311324685724,0.338383486081039,-0.380336314225928,2.07979785597926,-1.5501630438343,-0.224585528935036,-0.778493849179248,0.0833496530849974,0.0827801676583976,0.00508005407079513,-0.118616568512313,0.437913330370611
61.815,-1.83786079599653,0.308875346963597,0.181521530728579,2.58215267356451,6.21701792464261,-1.38073267726921,-1.1861593402121,-0.0427118113545022,-0.843088794093327,0.504719311691123,2.08704562354314,-1.01575527276488,-1.20865045452962,0.412613674284997,-0.446389159470665,2.74188550846092,-1.57842665457224,-0.0959620065850764,-0.759848667330352,0.0666902202013007,0.0867511298470616,0.0304313970991652,-0.0155401728726478,0.423472492635279
61.82,-1.75154462318923,0.566789143144371,0.60239190260072,2.58101289687428,5.95541792323267,-1.2158138652108,-1.23825871785609,-0.0698795117419297,-0.876071017528771,0.383902581759856,2.13804920430349,-1.10140814953329,-1.23584939851184,0.49338927478136,-0.537831068254587,4.34086039624555,-1.64212976463176,0.101687808374654,-0.750390974533274,0.0484491447007164,0.101022120824235,0.068706959277779,0.169598385096116,0.384940103318154
61.825,-1.79624477086708,0.0446434576594768,0.601158267740591,2.41022906092155,5.61818186691302,-1.28344673807239,-1.32858954617996,0.0350124962303808,-0.72891024665986,0.415774111170198,2.09325610611161,-1.21193976741302,-1.25696144782503,0.527036697176075,-0.585291855141593,4.32364460010228,-1.71504979984788,0.28482555843697,-0.756202898277452,0.0167247053388951,0.111989880780491,0.109043560839581,0.244421336097785,0.3472735654307
61.83,-1.45106462150572,0.0499182858338897,0.605367361501419,2.44966323729234,5.34160866606701,-1.72249734208234,-1.34816175163523,0.133234996703008,-0.49768632915037,0.624147636275211,1.96275388071934,-1.24658682037604,-1.28950235343882,0.591778779220225,-0.616106039195251,4.11687336839837,-1.81000187591773,0.473173371263231,-0.771883174143052,0.0025485579000291,0.134589796010446,0.169555303199273,0.275004492272139,0.302077072201377
61.835,-1.2617324817278,0.316089384752177,0.677978884458108,2.40393312546524,5.13929418180574,-2.18445475561176,-1.33051952777892,0.224633354956645,-0.306905955616407,0.947476691888578,1.77008399492371,-1.18974069180051,-1.30823685919385,0.623767128990546,-0.629081800941768,3.85229812148774,-1.88858316487983,0.633825513173232,-0.800326976837956,-0.0306118423422958,0.15407324189123,0.181764250843755,0.300991029468049,0.252808302249934
61.84,-1.35848714084423,0.732665987880486,0.747171620068133,2.62598209488431,4.90642944360874,-2.3736867951053,-1.24059278590511,0.360742912995468,-0.136847098833888,1.38484817776289,1.5420734259442,-1.02221716532666,-1.30478127344144,0.629724871672396,-0.623556792649373,3.29393518290909,-1.95056434169366,0.79276636029976,-0.841611986234079,-0.066116889865993,0.171916496489703,0.239117163634132,0.300008660896202,0.196629794378651
61.845,-1.42540038028858,1.02078536915419,0.86383504391908,3.19772639971988,4.54756452192182,-2.38402800400607,-1.05681393921662,0.391574591952552,-0.329394191859919,2.02467073561879,1.44742411766637,-0.727469205872003,-1.28137706809168,0.594957394629566,-0.607709418156155,2.54502690503731,-2.00556965447336,0.872184334368853,-0.884784961661206,-0.0944655076092705,0.182043558423457,0.259484470691057,0.286298398670912,0.145813692936029
61.85,-1.48657121059797,1.16489044344889,0.992707499353467,3.18437422770968,3.92315263052593,-2.56367439300145,-0.93859861214474,0.365302264359111,-0.735247180088109,2.12218438377296,1.65812734183432,-0.608845083648365,-1.25628213009877,0.528736617772764,-0.5804997213695,1.94565273849716,-2.03999811511083,0.850656437284972,-0.942270273936033,-0.120975266473468,0.189762439005008,0.255072179816384,0.229695975070039,0.0924346822880215
61.855,-1.51443044422038,1.15305202373007,1.15511509261722,2.78566121124795,3.09123471022111,-2.9313034087889,-0.897028227545293,0.349254958143941,-0.885924219302262,1.78530450895406,1.84824937275735,-0.625624661342287,-1.22675762683821,0.444910109808532,-0.546169818824044,1.1932048963129,-2.10646955877473,0.762563649403845,-0.988900423800524,-0.135237506718615,0.191004991756695,0.243559503957399,0.173964077397582,0.0679056974472753
61.86,-1.79879018953906,0.792788004473111,1.55441244124642,2.24396572785711,2.03912940244123,-3.22819167256352,-0.81294732190304,0.264723304677453,-0.88559353528765,1.29558864942862,2.03053574695102,-0.747968111605626,-1.1962461461419,0.370539728333951,-0.525414975406445,0.509327714963158,-2.18187706285104,0.623092997490885,-1.01423711929455,-0.151253765520959,0.187207341300347,0.206868874576581,0.140979073737747,0.0426146676433709
61.865,-1.8641729981562,0.423915917352684,2.38176820722419,2.43026321986557,1.14922476385152,-3.17450298707592,-0.800298421661703,0.288250812211465,-0.783585221844978,1.27461408219767,1.99248722707426,-0.765264110500752,-1.15924426691098,0.310553652817366,-0.523616023995625,-0.204404157960102,-2.23641502460253,0.456541559870335,-1.04989938193508,-0.159726782478347,0.177692668027846,0.183766469869003,0.116841997203277,0.0391687896485309
61.87,-1.48284817480642,-0.424289102123586,2.76198294531631,2.43579857269041,-0.539924887136335,-3.39580889680394,-0.764943018035025,0.229114153634544,-0.679138390019437,1.34907720470481,1.73988357146355,-0.783837798549146,-1.13818749020229,0.290462636384707,-0.506895625072601,-0.686402862764469,-2.25132420818259,0.341909638647672,-1.06434575190433,-0.161776959147374,0.174657682703004,0.0911688016051043,0.114634479174364,0.0406796039173886
61.875,-1.14871632298467,-0.830793739182579,2.59087616621249,2.41415425405813,-2.09700991431327,-3.6998858123708,-0.776754117467872,0.17809491781464,-0.58700296775626,1.18016936821233,1.36940949633118,-0.812366177104017,-1.11059013027028,0.283771343537092,-0.474543083394579,-1.11600521962095,-2.25990475281425,0.233557619822692,-1.07561938659584,-0.161200251795443,0.174338383330057,0.117142440365058,0.116170543280003,0.0323306867549521
61.88,-1.03148737454939,-0.256057105059714,1.84165788232424,3.07707980361476,-3.32156775395584,-4.01636832606671,-0.730340085233853,0.116001842486269,-0.326436130877963,1.24916064431996,0.914662529931907,-0.74475665492087,-1.10836798461427,0.274202523707542,-0.454635797462964,-1.3828800851458,-2.25276825029849,0.166750656885197,-1.09067716615725,-0.151514607992176,0.183152805445621,0.162641775145648,0.105893643759564,0.0185202475848477
61.885,-1.04227982570339,0.757695006280896,1.23409949331972,3.38198239605698,-3.98117105733794,-3.91259513500854,-0.664516642693854,0.115078031210435,-0.0929091352412114,1.66273855739112,0.593635283830486,-0.606608807948416,-1.11656157692386,0.266907764874818,-0.441931888864995,-1.55375480507814,-2.21552755738582,0.117254191923651,-1.10072573840316,-0.119677385867755,0.191333615122506,0.16099216948605,0.0534378301595862,0.0046206772486031
61.89,-0.990347178729949,1.24862760143972,0.871837519654508,2.66615273630798,-4.51196623041278,-3.6814360540065,-0.64598538343051,0.141968503929184,0.0318691806665542,2.03751975935104,0.302954715000977,-0.449504807253939,-1.12436283692323,0.245819990418711,-0.445114453781677,-1.69261224094499,-2.15749039559067,0.0440991343825546,-1.10997265823915,-0.0961798905634933,0.214248335423857,0.165442391422065,-0.0268141891090591,-0.00608793208966277
61.895,-0.766010705983337,1.16255096108532,0.700277251458234,1.84728225334567,-4.98002565895339,-3.68940758971,-0.626581222436886,0.200631191327903,0.0627076516123515,2.14033561179541,0.0810810831608021,-0.327169439029757,-1.13832335011668,0.207048738260493,-0.445624031783324,-1.73928266474217,-2.1182233514508,-0.0154183619576436,-1.10469745686498,-0.0723203495787996,0.232625880343628,0.222440241741695,-0.106573627840102,-0.0340439972600193
61.9,-0.37915221186063,1.1463099665212,0.497930706095076,1.32956135082793,-5.29032643242427,-3.86399354242027,-0.604553500060941,0.190586532249738,0.161827396345778,2.38156022934255,-0.0630333754218219,-0.135953922302696,-1.15185078880296,0.147667370646641,-0.451487808206669,-1.73768154095611,-2.07388132948783,-0.0888628176377564,-1.10909720262922,-0.040186154652193,0.253312097180741,0.270846736069689,-0.142052074313753,-0.0920320511156481
61.905,-0.0814405309297943,1.28213012337894,0.233880190667045,0.799731730373415,-5.26854023055998,-3.97637130418622,-0.568391853614481,0.155864254967953,0.203298570394707,2.25119606341323,-0.131030217884705,-0.0293800138609517,-1.15023273827119,0.114847820108326,-0.458930144001492,-1.67307019072271,-2.0295574901592,-0.127867741239573,-1.13686945052609,0.0186272314932185,0.266250504151009,0.358891936938497,-0.168102806865426,-0.148630784466677
61.91,-0.114895993826143,1.25141127820932,0.141082868629734,0.463364769137051,-5.00137887865406,-3.73929023734713,-0.53030459613133,0.0884083381635939,0.20659199446053,1.95056043708486,-0.273800179576442,0.0541286284970672,-1.14738167270927,0.060409093990775,-0.474085874725788,-1.56175955039027,-1.96908575337175,-0.155948329487574,-1.15509837183316,0.0683522647117651,0.271001090988845,0.366009270262818,-0.177834252962786,-0.146402009120513
61.915,-0.211455459188277,1.14154895302458,0.136526853051746,0.171653754282298,-4.73898060498509,-3.37765585793362,-0.511818968227151,-0.0448931328039488,0.13655028464788,1.51829411612757,-0.47386168293896,0.0660195364893194,-1.13582402530968,0.0349431313721873,-0.473972486118276,-1.45093817684769,-1.92751338461291,-0.168581552832073,-1.16882318021462,0.111765028791312,0.27223136009036,0.303000710639675,-0.208383786891294,-0.108686730900425
61.92,-0.244249367120104,0.957454323504716,0.182809955272382,-0.339343216877929,-4.48706539082101,-2.73933246745832,-0.519140084312642,-0.196902023609662,-0.00285024938925337,1.09074546643692,-0.638893436126022,-0.0049226601681749,-1.12597666470443,0.0105006521743715,-0.45444710229421,-1.30418331984966,-1.87582288616219,-0.148631834068944,-1.16721104318469,0.163911650901388,0.270279471486149,0.212304195788969,-0.208584818693141,-0.0397955624801027
61.925,-0.224532623948386,0.837484869064047,0.221075537283753,-0.706446251321735,-4.33351888443268,-2.1173388879551,-0.531860922132372,-0.26792241867311,-0.0677700827204165,0.656094266066612,-0.822053857970735,-0.101415578405037,-1.11280164778854,0.0284121754347616,-0.434581719238527,-1.15851341039393,-1.84741589346038,-0.0983218949628118,-1.15401938821072,0.171849050581054,0.269155955617029,0.104800161559084,-0.201678615300618,0.0182032166066491
61.93,-0.193418237431262,0.782982986916928,0.222141930394293,-0.915717257381627,-4.176983591823,-1.44874232879185,-0.572892021501314,-0.285300412329158,-0.0822723741494628,0.39289467463458,-0.995683160714087,-0.154679802354494,-1.09657394773713,0.0394236066621685,-0.412649963482796,-1.06458023392855,-1.81378112169003,-0.0559251189122189,-1.1382920902641,0.188127902067469,0.273541049185003,0.023409430585114,-0.221806451138454,0.086501368034621
61.935,-0.183904099360387,0.798399283101478,0.208231005924445,-1.03249287165673,-4.00148481690313,-0.818809572585938,-0.605488226360527,-0.265347514807998,-0.0993842063560894,0.241009365627479,-1.18789341763464,-0.187286926321748,-1.12210532742699,0.0744691821085596,-0.396641158100808,-0.939923083228146,-1.85704211276643,0.0608879804732064,-1.0966430186194,0.19581546815084,0.266270279808702,-0.0410350670315243,-0.223795425711992,0.175695539474391
61.94,-0.188645362717794,0.871682699244428,0.206202306317426,-1.1280419633535,-3.84844675080529,-0.330895681908893,-0.631453685464908,-0.195165113150563,-0.0834602165113409,0.192875240177347,-1.39963821446135,-0.212239555479614,-1.10031672750577,0.113238254634133,-0.415260300231558,-0.842333832322115,-1.91080767791846,0.152377526689985,-1.06286127620918,0.210226486605533,0.263936180483781,-0.078808619006292,-0.231588888729447,0.284595381240696
61.945,-0.220987826918035,0.913488013079826,0.250233752689664,-1.35861751367135,-3.6770553730184,0.220160182068424,-0.587449263382071,-0.0566338480058917,-0.0908766127906314,0.134009048130612,-1.67378012604694,-0.187700456761229,-1.02453020168244,0.138230332224601,-0.4288796923109,-0.737904929074583,-1.87389504085335,0.241447749484992,-1.01898519976858,0.20989010670753,0.254364047244875,-0.177008019858481,-0.239143347547413,0.367250557318476
61.95,-0.256137939058218,0.89026342187825,0.302093952427888,-1.51999454366234,-3.58751271523291,0.58668332450922,-0.555128897950282,0.0144133209614025,-0.107973939076607,0.0182838574211823,-1.83233619598415,-0.109899960873415,-0.986321023865169,0.175178098299311,-0.432239735370331,-0.677874546462202,-1.77335131230302,0.315627357829979,-0.971274328567292,0.213115061460937,0.249164498185997,-0.29144646106304,-0.250450864641286,0.442915275062723
61.955,-0.295567469420902,0.838187154598829,0.364326809918903,-1.61609311361809,-3.52497132992908,0.966934070359644,-0.536621659922866,0.0581476651818786,-0.137732342624021,-0.116423201550492,-1.9945994889349,-0.0130041655552529,-0.957913669022659,0.216726456744967,-0.439171847312834,-0.628031321994749,-1.64530121071056,0.418365428558589,-0.932127634948167,0.208322175795801,0.249071855845353,-0.412732617410615,-0.255468450193491,0.490570277359803
61.96,-0.331808936012274,0.712933758914923,0.428970159856807,-1.58857725626034,-3.50973553647133,1.2159550696255,-0.520367912362386,0.0925932561920099,-0.161625318268371,-0.220080754640693,-2.17607123695361,0.0677297297426241,-0.931190117936696,0.24874100500386,-0.454699527106844,-0.590909784556392,-1.54919725336379,0.480056915988077,-0.900718173564842,0.195731571852871,0.243248137946078,-0.569957761200008,-0.235605271198189,0.529637657182517
61.965,-0.378667931031271,0.513508038668834,0.496153573573207,-1.34030533923146,-3.53461607014385,1.53747143998782,-0.496508687038241,0.0937486202159921,-0.158018034478499,-0.377530337263258,-2.37142822130196,0.0998009230451442,-0.907111648462654,0.272728418249028,-0.457009968126726,-0.602602713165533,-1.47291312013311,0.51245190027523,-0.862460505933513,0.172984765790788,0.258060839509511,-0.662545649830448,-0.193907529366463,0.549337853628293
61.97,-0.395395446491308,0.402993651336361,0.530453158221035,-1.0647313130407,-3.58654352519942,1.74512155111518,-0.484240888506143,0.0851574254473138,-0.166865430783,-0.44794185146715,-2.47223597097334,0.110091017366815,-0.880534576409325,0.292864100778463,-0.458794885636391,-0.648056719558263,-1.40115219286875,0.514894856866027,-0.850177148724304,0.1535780456063,0.266807969876,-0.731567931259836,-0.149543531766653,0.557416711062628
61.975,-0.379850730133248,0.329226556021787,0.545999304086528,-0.755876618744952,-3.68047174767802,1.90688081320479,-0.502377354788593,0.0895418277140549,-0.175598014064922,-0.465469270944595,-2.58557050336814,0.135138232614927,-0.858488690257209,0.307571577854144,-0.455394395831877,-0.730569070383638,-1.34482478331894,0.503538988422544,-0.849041644379468,0.119127285727369,0.282001056367833,-0.78796755506354,-0.0923699234540215,0.550146291080966
61.98,-0.372280118526256,0.281666577093252,0.538071444339489,-0.531128944605987,-3.73948168723636,1.97774483949114,-0.537086610184627,0.0905407183710676,-0.178215919004461,-0.496809886712579,-2.75068696079125,0.16606375462927,-0.843308070792815,0.33189258733985,-0.444467505214545,-0.885423965477902,-1.28255519071724,0.471167257465911,-0.843299421018591,0.091167843574086,0.296275675333901,-0.808050559435068,-0.0686927084843774,0.537891782215883
61.985,-0.392609447711448,0.255305835348744,0.516962974592901,-0.289920748914838,-3.80368007079157,1.99988833960341,-0.579588221042349,0.0926298522303535,-0.178386704025657,-0.533504959650905,-2.91393608285793,0.202618592468596,-0.828402693697229,0.362614673556365,-0.436385242305343,-1.08197998173565,-1.23920062748774,0.441757323189943,-0.837393333068846,0.0419535584602849,0.299101146985985,-0.796792735720758,-0.0305483978558722,0.50818333879003
61.99,-0.410747034671982,0.246858477500271,0.504875914962319,-0.185527168123491,-3.86042442270472,1.9794330336924,-0.613726302342176,0.0883833493083375,-0.173463134408868,-0.598501588367459,-3.07205159856187,0.266200027788611,-0.811024573307322,0.381781831954881,-0.422500989704865,-1.33742995412454,-1.1911891136234,0.397393924296686,-0.840530282214037,0.00269556777046542,0.310118958211012,-0.768939965113625,0.0035352634762834,0.4714190468951
61.995,-0.452116565679197,0.243697611749041,0.504509487456656,-0.131395920806093,-3.90632001881517,1.94612272461526,-0.624934785332508,0.0679420765641358,-0.189167365054734,-0.707812945154986,-3.23515465904213,0.332588873078142,-0.793317207102629,0.381761817609909,-0.417794873712034,-1.63094706427261,-1.14205602244669,0.337021022378605,-0.841105458592284,-0.0294421480022206,0.300403047148092,-0.741968635519237,0.0370817086490944,0.446398202379436
62,-0.499309656435202,0.250206114282304,0.506384014200954,-0.12315389628894,-3.9624087570718,1.91822690199034,-0.640710769776744,0.0345574849786838,-0.227290534676728,-0.824877652184845,-3.35384351517213,0.393981713024423,-0.776880513212962,0.37123167457592,-0.415726634972669,-1.96629369959649,-1.08934676848121,0.26649637892954,-0.84295975119385,-0.0486088038330158,0.303916216593799,-0.745958572146988,0.0659828368607902,0.427661910722838
62.005,-0.53956032597483,0.275659272853378,0.502611603060806,-0.199010706127383,-4.06194694353291,1.88335818633334,-0.655442499332028,0.0297829219200594,-0.240006533300348,-0.965924735353837,-3.4705210776742,0.437128923573675,-0.751713962107728,0.342765490525521,-0.421727677172663,-2.2416633419878,-1.01739666393116,0.202904799865611,-0.850536379436903,-0.0808331145543197,0.30134921030546,-0.792783085726416,0.075549939789148,0.401705605895054
62.01,-0.611359932143334,0.324790540528786,0.50701920523744,-0.281324896201577,-4.09500395135861,1.87054906893157,-0.654321761000216,0.0120427836222249,-0.252539508539119,-1.10838903929496,-3.56490869304401,0.460034796251562,-0.735675933966375,0.28850536190786,-0.433511425787913,-2.56087306458279,-0.922162638202207,0.103062743527728,-0.856617539499229,-0.107170288915908,0.296069720464526,-0.784252798439037,0.0707765443690983,0.378589384819484
62.015,-0.689046045415613,0.356469777736564,0.50984818592759,-0.375106749312892,-4.15430320618118,1.88472373852841,-0.672552811309745,-0.0103116378301411,-0.284863953242179,-1.23467436351217,-3.64336321754702,0.477975745308621,-0.714972987779052,0.2260596419,-0.454295663763285,-2.79845397716303,-0.819688846597787,0.0112077420009164,-0.856364894539085,-0.122402954097811,0.291643418307247,-0.770245948406386,0.0781164248416922,0.340984124807405
62.02,-0.755642892561663,0.388554158128749,0.511108286803672,-0.443929014413227,-4.19915947399402,1.92319280485049,-0.695342934168331,-0.0337221861724103,-0.318968231946871,-1.3825293298215,-3.76132130472873,0.497850745970477,-0.697223553893789,0.169182275336192,-0.460499494914255,-2.9912243744822,-0.725067683582574,-0.0741657472131968,-0.861057699393851,-0.125672388788503,0.288959580892068,-0.751909435955025,0.084574240047317,0.312393963039266
62.025,-0.808994908356765,0.41699461088021,0.510411168656646,-0.531343858204848,-4.24663891000445,2.00768038878076,-0.730337385438035,-0.0551631174666277,-0.350078310638678,-1.48305999634628,-3.85749850261425,0.516414765542461,-0.689110886491316,0.124258845250804,-0.469749420961969,-3.08044577424086,-0.653238713017792,-0.146252501631965,-0.87220822630538,-0.120837047814595,0.294355385945472,-0.742265826043375,0.103772629507524,0.295448539640848
62.03,-0.839326230632366,0.429576238989442,0.492545470057781,-0.581505689906465,-4.26291869605705,2.08832973396917,-0.771381358130287,-0.066573140888925,-0.37236985743529,-1.54249963336255,-3.95414598586244,0.526960586596251,-0.683032200090878,0.0719263373770881,-0.469444839144456,-3.15190216528668,-0.579599885637324,-0.206233338818751,-0.880357443498828,-0.108925699117939,0.300010467008666,-0.719182583647735,0.108850643584274,0.2845926719927
62.035,-0.886767794452487,0.465084100500661,0.45195789852556,-0.60029467547569,-4.25641638826066,2.2036386005816,-0.80351258440365,-0.0714372584822432,-0.383858861635073,-1.57997357296285,-4.03055389481326,0.54158204153139,-0.683356535642983,0.0324336186319136,-0.46573870981109,-3.16719233766881,-0.522843699627339,-0.256111887557267,-0.88713636152981,-0.0925092221316942,0.301776818137224,-0.690677550517276,0.118382138883154,0.27643325163264
62.04,-0.927041900354201,0.528449455734313,0.405163787741586,-0.633828843542025,-4.23735047897295,2.31579819081438,-0.823510175876032,-0.0784440464768419,-0.384866716638421,-1.59561988524473,-4.08199666452164,0.55228866185976,-0.677678203112075,0.0027843806971836,-0.457880588296709,-3.16344453195982,-0.456154326416784,-0.290707837272793,-0.889519212488078,-0.0735076975002192,0.300390464881667,-0.654456109588177,0.131575781944166,0.266642091469368
62.045,-0.926309881870846,0.552262741804666,0.387733393831972,-0.698060408441204,-4.19478220531007,2.42977501452771,-0.840588400079469,-0.0675904595006048,-0.396805560621555,-1.59093989981919,-4.12361217400135,0.580294622521951,-0.668978700722571,-0.0305005294789139,-0.433538225431271,-3.12643548048079,-0.377185687031855,-0.307890011216896,-0.893739650513766,-0.0491807272292864,0.302476138703969,-0.639148974109324,0.145570361071781,0.254611099696561
62.05,-0.961436348847871,0.561656055897663,0.381381569250723,-0.716333766296125,-4.12149871365566,2.5497179898569,-0.866938687227857,-0.0510570874893271,-0.416935825362234,-1.60882389560427,-4.16370618559225,0.61126289265477,-0.667869266403485,-0.0524696786567922,-0.420223368219055,-3.09260166172657,-0.317063433416548,-0.320804552802695,-0.89037717967643,-0.0261955562810441,0.295405089488967,-0.643180648060625,0.158841736037052,0.24050023144942
62.055,-0.996331973782867,0.577732847253271,0.387469265882941,-0.695016831980428,-4.01428061378541,2.72879979441634,-0.889053122610581,-0.0487961754288522,-0.439792195335208,-1.6396469297926,-4.21329951630255,0.62975032230793,-0.657810158594131,-0.0761489212339213,-0.401434130146949,-3.03216235894925,-0.249968760905779,-0.325652512481633,-0.886826184547746,-0.00165556626079382,0.28979690971093,-0.646889010572328,0.185029226707577,0.225259167904531
62.06,-1.02279257075344,0.580429108386196,0.383356938096367,-0.653522328532918,-3.91684961174671,2.91904415427204,-0.931004423779783,-0.0427565571608651,-0.450068767636451,-1.70273963501953,-4.24519679594554,0.640651039060292,-0.658238354919442,-0.085718830842438,-0.389907219084189,-2.97978171631365,-0.218741215611094,-0.325320035219193,-0.884920204592242,0.0159208535814527,0.288258778151355,-0.650800424737535,0.199368621010632,0.21736668741452
62.065,-1.04772152240742,0.612606968356998,0.393051303532998,-0.617882667648883,-3.80629745733372,3.11346045707956,-0.97187845196598,-0.0312854738028773,-0.462044371724028,-1.76987106398443,-4.28413576955375,0.653720319073061,-0.643788313666266,-0.102114234072346,-0.375311430033382,-2.91878138741748,-0.193884975443037,-0.316655383591684,-0.88943571622508,0.0324713270406835,0.286606453603988,-0.632826768606255,0.216282327010767,0.200426553484895
62.07,-1.03597878120089,0.603875438014712,0.405804566993137,-0.608184730261828,-3.67061789905975,3.33428538949772,-1.01104034145904,-0.0248364691854622,-0.464373184543822,-1.84148677999067,-4.31781747717074,0.658709588674824,-0.640143044047348,-0.115749569590797,-0.367016209974916,-2.83404115721228,-0.168774138294788,-0.30765498708192,-0.887475538129268,0.0437309985658998,0.288591946109973,-0.635424623265798,0.219656329565116,0.201919523524196
62.075,-1.07752126903173,0.637786607770189,0.414056029497652,-0.608893513804774,-3.51957059340088,3.54396475056839,-1.05215884925494,-0.0137938674143408,-0.469217648036052,-1.93811907311935,-4.35615148761649,0.675485179969053,-0.632477912171372,-0.130044594447584,-0.354648528257828,-2.74049361572199,-0.135310455714162,-0.292711877756592,-0.897931241162439,0.0565009364633841,0.286861149757144,-0.661880783641806,0.218579262420362,0.210447194631525
62.08,-1.08512421829575,0.668575561536139,0.407611639704655,-0.636163575537473,-3.42086983125575,3.6769916068109,-1.08978773923126,0.00522197950846064,-0.470914459850434,-2.02425694515183,-4.38157773705201,0.692565820032939,-0.630605381728836,-0.141357976172986,-0.346418014213985,-2.62082522217527,-0.0851920424546242,-0.279481667522191,-0.906448527185751,0.0638904347077904,0.282094326321162,-0.707654401856733,0.21091163911363,0.232172184016242
62.085,-1.0900765743036,0.685504465792259,0.404943887382511,-0.73964898337402,-3.25142735296941,3.83359895285875,-1.13392274837347,0.0340456296825486,-0.470573697947057,-2.13437448347359,-4.39941647148982,0.730867494491516,-0.634963011421006,-0.148811815601853,-0.33200750456772,-2.41327991958554,0.00284006558600307,-0.257715038826824,-0.907009892766221,0.0509205438017485,0.284042001437662,-0.734103355922224,0.20322185754776,0.246435420358145
62.09,-1.19534951167172,0.753047441311902,0.383494182819804,-0.831509167424223,-3.09358290438028,3.9740357460833,-1.16127381833336,0.0682357219064735,-0.476828891069542,-2.2400579766296,-4.42809817672067,0.755600778902992,-0.641798922185972,-0.160144575909493,-0.31430786980063,-2.21626824819052,0.0738367390674498,-0.240644164511694,-0.908294891076972,0.0498045673166511,0.288577826308603,-0.769645233462424,0.197239679440667,0.268981684384601
62.095,-1.21647552159929,0.740298829833853,0.409087601953687,-1.01242091621345,-2.90248194262292,4.12256364167948,-1.19794493379013,0.105903240700572,-0.482383300093038,-2.35091154301398,-4.44327068148284,0.775597037605625,-0.661761084077557,-0.175072846470075,-0.296797463590651,-1.97530762271408,0.161144093045118,-0.229524068340467,-0.908586845784077,0.0416500250053058,0.298041438399299,-0.80560363186196,0.190094216157853,0.296547673163628
62.1,-1.26333749222393,0.771459319991296,0.423689156679789,-1.12501268225304,-2.76097304931805,4.22742824405593,-1.22511334852752,0.14708523011305,-0.493936002670701,-2.5220078393814,-4.43840572484892,0.801048109288809,-0.677097983689004,-0.180518264541833,-0.287150182464289,-1.76807030723229,0.23295678822196,-0.227584481239319,-0.910040233059149,0.0352398910881801,0.297176724952903,-0.838296096687085,0.183837450263393,0.314659283326043
62.105,-1.33119277553607,0.807627748433885,0.438348375231172,-1.19895756997536,-2.62909196026228,4.32209600327759,-1.26009852239093,0.208155268996812,-0.510199765375191,-2.68031433765703,-4.4255866690061,0.817149146742941,-0.693454808285421,-0.178474258424491,-0.269632315742471,-1.55555617581372,0.317723333660726,-0.210494670926862,-0.927124993779308,0.030104870281561,0.296993638042809,-0.876592342094042,0.202000170946121,0.336792581704638
62.11,-1.42080517271437,0.846219382781517,0.451185990816598,-1.30785750103486,-2.51194305106337,4.431221753253,-1.28408970468888,0.258998764817532,-0.533038573862763,-2.89433700364342,-4.40887925495503,0.832725243860239,-0.717737255580446,-0.17049661391698,-0.262004083545241,-1.34340146704165,0.428455853016049,-0.188839013425122,-0.934149972996503,0.023122403820407,0.301000821342577,-0.91522671442663,0.203203036693415,0.36011206782714
62.115,-1.47850683330661,0.860566965950998,0.448995783188176,-1.41818477608052,-2.40281730516454,4.54592630555114,-1.305549541071,0.302255693488564,-0.567002133947789,-3.13814431414595,-4.39311344254594,0.833161314798625,-0.738613374087946,-0.161846826498893,-0.249304342504235,-1.20654630210154,0.527205105435078,-0.162509017179907,-0.939548285062627,0.0173965732707965,0.30319473976535,-0.940957369865526,0.212656946212823,0.376937923472302
62.12,-1.52574345900254,0.880490716720662,0.445838510224745,-1.49974588764143,-2.31490063259289,4.62032976081853,-1.32360833839908,0.333991450779733,-0.594941316726235,-3.37156264266689,-4.37044087329221,0.826986165684731,-0.76228900657112,-0.153143510086705,-0.235684846708715,-1.10667151051189,0.608409205608357,-0.134133703192615,-0.943251133373772,0.00624843326012151,0.308206789040523,-0.95976235843052,0.217846297871961,0.395401170441947
62.125,-1.59216090743452,0.91819602894183,0.422726849916048,-1.59797919791683,-2.21303645981656,4.71008227871387,-1.33865999388611,0.358235266504492,-0.62764220271507,-3.61788751579313,-4.33354034001797,0.823882529504034,-0.784203238137825,-0.141403094930194,-0.217044655826127,-1.04211380486079,0.674949720093275,-0.101184901418045,-0.939290327982708,0.00407851289277323,0.304988769786401,-0.964702331493721,0.224708550717251,0.403808718291375
62.13,-1.58583807583109,0.871763251099539,0.395320948451286,-1.7112658188332,-2.13080999987414,4.79630066737123,-1.35703697404552,0.359705837781311,-0.650438459578567,-3.93785797390184,-4.28843002673498,0.805303506613778,-0.810836341635434,-0.120788729014474,-0.202229800853414,-1.03518563035338,0.708940060502318,-0.0805791325951028,-0.942748557307234,-0.00406507414949266,0.306825026274016,-0.966452474378552,0.239779065297318,0.410567467639126
62.135,-1.62131383602385,0.875626402692389,0.350447832054693,-1.76368006183039,-2.04337351576409,4.87929025159966,-1.38174144050238,0.347854713516743,-0.672647929829532,-4.2290190975829,-4.24478490445366,0.760980459628324,-0.839353388405513,-0.0969057971715896,-0.176110087967045,-1.05266991286242,0.710020901949122,-0.0628130976691605,-0.960850103523364,-0.0057272650715248,0.312988037141731,-0.96494616179783,0.245507504212179,0.427504789231993
62.14,-1.68798921339639,0.871822749172341,0.268166675692951,-1.88981678416232,-1.85974636538552,5.00713826260529,-1.40368878563444,0.323405281979368,-0.668435398069698,-4.4861845040476,-4.1961805163615,0.714045560201014,-0.866773414317145,-0.0776776076073985,-0.154596981512199,-1.091927291349,0.68670381341755,-0.0542700276419141,-0.962846210350608,-0.00125837738528273,0.312981417169793,-0.979047896949505,0.223519976955432,0.447648677223589
62.145,-1.63109409485367,0.771878060553962,0.240191421056246,-2.03661691557168,-1.72060594857688,5.06602409836725,-1.41322020621926,0.291513506127501,-0.66902697442288,-4.67584136666882,-4.15600978192534,0.667070664612666,-0.887371236082186,-0.0476969639065603,-0.127628061606131,-1.17838083615075,0.633985894502338,-0.067750733334671,-0.964543354304811,-0.0081142979323574,0.316057648861749,-0.997069887851373,0.159667894238336,0.46196467034639
62.15,-1.61900987522078,0.714387543057348,0.187686243601223,-2.15134280995964,-1.54254306254707,5.08997875764382,-1.41654100279843,0.264280500461788,-0.679373354372866,-4.82027479581597,-4.09718210693808,0.613435406365321,-0.907206342330229,-0.0320142434372441,-0.117726926219472,-1.26739918982785,0.586017677623445,-0.0949867362016881,-0.958711781630916,-0.0079538792741007,0.316451598534547,-1.02282555693768,0.116539192761337,0.481386015059735
62.155,-1.65185807314574,0.676578837472064,0.18770350751643,-2.25998094653623,-1.29597985427253,5.10779854948429,-1.41805663410174,0.233099903659383,-0.695629488130333,-4.91661445871327,-4.01790597718183,0.56821567780651,-0.926066750646473,-0.00606017608453404,-0.101474860808683,-1.43096299553747,0.526271665043322,-0.152233358997501,-0.956345557173324,-0.00846487673208145,0.315556713189734,-1.04606470195698,0.0663882128825813,0.496858808112381
62.16,-1.70395640434542,0.630222258868019,0.215402594347578,-2.34976868852939,-1.12959057155367,5.10523771628931,-1.41414342295192,0.202088660894203,-0.717362115589362,-4.93897685911915,-3.93363515852519,0.519434471640415,-0.94872813617429,0.0164242680533463,-0.0856755573686362,-1.57367488208297,0.489333002025161,-0.199855609826652,-0.95109139107698,-0.0146034381789768,0.318169221014209,-1.07272802920427,0.0283594169693221,0.513537013234436
62.165,-1.7625073915142,0.54920432940161,0.237341707996801,-2.39195667400984,-0.976743987977593,5.11172072475621,-1.40676231312881,0.169115969665545,-0.747249892655073,-4.91329606722021,-3.84745684797918,0.487383775764659,-0.957471578597395,0.0529392179290492,-0.0750782823783587,-1.8450148701163,0.429685124030544,-0.280492378729912,-0.956014260492731,-0.0162056550601347,0.316967539080991,-1.09653995261432,-0.0135007075672734,0.523891694224985
62.17,-1.76228006356588,0.494662160520424,0.21531908997203,-2.39079642556116,-0.859838092386674,5.0840429659996,-1.4027404751006,0.135143616588372,-0.759054256638411,-4.83909179104438,-3.75704484815278,0.448073914141837,-0.970654350030479,0.0894229799970293,-0.055039745309751,-2.16163725559805,0.381534554214435,-0.373308528886665,-0.963198745560397,-0.0165781046238345,0.323135089467059,-1.12106253057648,-0.0504723666977404,0.537831298120329
62.175,-1.74313299104535,0.439983220350401,0.200621103339744,-2.37427151174775,-0.720995013374049,5.0457121320745,-1.40327656945404,0.0992279336027824,-0.768311501202089,-4.72724862786142,-3.6659508178632,0.412853533436874,-0.990293013626478,0.128719493993033,-0.0408721750913966,-2.4912523942062,0.334722991954795,-0.461289797961223,-0.962614897249283,-0.0146064437593702,0.327890486775423,-1.13552917116062,-0.0804348071618083,0.551327963837123
62.18,-1.73806255716554,0.400114108252938,0.185454754947051,-2.33745986670175,-0.613988908598563,5.28759422149864,-1.40233800453461,0.0651328342530001,-0.771443566066321,-4.52429762901663,-3.5585784617855,0.367135898837267,-0.994251801111495,0.158876185918412,-0.0335875949834129,-2.76784432044814,0.297186488401017,-0.528647401768009,-0.964394000808078,-0.0160041989369279,0.329349857086555,-1.14547774860108,-0.118467589278948,0.558012116297304
62.185,-1.7352764391751,0.383018622183639,0.144238529927226,-2.22991907161099,-0.470454229433358,4.89492171852625,-1.38298839610712,0.0563926602017569,-0.755071953742555,-4.32018959054145,-3.45006395884013,0.334985820902753,-1.03042151685195,0.19920394564587,-0.015260048240503,-3.12670898369497,0.233045638620909,-0.597998265442314,-0.978995533994698,-0.0178411510589924,0.335606745007303,-1.14794138795351,-0.154522469310895,0.560917207536953
62.19,-1.73747233078177,0.358399954088771,0.106082992883523,-2.14496432147324,-0.359401130187261,4.74639524019356,-1.34528403536946,0.0757948895253416,-0.751682094324309,-4.04798720440114,-3.3172412880101,0.335519851353391,-1.05190337344365,0.20342070273736,0.00484118418422637,-3.39128916465111,0.182560956764208,-0.642651141119471,-0.978708817203605,-0.0207941589957042,0.335370736471273,-1.15347470446027,-0.177205554869846,0.565514404212618
62.195,-1.72878630042496,0.305868477659479,0.0518647401523413,-2.06347419259203,-0.271592753429392,4.57440897065043,-1.29572922472764,0.0945782689451653,-0.74559867669469,-3.73864388615756,-3.16077628636159,0.359140432228878,-1.07844771354713,0.197008848902137,0.029019044320566,-3.62444721574091,0.141835689509476,-0.68369815252043,-0.980455813103603,-0.0247925110127757,0.33746178075425,-1.15711563440625,-0.210844612701242,0.562525555737473
62.2,-1.70085950785831,0.224693489129237,-0.00332017245276418,-1.9453031575471,-0.176918909062042,4.34837564951088,-1.25028473784191,0.114420165407766,-0.747164383020895,-3.46142620510735,-3.01323732488287,0.386609476411261,-1.11008604152056,0.155250483903059,0.0518356420922362,-3.86518856584034,0.120323398401997,-0.72749263334178,-0.980244009077821,-0.0268841870543617,0.335927776455291,-1.15226131698779,-0.24428014715953,0.556154072496216
62.205,-1.65955955159734,0.1465323325917,-0.0331567935819082,-1.81045081158208,-0.0700657301282102,4.09374280645346,-1.19898040271867,0.139263561707866,-0.743081186122003,-3.15061426382124,-2.85525887392656,0.424795097084354,-1.13459609843433,0.106376357928423,0.085185624045292,-4.01491764633138,0.124150806600076,-0.755527260527951,-0.977565585081876,-0.0318865221143097,0.330517192531667,-1.14744822713416,-0.263548684612484,0.553215086460114
62.21,-1.63071052370309,0.0600450339923044,-0.0599095576883968,-1.60575481280685,0.0582715228951092,3.78218419527147,-1.15342669520033,0.151143508553889,-0.747629948924941,-2.8317609941828,-2.66862556363466,0.475758900524684,-1.16767796014921,0.0425021634245886,0.13402371037425,-4.14920702499554,0.138321625920768,-0.773680891834577,-0.969581022108281,-0.0384081165314974,0.33057412282773,-1.14399931589089,-0.271522811799626,0.554291331491443
62.215,-1.61242377485485,0.0250492642430067,-0.0727002865669976,-1.37684255260128,0.163794247156454,3.50565209297763,-1.1257561415012,0.160667518029364,-0.757589194084426,-2.56740505492598,-2.49816757941848,0.507711773358431,-1.18821679157998,-0.0388896193508758,0.195795434357552,-4.25813506378455,0.146819609106268,-0.772329017470027,-0.96210659958257,-0.0410681453369106,0.326934376679764,-1.14086754086728,-0.277345142303764,0.552041907330349
62.22,-1.6334427274301,-0.00631150193529044,-0.0827400166556129,-1.13829036014035,0.255061711141626,3.20453700818804,-1.10555813249532,0.18099294485562,-0.76188356628179,-2.32461422564771,-2.29707124115806,0.541938619014651,-1.20286732439171,-0.107443019914863,0.24150792011828,-4.30974076064262,0.139268442614337,-0.749242759839087,-0.956214641228367,-0.0546395262986128,0.327833454680907,-1.12172416221269,-0.270722248866836,0.54745112135245
62.225,-1.69029949423568,0.00290571037286385,-0.0759188147984948,-0.956559886823926,0.322747360160977,2.92958019929237,-1.08335053227043,0.196247033169867,-0.784488158162238,-2.16057422357921,-2.09538020099353,0.551305759820585,-1.19969058774742,-0.18888332505056,0.323361891757625,-4.36295254747374,0.126703655168884,-0.693683226809892,-0.959773390366163,-0.0533140631379464,0.331869358826319,-1.10534131526947,-0.256100739723337,0.546932190728334
62.23,-1.7739052752913,0.0351957380137667,-0.0210170488852325,-0.87762145207889,0.332745700829983,2.66441868618644,-1.05545452873422,0.217054536542047,-0.810912538446576,-1.97877068634388,-1.85121596141825,0.577068469294792,-1.20202267364097,-0.231250907306225,0.399255862735286,-4.3920517217195,0.0808675406955408,-0.624929049659164,-0.95664864649218,-0.0609888407707573,0.327566285131802,-1.10414618038145,-0.229390599711508,0.546402935523072
62.235,-1.85439441535553,-0.00882426638591816,0.0639429143264842,-0.874009514584407,0.264355016574696,2.44778958470912,-1.02010646314761,0.217093051303957,-0.850094544305342,-1.80095625363834,-1.63371543459439,0.616443229789967,-1.20241331877133,-0.263229052949654,0.497463512425345,-4.39105098171872,0.00896720470479237,-0.534415631657729,-0.957675374367843,-0.0630041713371792,0.326797193952899,-1.10199555371418,-0.221344744402972,0.550771713256836
62.24,-1.8877550938894,-0.156914727055664,0.107703764342495,-0.860618885463215,0.16169735088826,2.29800354105297,-0.993594812135843,0.171060213071813,-0.908196524553775,-1.72908375843874,-1.46678346075829,0.607426026341321,-1.20076480768883,-0.276569751814217,0.592852801348546,-4.35247673644547,-0.0838143569244089,-0.390916500392531,-0.958794271501241,-0.0700880614168898,0.325073823939692,-1.09803345069757,-0.219491847091171,0.547128819804829
62.245,-1.80200202407322,-0.243664708708248,0.0485994417863321,-0.723157865010749,0.012530747946269,2.12780277787996,-0.969731222534553,0.0968622707958275,-0.885016282961893,-1.72425376197561,-1.2303085919161,0.544795243686662,-1.19469763673221,-0.261121196955161,0.649586321392977,-4.25086523411969,-0.161204458760795,-0.272958628527453,-0.954896390972167,-0.0746564690409901,0.325452220155548,-1.09434616565704,-0.211727892857619,0.554794042486682
62.25,-1.63299455699307,-0.223670342084489,-0.117986998812528,-0.586453823247531,-0.0942720386260941,1.90143965321174,-0.950620137992734,0.0727675370375253,-0.824754819551762,-1.71284236607657,-1.03398519069199,0.494207371895739,-1.19597495870387,-0.244209139673643,0.677487143122101,-4.07065165856472,-0.209644560467242,-0.143309318391435,-0.958548441471293,-0.0749684601790246,0.32909871133385,-1.09262010532181,-0.217687383262313,0.551418066858856
62.255,-1.5112319965917,-0.176248306360561,-0.282668226402421,-0.57883523454416,-0.0882194024581676,1.66690374144726,-0.933461832444772,0.0752653452004985,-0.752063646642923,-1.67641599007989,-0.804899874254197,0.455213925529821,-1.1954659011283,-0.236452749456141,0.670554533393432,-3.79878977282688,-0.221968337693074,-0.0106839133249748,-0.958802773312573,-0.0889369293786977,0.331919868922742,-1.08155937474975,-0.222514030604913,0.552596026815016
62.26,-1.43913138539735,-0.161829412851399,-0.409557524524256,-0.668483487236618,0.0265116212277093,1.43967690210834,-0.912273278588688,0.072002335363736,-0.694055224809702,-1.61434249371559,-0.525644165585418,0.413150319689901,-1.17409959058943,-0.245042954597408,0.646274188366606,-3.52248214611928,-0.178133834752732,0.0898683627236323,-0.953833093998843,-0.0916812041676669,0.328300133114099,-1.06411618899434,-0.2243712246418,0.546041107013023
62.265,-1.42854498805842,-0.232007819452187,-0.479665347133649,-0.819110716886663,0.253478814182181,1.18196986084115,-0.888288630306152,0.0522328793456326,-0.693055558252651,-1.57518275845013,-0.253127424882749,0.37703139916015,-1.17436651559949,-0.263465190513339,0.605650799835875,-3.14246311591896,-0.0699381082100695,0.168460776980282,-0.947024591002609,-0.0940594475867575,0.329230188240525,-1.04516154663684,-0.2250549806412,0.54852436076881
62.27,-1.43244784196583,-0.254483092074696,-0.480763954462755,-0.829795740955174,0.491902712149676,0.985811466771637,-0.877529129612872,0.0133805970519094,-0.716536239089458,-1.54504915286593,-0.0235212432709919,0.327709197773033,-1.16176607975748,-0.283141649466078,0.559584219769643,-2.80762656507349,0.0462158025294741,0.206564006243047,-0.948567428820587,-0.101922997341386,0.338348520952014,-1.02750735558561,-0.228672461725106,0.539292207711732
62.275,-1.44576718922923,-0.2213747074499,-0.469593679536795,-0.716554355998292,0.718661292915262,0.837308487188456,-0.871434721862442,-0.0216954359699456,-0.73602658247073,-1.51308121826751,0.240202301867317,0.264826800260294,-1.15036625008858,-0.298855510129841,0.512258418609972,-2.47441626064111,0.170229586675725,0.222621534288488,-0.950320975681317,-0.104559159071442,0.3432141972361,-1.00803312676871,-0.223971697826443,0.533672654528145
62.28,-1.48948317134982,-0.165678391772103,-0.47150389521554,-0.567134967810523,0.957727575783068,0.723722467959487,-0.862306689376986,-0.0373652422189546,-0.750871759896415,-1.45140995969038,0.499672415694524,0.211440090109019,-1.12498570390321,-0.313680560811964,0.43476476047299,-2.12293681874536,0.284610353052473,0.223249348445761,-0.945771522211447,-0.0921974537865757,0.342607689059706,-0.989417196028285,-0.218300039366276,0.52519076028544
62.285,-1.49554964254626,-0.0831339879594089,-0.468697020924968,-0.459295583146163,1.2080667077633,0.633456584854312,-0.86099311498915,-0.0330051671908682,-0.751589799121478,-1.35855078537247,0.753581105264467,0.163616096746723,-1.09862815792592,-0.331367975455298,0.396410924903,-1.81845507841375,0.309141401987436,0.205925406016576,-0.944818839267406,-0.0984238315549544,0.346094007365736,-0.96259747006579,-0.191659642285494,0.520800291277195
62.29,-1.52991138345646,-0.102046870149592,-0.453619553461129,-0.461829190248056,1.39551551544445,0.560978763694101,-0.876854048361703,-0.0245909448887167,-0.734531110978303,-1.26954336858729,0.964937637602487,0.137213286771365,-1.09258677704529,-0.323945685352116,0.347775298987639,-1.43631145828426,0.265131766889294,0.187367058640509,-0.939866208469104,-0.097878524110263,0.345616213941491,-0.937251380838144,-0.168525259025095,0.515604870858497
62.295,-1.4164731285137,-0.0505692555995733,-0.352820486756682,-0.413450464575026,1.67201598223215,0.453354356771075,-0.906951919324759,0.0144126593120941,-0.641563567090649,-1.13239402183733,1.15430989202613,0.132582203520668,-1.10267149097776,-0.311219288327152,0.300975692821322,-1.03510224983743,0.184967548084836,0.18046148121357,-0.92433421797267,-0.0915515517810934,0.345196593829192,-0.904524776595958,-0.0886087475593548,0.489973484172416
62.3,-1.03674846758813,0.15893847538979,-0.0323922448360978,-0.426776378675221,2.0028022040287,0.358797993601356,-0.999535908337598,0.0536367959533353,-0.421997395460741,-0.989907978423449,1.31063686649429,0.162708736866622,-1.11752650181587,-0.294327729303852,0.267639533651596,-0.701130102367221,0.0884908912584948,0.182791325824491,-0.948951848604136,-0.0847051489524847,0.353503316624745,-0.879662169355897,-0.0331565959311465,0.485893337876414
62.305,-0.580960753735581,0.219098958690752,0.541499785743166,-0.557289569349885,2.45050492597456,0.23748354424294,-1.20169444684124,0.0783479561253875,0.111802935363047,-0.914465177474508,1.38307193784315,0.193281750890347,-1.14900135058053,-0.271079505432425,0.243501752635009,-0.372117023246773,-0.0513588123299438,0.173954776857603,-0.952311698137992,-0.0740652321139032,0.365924932673282,-0.87030026315031,-0.0379438698251484,0.502403926139481
62.31,-0.0603182549622681,0.341931985668905,1.15021217624294,-0.59067702293396,2.79858255395514,0.120092390317643,-1.43383211208989,0.0626808382850133,0.771190422621964,-0.934378032920158,1.2858740962181,0.217503954120097,-1.25583027781075,-0.239847946226433,0.289734082154382,-0.14322609716814,-0.281072401656775,0.158567406001489,-0.943323953044369,-0.0677852925615731,0.371946161098236,-0.876947776462922,-0.0341033109764606,0.508075701733787
62.315,0.408103607258515,0.559730539249148,1.87571464492177,-0.46729361312921,3.05450740264554,-0.0489342951557487,-1.63737880923972,0.0327393163133795,1.24039779715456,-1.0122066140021,1.10976102376168,0.285188321975199,-1.39088338773439,-0.212112226834488,0.357579315677498,0.102445398850649,-0.809387704131941,0.146912976292051,-0.933940938658553,-0.0597404349271679,0.380360104985503,-0.870223416558018,-0.0113602740966771,0.504977583287271
62.32,0.36994606547376,0.704069744150994,2.31248369399358,-0.155480356500039,2.98263894869691,-0.193180025715788,-1.63874953216208,-0.0459582617244438,1.12675171341931,-1.25941275578968,0.951994279214527,0.355613630713212,-1.37359512700515,-0.171599790229171,0.347476988615086,0.348194131177452,-1.38581461394254,0.176324123969386,-0.938804929760459,-0.0466241099590695,0.394926237781639,-0.868332624435425,0.022587647120992,0.503216282051954
62.325,-0.312544463831612,0.707353782941959,2.3411427055911,0.26531589851776,2.40990900127179,-0.227314648789282,-1.41742082251958,-0.124753529214062,0.696433382064138,-1.35835103907695,0.930134867061697,0.386875973804167,-1.26295243705154,-0.147127447133337,0.230037792785741,0.750667662376019,-1.76373235009528,0.304256111448579,-0.962708975592429,-0.040342566865374,0.401246527888952,-0.866652532111735,0.106415736580836,0.506052671630611
62.33,-1.13706289507232,0.734313888924231,1.89427334359925,0.447564002053917,1.52667623743961,-0.27468585709067,-1.17749047339107,-0.129889289892045,0.338726474685173,-1.09469134045866,0.978718217587822,0.364387176048264,-1.19916921625906,-0.122141623119429,0.103621289699304,1.11599005962389,-1.50259439777636,0.391232656032278,-0.991890099959619,-0.0188559750047563,0.401521981866242,-0.848139163768836,0.164523148585762,0.500737984152783
62.335,-1.33836853164465,0.37362211980624,1.34046075775398,-0.189051835095532,0.859076547354862,-0.314481647076335,-1.02901277248886,-0.0681264445351127,0.133906196216316,-0.785065385574729,1.03793982577471,0.336910429774535,-1.18375508898887,-0.10364617742062,0.0326107307852379,1.57951785632735,-0.796613373856829,0.469079293072005,-1.03765956131134,0.00683441754681847,0.389187540399325,-0.828021288205252,0.260999511244621,0.479072550660585
62.34,-0.990972248284479,-0.324996520332521,0.727486017184149,-0.957209000756463,0.439633204308561,-0.302705190362243,-0.930468217924049,-0.0975251034415135,-0.0488009260901882,-0.742991962208116,1.07686346018759,0.168069419973074,-1.16531672925754,-0.0842364731194644,0.0504385952550315,1.8239273388177,-0.0832217745986228,0.490609073272451,-1.09424244498943,0.0321050832525509,0.360694500992968,-0.820695667003964,0.366604191893967,0.46528510184311
62.345,-0.795835650282667,-0.526866006701542,0.432472078347466,-0.798167277422174,0.517100311674745,-0.640709002262773,-0.930400478200255,-0.0959800613772656,-0.2822744070457,-0.773215602002199,1.1111519443877,0.0339337775697517,-1.0470539525829,-0.094491821971604,0.0604520164101391,1.67068383046843,0.35897105221713,0.515714391883355,-1.11925905846073,0.045854779078867,0.330971396856579,-0.843792738739585,0.443288851118819,0.469254747137584
62.35,-1.01060507887273,-0.195874239585616,0.572632568358261,-0.717907255867722,0.627038628636222,-0.912022260467182,-0.94117613220921,-0.068418283393178,-0.398545382984573,-0.809725400034944,1.18763356150562,-0.0175920455630802,-0.919062373271097,-0.130424868631651,0.0394164372640959,1.30756585535056,0.454055499727307,0.55426299726022,-1.11895838671481,0.049288509934784,0.30506993169431,-0.869972671771933,0.493814631997642,0.479407152956945
62.355,-1.29101267434543,0.254080409024737,0.859517790538957,-0.700239500675414,0.51341428389753,-0.869254653028909,-0.956197260411791,-0.0707633543493206,-0.377345697286638,-0.894175799392901,1.24928065599794,0.00583160198110885,-0.838183901878226,-0.147898977108514,0.020579525318373,0.951463626375143,0.452388152393557,0.587567015550224,-1.09986526780549,0.0462856451024982,0.286231805540036,-0.900357361708838,0.500714182063624,0.484800189733505
62.36,-1.21259286851663,0.615976091241481,0.971930016308521,-0.534709679396216,0.203669963324336,-0.586682710557177,-0.989038061000575,-0.106338866516439,-0.212384445020495,-0.890391173665999,1.28457345966299,0.0610558462982522,-0.80108265760825,-0.140673744436946,0.010584774025715,0.576665320337948,0.366094468637336,0.601757163683687,-1.05484951867062,0.0555267985503588,0.276280931651177,-0.940093159436844,0.441942074198322,0.492066484538068
62.365,-0.834009586698294,0.648149878826006,0.84980095158335,-0.593100647192334,0.00580464307198989,-0.390492284045732,-1.05034835348973,-0.114858283177207,-0.00398812826809639,-0.770468634992911,1.2840245668434,0.118474863380952,-0.807261039959244,-0.125908918540255,0.00460119523921646,0.337989189650912,0.262684872629833,0.593409124451493,-1.03090080443264,0.0630983302420383,0.267588197082838,-0.986483253937267,0.357141194121452,0.504144480532021
62.37,-0.487696525803287,0.504738645364795,0.765416572118994,-0.659091889858246,-0.0352396501795494,-0.262756108118075,-1.12623337108087,-0.103766490908743,0.157244055289876,-0.603328693225088,1.25923337922672,0.215674743069562,-0.824418685780577,-0.0988244537036647,-0.0193414863298217,0.134610014461073,0.138800590855582,0.596330416816353,-1.004305408958,0.0821321266698701,0.25640430070003,-1.01224042446015,0.22731960478129,0.507439078277393
62.375,-0.385256084130527,0.315225272582904,0.809248706886482,-0.539168568190151,0.0454478726527988,-0.210817183920983,-1.09736487937713,-0.115116358482523,0.131801718487697,-0.465472765183696,1.22228405411366,0.343080748106907,-0.830327072847483,-0.103593929914328,-0.0720255048751696,0.0384788876766533,0.127853093975695,0.640637801911967,-0.990530401817258,0.0947885894059471,0.241751151393189,-1.03150372504646,0.0896281586810032,0.500699583507088
62.38,-0.485733513731577,0.189715263139054,0.912396523996674,-0.261102673767803,0.0821844627691332,-0.210543022797333,-1.03227514969669,-0.139558414934494,0.0596116917414028,-0.355413575734515,1.19629443365937,0.435572325142995,-0.840720394853718,-0.143819943074372,-0.157409476338881,0.00885500066711106,0.291461937624052,0.74219697002959,-0.993822416988974,0.106518004909056,0.231510171319703,-1.00251474187679,0.00237724389493409,0.481682997836792
62.385,-0.581962349809707,0.112489424497713,0.918203218097363,-0.00352530863007712,-0.0226810860892777,-0.238998228304625,-0.988667729450629,-0.178832694010684,-0.014430506697292,-0.248873712061279,1.15264277904903,0.453343702447515,-0.858510368244047,-0.192791675607883,-0.216425884650414,0.0815558088605715,0.507943361368303,0.837411938681342,-1.01026399854648,0.109522871354482,0.223519330457925,-0.95331468658801,-0.0671303364177767,0.456719008639453
62.39,-0.587618079624718,0.0719385677904254,0.872405428476641,0.0421035768850108,-0.123762243114956,-0.24756196333663,-0.958407323582048,-0.204766872557855,-0.0655037939227991,-0.0956851016287116,1.06627636247967,0.42189016622829,-0.87546537512434,-0.227955421576411,-0.287565236970731,0.238025139628744,0.742514749591006,0.913474290907176,-1.02086720875575,0.113455998222807,0.211451789068697,-0.891526556147967,-0.0997620376589494,0.434182959248054
62.395,-0.607457132062085,0.0776687229750299,0.821308962730559,0.0570059784468028,-0.196921035098501,-0.272845924254743,-0.936496084006817,-0.19057759995967,-0.11161710683354,0.0631736596974793,0.983644421857189,0.359764268984117,-0.891619106783637,-0.247519115730562,-0.376771160624806,0.467288466314891,0.93750578146007,0.976839696097992,-1.01603568336513,0.106136728003564,0.212944051053226,-0.851781496311589,-0.0978320788780702,0.421789171938087
62.4,-0.653078153054445,0.167845234191333,0.781897983818238,0.0662474744611964,-0.222596964436708,-0.293117751835183,-0.936322377218789,-0.123872492393742,-0.141085185657703,0.140078701056551,0.915264369575291,0.306259657604432,0.0964670943129617,-0.243315373856424,0.613761807778745,1.68144272551019,0.379769311796376,-0.123900664066296,-0.990487622965347,0.0870814038485159,0.216055074539293,-0.802420241699141,-0.0856391282861796,0.410750273641378
62.405,-0.684150487622409,0.373465488543801,0.743840600013037,0.0443079861164942,-0.277844975883874,-0.23420129193861,-0.960267628885875,-0.0393364308814633,-0.136408919889258,0.123954881485946,0.866681428338351,0.306756092539898,-0.898133368450053,-0.211362751418908,-0.473159952804215,0.870783842148114,0.967040595000324,0.965131746930271,-0.961117688651175,0.0571903590782729,0.230318511923059,-0.760219944678976,-0.0707467650902668,0.40443118825551
62.41,-0.695523728503685,0.491076610482311,0.704159350148885,-0.0518745671413744,-0.313982524268821,-0.131194643644239,-0.985376801525078,0.0264994641211918,-0.138002844399646,0.0744874468262855,0.825262381441561,0.33865639157006,-0.893361573617409,-0.14304752734174,-0.485918507101038,1.07317567389119,0.765506481841113,0.877648986900492,-0.92410558717769,0.0345373317196177,0.252101495826659,-0.714608817046367,-0.0482334015200367,0.394659492418483
62.415,-0.707603724630607,0.493847791622865,0.633999658030322,-0.215185597504755,-0.293712165570851,-0.00521433758022334,-1.00814158364368,0.0849498693663627,-0.151796418626088,-0.00207583195796101,0.771054347257186,0.369839843438399,-0.889810548172543,-0.0514667101456535,-0.466328552690739,1.19599554254148,0.529718250167889,0.793948299465194,-0.894556438467398,0.0106268111353447,0.278132852587412,-0.684376865050269,-0.0220879935071538,0.386540474542725
62.42,-0.847296747516616,0.36968646753547,0.667892831258852,-0.431778523258256,-0.161121587167263,0.124552638054054,-1.03370694743375,0.112222427021162,-0.184157832325384,-0.114252205265746,0.721269677293235,0.404332611692534,-0.885245539468455,0.0941437245337148,-0.402919137384282,1.29868737875631,0.198367599170881,0.689807265619407,-0.865816021539761,-0.00551173208692488,0.304905139570142,-0.665576872057573,-0.0166793592494663,0.379753459111588
62.425,-0.73466514772873,0.249621587478604,0.763252092721667,-0.470785062611973,-0.105920898300149,0.154709117972727,-1.07823584696879,0.0373636062815266,-0.15488771439963,-0.324973043432685,0.692129740181833,0.403195168703632,-0.901974690257434,0.214989742191003,-0.354655875956882,1.30655506813572,-0.018490315244764,0.622479235982287,-0.856184041569856,-0.0268320242242415,0.327142685582008,-0.659814079809776,-0.0201096306353115,0.374637761847156
62.43,-0.6702165812826,0.161919719896639,0.778688293440391,-0.523014985670254,-0.143273168376027,0.112797842233757,-1.110125681017,-0.0139063645376897,-0.130358528440044,-0.560506395952545,0.668663918972015,0.40193518200645,-0.928272101280995,0.339098650123922,-0.317491819264295,1.24250439861464,-0.177255027400377,0.558319792879209,-0.850505173242643,-0.0274940655010182,0.342979209104211,-0.686743986531382,-0.0196374115580933,0.368228350989794
62.435,-0.611778529417618,0.196010139159326,0.792454064703243,-0.461153888803717,-0.122489113504089,0.104124571941746,-1.12933339105689,-0.0596513831879142,-0.0980783311143484,-0.663124316361312,0.668663918972015,0.411353257330411,-0.971571583304159,0.457173836723161,-0.298914536063051,1.06462798803224,-0.229138712035157,0.500179062850928,-0.851842900150316,-0.0217988708675155,0.353336877125196,-0.723336894288646,-0.0169057120460089,0.367517530918121
62.44,-0.557867669690638,0.246511346466152,0.794473941897772,-0.418823123831073,-0.114459238115675,0.110236085738113,-1.12305991051088,-0.0908600925681651,-0.048163910654828,-0.703005361120145,0.643793940994621,0.412644044332899,-1.01796568685707,0.513587854050942,-0.289485347426814,0.828146314640197,-0.181809940930063,0.457276955061098,-0.856360125024386,-0.0176691706255402,0.357252285305161,-0.767770271150086,-0.00845231785282802,0.365181136035196
62.445,-0.568372323918775,0.288675253049981,0.776416846942,-0.449772416648398,-0.121709395113815,0.0951803881882192,-1.10118877177904,-0.0822333308236429,-0.0352202895165375,-0.717490674103213,0.628359953345412,0.416918878243378,-1.07518342607695,0.534850177085825,-0.273445974269753,0.420170176836453,-0.0519111227490011,0.409936718223314,-0.86665512109621,-0.00848686125880908,0.355934290925296,-0.797795993003261,0.00109873134613149,0.365894421477901
62.45,-0.574750359460956,0.310773111406121,0.773396437737967,-0.445247919969146,-0.114861756498647,0.0954706221388657,-1.06139356625092,-0.0383516964111008,-0.0436768818724629,-0.637944595048811,0.601273927607215,0.430223914114965,-1.10070135432796,0.507666186503599,-0.256182054203206,0.0520736993744274,0.0723202195982949,0.364528700345924,-0.880334978804659,-0.00628019194581056,0.340737288423295,-0.839085398385935,0.0307843562644757,0.353574845700988
62.455,-0.590309119316623,0.285610736314194,0.786225191154697,-0.433841832861186,-0.111725409675499,0.0797683570898417,-1.06335817619692,0.00251172744389571,-0.0397855278423539,-0.551861492020523,0.55618315885211,0.440398074170707,-1.10662086026925,0.435028621215924,-0.211110667578717,-0.371888481051479,0.186976270564081,0.296241972483754,-0.892071990592042,0.00212274075652798,0.322678153899312,-0.864080848781526,0.0620423278200857,0.328277098272286
62.46,-0.579837647678921,0.266116118457574,0.789345081510321,-0.367114349730689,-0.11997673590519,0.0651589674732798,-1.00033938028412,0.0173999668816108,-0.0414734817895397,-0.511748737684996,0.510847909275428,0.44090715316157,-1.10180435388413,0.379580314001269,-0.191810814946179,-0.612928120473294,0.236464350646887,0.235671954956816,-0.905225224523275,0.00326548447636698,0.309913671954263,-0.876325856495159,0.0938505276043817,0.316578807439095
62.465,-0.556271398237827,0.270647258410178,0.780484957989842,-0.278620537825733,-0.131032770300095,0.0468009971517634,-0.971752624943713,0.0170610762589794,-0.0363554281977567,-0.501549808910568,0.471775441326587,0.438208371400833,-1.06794994840201,0.284465672818766,-0.149577979329189,-0.910999613409303,0.263674787548412,0.104476111210443,-0.911315478718854,0.0159617683570716,0.291941051838755,-0.877628017055509,0.129794747017986,0.307371683278829
62.47,-0.554770922349677,0.261030538928788,0.78217286924884,-0.191947064403963,-0.140956537247282,0.0465736989188601,-0.959092406324043,0.00319868507143598,-0.0210219263414078,-0.458866494166273,0.435545370284308,0.43571006388652,-1.039623147928,0.213467870324809,-0.119553501444643,-1.07040106592132,0.246803394676267,-0.0292296065747244,-0.919538154054611,0.0213921870718736,0.269684233173758,-0.883271657371146,0.167261272630796,0.291759499695345
62.475,-0.552869201842299,0.25907949475078,0.794943171083291,-0.130781852878441,-0.130393619996168,0.0353741453664815,-0.95434144943438,-0.0287650524310187,-0.00701611309712673,-0.396865052903627,0.413157742226581,0.427884201923682,-1.00111679826879,0.132197094024406,-0.0956237203184002,-1.17750915831684,0.228127875813424,-0.151378308205894,-0.930490206835564,0.0394802076036755,0.248044477200242,-0.890293650831155,0.196310902246333,0.273848295982187
62.48,-0.539815754653289,0.244915137600199,0.801561709368791,-0.0847133438447023,-0.133643225479069,0.0379090761005452,-0.970347913287435,-0.0477923706174957,0.0135816512810553,-0.337332817096005,0.401855628028846,0.412445205234351,-0.98444659667189,0.0824224929288131,-0.0718604477679604,-1.27825697405653,0.236673340055743,-0.239789166941517,-0.941078744001419,0.0563882032141645,0.233094865263164,-0.884553330910751,0.220756997123183,0.256964267948175
62.485,-0.534620322745083,0.24646821261024,0.798588952004506,-0.0285938721225595,-0.108260445629618,0.0534924515006006,-1.00691632496741,-0.0586746621017347,0.0206826124812067,-0.28488270998672,0.402820725436707,0.406199135785725,-0.964510079667216,0.048197640435484,-0.0736192221061456,-1.42317285654269,0.300661965551208,-0.280302476278073,-0.959036673274794,0.0703136625026902,0.216662574265324,-0.87304248971045,0.250148252772838,0.237001844494811
62.49,-0.53997730037905,0.249912467479909,0.797059149958598,0.0022861737292459,-0.101856396831571,0.0707559717167162,-1.02875317726253,-0.0559618685745868,0.00752125373843806,-0.247461948497366,0.393897878202124,0.405722062300872,-0.961101725656257,0.0421639753409238,-0.0741325344024289,-1.53614863679927,0.376585852425484,-0.250706469751028,-0.988954630081021,0.0959472476445952,0.206524121368985,-0.861338922830828,0.293200830029526,0.226776161087959
62.495,-0.5428216810421,0.271609008744693,0.785696711563328,0.035634962772828,-0.101121857762337,0.0760659570024518,-1.04806736653805,-0.0415319951289701,-0.00194716270162124,-0.195092567285185,0.375280807291635,0.40338276141009,-0.970061563628303,0.0411291274910088,-0.0829749341498178,-1.65769047823042,0.455054299993585,-0.190707205791967,-1.01916391131952,0.114610681025448,0.196807985523384,-0.82924202074344,0.337604661538978,0.235362022865544
62.5,-0.546956385893925,0.301782704885855,0.775215366744544,0.0544621335055438,-0.0932937065244254,0.070848529822321,-1.048914192166,-0.00755287417444147,-0.0225005705609966,-0.139566018124058,0.36593991224495,0.406102741399012,-0.989524859101025,0.0403256444121475,-0.0819765174789215,-1.72489946225389,0.494415187466006,-0.132815914898369,-1.03405115859652,0.130294972781109,0.187737450909742,-0.789818711440799,0.373479761364695,0.249962108305376
62.505,-0.542174794452268,0.302279085708825,0.770131408720184,0.0262088545639895,-0.0905067087557281,0.0686484614199245,-1.04258025913105,0.0297955615240593,-0.0231712159252671,-0.0853474570246365,0.36181221637517,0.408348468394432,-1.00945346931847,0.0286017856818494,-0.0821112129045708,-1.72599035071301,0.482405540009165,-0.0829010638465021,-1.06295652945925,0.156115273169878,0.183506898077777,-0.745320070761948,0.426730188508735,0.284759132547853
62.51,-0.538650650332916,0.299877449086024,0.773925229163837,-0.0120531313593592,-0.0954646678141124,0.0597031074110638,-1.03706797037568,0.0482542538661838,-0.0286231129871151,-0.0786000028018443,0.34929159622569,0.416217863559723,-1.02317492526135,0.00187769098234289,-0.0830127557531867,-1.708998717436,0.481046700780494,-0.0283734547428068,-1.07593325050494,0.174664574127678,0.182327699299391,-0.732292522222684,0.46107374978497,0.312138718242043
62.515,-0.537184650446084,0.282318980321885,0.782702739070824,-0.0372860038051066,-0.0905880400776356,0.0487545741426699,-1.02897118988221,0.0568231442390665,-0.0292770705359792,-0.102354404981374,0.331335565026148,0.416217863559723,-1.02568695297177,-0.0274906840238427,-0.075792887406205,-1.68563049408073,0.503731827075712,0.0306892004112362,-1.08495558302662,0.189773958162125,0.18055687366513,-0.733788323286755,0.472719337446971,0.34107229497698
62.52,-0.542554195257466,0.273167422614329,0.784087211770058,-0.0195578221112127,-0.0877675593114949,0.0397320951229913,-1.01917230032901,0.0581256656486356,-0.0109362611476242,-0.142639518505476,0.284963943520463,0.418522710801998,-1.0286950204434,-0.0560030481224076,-0.059254860844259,-1.65365895202344,0.571945354641309,0.0961925461876649,-1.0876368683298,0.207894204302879,0.174284227018872,-0.752101604527014,0.469629748987464,0.37945979354345
62.525,-0.552403951810356,0.268233351540826,0.784168407307836,-0.0123429139567961,-0.0864676048090311,0.0439054291795845,-1.01440695053494,0.0556769674756586,0.000658193049547352,-0.148059179877385,0.23895386555203,0.417769984543238,-1.01200919164035,-0.0920367318339877,-0.0498839648722298,-1.55735712388643,0.652015935353339,0.165823693554754,-1.08406805394274,0.216577969806911,0.179377219126657,-0.764034996809546,0.46302391983759,0.412894943699338
62.53,-0.552622385444753,0.265387329420921,0.786336351046109,0.0112456700281336,-0.0856850267533827,0.040152035323056,-1.01046060845466,0.0527758923508761,0.00137771132843643,-0.141720235347748,0.188007564843712,0.417089138842139,-0.986956040125833,-0.109153430531256,-0.0444594436966091,-1.42236621091135,0.706852831044271,0.218017654305247,-1.06977405626213,0.228026586017938,0.184088378173598,-0.801562734187062,0.455601064735559,0.457658160611746
62.535,-0.548535331653361,0.259955345156541,0.789586811503883,0.019054482847705,-0.0720897139159472,0.042711357023761,-1.00848309007268,0.0493971467834452,-8.97549584374295e-05,-0.139540645826216,0.156722065564262,0.414864278471027,-0.973163610881865,-0.116811736323957,-0.03992254605015,-1.28112619698789,0.745965892997229,0.25985734363341,-1.057290427786,0.233886955912214,0.187037280567496,-0.82764581966184,0.447706214770705,0.484647475184805
62.54,-0.54153035874285,0.252761459215159,0.796749476010133,0.0322584233341425,-0.0648222885432642,0.046809233725071,-1.00282549638648,0.040465532329663,-1.08252330054317e-05,-0.140808697419661,0.135798392443327,0.407604851325218,-0.958971052888703,-0.114439113362565,-0.0323290958288799,-1.08875688990235,0.760847312866168,0.299011295952786,-1.04133010683556,0.23469851722555,0.198595959082274,-0.880096147436476,0.43855942384326,0.51572670825554
62.545,-0.541178592549386,0.24171882905829,0.795965528149643,0.065262388889119,-0.0679249326930444,0.0445250527139091,-1.00786010607137,0.0291989532157163,-0.000222867728099707,-0.143448839268364,0.125877853470844,0.392221596853002,-0.944834548183964,-0.113738802630748,-0.0256947599408967,-0.891801967039973,0.73005553310295,0.315825896418445,-1.02001554075131,0.228983099511381,0.212094492726344,-0.966161690259116,0.421527412643042,0.557770886184847
62.55,-0.546924029045442,0.233445712607712,0.808074379326322,0.108114020012758,-0.0569461552735916,0.0455875396728516,-1.02150766873971,0.0151742106260579,0.00779037434321376,-0.123317420758856,0.107256642486758,0.378600006358416,-0.950407921858694,-0.107763337052007,-0.0144273832846237,-0.799445215686514,0.694064127976815,0.306143337277134,-1.00648094488558,0.218389110085583,0.219452684791272,-1.03118728431152,0.40836064387022,0.574992504795607
62.555,-0.535974242332547,0.237558423090285,0.803954751763859,0.161560319159971,-0.0590654028540809,0.0497797684134304,-1.01408135689218,-0.00057873293380891,0.00743730879337941,-0.0832466766742329,0.0821488745270762,0.383459675861475,-0.960338096112025,-0.0851347727911752,-0.00533384925407386,-0.67796472963507,0.628799943012086,0.266466918662794,-0.986767764134198,0.203325389916235,0.223645660272692,-1.09530943457052,0.394154162186653,0.582971978302329
62.56,-0.530543822722203,0.264763746074505,0.791625103600589,0.209372089918868,-0.0576616902784043,0.055711522468153,-1.00728935482205,-0.0132970754851355,-0.0220826012928107,-0.0914056895279439,0.0613142842721201,0.377785272536612,-0.981106900231794,-0.0572693011424777,-0.00445865758031123,-0.588104167338837,0.573254397132999,0.21378543681619,-0.966169594693495,0.191164850939425,0.231493859486593,-1.13834558501441,0.383747162437757,0.584604686176744
62.565,-0.529577584199403,0.269484742188245,0.780898544539836,0.227774505033366,-0.0520855387974544,0.0588157301167902,-0.996502789901985,-0.0201576724112263,-0.0381414410211388,-0.0634496793461493,0.0515513024776907,0.380433821267037,-1.00194185009128,-0.0150970884749783,-0.0144325079847702,-0.517512390097542,0.551630267123998,0.167531066678575,-0.949952401820265,0.171507441035793,0.23818009401867,-1.18078199880972,0.385682149144292,0.578442858246684
62.57,-0.525428134009061,0.273457460581241,0.779082728211395,0.242125268238058,-0.049065463539419,0.0655280346251647,-0.995894014920889,-0.0073982826617982,-0.0374070449447421,-0.0269213648925004,0.0582216924905365,0.377940357067443,-1.02209298301837,0.0225569796310985,-0.0256601101417173,-0.464128832186919,0.556548660848555,0.134643801043857,-0.943938660219006,0.147761390060761,0.243597849237803,-1.19176262769098,0.383635929434073,0.575524664228365
62.575,-0.525642320746191,0.268632225573428,0.780764481981626,0.23541843086445,-0.0457636960962344,0.0671961354279635,-1.00138395683094,0.0102370163188824,-0.0324496967555544,0.015016156829394,0.0598895545359227,0.372867915603925,-1.02087104921474,0.0608110604085354,-0.0410807769071879,-0.415252709420149,0.568926836453607,0.109553292457945,-0.940167174582525,0.116685607661974,0.241996369050868,-1.17900130827594,0.370445340235738,0.559681869341616
62.58,-0.525873987981605,0.27277805040652,0.778484233982541,0.234674964452107,-0.0451806629936828,0.0666131058810555,-1.00197251977352,0.0257781131986084,-0.0378336329281756,0.041553354610434,0.0543882012413614,0.369057880827106,-1.02762519885554,0.0923968051321499,-0.0544564120006785,-0.38722744709419,0.569920646371048,0.108217538195845,-0.932184390872083,0.105253652050954,0.243134601031893,-1.16193417341574,0.372449572293754,0.544764144258413
62.585,-0.522189837651935,0.284550017959292,0.772765816814325,0.244008780344645,-0.0420641178617478,0.0734180799878438,-1.00439894192715,0.0341416664251487,-0.0366314873521613,0.0520947845452102,0.0439436593823703,0.366481274422709,-1.02085472948598,0.109845152150024,-0.0625334312508164,-0.405750341124985,0.577404364910563,0.104716412723064,-0.923973230171558,0.0760353334718662,0.236386555315979,-1.11463361206422,0.381400046102107,0.551339370599157
62.59,-0.52899224397147,0.290092951256213,0.773905727848252,0.240210322007784,-0.0412370922653803,0.0721621088819495,-1.01343004297491,0.0492013396837316,-0.0391665016434779,0.0521547160023054,0.0369523010953931,0.362840441881001,-1.01759890116851,0.124023846830041,-0.0807793996912797,-0.418538617315331,0.593281911278605,0.105704335180196,-0.921516494382243,0.0612508493267585,0.231275763112077,-1.08794456338545,0.387019285136422,0.55136677607813
62.595,-0.542823959891642,0.287393852291286,0.781079234514436,0.232380212795586,-0.0255777080083151,0.0702223426790132,-1.01900323698923,0.0705969255259351,-0.0232956392691292,0.0728886717831822,0.0161700375808626,0.368756701108441,-1.00546167010684,0.136593621746465,-0.099938392658031,-0.425816456021199,0.615105076141535,0.109341445725171,-0.913869282195675,0.0392029648381987,0.227632559705194,-1.04078072783151,0.403676388950499,0.54413589049741
62.6,-0.551548946526419,0.272466903977968,0.791258008673275,0.244333876082159,-0.025006824316354,0.0623944976562144,-1.0202859088121,0.0798598174797128,-0.003020208280599,0.101058243277509,-0.017768017449581,0.368745669616399,-0.987403884976154,0.149019895901906,-0.113442486407873,-0.418874300681066,0.639630432216184,0.112974116713346,-0.919846949301219,0.019174281897062,0.227664213628675,-1.00951502959269,0.413938599774483,0.518142799310992
62.605,-0.542360349413728,0.280413129307733,0.788136307326497,0.26883268168342,-0.0284971634709309,0.0602161438032466,-1.01374921542419,0.0719746269834867,-0.011800097030589,0.0944372275594463,-0.0424524888697642,0.367420137961465,-0.983404602243763,0.150137927928921,-0.121298380616084,-0.415266442661137,0.631530528409374,0.113769498868899,-0.930195977513432,0.00851809735240944,0.228871978758531,-0.94955590636685,0.403752072859048,0.450749533597351
62.61,-0.548682839719597,0.286231959913828,0.793018193215425,0.285670002221789,-0.00866750449882753,0.0545458331523754,-1.00900097570831,0.0750309806159851,-0.0100166338914863,0.0855149477720261,-0.0584462460420053,0.36034300432998,-0.98272185278213,0.159048863293628,-0.118411327217689,-0.409439951181412,0.607209382356516,0.117132493572153,-0.924415497436669,0.00956953310913597,0.226335843724364,-0.899093032356604,0.392465114531683,0.40912434884177
62.615,-0.543389826311322,0.279068122073675,0.791896902278491,0.310170818764036,-0.0314734361058213,0.0561119976936835,-1.00836938929313,0.0793100980805218,-0.0131823337678071,0.0617600127578785,-0.0672515375595134,0.35482226614622,-0.977367888245499,0.169186644568889,-0.109276854049777,-0.411051389589238,0.552941328480702,0.120988197035626,-0.921392672490592,0.0086264257676237,0.221095691577083,-0.839953611105497,0.414434508618834,0.348010909304681
62.62,-0.531986360634767,0.286985282654046,0.78261462891341,0.313849607885188,-0.0326669521585578,0.059538864525308,-1.00771681443729,0.0741842353830499,-0.0191070732079715,0.0237552173990046,-0.0737632352461142,0.343958450528785,-0.980596776464547,0.17867451701981,-0.0949489018813514,-0.410861919668237,0.495293611224037,0.125905780687089,-0.967351801263975,0.0278279155879066,0.246801006442941,-0.786784596463105,0.42214954718977,0.319749274291337
62.625,-0.528833038922027,0.300734040121595,0.77401836331074,0.297361731678817,-0.0241107137864623,0.0561607622227998,-0.99438806333324,0.0835616026502516,-0.00988428257769132,-0.0182820760542987,-0.0744154632463328,0.331510704769595,-0.976116030062336,0.194382544781187,-0.0787307996937127,-0.438105750579319,0.432944251745081,0.124458257496155,-0.996127558166028,0.0500774852856518,0.263215007076415,-0.768278172809883,0.362143611894414,0.308088796492031
62.63,-0.531254086013407,0.303094731518721,0.775607740235208,0.27796722461452,-0.0196496628298274,0.0553416745792263,-0.995518643345933,0.0985961295488794,-0.00233418437048986,-0.0579479434641352,-0.0700248614237006,0.321099955070253,-0.976515305734933,0.212235358526556,-0.0573737717874795,-0.475663693829231,0.386577803637195,0.118751158151549,-1.0113705758954,0.0528919910782964,0.273288756408783,-0.763409961232321,0.280279312053894,0.283658082400407
62.635,-0.527311090961755,0.301801897638664,0.7766461498944,0.269993669096752,-0.0263776176483491,0.0571156412740703,-0.9958744459517,0.109148308457584,0.0015780836625039,-0.116709217773818,-0.0743571796973574,0.307506292172369,-0.98001779382238,0.218578318344113,-0.0437702474421775,-0.51885971871304,0.362304665574551,0.117223628304203,-1.01327373169385,0.0639720954472004,0.287825314780485,-0.734707303462693,0.192527033202899,0.247457686668294
62.64,-0.527218428750794,0.304073407433761,0.771140417021429,0.263500175763215,-0.0279265439894135,0.057698124109131,-0.99539876665236,0.118077287787476,-0.00525341985702635,-0.183292277434238,-0.0698911767570305,0.299214486734705,-0.983667536845457,0.230611287325273,-0.0273232596814383,-0.574436176102241,0.35140334996653,0.115843664998172,-1.01616018936054,0.0753389098403785,0.29426486404482,-0.703212683513367,0.14123950044974,0.219295204393173
62.645,-0.528365288577634,0.307151366053542,0.777678941282123,0.256272949088571,-0.0163631467871045,0.0541394017636776,-0.99576159103953,0.120930567403445,-0.00470018947593006,-0.226762400448365,-0.073960605879033,0.287577644437739,-0.989609533856781,0.231812106909872,-0.024625234399519,-0.623918218427822,0.350335765321312,0.109639406871929,-1.03079486310197,0.0838336878285657,0.314291205408759,-0.660729128258781,0.114095100493845,0.188880086943365
62.65,-0.523409089857054,0.317937309937839,0.765677500233773,0.236012021920514,-0.0203904731266127,0.052818167775117,-0.996474213564451,0.125460201249267,-0.00553966558413489,-0.266351783972902,-0.0823973134384394,0.275643426787442,-0.990223661879778,0.22893409264006,-0.0263569068076059,-0.64476704227322,0.378148444333918,0.0997109411607484,-1.02915488244028,0.0979523440164882,0.325051215549492,-0.620258127610892,0.130297840293879,0.176082319944181
62.655,-0.533407267490342,0.315124771922431,0.772102753543058,0.213382652306084,-0.016127669336882,0.0457662943199659,-1.00338969193226,0.132474115872086,0.00105055536693531,-0.296441835586714,-0.096392621153183,0.260786868594605,-0.994726248805614,0.216560866483375,-0.0282374818221507,-0.651866052578661,0.417116842132561,0.0877437141356158,-1.03563387533011,0.11355637545982,0.331199051113844,-0.58591306334225,0.15551398838747,0.155439163269637
62.66,-0.540311503541782,0.314771800512147,0.781479446751725,0.212088382900765,-0.015603244304657,0.0411446062630855,-1.00700792920269,0.132532092433974,0.000405632649510708,-0.323026309553025,-0.113143496010385,0.249495087807392,-0.997576376347769,0.203369889845138,-0.0265589673022487,-0.646228102197979,0.46086640602667,0.0717102778910086,-1.03920656648945,0.133652435301403,0.327479030469782,-0.54094353930766,0.179699214876725,0.135280427328545
62.665,-0.532284718437261,0.32023964894988,0.766306047333186,0.216015857071441,-0.0289212591983148,0.0298990777281536,-1.00747930498152,0.118799940067013,-0.00828209817907183,-0.366533632445124,-0.128704337753214,0.233361916266523,-0.997233972450149,0.184593215394278,-0.0359006162884596,-0.621344629615848,0.49122351600689,0.0632477407269558,-1.04730572938519,0.14214746880011,0.327870201773663,-0.516715144132152,0.19691728729746,0.126117587621029
62.67,-0.529551555664117,0.325957845797483,0.757493789480239,0.188109710738237,-0.0330262443162007,0.0281830125845259,-1.00193459987094,0.102785325930492,-0.00536136872644729,-0.39824585338221,-0.140560716524328,0.21982093813551,-0.990510313913499,0.155790578053015,-0.0517595824100503,-0.559457447724894,0.527122841975413,0.0577067227944915,-1.04291815444677,0.145507330357414,0.31825824863797,-0.499593183120133,0.2267843464944,0.126261814046859
62.675,-0.523035137431107,0.317349725982826,0.762989450723821,0.152675764416067,-0.0246111629697799,0.0197854677211481,-0.997194344944802,0.0914726859801703,-0.00261328824340203,-0.41362617152803,-0.146790097797799,0.211611071150976,-0.986120963687733,0.13012707659343,-0.0543497994044046,-0.509993065448987,0.549675613282665,0.0544550100388074,-1.04167737461416,0.15392794075276,0.305698508397395,-0.472660569135893,0.23822511674625,0.128827536466038
62.68,-0.520946291631504,0.314047357174536,0.764675391225233,0.124581240676605,-0.024010761536763,0.0140734757697767,-0.996945563807736,0.0783928303030178,-0.0007610605162017,-0.412465348153312,-0.147960310385771,0.208372788576635,-0.981236988866998,0.105801634232681,-0.0546607882963359,-0.479571386215012,0.563662107379679,0.0506088398019906,-1.0326260416523,0.150689253152991,0.297782248188176,-0.454120386124001,0.241890301687208,0.131219136872498
62.685,-0.531465525808652,0.317525894471278,0.768181483813818,0.0980546182044516,-0.0208465706250431,0.00616299566770474,-0.996662001591067,0.0633336383898553,0.00312954813801623,-0.397606588363635,-0.153790558755405,0.20200595492124,-0.978762266725883,0.0672353713351229,-0.0512215747064098,-0.431436631359938,0.566267010674512,0.0461627859860608,-1.01423714143321,0.150769922568879,0.28213627217741,-0.402080716479293,0.24235341796186,0.134149004208922
62.69,-0.543860904128356,0.291845564822377,0.791899896809918,0.0936406531727803,-0.0274253204587629,0.00621152073056154,-1.00154775966131,0.0598926201543867,0.016525242142138,-0.3432993133742,-0.163309991359711,0.201532942371458,-0.974399173916898,0.0525713525728978,-0.0474842215497842,-0.400244747565523,0.564161567987068,0.0375232174992561,-1.00103130061191,0.149370430984005,0.272949181905755,-0.374448734508503,0.227233575615658,0.143079323111209
62.695,-0.541188790482326,0.280427281771417,0.788637851545515,0.127356851704968,-0.0374196263855339,0.00537152763689098,-0.996035778496897,0.0492618639758381,0.0205286078664451,-0.30548405672658,-0.162452388607125,0.207437544188656,-0.977979523125961,0.0375185872530331,-0.0397736216554797,-0.38327160307607,0.543190180847764,0.0322382714695477,-0.984409061758688,0.146685353658727,0.264809364048882,-0.357521236146849,0.209608680448433,0.161430060498002
62.7,-0.531894854385308,0.294373132633176,0.772683995291396,0.152653280022093,-0.0353600968323427,0.0100010873395715,-0.991316171240239,0.042177086118844,0.0153569660334956,-0.277959831070393,-0.157369933460296,0.204991028897112,-0.984703709703342,0.0404203316225623,-0.0263428040762255,-0.365632270475378,0.521100778145265,0.0217760051097244,-0.974738076585918,0.14103727641549,0.260817834569589,-0.352789876521937,0.192294629174128,0.184164424058599
62.705,-0.522686345650982,0.293106577825299,0.774696044341015,0.158467837008485,-0.0297757739008809,0.012112520462438,-0.988900942694346,0.0438019735197469,0.0208661951942024,-0.246896121192167,-0.151271568241192,0.206525723910157,-0.99206866026023,0.0387250139032783,-0.016411408489498,-0.35756074556322,0.491229884918492,0.017124049407245,-0.96794847894598,0.128468040960407,0.257437281728999,-0.357915370995297,0.180956127753586,0.203689680776226
