Header,foot_Accel_X,foot_Accel_Y,foot_Accel_Z,foot_Gyro_X,foot_Gyro_Y,foot_Gyro_Z,shank_Accel_X,shank_Accel_Y,shank_Accel_Z,shank_Gyro_X,shank_Gyro_Y,shank_Gyro_Z,thigh_Accel_X,thigh_Accel_Y,thigh_Accel_Z,thigh_Gyro_X,thigh_Gyro_Y,thigh_Gyro_Z,trunk_Accel_X,trunk_Accel_Y,trunk_Accel_Z,trunk_Gyro_X,trunk_Gyro_Y,trunk_Gyro_Z
45.31,-0.527355060987171,-0.0129082646261494,0.87859952551793,-0.677427938796999,-0.127754783034151,-0.0118161656423083,-1.13309315345523,-0.368780850018629,-0.0331359678905879,0.293391067679124,1.1711191018086,-0.0177013742245254,-1.06957977473738,1.15245354146526,-0.0440899521389415,2.80374205750173,0.533567556336525,1.01416360135066,-0.676374055690406,-0.0703550696851502,0.250090470052703,-0.976004143284561,-0.114966682266512,-0.564988483030631
45.315,-0.516655865267007,-0.0830840797039001,0.874825479452937,-0.311609320281044,-0.0691737234000514,0.0854715361249627,-1.19453049614557,-0.268465556638656,-0.086994704572975,0.527712373596094,1.24856164719493,0.0405679158158097,-1.11733446405988,1.01497121039655,-0.0342841014897717,2.41724371982074,0.883856709799069,0.715195970074157,-0.67200128957205,-0.11761486865302,0.249591592905849,-0.889427416073694,-0.0635546195516787,-0.576250014728511
45.32,-0.55165751562002,0.0196172729799221,0.864400167081485,0.108531447285349,-0.0197179646881834,0.180074832596835,-1.19770898664751,-0.0162707705668208,-0.104609762457729,0.659722714698476,1.28544095953932,0.0593937079143044,-1.19068354393018,0.629047898786261,-0.0206999760448961,1.53818355754396,1.05787513696578,0.303438644333416,-0.685091610127905,-0.156596903642923,0.209735710993979,-0.665470665790389,-0.0266481266045194,-0.553174108083031
45.325,-0.556014481064408,0.19557235870838,0.844407175278678,0.404795810924443,0.0200299311108967,0.24035035631446,-1.15018408056502,0.245180264499249,-0.0388949224857153,0.710635995438342,1.29739805600243,0.0757095959486958,-1.25955412470643,0.288917013747617,-0.00289934362463214,0.635750356043341,1.01853444273518,-0.0047665029829731,-0.685054578062443,-0.157643681860111,0.179674835554072,-0.497553891335008,-0.0120411622834183,-0.533238483715221
45.33,-0.529387064225767,0.22575908995294,0.822666838741406,0.510198250824955,0.0434378507843342,0.253924182043668,-1.1146030602176,0.422748542350918,0.029903499373223,0.565025442214024,1.28351366921444,0.100362028324313,-1.30398428316544,0.0541132233954255,-0.032161168798455,-0.195125296598332,0.846620909960657,-0.204448743546444,-0.682758199765072,-0.117624049917802,0.110590765158789,-0.203114694023971,0.0150327846252464,-0.482906256909296
45.335,-0.518899112414811,0.18294754331209,0.801808168954718,0.63380274878247,0.0623169974499651,0.269306475326899,-1.03496703508086,0.489558439361882,0.00193744976714493,0.148932389848385,1.19604396195545,0.0951588764042908,-1.25699759109797,-0.126342085329338,-0.0893059379209396,-1.00557003214289,0.669624133467763,-0.393985557695173,-0.696844966748682,-0.0732030768836592,0.0687698250574806,0.15361991144251,0.0575615432798491,-0.361141476426402
45.34,-0.551781684245166,0.228745341558164,0.776220166324634,0.790479777626764,0.0745726842187126,0.287494499002119,-0.967326541589644,0.480889864947014,-0.0571277810655594,-0.29518224158185,1.11312605750426,0.0397282144251552,-1.14948163552071,-0.1906337068676,-0.0800882242365444,-1.19882295014596,0.605167603561876,-0.47823777145734,-0.737688149489772,-0.0313098523961857,0.0638294760746038,0.447212126248579,0.0926853314879729,-0.242942255066009
45.345,-0.574787638217112,0.376322417193951,0.755559015929085,0.876294972011609,0.0712069014702366,0.296682607686337,-0.884041338316979,0.484932877094081,-0.0645676201318067,-0.550042606649985,1.09939372365189,-0.0617150389339761,-0.999111065483558,-0.187770774611648,-0.0283187488943676,-0.978918001769526,0.560005600751188,-0.528186948808643,-0.791024991704418,-0.00208816477587926,0.0667453909889393,0.60880147312247,0.11415584942902,-0.157665050024254
45.35,-0.552807909503243,0.461553542422554,0.739894978985457,0.723738500637538,0.0316129511495956,0.25446740258916,-0.856425257392186,0.493868003054438,-0.0157974429423648,-0.64135969005598,1.14555766651665,-0.17850180357979,-0.900213952959634,-0.123605339002064,0.0156831259558036,-0.614839430836933,0.535897348830551,-0.515728159013326,-0.846992281297703,0.00596513671005473,0.0802200924086932,0.70500753773827,0.103714517125325,-0.0826567924245028
45.355,-0.521036743515822,0.440294069097895,0.730898852301702,0.471694862743084,0.000684342648218042,0.184576221085937,-0.850557903192045,0.439138782157301,0.0217314104088007,-0.72723095521791,1.18099773905858,-0.296902565623569,-0.816189811718457,-0.0233879269884735,0.0341639953066368,-0.215637883711236,0.539877455800256,-0.46716535601206,-0.906748173573403,-0.0117034756908523,0.103566999585218,0.778350159876105,0.0270041602993237,-0.00790962319577178
45.36,-0.530053594621257,0.448340973433054,0.708675588132138,0.236359466617934,-0.0127225024814818,0.122416905157588,-0.879870049686249,0.34599099603927,-0.0140887165218103,-0.744997192789536,1.16352334231523,-0.36063359267453,-0.764086585150158,0.125831827002942,0.026491301435251,0.0860629145025679,0.620017736486445,-0.373611616614097,-0.945570370740305,-0.0433144371433562,0.121836283205626,0.870344320118192,-0.119249998946898,0.0708782737094763
45.365,-0.551103730349206,0.481718485859265,0.716007570813097,-0.0122996634466881,-0.0350790642856323,0.0551621089253753,-0.921870132210303,0.24766860879507,-0.0485488723656111,-0.670754410860335,1.13707876970421,-0.372581247418961,-0.74299545136564,0.287905952898428,0.00898451083648787,0.288334322865393,0.780445369423938,-0.216988297794998,-0.957199346304736,-0.0325551313815855,0.147740321170658,0.911809658819443,-0.262026221885113,0.100303845003837
45.37,-0.552806282036104,0.461155619583231,0.729116689823162,-0.178305068176541,-0.0571700108638673,0.00910046907489711,-0.951179507343315,0.197949394626578,-0.0422587588846598,-0.483423186317647,1.11083116181293,-0.308342719979922,-0.764841255272991,0.385421422497676,0.00992273764125167,0.460962228814508,0.919759713170604,-0.0599309070558462,-1.00609152582745,-0.0318322264627116,0.176034169850108,0.914570890972988,-0.401829162247915,0.169144766646539
45.375,-0.531869684410876,0.385023552537897,0.741826116866236,-0.386322578106975,-0.0901999536910888,-0.0492113689153359,-0.986605563939614,0.167414921553192,-0.047686557044251,-0.299627655403527,1.09640064020985,-0.23398366195326,-0.813943303569198,0.552715824148076,-0.0145913033616654,0.553817564682599,1.01448921517307,0.0813099152382763,-1.05435618308101,-0.00729498429722339,0.215419859376511,0.896932644303607,-0.430487324475264,0.202847199258499
45.38,-0.534102850672078,0.333412294543364,0.751876500835723,-0.495568008268187,-0.0953369071291632,-0.0837333313074935,-0.98897749551124,0.141008810512282,-0.0721863241860148,-0.146532093003161,1.064938881548,-0.173820177592156,-0.859133020966536,0.632138808060812,-0.0310330845359954,0.522876595082635,1.08050599275709,0.186762577636242,-1.09155628398326,5.39951465126093e-05,0.244624058681569,0.838868203011134,-0.440649668195457,0.221353500905214
45.385,-0.542904942704636,0.304535508074215,0.770281682467242,-0.559416411328352,-0.101034798665345,-0.105619640209041,-0.989709808568475,0.127867513213411,-0.0936292158008716,-0.00693616360870893,1.01957861732471,-0.143441824511691,-0.91503853401914,0.64513294144241,-0.0274252091351231,0.349391958687541,1.11931653011999,0.258460725994816,-1.1431537030888,-0.00416036345600353,0.294325387957237,0.79183623419207,-0.431853794576385,0.219153077673198
45.39,-0.53720379042174,0.295396167796521,0.779601350160853,-0.526623692878904,-0.099793124623071,-0.113636642591305,-0.985091793574628,0.172249903615606,-0.0963847757517315,0.123432955288705,0.968833933358685,-0.148204997181892,-0.939569031583731,0.592970546631636,-0.0164708118503049,0.121314623700189,1.10169684171323,0.236012695294535,-1.19534495030981,-0.0185024414425903,0.316217404760907,0.713382027612301,-0.426893247022016,0.185363947667862
45.395,-0.527110200311828,0.286381478244967,0.78725256611077,-0.414276867154744,-0.0880177021044289,-0.13242553126279,-0.991822763322229,0.212151748259528,-0.0787917577067693,0.165424214993474,0.943953380828931,-0.155220759567277,-0.962001285138648,0.519291555071592,-0.00254520877426052,-0.0706771202977113,1.10920883841846,0.184024821678363,-1.24203140724179,-0.0337524959853807,0.324788735083729,0.611011408385868,-0.44932369478656,0.122632489004167
45.4,-0.522604537047245,0.289814476233152,0.787658241864459,-0.303132179806485,-0.0727095976665364,-0.148520967440405,-1.01019714853734,0.241120932411008,-0.0659349907104536,0.205291159964369,0.932137937401409,-0.172653209737966,-0.966006016912246,0.394426519690826,-0.00961912448141012,-0.345777337699469,1.14678171495302,0.0871218700245146,-1.27907846140636,-0.0380256508912855,0.315921839068532,0.489252060934438,-0.450370877842065,0.0234080471440104
45.405,-0.529633475095295,0.283690042165187,0.776779183172069,-0.203759776346759,-0.0547896616743402,-0.159151792497599,-1.01163695393818,0.237857432666457,-0.0790256035390293,0.234536946257988,0.929023354258467,-0.183149412350902,-0.965778408469322,0.300004476301902,-0.0436347093541994,-0.507917057795082,1.21809515676118,-0.00778545252195703,-1.28718258756104,-0.0458792637984419,0.307756058401704,0.384072211240261,-0.424216206077776,-0.0771232635733828
45.41,-0.543260375856343,0.284093267262741,0.783197238651889,-0.0989099413427361,-0.0443107211086915,-0.175135054727926,-1.02161146584039,0.225865196212917,-0.0880589187484235,0.246492894469403,0.926516066416331,-0.201739985034718,-0.979612217209304,0.182341586703621,-0.0965040185097231,-0.568807025123471,1.31445878641573,-0.105353884467975,-1.25880999830773,-0.0476758113141597,0.281686560019512,0.346635688197073,-0.416366282637109,-0.18968120324772
45.415,-0.546585456733505,0.272661531963942,0.779881594019074,-0.0278549610511464,-0.0423120120033,-0.177624474403842,-1.00721898613968,0.218235603370162,-0.103872481286171,0.224729837862339,0.913265700293946,-0.221657519791807,-0.978608342403332,0.0922990272359684,-0.120407994235666,-0.479493958558715,1.34074683827258,-0.159639553291534,-1.22595863891889,-0.0589901488772829,0.251957497212174,0.406702853467771,-0.403901809334316,-0.256943899752026
45.42,-0.551364855244187,0.262836951937385,0.779401135218559,0.0305664024914312,-0.0414243491609907,-0.164909146966498,-0.994861028970486,0.190959718468292,-0.113131999320955,0.194013938242798,0.896554594256238,-0.234951962673181,-0.981322630686063,0.0145995261016354,-0.138988714996159,-0.257528131005494,1.29152464416992,-0.190268241345227,-1.18245797905026,-0.0671894450723223,0.224794475936606,0.52146407522897,-0.385189075256419,-0.314718034683477
45.425,-0.552047580592979,0.256984669842412,0.779724578312828,0.0494160219676698,-0.0340535005209433,-0.152451809579444,-0.992186736982902,0.208715891136073,-0.117052717277514,0.136169836968006,0.871653681402443,-0.255539105648949,-0.983591056804266,-0.0438498225331152,-0.161850020149293,0.0394066422194403,1.18237611031905,-0.198275199929952,-1.14322245144029,-0.0776458194538229,0.209397369870208,0.646507177268812,-0.340367596702607,-0.364413542690096
45.43,-0.551371453655019,0.266913483238609,0.780192525457804,0.028112582471058,-0.0296259392839983,-0.14428012478361,-0.988185909095142,0.205595742853713,-0.123038191478172,0.0289809883828915,0.838647423477444,-0.255087990806039,-0.979280062854088,-0.064776711549067,-0.156016755931127,0.262302768852517,1.09682189620543,-0.204109996608253,-1.06659963196936,-0.0793805430438728,0.191998046120515,0.785778877694412,-0.27052480057408,-0.443580625652585
45.435,-0.548261392764106,0.278778612212639,0.785388362510706,-0.034853981982092,-0.0408096809544194,-0.129264490578395,-0.99330599198163,0.184480859406501,-0.12119586517259,-0.102940643214712,0.788753121646716,-0.259535028153256,-0.962251879612885,-0.0673229658546665,-0.145731012063632,0.461555581014923,1.03984617219375,-0.230183692173268,-0.998586937336431,-0.0851417090993235,0.198077285183636,0.88464500190141,-0.244125749090215,-0.509010955169903
45.44,-0.542462801005387,0.2670011029476,0.788537580835897,-0.119051191346866,-0.0449239015579224,-0.122978238246886,-0.997639675775597,0.167920874787662,-0.124162009069542,-0.211067021207634,0.757340643485908,-0.244296356313088,-0.959658449158336,-0.0518676919462512,-0.129837467500973,0.582721724333656,1.04966765941632,-0.249647143431364,-0.890201670168924,-0.0758422363455613,0.203842698669245,1.00118036932682,-0.181575179478807,-0.591018774217478
45.445,-0.535694805123205,0.258774406024698,0.781955491760388,-0.202091559364862,-0.0329049761834853,-0.118377658113681,-1.00927446306267,0.153872646219847,-0.129889961576871,-0.293027974459359,0.73590276120018,-0.227368284400889,-0.95849493061688,-0.0336431179397146,-0.117235910738126,0.688981019451874,1.10952932674505,-0.25096543269519,-0.791732577173141,-0.0626954981288969,0.210036118119147,1.11470377715879,-0.0706710268973065,-0.634180849494218
45.45,-0.543471984781824,0.264362686009269,0.784885997689541,-0.260121296499298,-0.0331546594011975,-0.112337356074798,-1.01929437116501,0.113995973584341,-0.145548144762019,-0.384204358788853,0.699756086059531,-0.212366192606563,-0.980100681112074,-0.0201245451725937,-0.100398196656989,0.825039510989421,1.21139855248316,-0.222213578820906,-0.735563869441959,-0.0314397266992537,0.241640469070728,1.22514559752664,0.0789860728363988,-0.636409161414115
45.455,-0.545281501434021,0.268275195852028,0.785338860299075,-0.318602120732402,-0.0360489151204722,-0.105200989580369,-1.01769824017051,0.0909908039815759,-0.147242263688041,-0.390070249348233,0.675076057852354,-0.192094200519794,-0.992415090155507,-0.00522998688110292,-0.0961750337234585,0.923886092460104,1.28239930368803,-0.16535949350098,-0.726845456775845,-0.00207683705426459,0.282076427801559,1.30919849419549,0.175576858193288,-0.590513120113147
45.46,-0.544870308270026,0.259758833102025,0.789177492807507,-0.363391220776055,-0.0352775838641244,-0.100566164842199,-1.01006757846653,0.0732801245104087,-0.150478193384112,-0.352664774072915,0.658007458896269,-0.165285445131079,-1.01167155593202,0.0038192948750167,-0.0999583102643641,1.02148716476999,1.3678417481455,-0.0704932796653948,-0.710611856248331,0.022342805771415,0.320376835826948,1.34713487936597,0.155980953305486,-0.529213202361417
45.465,-0.545598318349245,0.251589059103685,0.781065730038859,-0.377973873592079,-0.0361154891831525,-0.0999223928758081,-0.999553838387497,0.0655935159941336,-0.150762461192991,-0.275433169301388,0.628400888901603,-0.153567253377967,-1.0256199759439,0.00635971409246439,-0.0922754865539307,1.07607283464847,1.45299929788671,0.0201910164604231,-0.662078920278998,0.0392445752133339,0.3292265213808,1.39042182643936,0.0889874073301867,-0.520580032079842
45.47,-0.539594784057786,0.264240739066736,0.784325213585909,-0.354905626089442,-0.0426400811445834,-0.101311445766034,-0.990410186395115,0.0778417202310829,-0.142768532099986,-0.114606800405085,0.625261104205528,-0.130135985449364,-1.03803547298153,0.00649923424565598,-0.0868490511360479,1.10112642206417,1.54192967155217,0.108792756388675,-0.621363409482674,0.0832359312012362,0.33434622584121,1.5212884339434,0.0464761937817901,-0.528870454996608
45.475,-0.537569193193707,0.287552417870386,0.776502028740874,-0.333760571892498,-0.040786278725578,-0.115231588504538,-0.974534354622672,0.111953527487408,-0.122874124753206,0.0190485507146221,0.621846174753876,-0.115488026078456,-1.03980748632432,0.0317149403039676,-0.0913594489325201,1.08393150566495,1.67574118650005,0.192022533291792,-0.623208849542797,0.149270094710101,0.344426700821735,1.61968383845246,0.0159136643664952,-0.480141304900508
45.48,-0.541685552077497,0.293342890662612,0.77791361184409,-0.296026201859514,-0.0573186113157829,-0.13866639130983,-0.962832189289918,0.158046423860851,-0.121217697375192,0.175551557363883,0.623461246490479,-0.0916538603845121,-1.02724994423601,0.0554098359550858,-0.102306529016365,1.03377465056013,1.7894635403514,0.251586970352065,-0.652374303472435,0.207891031394126,0.352717218312514,1.67139952974719,-0.0536399437715516,-0.407305111510495
45.485,-0.540899429799245,0.297297885520725,0.7717745447796,-0.238512749214028,-0.0715564698012131,-0.166571297799663,-0.94961364026377,0.188528547879792,-0.136264034970542,0.298247574950018,0.606553499077198,-0.0835111706037065,-1.02453777116627,0.117578481943073,-0.135241725320865,0.980601117296598,1.8510944056032,0.325861440851225,-0.691401548170905,0.284336987794249,0.357317842391819,1.67043638941554,-0.19197365692106,-0.339211227679973
45.49,-0.550039338785712,0.301709037804575,0.770569273812438,-0.186847336034456,-0.0879078635876799,-0.197533135440832,-0.945279495264701,0.206609421191161,-0.141559863507999,0.377088353379795,0.59008048772601,-0.0743912126517161,-0.958698783894958,0.109340204903728,-0.142966842175839,0.951714260862784,1.81226314954282,0.328894676133359,-0.720299780393273,0.320503174689506,0.337531329749701,1.60012883922007,-0.310649421257803,-0.303017989977415
45.495,-0.550372975009842,0.301274660742998,0.766629484295949,-0.144963238278726,-0.10977162645083,-0.230212778073851,-0.934188075660154,0.230468173033071,-0.143354407840762,0.438632782577645,0.568802193273842,-0.0750142894069016,-0.915274002625609,0.147648442513644,-0.161892032721303,0.99812019256853,1.71403428756265,0.328239500250396,-0.734284277046856,0.329411589010191,0.313268563705466,1.55230300296358,-0.438717719902915,-0.302000218862928
45.5,-0.54887233110822,0.312345481061409,0.761138499294739,-0.12185234522474,-0.119141235248235,-0.257490627582257,-0.92433851142422,0.249540062873728,-0.140480386525763,0.483705208975173,0.561624148183219,-0.0670070373971142,-0.879277831067569,0.18691447555793,-0.181670035384063,1.06765203430784,1.58275101977721,0.311716563848947,-0.743391214175089,0.319822586418741,0.29068018623731,1.5355337156135,-0.516639439936512,-0.319184552050468
45.505,-0.557754205412404,0.316063023669786,0.758358536180917,-0.131295577479357,-0.142610880847511,-0.288011073220147,-0.912564561377221,0.268096948205271,-0.132365020814449,0.491288693928332,0.550929776503706,-0.0742186928223625,-0.855065852195917,0.25003849957016,-0.194918012514979,1.1320010429723,1.42847962131107,0.275164218092083,-0.759384043514051,0.312610367114653,0.263489449707387,1.52192642068474,-0.535539009958754,-0.336879737086421
45.51,-0.553793551570522,0.315444787310041,0.755070364856078,-0.151263026459968,-0.163087058301702,-0.312038686558525,-0.89881169986514,0.275235662297801,-0.146252078736851,0.435648877136096,0.544435335643585,-0.0738737300858149,-0.842591728332536,0.32365631227023,-0.20519144402224,1.19108013179409,1.23121220380512,0.206636980747556,-0.788093438506942,0.301072292379307,0.247435507285613,1.48520943099458,-0.501429915458858,-0.339763061084326
45.515,-0.558668198187559,0.297370239346151,0.760187790302526,-0.20307961353762,-0.178263006787439,-0.32624389567718,-0.899083487010871,0.266759409204704,-0.159484845531489,0.355521157370392,0.538333202410498,-0.0795669021826611,-0.862127097255334,0.375662859716888,-0.201515008424042,1.19054886158928,1.06445929802523,0.138421341901567,-0.812263693911498,0.265595807686869,0.238343239039284,1.42005396259163,-0.409655751833979,-0.361157307343462
45.52,-0.554415755794746,0.266828810044997,0.763172768308659,-0.253987586707638,-0.190305560827255,-0.329789444355691,-0.909133696733446,0.238727130601834,-0.167509751767583,0.236445569371386,0.52467580092515,-0.0925351103486077,-0.880560597054396,0.437368840397748,-0.184992273901836,1.15066279216247,0.905629837704646,0.0617466937226944,-0.833538558692158,0.244297544327011,0.242025825963108,1.35601490077846,-0.33022883020984,-0.383520849395612
45.525,-0.548549334741762,0.246627889936887,0.773933276217903,-0.295319712516596,-0.204459215206729,-0.324797028623967,-0.926235482213815,0.204251383527446,-0.158652378985194,0.107149333333887,0.522060573101044,-0.108999786047929,-0.911556106123911,0.507508568714177,-0.175854138398878,1.10562448247521,0.806156721427322,0.000356348254089758,-0.851704210853966,0.211851558085635,0.247984412629841,1.25648522043606,-0.236012040667701,-0.398149481537853
45.53,-0.528504358723563,0.240260267043889,0.781066692522983,-0.338426427922394,-0.210052513943637,-0.313586127403899,-0.946303613285136,0.161626361363993,-0.144100357785843,-0.0203358953642444,0.521141176239069,-0.129214158078408,-0.950839002133688,0.545038650513704,-0.149615481769862,0.990488403462808,0.748011588354626,-0.057281122971146,-0.849221481939663,0.160510631570366,0.260706470542448,1.14526126448519,-0.138856370166186,-0.449256913817623
45.535,-0.515038343106386,0.23566269535975,0.793849097514319,-0.394965130653574,-0.203279589000098,-0.301861186037615,-0.978906949589268,0.122563128419932,-0.116492479580868,-0.103681126918065,0.529862783202773,-0.140069616019584,-0.959415588194623,0.508295084957928,-0.124315659508001,0.913867500862955,0.745599032640446,-0.103427356222498,-0.8443773083316,0.124841517956031,0.277312355781643,1.09042717008204,-0.0726259948986682,-0.497003280472125
45.54,-0.496677640301616,0.234488240628194,0.804254240696125,-0.424020531269561,-0.192805548979777,-0.292176047135509,-1.01038613837313,0.097691891791455,-0.105308349925924,-0.13876135183341,0.53305584192276,-0.143752517552587,-0.975105181865191,0.459251923932602,-0.112959728835351,0.835769925473629,0.778361961688953,-0.13370903849826,-0.824486936709904,0.0819598392304058,0.284164149279976,1.05575330885994,-0.0193195386391971,-0.5190531084914
45.545,-0.514490896304068,0.211181218819017,0.797845658444644,-0.446356948560369,-0.170918553728237,-0.277670748277288,-1.03070365122396,0.0755171669395996,-0.110583240611203,-0.141588430258637,0.526516499673559,-0.147677773610144,-1.00136185310293,0.390461797496481,-0.122541063244168,0.717563486073861,0.836279003266763,-0.149913657969873,-0.813319426706887,0.0295753486152801,0.300633577015161,1.03970132452329,0.0482063257872792,-0.566771789266246
45.55,-0.530171198631094,0.200224825566296,0.810885095299865,-0.440708479467095,-0.15960218469704,-0.255318665253281,-1.04643714411463,0.0624535746582446,-0.154252952438991,-0.105083363445314,0.521570258115121,-0.135262288447344,-1.04314215850262,0.301703141474239,-0.132978531829541,0.565133593059985,0.908071867382561,-0.14606604307971,-0.816988891547588,0.00362315392254687,0.317015342614347,1.05305160797897,0.0738854617095562,-0.637026993091902
45.555,-0.519617227243261,0.204557709682958,0.813077013787401,-0.430915421822571,-0.154626064440019,-0.241055044580605,-1.04486513343852,0.0584678400796994,-0.155222283959895,-0.0675539577594568,0.535492497984258,-0.121502877443125,-1.07058355524018,0.191137915351425,-0.149539920928259,0.443372364016597,0.959667802708384,-0.131954450174035,-0.81637323815842,-0.0128331873961629,0.332670725585483,1.06772902656236,0.0763817407403101,-0.685075956413182
45.56,-0.511186950679668,0.195511279665716,0.807780394168772,-0.400057282089987,-0.138151092422123,-0.225616852797397,-1.03176469457418,0.0686328076154186,-0.133794635223885,-0.0399229424943135,0.57473754329868,-0.110783324039368,-1.0778504290791,0.118284304081588,-0.157170266379399,0.364342690053504,0.977838389563067,-0.110000294099031,-0.813758233054662,-0.0211141431297379,0.338224380612505,1.07346869878252,0.0780983703450671,-0.719480343659729
45.565,-0.508355077126283,0.191354685484839,0.809523437732161,-0.335995124423044,-0.132471983372057,-0.210042643336847,-1.00587942381586,0.0911310636024168,-0.132965587920693,-0.0017994396264864,0.590073168416622,-0.0920929085571879,-1.05389237103853,0.0502346311013548,-0.144697620334131,0.32307711986023,1.00526795569311,-0.0724597603868468,-0.81496708748828,-0.0225584959245472,0.340653028175021,1.08339343688428,0.0752148406157504,-0.740832928683666
45.57,-0.519173965133342,0.179261151686585,0.811145122452223,-0.272478207959665,-0.125210867396141,-0.196597323616322,-0.993640514492153,0.108430621007285,-0.155242258133274,0.0250814010414806,0.581089961429425,-0.0887415008252494,-1.01934873588072,0.010835159917761,-0.122919527890757,0.347237673986819,1.05291589064448,-0.032587221154836,-0.828291193503933,-0.0276876620099059,0.344169628890266,1.0957520509978,0.0835748607080564,-0.758948074176946
45.575,-0.522860308421428,0.174030310247182,0.810488870814219,-0.190419336408335,-0.117003887891769,-0.180049264927695,-0.978074875975965,0.126746262756202,-0.184316899966862,0.0489128520775741,0.570928394794464,-0.0876674220430487,-0.975011113445679,-0.0234577001972057,-0.090186533116064,0.387948551528283,1.13104484991901,0.0169277166994785,-0.838085921436284,-0.0222983961546611,0.340228029318152,1.13220208763269,0.109548384276193,-0.778431951999664
45.58,-0.519635377826319,0.184624471523686,0.811315502178376,-0.11676441664582,-0.112451697219525,-0.163528403503081,-0.974925294253139,0.12705631568933,-0.181497188693592,0.0541059271460223,0.58511895481679,-0.0912186685470021,-0.951033885631354,-0.0400625467671921,-0.0593602086611884,0.446316402331565,1.22260395873044,0.0654281969715189,-0.84669247025002,-0.0168495650997107,0.341593348989048,1.15942063069993,0.118172621332599,-0.782543103197587
45.585,-0.520691839613645,0.185929704184931,0.805390352559959,-0.0645255631627364,-0.0953107126020385,-0.151253943515966,-0.979933887254979,0.127726943880213,-0.174278621141353,0.0719655135969422,0.609911791423985,-0.101405920070912,-0.941231193115023,-0.0502439460836171,-0.0469919789186778,0.484302293752316,1.29980501978117,0.103926853656843,-0.847468608279755,0.000957097754425463,0.349160930103919,1.19351283504061,0.123672885342483,-0.79030180552229
45.59,-0.517058336787147,0.202585233589312,0.803328735747767,-0.0357031639596844,-0.086187111274993,-0.146218508481979,-0.989258962744804,0.123814443114308,-0.158230126852623,0.121115858347061,0.624056722411354,-0.108994099088828,-0.93258064267763,-0.061108600626314,-0.0352347742064308,0.530736043624791,1.38526027105254,0.143631969398246,-0.845348454262052,0.00739146294004735,0.362809040570863,1.25486930768193,0.114367215355609,-0.813506231037897
45.595,-0.512600804810227,0.227429985122117,0.805279734457462,-0.0222890031535838,-0.0824963908147731,-0.147826009757216,-0.985563255292831,0.133842316875707,-0.138573204569104,0.171009597258858,0.637190660740026,-0.111682180360124,-0.939896857077922,-0.0670193903182129,-0.044546530555799,0.564138581799773,1.41209826020266,0.1622369839108,-0.858993555501823,0.0441799363708796,0.382733178268937,1.33760211388137,0.0831834975640833,-0.842828104973705
45.6,-0.512177684869125,0.237345770728781,0.803839500969675,-0.0405991862061168,-0.0827819164553177,-0.153980098486323,-0.98393136515747,0.134027256487904,-0.131953798147796,0.199028293172474,0.643944004236811,-0.110332451760769,-0.942945898521857,-0.0774209732007947,-0.058559622489036,0.619796374542858,1.42594096894474,0.177571072145251,-0.859138909394503,0.0768892621794767,0.388905952167712,1.40947879320392,0.034786197835249,-0.849975151885679
45.605,-0.519241443901032,0.245069910267069,0.800854910573291,-0.0771370991077025,-0.0835673210248334,-0.167947558894743,-0.976518514725943,0.144867928416868,-0.124770390657116,0.218221649716591,0.653677869573032,-0.1113607261622,-0.947385223078591,-0.0769845433008958,-0.0801003250708488,0.733666674698914,1.4086775695802,0.179422117637142,-0.86371108329686,0.115736565178874,0.400109995418557,1.46669809750932,-0.0154212509947489,-0.840811098035506
45.61,-0.518977790813694,0.235676125939845,0.803613446447791,-0.118021978505168,-0.0907844771375772,-0.179814990784466,-0.973648238994352,0.152315096914213,-0.127736131420421,0.20358164278392,0.676233297132179,-0.104341088208741,-0.959000315843133,-0.0607394584182994,-0.0902629349964832,0.895112553444794,1.34397528373911,0.173131316900253,-0.873011465022458,0.162213501919988,0.406784485251085,1.53412174828879,-0.0655350930833687,-0.833606079415052
45.615,-0.518595367684895,0.220054726144206,0.804683020103319,-0.157610317759169,-0.085883272483652,-0.195599323327654,-0.97248111351028,0.143388985402908,-0.147633791927249,0.165745099170539,0.696115179511375,-0.0939010974720451,-0.980682604774079,-0.0363703471966076,-0.105509216462902,1.07828023957614,1.23515323680939,0.1781073659252,-0.88764805245569,0.20885506032123,0.410452724455121,1.54930397916725,-0.120031686482327,-0.810346889638997
45.62,-0.516887371099055,0.206407495890374,0.807831284309496,-0.181834803622479,-0.0877683117584415,-0.201743810358897,-0.967885596535875,0.131081490616697,-0.158136345403213,0.126189374720353,0.704799259638159,-0.0899335114986489,-0.991144758616806,-0.0191692674074028,-0.105256325480836,1.22249597091565,1.12344223612258,0.189023308745535,-0.886523013775166,0.234640631622675,0.411493869250263,1.55139566785937,-0.171361668741526,-0.76724528959328
45.625,-0.514917799619407,0.182068438504045,0.81299429041463,-0.198331020427066,-0.0853005079244146,-0.202436676631305,-0.963098594144969,0.125268914253801,-0.150571975462075,0.0881772235028306,0.721082174852367,-0.0883523745844884,-0.99270625832117,0.00118795460173777,-0.0962476096694644,1.33802235119017,1.01228688147547,0.202385448662132,-0.904991471320254,0.223965463145872,0.415622555844193,1.53957785254264,-0.232393816986001,-0.723752429097046
45.63,-0.510803048523657,0.173773670337878,0.811610900848465,-0.17844395565486,-0.0873081689861047,-0.204322469981015,-0.965371784797675,0.109421220302429,-0.150493290754112,0.0588649308459288,0.739010783801652,-0.0846626365993028,-0.988868608130304,0.0119835017543127,-0.0753309341093899,1.3787286373292,0.917367324840822,0.197172978750331,-0.911683572423667,0.2145812252172,0.409335711173195,1.54564067976271,-0.282822442345608,-0.748030892195269
45.635,-0.507424120886369,0.170143769349252,0.819334872479093,-0.158180987241907,-0.0764350121072433,-0.208772493724706,-0.966588884609778,0.0981184680670576,-0.155976879067618,0.0739801966720501,0.756599456052022,-0.0869986309475273,-0.978224931215812,0.0279560246056269,-0.0554117294759715,1.37035331137946,0.872604411475794,0.200008600950241,-0.907641849531672,0.203682896357341,0.397478169421733,1.58901487897952,-0.34709420580851,-0.789373220512876
45.64,-0.507307451057207,0.176873246087532,0.819126442368425,-0.127972502588978,-0.0613828300689528,-0.210132250153621,-0.972947852163599,0.0976633848098617,-0.158985358891199,0.104135395816817,0.780503817169077,-0.08258523799227,-0.971926344624673,0.0393200911842677,-0.0393411949685844,1.32467671457203,0.85534613619248,0.191817303374182,-0.904465916565256,0.194269827541575,0.375151527914155,1.61023337696946,-0.345485898201179,-0.829789225963979
45.645,-0.503629072482892,0.176903754412571,0.821977846190316,-0.0934868318065245,-0.0443328038442278,-0.208679283931221,-0.980673601164977,0.102677626084485,-0.166824475243085,0.132625821086734,0.805050990384894,-0.0856211574223432,-0.975162599962126,0.0585679622268998,-0.0347031340322127,1.28350859975064,0.865811756273059,0.175332988284011,-0.90515433526182,0.175749093002488,0.361505974898687,1.60359080282261,-0.280200900331056,-0.881258302500943
45.65,-0.50589564685785,0.176478539632308,0.822495392102054,-0.0623643004482841,-0.0140525443561636,-0.204239558666837,-0.990668875163747,0.101898192550809,-0.177196815906726,0.174909561640014,0.821812414458062,-0.0974531431358088,-0.974659577022832,0.0723139730807972,-0.0433399861922207,1.30185707619918,0.876611783844099,0.160420984917596,-0.916986618832335,0.156005685560022,0.350219291020854,1.60597862121551,-0.195598897435938,-0.926248257475065
45.655,-0.515162349022352,0.175204227979912,0.819636551271602,-0.00228363315463219,0.000905937486002548,-0.194822390040028,-1.0172707018895,0.115248103756991,-0.200200375507634,0.245045502307848,0.849157952886614,-0.102386904970232,-0.98094169017144,0.0926918129891608,-0.0617078679614551,1.38056986563453,0.86944116403882,0.136025885093937,-0.938211768159385,0.132813437880712,0.357378070088196,1.62714715254866,-0.12600349462156,-0.980138220387824
45.66,-0.51484311881508,0.187015260114933,0.825195519840581,0.0605977385898516,0.0224832028262831,-0.189328182946955,-1.0201017778595,0.115422027995802,-0.218542908866511,0.308148339325303,0.85680490732193,-0.111207370736231,-0.969682034372027,0.104474102309223,-0.0798511678297584,1.45113700712931,0.841193524230052,0.107469558300248,-0.95478253847579,0.10341086529306,0.370700076280867,1.66657409333025,-0.0983976532235311,-1.03859966301862
45.665,-0.516968223122311,0.20588775760048,0.816390005117482,0.0978760437618346,0.0507151467025136,-0.188253849960764,-1.02261724408697,0.119744746616376,-0.227561872016601,0.359232814712491,0.869809730506213,-0.115081272227202,-0.968422837031061,0.140517438452141,-0.119450372063026,1.52396633107983,0.815005181238348,0.0703542423881029,-0.960226891567267,0.0785429631806689,0.380049496574463,1.69862622383381,-0.102884258399047,-1.08428534504011
45.67,-0.531120795575878,0.210062231279959,0.814630387034509,0.126177745829845,0.0784686744103923,-0.209371926401529,-0.996185616225516,0.11184389137974,-0.240488339428131,0.425900918036715,0.87359804876404,-0.121963237285267,-0.958947487811192,0.151439518630926,-0.147426598782809,1.56672966209084,0.801938596329367,0.0517188570682224,-0.955448151827619,0.056620779454841,0.389871041782145,1.73218926552381,-0.135933509052058,-1.14205608409343
45.675,-0.519898131894377,0.207906106619889,0.819224403359771,0.150377801916303,0.104693784476295,-0.222340355845094,-0.987510144319765,0.121919644318749,-0.254038563277814,0.525169528573497,0.858827981665236,-0.127045301851135,-0.970202160890273,0.185360078120941,-0.177776610058392,1.57346498507814,0.79699182510376,0.0545375848711324,-0.944646733388466,0.0358504819048699,0.400617784093204,1.75829342568804,-0.154554054077482,-1.19576118296261
45.68,-0.525637391505081,0.225844868050217,0.813175213199224,0.170956814404238,0.132649192133458,-0.231400466241525,-1.03194597618436,0.167489507653424,-0.254432310581288,0.647069877547076,0.869814961485347,-0.135287081023063,-0.95279370021086,0.188427877637082,-0.190734425287162,1.52914716062236,0.783311021897078,0.0452227406230946,-0.938415852074119,0.0151513753287657,0.412902560741741,1.77576114355797,-0.170615467541566,-1.22382353812127
45.685,-0.522656185940483,0.247593184749882,0.811339783524524,0.177703294420226,0.145332695364873,-0.252014325835986,-1.03571234908913,0.171947604371798,-0.236154857607329,0.669488144752254,0.875131103623962,-0.126221760047031,-0.939225558620735,0.174618657665,-0.216369379061803,1.58220927507063,0.719649681070135,0.0326253989170995,-0.943346983933116,-0.00527225606698104,0.416251582744468,1.77043288831687,-0.169607806954742,-1.25252033913622
45.69,-0.523839717923718,0.257622864638924,0.812598115226493,0.176819119596955,0.169563325267732,-0.278580235060489,-1.01070654910229,0.198040149871109,-0.240750580312653,0.747649043407165,0.881164065668792,-0.123559079916107,-0.917293670217782,0.215595878360053,-0.264174806878423,1.62107263020944,0.67325543276281,0.0335691171823824,-0.941111239375289,-0.0132340486668861,0.42031595425958,1.75795019273534,-0.182953728467802,-1.25739623481685
45.695,-0.520971430803444,0.247897078314326,0.814387100999063,0.176755767884401,0.208502629281142,-0.314543669509495,-1.00751178550651,0.197897600251086,-0.245658539652219,0.789045243646531,0.882235010480734,-0.120485625399537,-0.925562295360962,0.245663627435594,-0.277394742565585,1.65785563355286,0.63627049397507,0.0432663264397302,-0.94079732265233,-0.034019684342449,0.412501838390923,1.73014009948539,-0.19690558791073,-1.26324854591279
45.7,-0.524773630891852,0.240072443655609,0.816956322552358,0.171657871815772,0.24022659767828,-0.342673487487302,-1.01698383589445,0.200536655638486,-0.257252244286646,0.823708619686547,0.88186860218512,-0.125622609951953,-0.947667005471487,0.277258669783942,-0.29917741145339,1.69644260453934,0.567599513654548,0.0496563921248129,-0.941581517000487,-0.0428422574040944,0.405395128033448,1.71319985559892,-0.221766836633587,-1.2626608488358
45.705,-0.528110200919396,0.241461522118576,0.80880381492436,0.17930543455706,0.273963609572841,-0.365833887362812,-1.02380395231415,0.201328600551482,-0.26833612004478,0.858396951592697,0.902954666893853,-0.142173999591643,-0.966394415196586,0.290256272160952,-0.310178108331338,1.69733681635077,0.507052479566959,0.046330783120302,-0.943163285716363,-0.0409967322833672,0.396643509137492,1.73284004475506,-0.256270947911661,-1.2692076278265
45.71,-0.527122403962999,0.253767291488619,0.804047925335376,0.18143393099308,0.312960011074173,-0.396717562171296,-1.03504357621341,0.204853153095249,-0.270995865321702,0.883963630128538,0.923736566762461,-0.151347017564832,-0.978802653158745,0.287091664843285,-0.312405753186326,1.60934292470693,0.43553588623278,0.0515468203962623,-0.945858296062332,-0.0390377958635629,0.386836768059851,1.78216148746324,-0.294533940436289,-1.28049185029788
45.715,-0.538135490599445,0.253986737657988,0.807532919728432,0.179955859624903,0.354630375587624,-0.436589400721589,-1.03665614504758,0.206739031654294,-0.261259709019384,0.925931296569516,0.930398302999935,-0.162148106072283,-0.979465004768003,0.287326972577277,-0.287651282430316,1.5235028044811,0.394724958405245,0.0521778198225035,-0.956583040046481,-0.0210620292979833,0.384959401088707,1.86261682559874,-0.322208074736276,-1.30234897986012
45.72,-0.540402732270276,0.256477828407422,0.799869624628611,0.193029704522518,0.384459854354812,-0.475160043582458,-1.03748136850327,0.211938877960485,-0.261664029146799,0.970554695245686,0.939958106454055,-0.159161240276012,-0.966715121173988,0.286900817433337,-0.253081359845573,1.43433072344915,0.36775313512654,0.0586391742552776,-0.958183878650523,-0.000126204396192366,0.386685546491154,1.97625909742459,-0.335747668825192,-1.33294806113491
45.725,-0.587459156246177,0.271333845814057,0.761001574950384,0.227369381967959,0.425438791810189,-0.518665034817425,-1.03889185639823,0.223903965950017,-0.281840923036812,1.00736652606134,0.95216331144715,-0.156756848096848,-0.95071811772433,0.309652292349889,-0.228684257774579,1.39691890741423,0.359779505590016,0.06523647257045,-0.962104371172462,0.0396091974827652,0.393742008140571,2.10497237622786,-0.328765888149494,-1.36863073153737
45.73,-0.569617424696836,0.276395686483578,0.862414969402443,0.237007274986548,0.496479664625959,-0.597225897687872,-1.03229254614056,0.280647869007249,-0.320831803102086,1.12070962729362,0.975976294568277,-0.1614113754001,-0.943155527544215,0.333642996898345,-0.205199845685044,1.45165933039832,0.352179608762328,0.0703935342866581,-0.963405712871534,0.0728046885780927,0.387678478413664,2.21692867179647,-0.29763901938187,-1.37827261024799
45.735,-0.403027529611759,0.271420884710564,0.859527518164998,0.283648489863521,0.495359731019197,-0.634713112817532,-1.02703883077524,0.270994394013197,-0.218172778744787,1.16482533082431,1.00033264188848,-0.148834753258027,-0.959355252473468,0.365196301100851,-0.209698259030669,1.58844681317976,0.360127751489742,0.0806406782809671,-0.947274502371236,0.12425645981702,0.38910552096618,2.32605046161324,-0.237404419647647,-1.35780078481278
45.74,-0.477962392901609,0.273523563757768,0.816279954435271,0.358088078400483,0.577914260279031,-0.699384800702833,-1.0569060307545,0.243407370935438,-0.210469778747684,1.17839016785317,0.99588710908714,-0.18415133830373,-0.975197662872269,0.368649896564149,-0.212546181876843,1.72631408217005,0.366396981657052,0.0851693004369736,-0.933270665712427,0.1643832674415,0.387130436882358,2.38386595306566,-0.176091389666507,-1.31817788404064
45.745,-0.555594941026192,0.298591040597984,0.822784666106767,0.418402029840599,0.643180717789985,-0.753360046713005,-1.05914098063239,0.214882802972799,-0.265346101697438,1.33149514609719,0.956497938545656,-0.206266324632836,-0.986344396929759,0.362409762904018,-0.215028620220351,1.91033003769058,0.381075390123761,0.0863418754789693,-0.920807615699981,0.198655740430343,0.379122888344976,2.3876994113004,-0.121751483094723,-1.26470496843551
45.75,-0.565591183178726,0.278354729121482,0.807882411432553,0.408935973985635,0.678431799192211,-0.804155205059046,-1.06860595790338,0.225112144445638,-0.294051862750633,1.43579068221959,0.959470988865197,-0.21451181791886,-0.987203535073297,0.346406417493546,-0.218483357326885,2.01437251380135,0.409436633786229,0.0756371860011276,-0.912648415394152,0.237748877952236,0.37613570052046,2.36104583576994,-0.0809116384840338,-1.20646470524839
45.755,-0.53917649210014,0.258808687091979,0.807564568738513,0.417155817794442,0.733205996614719,-0.867751364566216,-1.06812949433698,0.2170598755884,-0.291968167682029,1.47075915844321,0.996501350681799,-0.223308947576027,-0.979432486605442,0.332862895809148,-0.216731843211538,2.08325668918136,0.435348274046668,0.0550728428734486,-0.902661574075418,0.263957234966026,0.374200219388305,2.31587059662231,-0.0529096386248028,-1.16763385916578
45.76,-0.524278438294525,0.250900553867899,0.80970539209871,0.400860400642322,0.782558405333342,-0.912532752291582,-1.07925622168638,0.163244562982639,-0.268953542165113,1.50943779354825,1.03283107555523,-0.235449147175717,-0.982314485088952,0.326981516181869,-0.207277490159506,2.12483775492515,0.425817873408349,0.0321905538240627,-0.899972069391937,0.294006768996729,0.379372353655855,2.27361102767555,-0.00479176592765606,-1.11716686431981
45.765,-0.527186717126629,0.218408415680473,0.817837094886967,0.389194738605884,0.81839596335901,-0.925605049812722,-1.07807229357641,0.12061397627931,-0.277773309668316,1.55132208768609,1.01092424128577,-0.264096278727672,-0.975244864225875,0.326621692055127,-0.186952549958999,2.13317847088082,0.406968771535081,-0.000682087972338378,-0.895831274936689,0.323413736101559,0.392974884677487,2.21155742821126,0.0465965272431714,-1.09049050153715
45.77,-0.554411139979119,0.213682404861013,0.817380526365737,0.413134618978077,0.882903962822374,-0.961959392968767,-1.05358597647398,0.0994665677190318,-0.270762821867,1.64871379138987,0.998957468483917,-0.289135850101454,-0.96819009766519,0.342846647039262,-0.172914745459898,2.15098112250975,0.378921793758663,-0.0341542220711607,-0.894553811530509,0.343175152324312,0.399948119803397,2.14768677603991,0.109802246571011,-1.04930349931923
45.775,-0.574961567769633,0.224830276081508,0.811996914482802,0.38595963866667,0.918556357334144,-0.985260609164829,-1.0379164180227,0.0934268819591126,-0.276941964243138,1.7065115640102,1.01600802012679,-0.300796781181066,-0.96922309759748,0.322591847880518,-0.157647889443988,2.16199005857689,0.35888296687701,-0.0677446586182392,-0.892936513177797,0.374791284250584,0.423734319926363,2.07831950277655,0.206284245627648,-1.00399821867323
45.78,-0.569151070691666,0.194926761012396,0.80637336998463,0.324268402115697,0.96598436407538,-1.00087767089893,-1.03537377087355,0.0833528479439097,-0.285752226467853,1.71647715568542,1.04136704923075,-0.320550234752406,-0.972071849183074,0.258116821593087,-0.130636385815146,2.17218425628056,0.337188884567567,-0.0982720865340813,-0.88449883869999,0.392424194590971,0.440791085770073,1.96716454783474,0.277162295521346,-0.974381815742237
45.785,-0.557873218159418,0.163719778758086,0.802318505662166,0.301865041485228,1.03641551790373,-1.00960395158628,-1.0376426487859,0.0709308404505941,-0.286554104476644,1.70718900046614,1.06938782427065,-0.372952228248414,-0.973541803281566,0.206049277457017,-0.109893778507677,2.13205853200223,0.320503188603441,-0.118034983864252,-0.866304849460969,0.385231869968366,0.459815824418225,1.86511021715379,0.342391361801998,-0.934937892980019
45.79,-0.567752453935375,0.158840978084759,0.7951374724532,0.321612361902896,1.10921430698993,-1.0106231315964,-1.04307896899468,0.0689323990723474,-0.268969058000971,1.72388871311174,1.07573273086972,-0.438398719971243,-0.962726976759668,0.138821096739484,-0.0692974531126772,2.04615076105704,0.316252776568242,-0.156730776350128,-0.849908588963849,0.381445153799749,0.471375383405293,1.76047322827654,0.403004281879401,-0.874564112828369
45.795,-0.589877349447675,0.162696952299562,0.785104862252087,0.366756859618979,1.19229752608474,-1.02894050758957,-1.03437451683333,0.048110042176202,-0.270576646760108,1.71410542896411,1.10526911357503,-0.50962579559593,-0.956110317861609,0.103534003824897,-0.0441076418942139,1.98341742400563,0.306407799299739,-0.177042079800682,-0.83250033536518,0.356451727287543,0.479252928495549,1.71532101333608,0.44648822950945,-0.826470621391606
45.8,-0.588822715767845,0.177295741531209,0.806300845547786,0.420126681420174,1.3016071475827,-1.08512713516301,-1.06012132054046,0.0558961690891146,-0.288538848191363,1.69628133912588,1.12093456064941,-0.540365530812805,-0.968152310410558,0.075970257743153,-0.0163036503880239,1.94802694552683,0.288327619824059,-0.198999621164217,-0.818726313396341,0.33169761975798,0.472695937537185,1.6962930429517,0.480914488481269,-0.763042130507223
45.805,-0.572173003694397,0.217755066909211,0.812701754674361,0.468814696175036,1.40573199561982,-1.14089985905444,-1.09582114067733,0.0980243436336994,-0.251239978813976,1.7052585932233,1.13032233975114,-0.569283585941303,-1.02394706846489,0.0648303288780885,-0.0155653179503832,1.99150783040152,0.24465499631086,-0.215404951665343,-0.8157085411564,0.318218257661643,0.455478256236087,1.69532428393163,0.480311758457038,-0.733818848931206
45.81,-0.553405735260074,0.218745975278382,0.786455986081755,0.51964130243414,1.49482467012755,-1.18005278814631,-1.09987339469724,0.106364566009489,-0.204219433116932,1.72597473774045,1.18599972007021,-0.589790423102389,-1.10331966962975,0.0324225305977052,-0.00944103013882445,2.08512406121831,0.202434159700432,-0.225744376179634,-0.821484955946322,0.277477808087501,0.451280947656019,1.74122313728303,0.455822039090053,-0.686954600655504
45.815,-0.579597676688799,0.184916043355688,0.791078365829056,0.565763856156207,1.61614321696507,-1.24874928491998,-1.12698758314577,0.0836698442217394,-0.264609423430812,1.7785092928834,1.2276374679611,-0.566748018292405,-1.11845748980361,-0.0137867805970729,0.0143515268475368,2.14542233356168,0.150416242372931,-0.223260954348035,-0.826490221268745,0.242787339720243,0.436992491825541,1.77119609149773,0.409664157402748,-0.663284789420902
45.82,-0.602684250398039,0.233507490936227,0.805633574025542,0.640654674126513,1.7169559750023,-1.32387508269139,-1.15445571834132,0.0698316308408262,-0.25487539235107,1.83021340506539,1.2565756678499,-0.558733666667509,-1.11170667568663,-0.0573689705429144,0.0237768230347471,2.20360274687934,0.0931654303585887,-0.215314722794919,-0.845697950734751,0.206534516439004,0.41888454010072,1.77956641131546,0.363759051656004,-0.65381908416748
45.825,-0.630880046391263,0.258891234552677,0.801089038973908,0.623335476793401,1.82812760265915,-1.42442479563307,-1.17013194511405,0.0646312209121864,-0.21948525840789,1.88424437685181,1.32134065054166,-0.544261303977834,-1.09927589478264,-0.0842285076132064,0.0255503929580812,2.25521483916083,0.0725270062685013,-0.208044163995862,-0.887793518875763,0.182958227939636,0.400382922864238,1.79305560274569,0.328636424901194,-0.650271591368954
45.83,-0.65337795003942,0.285017932606542,0.764385455103347,0.633053488078609,1.96502784442718,-1.52876507966075,-1.20064203955054,0.101089527797054,-0.232763232083939,2.05037262398591,1.34828202783099,-0.520222979862773,-1.11699975598114,-0.0826953097481298,-0.00297710970611614,2.32353061229859,0.0734452734618273,-0.211399033568277,-0.937247943809179,0.149706707904795,0.377690261133383,1.8347998069775,0.294688940502505,-0.65774961377925
45.835,-0.639497035560393,0.311113685952907,0.783102021658677,0.602999943518761,2.14146725029327,-1.63555146083066,-1.24540989676429,0.154963384343699,-0.22937872433453,2.23898297173288,1.31889175096995,-0.478372698377009,-1.16853908402155,-0.0561043841328216,-0.0364245288023938,2.41392952199364,0.0718370241731328,-0.210412934310994,-0.979451681965879,0.104608800527191,0.359821531889624,1.84573232038077,0.274972281422966,-0.648696905546151
45.84,-0.622963304053294,0.281080613720305,0.791352065859977,0.546265191165089,2.27315837419136,-1.73263331433533,-1.27420827584175,0.202181609390008,-0.193271053475359,2.33626415974105,1.27294340139464,-0.444856049527123,-1.21332155894399,-0.0271524067601311,-0.0525884415968298,2.48888456348513,0.0444691346557111,-0.204035150122389,-1.03769095813899,0.0518768927438625,0.342779927504743,1.86536003527134,0.262988760178894,-0.643764137020937
45.845,-0.62509745652639,0.268734670476846,0.76298453025526,0.538168728351593,2.38487101460678,-1.84420013863822,-1.29017485261423,0.199126493847889,-0.182496503705992,2.39181774841723,1.23327326763332,-0.411047975714419,-1.24307265847633,0.0115807298422046,-0.0528963965273617,2.52625241650043,-0.043022046971011,-0.192050194458472,-1.09832618142986,0.014602247468648,0.324916618823228,1.89196532858664,0.292629387356693,-0.638987222924099
45.85,-0.70826608866879,0.264075778052297,0.732272632181485,0.564827093916271,2.54996262390822,-1.96893041294861,-1.26399183619178,0.157571499198921,-0.276409250813371,2.46213234867484,1.22449743215415,-0.38068672496759,-1.23150062073864,0.03431234123698,-0.0522952747085772,2.51742217329958,-0.124719689481479,-0.179094610392774,-1.17717576535189,-0.0253884770415096,0.280441836271849,1.92311652676183,0.382579553260701,-0.632048358043125
45.855,-0.777228828770702,0.229823872888471,0.703236966225908,0.579645300874693,2.68747880940503,-2.07760153174551,-1.25290625019423,0.137896170265387,-0.319232261571141,2.47437943768663,1.26870413041614,-0.369092152356259,-1.20162817417057,0.0624589403083439,-0.0391587656361904,2.47251714854624,-0.212576001592453,-0.167136726913819,-1.23197527860656,-0.062749365547513,0.238909694434442,1.97770991232312,0.487797021966105,-0.628900775308799
45.86,-0.769167361637239,0.27817392575641,0.758321952249668,0.568561694542046,2.8269660897039,-2.19346449293198,-1.23946818000036,0.159636080101759,-0.260478670766536,2.53233642066901,1.32629404432856,-0.351807593129621,-1.1830874711539,0.0763298365331695,-0.0270864275072742,2.42192337642615,-0.268554356493056,-0.168351354433224,-1.2801471146612,-0.111312454360908,0.170561834804739,2.04753105683043,0.610715246592856,-0.599241371819646
45.865,-0.693307697248355,0.33357814636149,0.726255806421304,0.532468009133888,2.94435722869744,-2.333715751335,-1.23645688288322,0.165439372114535,-0.181221742381929,2.64190938437444,1.41339295282717,-0.336420401958656,-1.1883064458719,0.0753875424985762,-0.0180705651057932,2.32973414752094,-0.33639113720601,-0.181260178717718,-1.31453368745199,-0.16148447436974,0.112947082322032,2.0464220771107,0.696164314864518,-0.562579499129588
45.87,-0.714811578477015,0.336549319865808,0.73633935127117,0.510169829398451,3.11504537256214,-2.44864565517146,-1.2604246093466,0.160106303802614,-0.210064172708799,2.6925710011404,1.473936624774,-0.346534282957914,-1.20023852638056,0.0890552832261142,-0.0227656858372758,2.22394405303799,-0.422876410815,-0.189711958169937,-1.32077184807784,-0.209053257192181,0.0640495351695865,2.02742593987677,0.728064963389105,-0.510172718204449
45.875,-0.799812491152329,0.341054232972194,0.737138157507678,0.45225351493775,3.33834857998635,-2.622442160027,-1.30662331322367,0.175178028000702,-0.264498820150972,2.78522084147312,1.52845567135331,-0.364908130450143,-1.24225282528345,0.104662977752031,-0.04444467636937,2.16552927920055,-0.529553025607338,-0.195345608214249,-1.33315761755413,-0.260587744996265,0.014066585826089,1.96321608156991,0.735665396729202,-0.424062230378338
45.88,-0.854558152932418,0.374312315491108,0.731127862858742,0.420105815368809,3.52702183516216,-2.77735268778332,-1.35229003433594,0.221423018544575,-0.255880967768614,2.81080866179022,1.61179460809433,-0.407195479792656,-1.33465766115908,0.129029493847765,-0.0837728005911224,2.16238176149081,-0.659267230237053,-0.196061384308313,-1.37209197622038,-0.306029007424936,-0.035437300152852,1.88414815678828,0.714044033045445,-0.32986998255715
45.885,-0.826566059612989,0.442923252192878,0.669885144795657,0.369245334917461,3.70284189106971,-2.96275526591397,-1.39350049395341,0.271435522808876,-0.207822630676794,2.75914906931044,1.73290015233834,-0.436318906182568,-1.43215172945788,0.153041276389666,-0.104448182306925,4.42595984753209,-0.00729451603258744,-0.170636333103028,-1.44236408775754,-0.345745986799331,-0.076539276804601,1.82798704532552,0.720502471286798,-0.217541062521562
45.89,-0.806825003362491,0.446814993232497,0.712677958116215,0.27693452348556,3.92630904171487,-3.14690597110455,-1.43961974701375,0.311398190485207,-0.184864722221193,2.73336091605909,1.82253507273493,-0.420544026372696,-1.51344298430565,0.137577212774191,-0.078612901884007,2.05559763238242,-0.928472592425651,-0.136415317050397,-1.62263997025633,-0.422349513607011,-0.13390547338015,1.74614458662991,0.841837910081,-0.0653359078523572
45.895,-0.80447762831326,0.358675994118439,0.725371199697397,0.26136161994101,4.10162449229332,-3.32493565458393,-1.4773708465935,0.310920583429207,-0.161604098433438,2.78757103233593,1.86147067816522,-0.383630304750664,-1.52259482791558,0.0961959170487761,-0.059468025824235,1.92461544730305,-1.06958998186547,-0.0898373782127056,-1.7578283303524,-0.473324510074126,-0.178283101931481,1.65958380425725,1.00615764778891,0.0222327085570504
45.9,-0.798902321916755,0.343589678047369,0.719770765085156,0.336586033863353,4.32130471578964,-3.53915437993913,-1.46050282818831,0.273972645867603,-0.186705485357457,2.86615322055957,1.87171052421272,-0.321096912524339,-1.48160379561041,0.0219726433504131,-0.0582123123493062,1.75549629118644,-1.18476829025067,-0.0527162360241456,-1.83456983738117,-0.503353375385964,-0.209009428461967,1.66143679498204,1.20178762069547,0.0427491868029389
45.905,-0.833720507722879,0.377581912175346,0.590054251997046,0.449984736567032,4.52288120001439,-3.73785244826325,-1.38899306568628,0.185328757860633,-0.267368752735203,2.90361991035016,1.88278985771083,-0.285432126926512,-1.41118424542076,-0.0478388489685818,-0.0872021315597033,1.64432684056375,-1.2261073570852,-0.03579113451407,-1.80942131654567,-0.470876477716855,-0.200132906132471,1.76989586200555,1.31435390124504,-0.0158257568727801
45.91,-0.88873675681256,0.549262572176981,0.701079303549596,0.264315635651483,4.66520547617928,-3.90564186461759,-1.37667567714051,0.147985484601066,-0.285146857350275,2.91499495163246,1.91499561140191,-0.250177733803695,-1.33088360272256,-0.114927051236806,-0.145782245418009,1.56479898590532,-1.24966569887692,-0.0507547375513233,-1.62124674322812,-0.348504044459511,-0.139042347514737,1.97700129983761,1.36895975423174,-0.131090322050641
45.915,-0.809719305336031,0.614244713602753,0.700963945084218,0.0373735453619225,4.71414354028941,-4.02851455813427,-1.32848358712261,0.120138285615817,-0.196944367724959,3.00830299491826,1.92199809082564,-0.200760643265855,-1.25300483470195,-0.179340068240473,-0.211497078858653,1.55700299568134,-1.27817096689517,-0.0725166353615617,-1.46479562334691,-0.292004712595323,-0.0828887834709089,2.07276139348938,1.28446857185775,-0.184835640076583
45.92,-0.715166342199931,0.523294669201581,0.79494843911201,-0.22850549477425,4.74299292600354,-4.1214197875349,-1.25368080778907,0.121683224532594,-0.228886270975256,3.13116541604964,1.896077507955,-0.158167271419437,-1.20716458463965,-0.238287216972657,-0.291842298918172,1.59962324233834,-1.31310058961639,-0.0970138483842155,-1.33362493278846,-0.275996744422514,-0.00724055512208168,2.0682884033276,1.02235744509374,-0.151087010343342
45.925,-0.81737756537106,0.305457967782025,0.703854804354516,-0.356005757487986,4.71898048632918,-4.2623680113121,-1.21271648306039,0.106783784619318,-0.242212621326217,3.37833073842369,1.81167836359941,-0.103480970804224,-1.16466692801954,-0.296012479100174,-0.376877965390572,1.74223420098708,-1.34722996187392,-0.123789771163474,-1.23874708483351,-0.308157805253984,0.0491628183680083,1.93295228305789,0.696066130962885,-0.100381115165475
45.93,-1.02270689684226,0.265843807869303,0.823223524334487,-0.091372584459387,4.80455361426536,-4.13861721753411,-1.15883376756684,0.0828855033287879,-0.306233611808792,3.58065280367882,1.70181765262082,-0.0474247973924029,-1.13954108531173,-0.376930211472749,-0.466102742295338,1.94234439997017,-1.36266427011965,-0.128319930642587,-1.2006412921084,-0.330385156341846,0.0768869148189227,1.81937988627906,0.347849519939492,-0.0218842997380733
45.935,-1.33540530487187,0.299273294351957,0.954320878331953,0.829759715757968,4.62671776107723,-4.11249310085826,-1.1172687239171,0.113982277534484,-0.475644916184889,3.82689408743321,1.63056804945579,-0.000481061242089987,-1.1340531171001,-0.414780603737192,-0.506595418826802,2.22060175366934,-1.37349742404775,-0.122427105439716,-1.16365616596786,-0.351483209038071,0.0823189958149615,1.64361574701078,0.0217193487788901,0.0479722030876191
45.94,-1.73320143692648,0.466668468965539,1.12930983062742,1.94457796989063,4.26759033479127,-3.92501533990379,-1.08970924268562,0.201181315683187,-0.682527022763201,4.16534737313244,1.58182473474492,0.0832511622294595,-1.14976374129079,-0.441973121568362,-0.535351677126151,2.55329245851676,-1.41188527599717,-0.0888904473248926,-1.14836842287984,-0.340791142392118,0.0879030972533156,1.52473808064152,-0.16671308084281,0.0834364948866135
45.945,-2.01267290564428,0.856566504142676,1.521750476651,3.08543985678232,3.68234941093285,-3.63272704727794,-1.01745352277427,0.297143736448174,-0.843146510802865,4.31901749797805,1.55456025981424,0.165112197116729,-1.16238351005184,-0.447392234466324,-0.564834645383166,2.83574541404427,-1.441140873372,-0.0353963019562831,-1.12755256838169,-0.310149534669384,0.0966190081014309,1.47818437857645,-0.279097976002173,0.107296600937843
45.95,-2.13529186545578,0.826682646460382,1.2289316442121,3.77944593390123,2.88165584298814,-3.21116178714455,-1.10069788731936,0.497360969297447,-0.805570429599438,4.32438294791942,1.59121306259123,0.231941572748543,-1.16749551133131,-0.44398693338371,-0.593902285672232,3.05107485918627,-1.44291535511732,0.0173710872341449,-1.08675290422977,-0.198515987394184,0.134196958270946,1.39691598992466,-0.332307049450342,0.100420317370879
45.955,-1.7263683370339,0.57462680049887,1.00137733341564,3.98766958781289,2.46069622004357,-3.18993150984624,-1.09350826000088,0.69742593063434,-0.704131052787236,4.27737341035852,1.62235392639103,0.342165664906447,-1.20781414364215,-0.420499650734469,-0.611030792810586,3.27846436218329,-1.46959055181963,0.0813656859826513,-1.0263683241006,-0.0870476795328925,0.17589598138664,1.35131016305667,-0.350305608302234,0.0753328524234332
45.96,-1.46904981100694,0.0289891630470468,1.2028624669235,3.9380077164041,1.84957880234898,-3.70320559313268,-1.08907303634001,0.721116608485671,-0.600430172787912,4.11276401594733,1.59610240978523,0.43161736531572,-1.23946412932154,-0.381636079018771,-0.622929199044382,3.44463968934282,-1.52598439739669,0.151718463727845,-0.932358882341363,0.0308918617341975,0.232090532831093,1.29138566161235,-0.344234177724322,0.0285709615482968
45.965,-1.22749026817175,-0.349901786947784,1.35494957551064,4.17432330399838,1.21319934905309,-4.43111986002251,-1.08143519612407,0.599874192108387,-0.555424847595798,3.95071208190908,1.54663227820393,0.503190322339581,-1.26407152331438,-0.319425790506799,-0.634172234199728,3.56110601098671,-1.61471597124554,0.264853137012087,-0.870856017684635,0.0936063527109698,0.266185434059157,1.25772012725961,-0.347874462896959,-0.0108507452370798
45.97,-1.14662523830222,-0.34433308938175,1.47367806967192,5.06055919499653,0.621871178007272,-4.97269973643761,-1.03033086424644,0.437338277134785,-0.47979228414986,3.79907443003252,1.4805726285337,0.56769953676235,-1.25718679625641,-0.26942136243696,-0.633844173446336,3.58735203852296,-1.68840443289837,0.352826300691306,-0.79553599981968,0.148381761584083,0.308245192848057,1.27810517664299,-0.356944939207173,-0.087625967792357
45.975,-1.00964761594231,-0.28629039451792,1.49732130001148,6.17900953631636,-0.0782676371689978,-5.46166428715192,-0.961929907891019,0.333029940615778,-0.31793942387552,3.76269275490379,1.42307092455971,0.648581538601929,-1.23032711827742,-0.237172505913848,-0.619621486940404,3.5583792761635,-1.76217548208189,0.452706757018047,-0.752211177641915,0.158096909139655,0.317899287215147,1.29037366602179,-0.353090762046429,-0.162717249519586
45.98,-0.742415402071677,-0.267485309500794,1.30523411396544,6.85666583469635,-0.874138844859141,-6.00654119668697,-0.871541101101508,0.295171165834858,-0.130254655543874,3.98381952784282,1.27836315889825,0.793594822825057,-1.20840511724482,-0.220482807500699,-0.597105249238678,3.47529652334452,-1.81519687880017,0.541935386473768,-0.752722435178724,0.152741056363636,0.309138928398184,1.34249561402257,-0.344010285307895,-0.287151693804
45.985,-0.521876008100835,-0.383755315636016,0.647340557332827,6.48170937739759,-1.48400417645519,-6.66657768238815,-0.779316528744687,0.21411630524083,-0.2037263218267,4.17776316896758,1.12340559277181,0.926850599866128,-1.19127947738726,-0.215585569576041,-0.576153240583533,3.32320270922966,-1.83937794925485,0.598170196960625,-0.784491717498911,0.147981348567907,0.278269815568267,1.31181563478235,-0.342794660497339,-0.396688819030226
45.99,-0.79073462714953,0.0181872039354367,0.598102573580651,5.47796025417851,-1.63905502617003,-7.18264283739624,-0.72465469155645,0.0353887393951163,-0.327099424476615,4.39200493823281,0.922720891755275,1.03039899562151,-1.18554395062107,-0.249375764945584,-0.541077904814431,3.08762779131953,-1.84798945287897,0.632847520846917,-0.819834542021838,0.118059313253218,0.230243766425904,1.21088232227817,-0.32505323763278,-0.49290317739106
45.995,-1.12065255284521,0.574750175928152,0.75524283780348,5.50833398361138,-1.73831489096887,-6.95114054572942,-0.677439934794608,-0.148799271815035,-0.182540903160768,4.72417285446083,0.694044547027104,1.14250735821365,-1.15419199963223,-0.304980861655488,-0.517189837896361,2.79436947986203,-1.84479994417169,0.640284578191405,-0.868770850906761,0.0750036325411777,0.180422960142241,1.09261120573884,-0.282883744224475,-0.552070069628837
46,-1.12041182844358,0.889752286489869,0.523949266740691,5.70632371411775,-1.97604428549642,-6.58073697428136,-0.628768125915862,-0.272785779065479,-0.0855196913523427,5.10536930342775,0.507008347903931,1.26811670389527,-1.12282315380401,-0.363861705697284,-0.515610789736944,2.52449905965987,-1.80856380641985,0.602849044209008,-0.896715767243747,0.0107044465522215,0.137013395068998,0.979092181084167,-0.162182545561389,-0.559467313307831
46.005,-0.818247963390269,1.02596829726311,0.0767417331020173,5.57227000270949,-2.26603966931895,-6.32773968339408,-0.621689139515502,-0.343973013269879,-0.127845647049376,5.48578822493538,0.356916104037015,1.39052520232226,-1.07942447054359,-0.452988723046275,-0.524571181383216,2.15936853398237,-1.70737695396427,0.529745227937937,-0.906672985072181,-0.0576767252634275,0.103601864816197,0.891286728796956,-0.0515219201489348,-0.569935421988904
46.01,-0.627792470410757,0.963928099865981,-0.135418735413311,5.22774662409894,-2.19795177776504,-6.07130769236274,-0.603848364328612,-0.367105668047358,-0.193564679113195,6.02788125427431,0.280382226520075,1.48587775437157,-1.03964794021331,-0.527041082088008,-0.525024063648273,1.88940240133747,-1.64337984333631,0.451132041213764,-0.899741711451565,-0.159728891608041,0.0559710800086976,0.817822691176561,0.115246258038567,-0.61116143250285
46.015,-0.53600007582151,0.872133576774756,-0.190213081940947,5.01504051096285,-1.9467808462083,-5.61509918867388,-0.578466235033366,-0.338500764382122,-0.228665053150346,6.41063648997681,0.246746839630927,1.58943082997186,-1.0024360024661,-0.579228511851501,-0.51920112654274,1.63512883106545,-1.60964165181888,0.381135628931754,-0.894450515424156,-0.215502284149596,0.0388080187300211,0.750361951259302,0.251946943329911,-0.647988918030581
46.02,-0.525950272432666,0.912188432693833,-0.192660217774043,5.02297746601947,-1.68179126615355,-5.10009039825534,-0.532644865561864,-0.25376492042065,-0.242253545228453,6.74612701743299,0.246481007047693,1.71211250767391,-0.951834614625818,-0.630815413173867,-0.520850897902576,1.45966238150077,-1.5944183616276,0.331724211414145,-0.883626454769698,-0.281901178662491,0.0137685605583809,0.667489290140324,0.400727692708094,-0.70131325731451
46.025,-0.541964273661542,0.999063296000735,-0.166099950615355,5.05437980936442,-1.48468645527052,-4.63127948874018,-0.500428677624696,-0.164497535056478,-0.254336738242583,6.93293626428398,0.245986213008559,1.82624769515961,-0.899863413701464,-0.653914081048705,-0.51875296061349,1.41487251273127,-1.58039641511139,0.308700295126409,-0.886630748887088,-0.333324386544818,0.00479499143666794,0.655410593589807,0.509582920085982,-0.758154173315469
46.03,-0.544106817148593,0.998372488065687,-0.13442203564825,5.06128664863616,-1.29141100396381,-4.11535811870294,-0.496730341174126,-0.0840498660156825,-0.262206365953867,6.958644253693,0.235720282094686,1.92648086853965,-0.856144777208109,-0.656419900819627,-0.51764542939848,1.48830478624457,-1.5779877561663,0.308147520373387,-0.888449454626012,-0.378534202609582,0.0014080365545483,0.688904718160721,0.567948753762831,-0.797008050807608
46.035,-0.50115379677953,0.960473859848592,-0.103239019354101,5.0301951895122,-1.16315911745561,-3.75237334890669,-0.490074219290608,-0.00992395661595049,-0.243862247112842,6.86347867196912,0.271647380975737,2.04552166265365,-0.802129004926798,-0.646975823709233,-0.51096552817524,1.67275870285845,-1.58663137132514,0.333416363454811,-0.882393396968461,-0.414248350891252,0.000190592011072781,0.815069836423613,0.589227550573598,-0.862701762598964
46.04,-0.422101099020254,0.928665383188773,-0.0612498580866627,4.94821742137644,-0.957582050794287,-3.23599125895863,-0.493939615386953,0.0702341770972557,-0.213256456131795,6.67885787111965,0.326861396764476,2.154006164025,-0.762572952343939,-0.631491546005894,-0.502042940528243,1.87585462978722,-1.59885137733521,0.3732544034438,-0.871098075500116,-0.424209639075148,-0.000296637904093486,0.9742045076786,0.567351173300324,-0.911532271962585
46.045,-0.35515118438219,0.895024434014844,-0.0233007125550784,4.82048482106448,-0.826279787389273,-2.93976976139982,-0.503090079472823,0.133398139116245,-0.164705610097972,6.31618100932443,0.370169820587498,2.26359143944822,-0.719776852521253,-0.590994308214054,-0.481160701670401,2.13538685117711,-1.60116428498282,0.426324241479225,-0.867083643302272,-0.430479639700178,0.00938580414412938,1.14717234305256,0.516916855152007,-0.920194712264246
46.05,-0.270793408956026,0.80762618167997,0.0691484027292227,4.68978673729017,-0.596590137195509,-2.4827260024628,-0.521205941916257,0.19834913832388,-0.107165240542994,5.89526921803562,0.373013883829117,2.35244553520895,-0.679903552570552,-0.556582533249496,-0.463575215036915,2.32122405006743,-1.59424045950303,0.471044754603608,-0.862011264261526,-0.429430257745122,0.0360687154613936,1.34563159050262,0.4239906962013,-0.926033541826278
46.055,-0.247139294414745,0.72444154515731,0.182291509574135,4.64799762547737,-0.422113117529689,-2.12325857227669,-0.527913980653048,0.218050948684861,-0.0633226922402604,5.35522775348184,0.368899811482426,2.43886807388488,-0.654796736158366,-0.505155111864548,-0.436054186523476,2.50070224151136,-1.56806081144734,0.528940179054807,-0.853374480024896,-0.432897130864603,0.0576698644203529,1.52466933803922,0.345088660329463,-0.946740185103566
46.06,-0.259002885815297,0.669383552322904,0.325572589657191,4.60446140237425,-0.267065752810746,-1.72511939981877,-0.544188541642732,0.226206352039946,-0.0279786156880235,4.65770434183158,0.362667222480099,2.51084272409848,-0.636979237962461,-0.457860360944883,-0.418672112499885,2.62906202160896,-1.52831049007179,0.602898685032243,-0.856555984196844,-0.422104259471743,0.0867245157413776,1.74417810283951,0.274434917767815,-0.988689395632893
46.065,-0.294455311248446,0.627631686089164,0.462183385305975,4.49068407618225,-0.190142356063038,-1.3890059340776,-0.560267389174059,0.187663546417111,-0.00110736278974625,4.05320882549266,0.335029814085428,2.54955269825483,-0.625494617476513,-0.41708533377929,-0.408991000214559,2.70412214964702,-1.50278680631804,0.658083302957426,-0.857090072152509,-0.376929541714221,0.118706591150297,1.94263723147063,0.227950224254955,-1.02741391544504
46.07,-0.331018059754496,0.578037295860455,0.577073556776766,4.24779479471779,-0.164733624044316,-1.09338211832522,-0.586159950096625,0.136127306714314,0.00296673997739055,3.49687485976834,0.296452544640607,2.57878146994309,-0.614530908959341,-0.381155667721401,-0.39425172374121,2.76979258199757,-1.4489686443034,0.716950405573268,-0.869293154434758,-0.348173852855457,0.143270691633661,2.04853539078655,0.227208277435824,-1.04453756987111
46.075,-0.300225992103609,0.492170042389339,0.683409414669487,3.95384201770401,-0.188804159845236,-0.794677051338444,-0.630866701807945,0.0541208053068794,0.0116508832412276,2.91673007573463,0.235635878146275,2.61861099000144,-0.617602500741902,-0.362308611864632,-0.385226415928894,2.82785720788375,-1.39860592095203,0.751225851215793,-0.876457063741851,-0.285814549302551,0.179208793850928,2.18156320437294,0.272543390174143,-1.05896949098404
46.08,-0.257036970718939,0.390226935639586,0.750473006461503,3.73842512787246,-0.218422747937574,-0.586608495286215,-0.679025957961754,-0.0238810605957281,0.0329088758810933,2.40152501506719,0.164201634124875,2.63963320227979,-0.641961697461055,-0.334451830612576,-0.380582791908389,2.89610202526263,-1.32142518952004,0.776712965668996,-0.895016478534334,-0.221908004866413,0.203502727849037,2.23586381215171,0.323209473790888,-1.04156287244935
46.085,-0.218239004300298,0.25028432161565,0.7591163300277,3.5211509771374,-0.248641965485373,-0.361015049927902,-0.710301329132372,-0.101189123699105,0.0577076793205906,1.89753697286671,0.0642271047971968,2.66527540146583,-0.66949503057637,-0.313276791982348,-0.379358849134298,2.96524563334067,-1.24662751096294,0.797477125798505,-0.919067579911506,-0.162302459446214,0.233850163223552,2.26959155684996,0.340740311647475,-1.00061232564881
46.09,-0.178160050894311,0.190713445965868,0.853494308739114,3.40657202884852,-0.281278936143945,-0.225873814999316,-0.738461786083382,-0.16682061947553,0.0555466031774206,1.56206840725438,-0.0132038760081353,2.68226379069061,-0.711646341707369,-0.283845493088012,-0.391663208971044,3.06514967899997,-1.16557215968872,0.818522665435383,-0.922555370731094,-0.117510981477885,0.242521230245506,2.22629149840903,0.30610290614688,-0.902546354928042
46.095,-0.152121425831112,0.117208369128087,0.875098630221799,3.2730203287147,-0.314289892161719,-0.0991929998238135,-0.763016706734093,-0.226364482896227,0.0658645354087951,1.27088804011176,-0.107640280937729,2.71443903860104,-0.755961536468564,-0.25001193258026,-0.401351536279595,3.18393792137325,-1.04614885684532,0.859239410995958,-0.91765894606019,-0.0815086107489488,0.24805631097636,2.16245076860703,0.303400814533234,-0.844155064714462
46.1,-0.140607018229332,0.0526518591427309,0.897182623802518,3.1703352610138,-0.339544902242973,0.00568661035897564,-0.784287417694462,-0.288435778622465,0.0722045722109487,1.02251488337971,-0.214874474587576,2.74473202189246,-0.788720546820903,-0.223552246320739,-0.408733610920362,3.29803123898859,-0.943481604768331,0.895318239736,-0.933112962834005,-0.046967011848767,0.24862605219735,2.07567997265491,0.295902625046358,-0.776001671058741
46.105,-0.138448317905601,-0.0277936552092828,0.912602501231815,3.09613197198305,-0.355589449610945,0.118420311395739,-0.804991197801951,-0.370330948822773,0.0641399435677733,0.816927381983395,-0.336659986726293,2.77813850802107,-0.825641600979138,-0.187078197400656,-0.425217234872304,3.43023603417401,-0.79256589255388,0.943978646324193,-0.951545864435141,-0.0242563037633791,0.245358687528352,1.99810957682362,0.258808772376873,-0.711932693822418
46.11,-0.151011608271847,-0.0998763094981805,0.922129394395181,3.10964996507947,-0.385451070298321,0.215287371547946,-0.823945312890563,-0.454567107851165,0.0561421631130223,0.707430633423706,-0.446194406474295,2.81176315169062,-0.845850408489749,-0.176364035184594,-0.435214812301534,3.52168480345716,-0.701575841577671,0.979318780744707,-0.963628485739631,0.00827837955360286,0.246740521194401,1.90515565869374,0.193174859589953,-0.652296584725195
46.115,-0.145121058669112,-0.161297190122078,0.943586550171525,3.1875009902893,-0.409482158852757,0.316929456839623,-0.831064918418865,-0.533792942729748,0.0341208699216007,0.682154050189753,-0.563189346769063,2.8453121495072,-0.879008039113601,-0.134409956940461,-0.445972858278287,3.58380297694432,-0.583807145855481,1.01375704148014,-0.973528509272804,0.0426160974926179,0.247074791908591,1.74678629244133,0.127912680401515,-0.604746326817297
46.12,-0.1505156380316,-0.213432926030668,0.961943553484135,3.28182659527212,-0.407552143908041,0.411157815686738,-0.830068508983297,-0.600394458926742,0.012265569299793,0.735532978253064,-0.659632693682555,2.87235390741536,-0.89169508008375,-0.114516751175687,-0.449328415967035,3.60597171020282,-0.50265790092351,1.04431604808866,-0.963555612183761,0.050036575604639,0.224805137423498,1.61070732713045,0.0771967169491776,-0.586387780088616
46.125,-0.188754129461771,-0.249371885024228,0.987010718214997,3.47111483695087,-0.416111135703706,0.524174990843577,-0.837093715368285,-0.65187567906957,-0.0174862082351903,0.84460967218208,-0.755188349631089,2.88641148777642,-0.890834436227311,-0.0912833140396408,-0.459796749116131,3.58870679246798,-0.422934707743026,1.057625634061,-0.970790302631533,0.0688398786683713,0.193245903388649,1.563202107651,0.0528295811098568,-0.563710925148094
46.13,-0.234643657451688,-0.262889218451012,1.02324208748506,3.5948288083315,-0.426116995810237,0.603904317534784,-0.833788950193382,-0.69029417226049,-0.0506972917389711,1.04659957939805,-0.872818709449264,2.89776422228624,-0.891188875090118,-0.0827797254884806,-0.451347208589367,3.52784928430385,-0.360119901739812,1.0545570629042,-0.962546167781984,0.0667815636591705,0.159612073600399,1.44457374045975,0.0432921949993328,-0.577105100620417
46.135,-0.299592541890007,-0.273714900522203,1.05315344115483,3.73614004742311,-0.47588525009547,0.694782204807153,-0.820668760925117,-0.702239953088978,-0.0765246374826051,1.23826299142304,-0.959494395517719,2.8945534424112,-0.875153203118559,-0.0653850284320903,-0.442689513462455,3.42061319722772,-0.31026859363848,1.04168552928955,-0.950993779771963,0.0580065466800765,0.12698973975813,1.37095489883695,0.037183192959795,-0.568114172630961
46.14,-0.359680894726455,-0.284784842620602,1.07220873897487,3.84007718669277,-0.536531581542805,0.762947706395588,-0.803550751390106,-0.708391800382953,-0.102447747561611,1.48986099783763,-1.05481680322135,2.88832634289652,-0.855901386288211,-0.0509403902047134,-0.432220208277825,3.30641361716453,-0.271514084045064,1.0307247240734,-0.932839473083224,0.0523360476460541,0.102801543793308,1.32185265244638,0.0463620570795198,-0.564067200725009
46.145,-0.384393792705776,-0.286776477547875,1.080262084818,3.94538759741084,-0.632603253279416,0.823582611716877,-0.793609537475849,-0.714052272245663,-0.124326125860512,1.74822372907888,-1.11910304510001,2.87810871836611,-0.828424898159656,-0.035650437589457,-0.416381721634298,3.20177511360486,-0.253643397342292,1.01486282500285,-0.927631075749943,0.0397888979159027,0.0969291707404778,1.26898879657426,0.0653167456238454,-0.557188122355904
46.15,-0.406983163233635,-0.302044175367279,1.07056584087573,3.98178519057947,-0.722573531150907,0.870766479337234,-0.782484579436217,-0.671497317857948,-0.125828726780125,2.01418588211736,-1.16689439685029,2.87778675068044,-0.796865164708389,-0.029788347039814,-0.399142965724211,3.07065489407336,-0.229913290854251,0.994299074334245,-0.926203751902117,0.0440244811452776,0.101015624523312,1.19651805727962,0.0807676746277387,-0.543536708144991
46.155,-0.402211552417835,-0.307514472241126,1.04942112215225,4.03604274931778,-0.817206555308145,0.893338075839457,-0.783463391400811,-0.601000781172724,-0.108907425230585,2.2892864348824,-1.22985913951345,2.88219186543178,-0.76677388094938,-0.0212200330107041,-0.38673093201258,2.97714937050678,-0.214424686448734,0.972629634917221,-0.942352669273331,0.0391216809103605,0.120789561480222,1.11802378605087,0.0933577972715531,-0.525320032903706
46.16,-0.395871275165967,-0.338617312986757,1.04395878708546,4.05840131443672,-0.901680991418192,0.895000321767613,-0.80068305040432,-0.556051381255723,-0.102948601893865,2.47141315893681,-1.28267536943606,2.88461383732882,-0.737881861137998,-0.0131886185286767,-0.374093323302135,2.86566602297821,-0.202951217123225,0.951239631681448,-0.960070965448514,0.0329440980061756,0.149285770967462,1.06860345983387,0.120081280309528,-0.50256215276016
46.165,-0.398725618854436,-0.360621873239914,1.03790726589505,4.1181573728975,-0.960869380471998,0.86755469919054,-0.821461495779723,-0.51631291923045,-0.104237132687205,2.62052054774431,-1.32600158432116,2.88888728084717,-0.72703975127004,-0.00802301444388614,-0.36919490221286,2.75641739173634,-0.186191533049093,0.931567792928573,-0.966135260543136,0.0230153355242123,0.183710929403975,1.02891029339415,0.137517799818233,-0.492604063928339
46.17,-0.406894669075983,-0.35858808062512,1.04052048617701,4.2009166478999,-1.03250827065379,0.788904776256589,-0.818581166054467,-0.444427372981513,-0.0972900735444216,2.72928501269233,-1.36196376408356,2.88289902293257,-0.718223321153142,-0.011788763102377,-0.362864720695272,2.64506632704268,-0.147252049890969,0.898068674364863,-0.983211058428523,0.00856109847902755,0.210737460327782,1.02902190898373,0.150062410649785,-0.494372236195917
46.175,-0.410023038769976,-0.346414454055019,1.04839908813787,4.25008831250385,-1.10426720235571,0.724139368558448,-0.852942571710349,-0.415990732142186,-0.0998451233046928,2.79922987092615,-1.39154164487788,2.88753572467172,-0.706692936395437,-0.023056259496821,-0.365424178749291,2.50759706194559,-0.102443685992885,0.85884118723644,-1.00660420047767,-0.000160790144525227,0.2528940317874,1.04392072587516,0.138070116869361,-0.491283480454152
46.18,-0.416176930965023,-0.340633780100375,1.07196674845615,4.28978091784613,-1.18175028509167,0.632783889307986,-0.890061775896696,-0.402848631980042,-0.107600819065165,2.83692731245341,-1.44312963250477,2.91782861186455,-0.700291213316346,-0.0368854854906825,-0.36584459519539,2.37475892132013,-0.0490537645631849,0.81735731393039,-1.02315394288038,-0.0125566321415654,0.284488074185479,1.06032116919901,0.100583307613011,-0.48917486260909
46.185,-0.436062187418053,-0.390359760331317,1.11593306300082,4.31959997501112,-1.2488660677982,0.540557900682716,-0.923549323385836,-0.397852895120051,-0.121096573055909,2.87427572250368,-1.5065609460094,2.92799101690813,-0.695886841612604,-0.0483151813596449,-0.365397690523144,2.18074968090834,0.0227371408599875,0.75549299317428,-1.05146147276479,-0.030519888347779,0.322163999214169,1.08024730143329,0.0460903084433152,-0.476764837989473
46.19,-0.465728065877985,-0.397312713858014,1.15428014621178,4.39792483568058,-1.32715230519524,0.430406436076941,-0.965685918508492,-0.390605815981484,-0.118334503583536,2.89977955131862,-1.57755224354199,2.94348823677899,-0.694009286510722,-0.0665368073445711,-0.369705035431,2.01959210857989,0.0710005615443955,0.694794110466977,-1.07777118227085,-0.0588180275974528,0.360125748790277,1.07648870005228,-0.0104290487071597,-0.476440749220194
46.195,-0.483372058987619,-0.377915089175105,1.19157298505306,4.45916288353635,-1.42639380345537,0.309161561965414,-1.00813084463167,-0.393008618086054,-0.119407181072342,2.94140233325606,-1.64769684132748,2.97954377281733,-0.702734745936444,-0.0730527066194555,-0.365086643774727,1.82714780057065,0.120963210587672,0.617420143918677,-1.0881047355832,-0.0875144253051341,0.390213503787957,1.06423866231172,-0.0695522451294976,-0.457606378822186
46.2,-0.515773442349793,-0.386618466976497,1.21123168660782,4.49962266216682,-1.52612350910568,0.195852419069731,-1.03853152072807,-0.390654653303812,-0.137140591685166,3.00584375778439,-1.71845402963889,3.01196561199762,-0.715070557255683,-0.079733228735152,-0.351231528574329,1.63367179121563,0.148503773950216,0.530214620399803,-1.09537627690767,-0.124996290058817,0.408841828756909,1.03916342236805,-0.102398027065139,-0.448838942931417
46.205,-0.579185858898582,-0.397065288450992,1.22074848569825,4.56275071524956,-1.60760290900839,0.050147997084942,-1.07627833724427,-0.37061299762909,-0.145727418976567,3.0624309785217,-1.80465410341271,3.00144821077813,-0.739802285459538,-0.0816744715186125,-0.336011610031973,1.46087195273374,0.157969953513918,0.448515447762734,-1.09340172307343,-0.162892750992687,0.421560548650523,1.0091674733162,-0.114272119104865,-0.432570209503176
46.21,-0.615415263310504,-0.374708136932269,1.2177235719836,4.57995186481137,-1.71237805832343,-0.0784168179663389,-1.10842262177383,-0.395147435965959,-0.173033329174002,3.0553463884982,-1.86120424011519,2.98259434704773,-0.759558856043337,-0.0754795882100391,-0.313626966013981,1.29593183224765,0.145032457348472,0.358959438705202,-1.08051989123076,-0.178287117343366,0.422411688005829,0.99094764618296,-0.10240310583636,-0.423460288316709
46.215,-0.679546705656164,-0.35954058085,1.17516146683309,4.59176443971162,-1.79818861661263,-0.173414759462455,-1.13144683799443,-0.407289360726135,-0.180259863383415,3.07238782062315,-1.88274322652072,2.95544241340214,-0.786890713684878,-0.0499575248505695,-0.292485471993675,1.12197630811929,0.123182538433891,0.267524713657267,-1.051122654921,-0.194758856508235,0.409079829807261,0.967717588688733,-0.0673286054395663,-0.412475675861119
46.22,-0.735846525225043,-0.347990944205461,1.08892927147802,4.57612336740807,-1.87822251144553,-0.289743157362555,-1.11229798346616,-0.41095670805369,-0.174531395658981,3.10333654771972,-1.87214119255346,2.94154368533599,-0.812113796307815,-0.0308629639105697,-0.270736176409745,1.01482639858385,0.0848977523617897,0.209031974593989,-1.02009171936339,-0.199644452787887,0.397150785150938,0.976998058966647,-0.0136000448250478,-0.405097639294088
46.225,-0.727986785318035,-0.344630012075526,0.997009431596191,4.47334109734306,-1.91783157481744,-0.391097722817042,-1.09191899059876,-0.413435142938905,-0.164658056616445,3.15490672790728,-1.8399146295003,2.92941539016445,-0.842202375244416,0.00189581097748828,-0.246339516623956,0.933059363673004,0.017346519361462,0.156017373660863,-0.970555020742544,-0.199070133332029,0.35911771020866,1.03344171203704,0.0759070039648966,-0.40355343330746
46.23,-0.695548283424338,-0.360095214257852,0.949260512703364,4.37668340331149,-1.89623966038149,-0.478930758944892,-1.0853919248291,-0.395460667931291,-0.183853064023304,3.16115687327663,-1.80753780702678,2.88325000806051,-0.870283235331188,0.0238078780085276,-0.2204371690237,0.895902732431848,-0.0433762944136627,0.155439472507251,-0.944587417191063,-0.178639646252418,0.320375907868785,1.1011539297173,0.149697578207368,-0.417847579640755
46.235,-0.702286159714454,-0.385232133914372,0.921562770094821,4.30612372927211,-1.83751105743432,-0.54417950385205,-1.09835006782628,-0.390196685273036,-0.188849085476789,3.09247547468801,-1.77710737240498,2.81849298920767,-0.896102287347164,0.0559291158457959,-0.188205242091221,0.882403148774417,-0.103961636751075,0.180288230830474,-0.924457963005516,-0.160971105367688,0.288535134626375,1.15928863220962,0.193485924616569,-0.427961235686031
46.24,-0.743432519821527,-0.358174301732882,0.925746861105055,4.25836571800319,-1.75290807687457,-0.598108323935591,-1.11588695461473,-0.396489486840511,-0.190901752504049,3.00039448129517,-1.73868120340301,2.75554825236296,-0.919701499620251,0.0807373882509221,-0.159634147377375,0.900252247890977,-0.144350558568171,0.22999070261243,-0.919028143236451,-0.129303940367453,0.240139154386098,1.21431562045767,0.221142983319575,-0.446367078680162
46.245,-0.77821803418619,-0.317719023689628,0.941169652604871,4.19437993969084,-1.70511435458226,-0.599738180964129,-1.12184384317015,-0.413114589793476,-0.20177266584057,2.89985591948203,-1.7004689968227,2.68667234527998,-0.934941389968443,0.105790047818628,-0.136231953954521,0.968098194732753,-0.165800063828825,0.289784075539457,-0.907938134749353,-0.101589391452952,0.199894552753231,1.2579320274343,0.233665919187911,-0.481879684556087
46.25,-0.801399728702682,-0.270374087310486,0.950264549096968,4.08124366889309,-1.61736519671693,-0.563377403199255,-1.13441550842893,-0.455610336374493,-0.210999229990026,2.76302701941116,-1.64837855168608,2.58209578499617,-0.944641704814448,0.127134176956043,-0.107328308009392,1.05933965906221,-0.172504562564377,0.366592677303306,-0.902213466637126,-0.0769757825117702,0.174925177041836,1.28431730215732,0.229188930851677,-0.502114361703621
46.255,-0.804475229543169,-0.25681207636185,0.963962092872063,3.96205310978215,-1.56742144330724,-0.505330926126788,-1.1465578025848,-0.489091532811434,-0.223558441957972,2.66642435204685,-1.6071826750105,2.48063636173844,-0.957912761750757,0.140891498673116,-0.0729009777820838,1.15860043380811,-0.147673084013828,0.442957036305897,-0.897179314461441,-0.052540162708966,0.155211792337859,1.28159457061862,0.228826417379059,-0.514494894172771
46.26,-0.829883802904904,-0.255021828358172,0.985365969630611,3.80328564555439,-1.51016585897566,-0.42378580347036,-1.15717883031488,-0.508967261217844,-0.221909718321529,2.60067921968561,-1.55720855678833,2.37929701605094,-0.965217721273356,0.150209790719011,-0.040595985519504,1.24726321179965,-0.134562245550112,0.510008771652913,-0.903861428619279,-0.0391855927002341,0.152733714864479,1.22427531926837,0.225784262101092,-0.508645487052603
46.265,-0.864800343841637,-0.237434684025297,0.996570237380341,3.68352608880938,-1.46529214557287,-0.346663627662022,-1.15953815277813,-0.510867983189081,-0.236057567893747,2.54656478128655,-1.53301523911232,2.31170044250481,-0.970107677214077,0.163914523252331,-0.00374289505012847,1.3391966591093,-0.117969200642023,0.56429879003899,-0.911787241109279,-0.0359408596439634,0.154794135957231,1.12776072583926,0.218593370610816,-0.477268555169791
46.27,-0.881928499551021,-0.231385425052381,0.97871215856914,3.4886112812999,-1.44409796012188,-0.239224274440075,-1.15044105844127,-0.52571530121731,-0.241042528002101,2.48948197267424,-1.50917997694194,2.22965097409097,-0.971269811218596,0.18414999876192,0.0215585978771032,1.39612965669546,-0.101625455991525,0.597307152868731,-0.921079287491263,-0.0591021441394992,0.161903492062888,0.98153782409222,0.192226618528366,-0.439860076522771
46.275,-0.846074138834462,-0.226322924213203,0.936392915480773,3.28213334855173,-1.41791098479399,-0.145436397802238,-1.12814261600695,-0.528949310227417,-0.232928233466642,2.44677815585117,-1.470426599381,2.13965995754147,-0.971718535870748,0.205243218906025,0.045208672829891,1.44550304116744,-0.0720168175628911,0.628482722653926,-0.929926208627442,-0.0801582819943088,0.180730287746785,0.928092310404149,0.192860384315965,-0.406349117694554
46.28,-0.798285338473246,-0.245976713408077,0.90021149802588,3.04723762584888,-1.36312962855953,-0.0611980574902735,-1.10904521231905,-0.523477396639059,-0.207613440526013,2.3915765258666,-1.40649747580251,2.03748349436236,-0.980064206357332,0.229598111643666,0.0733403675729202,1.47380881388348,-0.0401509850039561,0.648987997366601,-0.938203195747663,-0.102887154658841,0.203730602467508,0.871332202723307,0.188790873272467,-0.361698304011793
46.285,-0.736917680955808,-0.294604106033406,0.864700229495079,2.84771817144768,-1.27901392026857,-0.00530880945302259,-1.10094092328805,-0.516492648871277,-0.17740991082976,2.32546496320409,-1.36454807087737,1.94051292320951,-0.976963778683836,0.259823592888494,0.0944998942895736,1.48915968566912,-0.000677589826612085,0.659365713596344,-0.95049450655821,-0.110158511951706,0.212612361369422,0.822543941171796,0.174256853071666,-0.334371666651118
46.29,-0.715931481065769,-0.318197177072269,0.850930741489615,2.6486853524564,-1.1398811218486,0.0530529866177227,-1.1072558709597,-0.503278854487214,-0.168307760201756,2.21860468917659,-1.32221325309392,1.84267918174265,-0.978958983311023,0.28975075275153,0.121072146615549,1.49256429098312,0.0150073425864671,0.656673173870485,-0.971402360455594,-0.121202647582771,0.208567788330328,0.756684638907819,0.114901414018308,-0.300033974219002
46.295,-0.705594260284286,-0.320537681586401,0.83497172703673,2.48746676239498,-1.02667873957192,0.1190407491804,-1.10616170197856,-0.488104846827295,-0.156786978830817,2.07833601087596,-1.27472940021241,1.72101092773167,-0.988953441759147,0.321712366598768,0.156527607241653,1.46202343270663,0.0328699009539356,0.64899092574315,-0.982756078443265,-0.125470583484599,0.197433248028793,0.732453392850791,0.0364589490595037,-0.274648942358525
46.3,-0.711926987520812,-0.30269164289532,0.819402768364136,2.30689906663795,-0.903537137243751,0.195221599305852,-1.09901642006668,-0.470812235532163,-0.141668488801991,1.8692485757118,-1.20848423241403,1.57348846471537,-0.995640588052489,0.364651108941607,0.170712847588709,1.43748203442065,0.0367907579594822,0.645933842009643,-0.987269575274155,-0.129333860672167,0.177619591549047,0.723192429076402,-0.0302786930099499,-0.250802888846173
46.305,-0.71306627945159,-0.272555477742906,0.812384191451067,2.11459945072311,-0.793186818812793,0.27312543304756,-1.08760693291021,-0.450703962906501,-0.123727306442858,1.65813274539284,-1.14478634369977,1.43487080875307,-0.99443299272095,0.399466739917146,0.186201293891754,1.38473548021794,0.0421375080922824,0.646995923813598,-0.979631472984061,-0.135123785327389,0.158367415378952,0.717091891788749,-0.113745740866313,-0.225532188411153
46.31,-0.71549763608436,-0.243894573909487,0.810630512760124,1.82413096023194,-0.644034668731695,0.3613767782859,-1.07310257848218,-0.431857133275031,-0.123893645725613,1.34182993109437,-1.07238794515457,1.2660972446194,-0.986639493040563,0.418461475343642,0.208862305674718,1.31938372548795,0.0637423171626422,0.62848356899687,-0.975605666429546,-0.131716843888693,0.146524621341275,0.695485605598127,-0.216570739805722,-0.183701855510462
46.315,-0.718264045848887,-0.236288730778239,0.80315109690176,1.56520047245702,-0.527130648531001,0.46545657068546,-1.07405275180278,-0.43366311518069,-0.124546794213,1.05883959782843,-1.03002074418135,1.1205985482447,-0.974796695320496,0.444890836971609,0.233898975961055,1.25725361805556,0.101565402709279,0.61530507317656,-0.983614643200217,-0.136649074933452,0.139835080308118,0.652218001751189,-0.308091356865427,-0.139842374734904
46.32,-0.716280273882813,-0.209605634057905,0.770151711639557,1.30318268108978,-0.398554094234806,0.562804898457348,-1.07073621964845,-0.411663298513123,-0.111663507071782,0.771983567080123,-0.984591306238338,0.982068210367954,-0.942570497070975,0.470133395139332,0.234482255339423,1.21357463326398,0.177992224812115,0.604930980396145,-0.99420213904434,-0.14242171149446,0.139466949096105,0.583185632754186,-0.416521366693302,-0.0939767775353042
46.325,-0.638957409680347,-0.148705249213897,0.724923826551533,1.06201735445437,-0.29941388808021,0.715588301450553,-1.06928439219486,-0.419213014205639,-0.100480816038721,0.47071963737991,-0.934039545836992,0.858044247108363,-0.924017000091566,0.488260644436824,0.243549988791083,1.1808683058497,0.343873647170535,0.585793609421846,-1.0078837771365,-0.149590465499373,0.145539718094349,0.536667564247919,-0.496558410203746,-0.0483333770017891
46.33,-0.641503358984973,-0.117197101942861,0.642764097405183,0.82798271190239,-0.137763640935129,0.822141373513639,-1.05390017328576,-0.389108870347647,-0.0824098958736347,0.10105929082263,-0.864580341512863,0.678343625731832,-0.922706587053518,0.488224180175115,0.291099110588541,1.13863531124564,0.477953338560052,0.552068932443611,-1.01749782663101,-0.161531571942189,0.158115250456433,0.472671685753704,-0.552271058909066,-0.00306913797262357
46.335,-0.623186709381022,-0.0573740524163696,0.555492900991818,0.525554368817077,0.0901433049198272,0.915935147900957,-1.03522470795771,-0.386603537724127,-0.0670416005639665,-0.222523971642364,-0.796676016159667,0.550298219695687,-0.951483086293474,0.492939850372586,0.360383677613132,1.065258496608,0.487511511296727,0.49714036985003,-1.01508055804246,-0.165333592949147,0.161456338271151,0.435941463386253,-0.594491415959744,0.0343666780693942
46.34,-0.55835453032555,-0.0389156013576156,0.488676504162924,0.211169667291892,0.276653077075718,1.03467839022852,-1.01764736924285,-0.384850012769416,-0.0736432935211872,-0.530227981930157,-0.732379490331669,0.428120512628782,-0.968111772690724,0.492264384715204,0.367672546718949,0.940506222721725,0.356701322843408,0.436029483030951,-1.00513581456879,-0.159563558710696,0.160839978366201,0.402070644068183,-0.622625757699373,0.0712650765078492
46.345,-0.494882397940182,-0.0631514673734679,0.419735461014896,-0.0502226913776762,0.492536183902178,1.13218369849886,-1.00194963254377,-0.375763050171323,-0.0595490865200865,-0.763663522563469,-0.680916836049479,0.342963983127628,-0.917092114266519,0.484701264465969,0.315511707183016,0.82528005823723,0.252116113901138,0.40023632028419,-0.990512985308958,-0.146547752799097,0.181366093902709,0.36907540637918,-0.637116678201103,0.114963852253068
46.35,-0.443389635580502,-0.0579780807114475,0.322995529331558,-0.277820988442598,0.816076738406163,1.20069012197815,-0.986752950510551,-0.355275268690755,-0.0468707731309953,-0.971363879980464,-0.639768116280326,0.271125429211044,-0.827568665124994,0.460565140469974,0.249092452819401,0.72461906810799,0.273065911081509,0.360377087547322,-0.978383240946129,-0.139269732865624,0.200068209480226,0.360920260144139,-0.621228117126399,0.141069860439407
46.355,-0.403623188045979,-0.0455802462657714,0.246571681762572,-0.461390844227303,1.12520133253133,1.23335848152323,-0.983609776584534,-0.328527717873856,-0.0306026443701666,-1.2166725198964,-0.59833407006266,0.203186567258426,-0.739679770396698,0.423526669495125,0.151088168185766,0.657518262044998,0.422616914774897,0.305055053655274,-0.9621298072585,-0.118245720588526,0.236951323245084,0.396392611435801,-0.597742240225408,0.163388938224968
46.36,-0.364058094319311,-0.0376559245845058,0.202826667882365,-0.66436576892911,1.52615222304295,1.24495721883622,-0.969569985244495,-0.296249627277189,-0.00997869653060078,-1.43916057588917,-0.561960709776522,0.139174104729637,-0.683525052253509,0.381537512086114,0.0521841202805586,0.60046022119355,0.677135572144064,0.257920327119361,-0.943928482427023,-0.0980268975112899,0.265057294639417,0.460276639652798,-0.568426854560218,0.188687837131611
46.365,-0.372647018322013,-0.0454943474266687,0.215327951172712,-0.791068695250177,1.80894567192874,1.24529159069061,-0.949162249175549,-0.2394260158603,0.00718834324835283,-1.6432981459862,-0.517191074682122,0.0944258241064096,-0.673077096929478,0.324005309175953,-0.0184360975704618,0.554372653389101,0.768781133991709,0.179020715905813,-0.933845204090489,-0.0763758413142141,0.276552094544465,0.539906665978969,-0.541477689667731,0.206401196523336
46.37,-0.6667012547877,0.165558284771789,0.445743503166509,-1.02136861363487,2.12425533910275,1.06761713607296,-0.927027723535648,-0.193327031668495,-0.0755808029956622,-1.75764791535676,-0.467115468512414,0.0708525285729466,-0.700346749678478,0.234583925194266,-0.0841808775300113,0.523589195931148,1.35219247370093,0.111025493519986,-0.908021334570913,-0.0633226084103417,0.300225884310257,0.616761648939214,-0.491818548929105,0.216348365769174
46.375,-1.16818844518578,0.247994345321671,1.18183120133141,-2.16844239395183,2.08556417263824,0.706869642417864,-0.90233713808707,-0.051514148996526,-0.128124630149305,-1.70315902107731,-0.418380914804706,0.0859432297187379,-0.738637838606259,0.149867012909609,-0.114329615139856,0.488844113592455,1.51739759036131,0.0277833534851688,-0.89308544149804,-0.0396167936147971,0.322210477148966,0.699959456025306,-0.426266791285832,0.226134642675064
46.38,-1.4799190798681,-0.309218093335104,1.99010804873103,-4.06662673193757,1.44520572837096,0.367353190417333,-0.884771513434597,0.0215845697488356,-0.0777038169648199,-1.63724808980689,-0.398523036812891,0.13266373872776,-0.813968833165838,0.0301367059488759,-0.116601924154841,0.428702014076548,1.53074924084428,-0.0979858996991098,-0.892835672606333,-0.0201247350064141,0.338394435100467,0.735112822155898,-0.386200546102324,0.257720956766306
46.385,-1.25288633645948,-1.17563395732153,2.38705547305161,-5.24617834451998,0.317671052121321,-0.0517610420607019,-0.926424605284845,-0.0627989847001535,0.00249215829276904,-1.83743155430974,-0.38585363305482,0.101801574104907,-0.888703974967008,-0.0622789465676999,-0.0872200995979809,0.33228557008286,1.36251926544822,-0.24222731638347,-0.895216138891553,-0.00812778870050761,0.347957947418951,0.746697174995516,-0.372322054599108,0.314291313358624
46.39,-0.384289960629972,-1.5245413455379,2.23620661369766,-4.53714355658974,-0.843002109697179,-0.718020293415863,-0.970922164714184,-0.204214888151541,0.10418315621793,-2.22726377369451,-0.405709025232297,-0.0373290098066636,-0.979764795306867,-0.134661955285918,-0.0532157823327991,0.187824002836642,1.02198243706692,-0.391815875557642,-0.890433117179615,-0.0137573714480093,0.342452240608643,0.743691995038069,-0.383201753810204,0.345539852623092
46.395,-0.0475425395240708,-1.19806220213823,1.93346064562258,-3.01529163784388,-1.35674711577146,-1.10899768612884,-1.01826150365347,-0.32823081540723,0.22269038755836,-2.69319194304963,-0.459437745913903,-0.151851742211795,-1.06083305004293,-0.178278369844631,-0.0123128512252118,-0.0241766790387222,0.562655166070943,-0.543210215879781,-0.888771222022193,-0.0162334915891105,0.342543766348272,0.725463960965637,-0.397221182680942,0.370158908258251
46.4,-0.163842477103711,-0.391147330108533,1.40701728008428,-1.11730262894072,-1.5819642420503,-1.22953136417445,-1.02170686558351,-0.331298861053548,0.271953680001028,-2.87158158300948,-0.528421626117563,-0.215368861292784,-1.08523819274173,-0.198632438592656,-0.00545084553492325,-0.189119003703366,0.229133225957357,-0.621406283908873,-0.89986239584546,-0.0166884590755227,0.348232462406156,0.669343416842245,-0.393851499957219,0.399224662360865
46.405,-0.380185350358095,0.345809020014638,0.97051133099261,-0.1882526914657,-1.61598777367389,-1.16963726835476,-0.987009301586944,-0.290055616628176,0.295324136164721,-2.78382671352651,-0.593624943288262,-0.204748029814349,-1.07368345229197,-0.209813769807066,-0.0178460521409993,-0.398657813433945,-0.00929036888015848,-0.663725623358652,-0.902148766399335,-0.0238419945299118,0.35378215794439,0.611887126092762,-0.375513741532641,0.431266854422592
46.41,-0.843319946155541,1.48318652246389,0.451492079008256,-0.439498319751241,-1.52349725488625,-0.761723667527929,-0.947149646882677,-0.211924189750388,0.224809366765026,-2.38672235686476,-0.561272675026939,-0.104260779042775,-1.02292038028188,-0.216191699583987,-0.036578355651875,-0.565854153621895,0.0389053769631637,-0.656961660004104,-0.916555639843455,-0.0356415179448685,0.346533665066485,0.568317842194483,-0.33773468059929,0.454256165156807
46.415,-0.989489206545065,1.82169596100989,0.287640132172512,-1.37267532061042,-1.33656220874559,-0.208713672961125,-0.929388224129386,-0.15967819802664,0.0969480483909754,-1.85579233136317,-0.497422295434742,-0.0403231549504184,-1.00871087768104,-0.230102154674831,-0.0331103311944037,-0.704395038164712,0.194983671830443,-0.62688952844406,-0.928029742926347,-0.0379355280779699,0.3459070326944,0.5413080450011,-0.29298789382081,0.479555810189921
46.42,-0.886731886965291,1.18590091284122,0.424483199455061,-2.37321634941423,-1.05607568951518,0.492388241174324,-0.907035755166906,-0.114858094349244,-0.0675206932063251,-1.33569945009466,-0.425824956601595,-0.0382089248595484,-1.01566707419654,-0.24106359588622,-0.017420440972332,-0.844215546569336,0.445898380204815,-0.568259376684944,-0.943616214129102,-0.0257975272150052,0.344284604318205,0.534454482793594,-0.272110336576625,0.496642309869818
46.425,-0.947020327563121,-0.0100254830916685,0.800067567669076,-2.65422436951594,-0.942411553012102,0.93774815775354,-0.906858229294775,-0.0663600593999309,-0.220717026428008,-1.02066370881842,-0.337367146628949,-0.078289435015746,-1.05737672290968,-0.269061991467921,0.0300849958510169,-0.971235189475073,0.61886083019798,-0.509349405776112,-0.949767104234685,-0.0183462009681211,0.339893300242174,0.533695417135815,-0.279196772659286,0.520832165110665
46.43,-1.07690640069182,-1.15567190772743,0.963708484779626,-1.84047926694635,-1.21089531438612,0.736726818339588,-0.935534341496419,-0.000586269509294681,-0.319798779129539,-0.891865793176422,-0.190154903830439,-0.125956040125289,-1.12149130959175,-0.302999799528023,0.105742578709647,-1.09673561306416,0.607186083084946,-0.460520159099235,-0.946797681175836,-0.0122159485142462,0.334653026809585,0.51386181285665,-0.273951535560592,0.554063207617386
46.435,-1.15009044471804,-1.12548416977707,0.906481828054385,-0.807202014522414,-1.39525431760571,0.432581393854787,-0.959119075483323,0.0319981490198648,-0.393037929992022,-0.924653338382108,0.0208583521299774,-0.16932332581595,-1.21635018838978,-0.327197474034943,0.220087411216739,-1.24945214684808,0.392048886288114,-0.430855766244963,-0.953012303444214,-0.0119340194346201,0.331511409133888,0.51877876095871,-0.278076683014561,0.572372288714988
46.44,-1.03956469062326,-0.272568394275824,0.790525105338739,0.260362307277666,-1.42745480503054,0.293071046868655,-1.03829525431113,0.0366720473022234,-0.39508178112819,-1.0449909502201,0.187179686685868,-0.198655098466045,-1.29999869397051,-0.33089070861044,0.321182921079038,-1.47356427896857,-0.060509968303959,-0.419660442659582,-0.953487053356636,-0.0148580104521605,0.322086620183626,0.530836314184145,-0.278777718822247,0.571091260037769
46.445,-0.815909984821692,0.692277369471565,0.624940597908553,0.53476930335191,-1.36218275567576,0.361226379625399,-1.16753108179857,0.0343722559539381,-0.195152776369262,-1.13751455581663,0.234586325220507,-0.20678694586696,-1.35498242288185,-0.32308452656933,0.414054842892098,-1.70507894076368,-0.566626142932115,-0.400946059847291,-0.95587726969976,-0.000804559935023155,0.318422001079758,0.525503949251302,-0.274093399755166,0.555508199782415
46.45,-0.573930859950081,0.867283583173947,0.695628232620036,-0.0825398492021867,-1.19483313902228,0.580287184220771,-1.27377840911643,0.0778623670340258,0.0312050493106676,-1.10487097022808,0.204372960205095,-0.167287312910693,-1.33600184475685,-0.269017257751157,0.442616481718504,-1.90686787961953,-1.00016376637422,-0.356235889978914,-0.960085128586196,0.010062519913098,0.298306280399026,0.523594244637848,-0.243233239022235,0.538448705334455
46.455,-0.411646852082893,0.590082772894311,0.840044881250625,-0.464588568441077,-1.12583963048871,0.541588920699281,-1.29590375636687,0.219734661633361,0.225754599002998,-0.83998124744537,0.152567755234393,-0.103837531811207,-1.26396962275403,-0.202220311245474,0.403033693210053,-2.03445262654713,-1.22075133508724,-0.289573204071923,-0.964630503875966,0.0366456805344636,0.286248385779551,0.549682133838515,-0.202649366609224,0.505681668028788
46.46,-0.229206310368065,0.547313683257685,0.909410119166466,-0.523454951219027,-1.04389944555717,0.218693597659918,-1.28923300881526,0.428122543824195,0.341186789242431,-0.38353941372425,0.0475215754481,0.0092531369033214,-1.18852571970213,-0.11046976028944,0.303596962157139,-2.0050947673174,-1.05318491183848,-0.185685044829139,-0.968556253060978,0.0575758998053802,0.268132501545065,0.540417433260105,-0.140602537265316,0.481941942270932
46.465,-0.21124830551499,0.67655689458777,0.898343338314474,-0.458188295698133,-0.923783075278768,-0.104420324076379,-1.29587281674428,0.556339560200243,0.410460328538921,-0.155523794843312,-0.0700535609637423,0.1134730463768,-1.16036850866604,-0.0508402597467001,0.220484292755165,-1.85323382246404,-0.673298231194019,-0.0876054168810402,-0.970520394269685,0.0671791015271754,0.247880205597502,0.502814013071113,-0.0832252104032816,0.463004899036271
46.47,-0.361375560317397,0.655433513192227,0.857941164576982,-0.447738736867905,-0.747443857944149,-0.374643421375915,-1.30744119806362,0.548180216504849,0.430123773777506,-0.263240934962421,-0.152756863810501,0.132680471592165,-1.22523229205497,-0.0508207863957149,0.166854307310682,-1.48075912961963,-0.133592151558658,0.00463382609663484,-0.980536558079606,0.0639001710795825,0.227725798456242,0.432380378380234,-0.0172103937296413,0.455782325478425
46.475,-0.51103675821682,0.463196842942138,0.855957734774921,-0.497206003852812,-0.570642365150526,-0.558304248365347,-1.30278924416945,0.376065966799661,0.33172758759941,-0.402151367945712,-0.167487361850558,0.0552004458231298,-1.33988006947266,-0.047692996476569,0.144221843112286,-1.08407479520106,0.14949079396919,0.057983700434063,-0.976844364885109,0.0493440979869009,0.205335622328748,0.36621337306961,0.0293288033285807,0.445079274032778
46.48,-0.601472325064445,0.23885160332024,0.851536436039762,-0.636054319437404,-0.472222654350706,-0.610600418300502,-1.29716965246703,0.119566656876848,0.120558944107467,-0.348427231617256,-0.0726165926909875,-0.08953648982677,-1.47276904272588,-0.0623657685025108,0.131579466051507,-0.566663616644906,0.269499710453436,0.103755204277021,-0.975103146471235,0.0475474126910768,0.179637254135349,0.310887406685179,0.0678714830175186,0.445705980062485
46.485,-0.645636543233981,0.115632482808465,0.841005101214992,-0.706900683995276,-0.351718202254689,-0.572039128226108,-1.31043531412071,-0.0989915633237446,-0.0701138092702007,-0.26770932698312,0.0449924941535809,-0.221370246543578,-1.5399327972796,-0.0748664791768625,0.119434512118387,-0.112470320119203,0.246581646291759,0.121254374740953,-0.989224120181756,0.0446692323421934,0.149243244626244,0.258411645012562,0.105918083622608,0.437695699367866
46.49,-0.629060356360834,0.0368087700866357,0.848801319464872,-0.694008932446662,-0.258892269502604,-0.473680479637905,-1.29371002050293,-0.214279325181988,-0.0930954193924086,-0.292869224200086,0.134417540744353,-0.295031561234705,-1.54390232689053,-0.0637009685511891,0.1213297210068,0.207245774301397,0.159092182816958,0.111241600877443,-1.00784040666472,0.0466493405640055,0.132183788232916,0.220830098000961,0.153969228692419,0.424403999350937
46.495,-0.575889194244199,0.0374388170536762,0.847353365332634,-0.603474208030661,-0.225850444040382,-0.367867346438856,-1.22890627398574,-0.282005668289942,-0.04143239281681,-0.401772509058658,0.162666153301577,-0.301922205745275,-1.4574880635907,-0.0444613308834477,0.133727516422263,0.351126441049701,0.0514240680623304,0.102343368147176,-1.03460552864298,0.0464873156110371,0.104762902427291,0.155987258241589,0.200192508586393,0.402607603826172
46.5,-0.521678597006722,0.0695362560593995,0.846259915269634,-0.525046222116586,-0.183429817227824,-0.268700137271777,-1.1561446954867,-0.307864833010497,0.00486360389908526,-0.463503751816374,0.121838842892066,-0.239723331892655,-1.28979797923851,-0.0409271944349065,0.132749860871545,0.262718992905596,-0.0200575351422407,0.126417809813582,-1.06585449870164,0.0348283853867396,0.0858638561926606,0.0948861531277686,0.231844461287297,0.383864930293289
46.505,-0.506181245403325,0.0731723021214638,0.842780372479375,-0.48966359709224,-0.151621348005704,-0.18283216463846,-1.0718941965938,-0.325548699608356,0.0251954611608144,-0.440113243669978,0.0861778084117208,-0.129606515821221,-1.10730498833484,-0.0647479693065627,0.101089182426752,0.0656985387759281,-0.0343870414398182,0.153826631569141,-1.09946375939185,0.0217888742118777,0.0603300357489,0.0183146259083311,0.290404997360477,0.341325882362777
46.51,-0.522793059082999,0.084547223162706,0.832781783738666,-0.455709246986905,-0.130805305357098,-0.107275066915692,-0.965084433045983,-0.303366562026933,0.0130065013179462,-0.303191472111041,0.100897486461778,0.00281836094011857,-0.94720874177012,-0.115526454217417,0.0259776504796129,-0.105295806510628,0.0802475540905363,0.189755473617895,-1.11198094323204,0.000355603027677874,0.0591405621901996,-0.00177637173031564,0.319942299368149,0.303127651679517
46.515,-0.560174792734149,0.115932795297731,0.811298238184465,-0.337669381857044,-0.123112350702286,-0.0535602282783691,-0.863383339954331,-0.244067845766873,-0.00457006755683448,-0.056628822443509,0.141806184786199,0.111339557224183,-0.820601799407406,-0.176956157392364,-0.0624125332089671,-0.181602969149206,0.319463479196086,0.229510301439798,-1.09742704260736,-0.00887245934567762,0.0605059330173524,-0.0162652713815387,0.34009470898542,0.258270023528056
46.52,-0.57228088195436,0.166090153605012,0.799272229537844,-0.184535842164298,-0.115126462369744,-0.00897759197133299,-0.815700487542931,-0.123129911097798,-0.0324068656611619,0.214990113894534,0.201017379790108,0.156849684496399,-0.788348801914895,-0.232627234234534,-0.108234842197832,-0.0945193976689517,0.564155017199949,0.262775302115828,-1.06536775280608,-0.00970069327345544,0.0753723922116205,0.00349380540501453,0.333785676807371,0.224471264194384
46.525,-0.550101328955218,0.245889832962294,0.792755543977578,-0.0063983467692444,-0.112117111682892,0.0283043335324495,-0.823319967974642,0.0476267505801992,-0.0263651442401103,0.375126375910311,0.25090074805619,0.148619477897205,-0.799683904489095,-0.271122187688538,-0.117123311788591,0.065697263220646,0.673203072414346,0.27940401081674,-1.04693524738329,-0.00578468866879811,0.0976943915517896,0.0248850626060473,0.279579192890569,0.179005616781985
46.53,-0.538554020333378,0.267093238851742,0.784370323426789,0.0541924476215309,-0.106413219721688,0.0406928432012398,-0.862482614679333,0.201990181074317,-0.0129133664192523,0.412929087877274,0.289021344537195,0.11933530869869,-0.835829230571506,-0.302964320756583,-0.124263940812362,0.346122739174963,0.613875284714347,0.270513237654166,-1.03080984797603,0.00161072894959751,0.1266422766702,0.0429619984682212,0.242146162098788,0.152329372211707
46.535,-0.55164545647418,0.310953221649094,0.772234975749509,0.190114919012906,-0.100040170376238,0.020398644363546,-0.913460788538066,0.346464458397966,-0.0120156968641789,0.393800406003842,0.314970336529893,0.0981626050523494,-0.852658490589238,-0.303531236479168,-0.140427155977422,0.713783171482913,0.507003043869586,0.238339504767413,-1.02268803342066,-0.00306834186038531,0.14239471899223,0.0881541601378101,0.206620417589989,0.107940842690988
46.54,-0.556624907883561,0.327372419930193,0.761645487387762,0.253631198694456,-0.0989541807233544,-0.00406778201501328,-0.9804056390525,0.442115603075288,-0.0396789208849276,0.271182352980271,0.289014586740277,0.062224089662427,-0.878281280731914,-0.250006657772146,-0.143409441058927,1.14486819920731,0.381056871161305,0.186546637670687,-1.00917440988361,-0.011260153800139,0.153282836290188,0.11205322493963,0.187312672110086,0.076624741673236
46.545,-0.560996781615879,0.332900410121365,0.761509540847264,0.306887981770742,-0.0974762803958929,-0.0348296628528335,-1.02294890408256,0.462670588797383,-0.103988173691442,0.0446189065921855,0.239756942957066,0.0325135674361825,-0.896524956230219,-0.169402526061849,-0.16025526309219,1.56868164094589,0.259708287339153,0.121192665093574,-0.98672831909479,-0.0277871674779999,0.153308276351285,0.185831173676663,0.17236539859289,0.0594088987769649
46.55,-0.553250708852413,0.329518597867237,0.755493876866073,0.324074367479186,-0.105218474563112,-0.0611314206733565,-1.04162532060051,0.411491467277488,-0.133076810550349,-0.28292018593005,0.184457186682326,-0.0212036875924211,-0.894312166295702,-0.0475316792361693,-0.206935742006814,2.00192522890881,0.156411819333138,0.0525738646012273,-0.983576843303057,-0.0423789663035074,0.16382144398389,0.253966741878941,0.14952964151291,0.0480392219819967
46.555,-0.560844935888979,0.344148859038635,0.739674490256505,0.268588291304825,-0.135609105635177,-0.0968444213532925,-1.03198689648174,0.316544069665645,-0.138599371704504,-0.467705895241773,0.144667264766173,-0.0642708628236991,-0.895149343550662,0.0537913986491235,-0.241457375535889,2.27159905031289,0.100893876183135,0.0301930513232946,-0.985382249478031,-0.0417886058536967,0.159946214015432,0.313453499689021,0.124320684816858,0.0473520668542327
46.56,-0.560634158654747,0.355040846439809,0.733261807248043,0.119738115670336,-0.159644443029638,-0.129216630549322,-1.01709097400892,0.233228358231483,-0.158709406822742,-0.589335276381522,0.112982929495091,-0.100766093500061,-0.897932334988145,0.170459080542709,-0.292259816591407,2.49669679858246,0.0382247907197024,0.0522404137953565,-0.990853124551403,-0.0314247051807674,0.161283108258109,0.340163715509237,0.0897042023920491,0.0673413249491305
46.565,-0.551316610724631,0.344321047231546,0.739912935875114,-0.0683105042816374,-0.181147058596137,-0.150541979674862,-1.00166885080321,0.151217282498069,-0.15022233383898,-0.657266442385191,0.0567036902597382,-0.122150295431095,-0.908792945392349,0.271699843501488,-0.339554277598582,2.60328429182374,-0.0158668936082373,0.0978858434782851,-0.998103580121741,-0.0215544443675523,0.165651134102601,0.327842854193314,0.0664993350397408,0.10582136761977
46.57,-0.553890521964906,0.332040046334016,0.742374465995699,-0.294685838887492,-0.184012075280823,-0.179671430678059,-0.996950321956356,0.11988750180607,-0.140564938018457,-0.679543803679221,0.0108815179343591,-0.118489939262476,-0.93558775324524,0.360261187430771,-0.382110076024124,2.57905189233232,-0.069680523275419,0.182350231899284,-0.993539842185501,-0.0162974578518853,0.174403250172414,0.273689194838113,0.0404473229965601,0.152514015459403
46.575,-0.547962174867034,0.322399149439394,0.74373571194893,-0.430936684287587,-0.197585917310075,-0.201095140375774,-1.00904117422992,0.0777443783084888,-0.132487473827199,-0.687045603145106,-0.0419225209760083,-0.0904236719398853,-0.963010320895529,0.443011774578601,-0.423213677139115,2.43680388279406,-0.116884712017302,0.293622799263447,-0.979807004803961,-0.0158546797456804,0.176572339419161,0.198833868706101,0.00256669742993018,0.196866733316446
46.58,-0.543745220875635,0.293145619048446,0.751101543274772,-0.549786223080709,-0.205987973271963,-0.1991815542094,-1.01130706407549,0.034817407397881,-0.127802062045412,-0.670502356275437,-0.0832105611655597,-0.0527626086157485,-0.992268199436544,0.495424972629553,-0.439896840069853,2.20003142124607,-0.131818270166042,0.37435879428586,-0.966825209465352,-0.0115048286334644,0.183930706008951,0.143195632937993,-0.0158998124071715,0.242290675359715
46.585,-0.563512577395115,0.250870661886179,0.783606974144146,-0.637144616472501,-0.217027200100639,-0.197529673576355,-1.00988486202584,0.013335240678997,-0.115344320990024,-0.605245461540078,-0.105761931987397,-0.00317650575625075,-1.03348760331552,0.529276883215807,-0.437860968332811,1.7913095610477,-0.11420632343789,0.448012590408325,-0.960977971077183,-0.00847307015718854,0.194999462373258,0.0790205207828017,-0.0237355430243031,0.282781753243881
46.59,-0.547292390158961,0.209413800592798,0.801924597670486,-0.645934131166306,-0.222838114244106,-0.189118234525605,-1.00350262138244,-0.0176068581161022,-0.113952192041948,-0.475355811524058,-0.145301362030916,0.0514845171847689,-1.0502752483389,0.525746858112221,-0.397383894936082,1.44021128506741,-0.0988348307138058,0.4392501972563,-0.935002473361119,0.00422737438884237,0.207303629568572,0.0418172083247353,-0.00540312167586735,0.324770824156451
46.595,-0.533640376677811,0.16067251840351,0.81445518889891,-0.595796585839379,-0.210939512377593,-0.169116043103887,-1.00638084472983,-0.0352038082858624,-0.104841252668517,-0.360075883337963,-0.175639233527349,0.0806415302789125,-1.07804656455873,0.488092988087044,-0.337219536354616,1.09841429077724,-0.112618770792417,0.374919125598063,-0.91743463350017,0.0231323572498081,0.218599645314023,0.0233159404614128,0.0276790262541425,0.351262886123659
46.6,-0.552758169373047,0.13449402392452,0.833570702739626,-0.48416490425157,-0.193933193580916,-0.145978674488305,-1.03434054214281,-0.0212572229784698,-0.0586999497890059,-0.155951128565941,-0.219523472410207,0.111797553300657,-1.0941283905147,0.436075374173601,-0.277340760098554,0.835477166359451,-0.136289856634529,0.290087659744757,-0.893271783886063,0.0483056461851731,0.233331866917425,0.0216868419254539,0.0655002786551562,0.373805953627488
46.605,-0.546023764609453,0.12992464236586,0.835352561874111,-0.300742729520233,-0.177626510366427,-0.139958111345687,-1.05212046441396,-0.0164428728194411,-0.0412957607781644,0.188377293970633,-0.270652253389967,0.160976883084313,-1.09524310417366,0.337749742348836,-0.207605449524335,0.567325114387462,-0.198945192249794,0.125091535406297,-0.865899884443546,0.0783744650917497,0.245945667995088,0.0188387042276951,0.103864948106588,0.386696148120975
46.61,-0.514846981410881,0.173572907533464,0.814820810355641,-0.0641851643433148,-0.156063811852146,-0.120528626934476,-1.04536619469585,-0.0165309561546159,-0.0980708832056493,0.318026101547649,-0.283982073688588,0.164786660683107,-1.07713722750305,0.254665191264192,-0.155025314792508,0.332801738218133,-0.245983348746608,-0.0380189769070073,-0.847715388715394,0.10644855666218,0.264895492037894,0.0263805573323002,0.130116119157906,0.379340880169192
46.615,-0.522926567530263,0.168629624340367,0.820454975469226,0.0701016893431193,-0.133721703671045,-0.0999740742390503,-1.02719236891777,0.0110107222984761,-0.0942142272404267,0.377264678468482,-0.265447828783995,0.152366712131078,-1.04911446552836,0.201409307465946,-0.118017709895053,0.121166630483027,-0.252991483088332,-0.119610949556289,-0.844629817781831,0.130001892490331,0.277273707283036,0.0597763791333495,0.154601978144419,0.366097526489097
46.62,-0.534107959649775,0.157346111671489,0.834433200982473,0.218019828752106,-0.125228513201093,-0.0772581228761154,-1.00701458395848,0.0482368076682968,-0.0819777986710496,0.439426646185363,-0.222283585339626,0.136592230445209,-1.02871873197262,0.160807966616693,-0.0870800942198516,-0.168576493352195,-0.247228871196645,-0.177676367452312,-0.850109162087484,0.151856408452567,0.289435519352849,0.0750202595615073,0.175445173768914,0.347362860366127
46.625,-0.516626917025602,0.167097264013333,0.812977648691535,0.310775397650277,-0.12077935083427,-0.0645305515801058,-1.00521144866375,0.085110415939556,-0.061977140778946,0.474851986655811,-0.182110262430091,0.114733289346374,-1.01687230104871,0.144961034870832,-0.0727536151203575,-0.523987514746822,-0.261209308377226,-0.197053674462945,-0.863910450349394,0.169356114524682,0.303610611016875,0.0885569318638363,0.206043677343194,0.323441911153832
46.63,-0.536107666361404,0.22754553517545,0.805221392770227,0.411420270727465,-0.0986015253421056,-0.0460010756133193,-1.00215660805607,0.106362011482437,-0.0386396520190271,0.465908466543746,-0.167316724655729,0.0868728290833245,-1.00673244383723,0.121376894885845,-0.0465991865682682,-0.760935425554514,-0.317486048513252,-0.201621031583453,-0.870477438109773,0.189386399515535,0.320453565897222,0.106527749730004,0.232646248672698,0.31615449888791
46.635,-0.532164135166357,0.244256882180451,0.786844912498061,0.446670553420159,-0.0918517187965546,-0.0435102156828725,-0.992770715278606,0.135895898639223,-0.0446366792906611,0.466859614888766,-0.148847623959115,0.0717660136669644,-0.989530879932636,0.121793226095581,-0.0485201406816453,-0.974359526162232,-0.371329969463264,-0.211774057950362,-0.870565334818467,0.19959077765668,0.330959297369165,0.0978350276669568,0.25384132508694,0.310636460072433
46.64,-0.528797060957571,0.26892952176182,0.783728552685013,0.407947937979405,-0.0985958009874474,-0.0415615216002302,-0.981332990343914,0.148656234701807,-0.0500505201505564,0.417966687771382,-0.133126117240227,0.0626009802549845,-0.982587126257226,0.123847218738339,-0.050432264333496,-1.13117353119772,-0.383995325672881,-0.214438988922604,-0.865394380450959,0.195952016119491,0.334706076614754,0.0921999634139839,0.285570087827076,0.2938200988
