Header,foot_Accel_X,foot_Accel_Y,foot_Accel_Z,foot_Gyro_X,foot_Gyro_Y,foot_Gyro_Z,shank_Accel_X,shank_Accel_Y,shank_Accel_Z,shank_Gyro_X,shank_Gyro_Y,shank_Gyro_Z,thigh_Accel_X,thigh_Accel_Y,thigh_Accel_Z,thigh_Gyro_X,thigh_Gyro_Y,thigh_Gyro_Z,trunk_Accel_X,trunk_Accel_Y,trunk_Accel_Z,trunk_Gyro_X,trunk_Gyro_Y,trunk_Gyro_Z
106.29,5.19842699585742,2.15854210692114,5.42696479762942,-0.759882703740447,4.01185793615381,-3.48318449172324,-3.5051898073373,2.77752279415763,7.62338817320005,4.20551599074258,1.74736296833609,0.675246390690997,-1.59733812798236,-0.126847599042771,0.857054967568902,0.610333725405774,-1.11181567100378,-0.754175378290692,-1.07499084917054,0.0364874583415718,0.650416140142741,-0.0176332294587655,0.119786944339747,0.249686036633504
106.295,7.24918519952127,2.97592360780626,6.50812735615257,-0.762676467540384,5.04087326925933,-7.11169616916207,-3.84305715550822,2.30935500261603,4.46125280014768,0.209411945574364,0.214712580081358,1.93773653341345,-1.38362911859153,0.20062055052851,0.836520952455051,1.58341400185566,-3.15050888528439,-0.733671517990256,-1.03211113809983,0.0369892102536761,0.641422360942646,0.144498738279743,0.0888552287502056,0.237480660931984
106.3,-0.686157931096109,3.45080905040152,4.43891070785748,-1.67461804826835,3.96416811572234,-7.29504550928195,-2.1306168769441,-0.755698937470675,-1.13315121112208,-5.41958193574694,0.845231543295302,0.483522467607045,-1.16483347867045,0.467226580764492,0.5269344896413,2.93596977827092,-4.1466217103731,-0.42642371134024,-1.01225694956327,0.0491182223960273,0.618942146431175,0.324706191357987,0.0806391955253319,0.21482365455956
106.305,-5.97761395489729,-0.438896157146757,0.117912096440967,-0.787652541567704,1.20575971466751,-0.881640222233274,-1.34279667089546,-1.18469394640878,-0.361747693338604,-0.714537234743847,1.96582256020058,0.574261163210939,-1.17426856645326,0.56225395882056,-0.333250462466119,4.21525074407152,-2.61911470439456,-0.0249963090817154,-1.05853689186163,0.0980107302135941,0.608968824556692,0.468354788683652,0.0789227135858297,0.197630501321709
106.31,-3.53012920730584,-1.96528133042224,-2.53045470985359,-2.29987466311829,0.705024005228347,0.0788160143243265,-1.21462718632948,-1.30414316345324,-1.25297295057742,-1.30017356345896,3.19069180955342,-0.709129570178013,-1.97556791168936,0.521678044896507,-0.678437301852441,4.24361336183524,0.838119288126881,0.311513077308179,-1.20309654272589,0.233282723814836,0.62015131187113,0.629525960934384,0.136457252606985,0.0803244895378941
106.315,-1.37606808140321,-0.991249669104856,-3.82454492233141,-3.69461005353094,4.24837571990415,-0.345335033627041,-0.491725424593879,-1.27159547224451,-1.93001256877869,-2.82704449052101,4.18063964651285,-2.07604448150078,-2.59713372979752,0.501814254937383,-0.401644974500764,3.48751926719313,3.26711489005352,0.189450487847822,-1.43183745156113,0.337192023561224,0.598776587476976,0.820711405803456,0.269774641762196,-0.0592585276397466
106.32,-3.86463275149511,0.275345303531806,-0.672036170119309,-3.98184865902349,7.45695524578611,0.249428169709446,-1.39577963528839,-0.648159445102098,-2.09225042546546,-1.77417467372811,4.70976386440769,-2.74154334777592,-2.45259637246789,-0.00696567328893224,0.228686255931282,2.06985978951949,3.01350970840685,-0.264534721735307,-1.69408160066508,0.342827023919932,0.535912371264604,0.923064269440725,0.452743144003,-0.125633861179998
106.325,-4.66123951148977,0.90589195663597,6.74033157272478,-7.65047395788885,4.93196946368595,-0.158704805299315,-1.08053354399615,0.299632917295121,-1.27026633244107,-0.422161521799441,3.76956326672793,-2.18583541359024,-2.25154089237411,-0.335729879702073,0.686048466848299,-0.379219782342659,1.19629508214158,-0.296840597684293,-1.9036357197236,0.185256994975261,0.45635051182575,0.742129234947357,0.687364855670439,-0.0546834082964048
106.33,-2.32224841841292,-2.36429705165515,5.4685676651515,-8.01309984838667,-0.218328233492642,-0.309094299010043,-1.37618159424301,1.76824421441033,-0.590345278320359,-1.30741098679601,2.9017562628685,-1.50733470913569,-1.73454446427724,-0.134692256371092,0.416267823754547,-3.29929187371427,-0.262668903594732,-0.221690652533442,-1.82856488928514,0.0440223368135354,0.424169067076716,0.474610305578812,0.756212680248411,0.00477536721884243
106.335,-0.0665125049030717,-2.79698408254588,1.05700025039223,-4.74951939174731,-1.71430300948769,-1.6708157612155,-1.50525832977319,1.8066656504982,0.268721988326437,-3.24838077044646,2.76802121873711,-0.853043080461583,-1.05104406446554,0.513422475832466,-0.396181503730414,-5.23044227593927,-0.361327981059401,-0.127104873061819,-1.58611378449006,-0.0278492044772884,0.398235108209545,0.151286242829961,0.576908493730132,0.107530796491354
106.34,-0.10157441968578,0.958562033818882,-0.535015144035483,-3.04983065551122,-0.286365707729775,-2.48513497757135,-1.31874080801529,0.26231010192041,-0.183072920215394,-5.77642135876285,2.54349402155927,-0.670343464028442,-0.715554991260834,0.896348300189983,-0.651253758654784,-5.26626884484064,0.248757348519282,-0.142091379764664,-1.3328203620148,-0.0497398770016071,0.344432714124934,-0.151870157428708,0.298983795084914,0.196604107864862
106.345,-1.68095034717101,2.54967352807071,0.710262031283697,-3.42724183937354,0.751898776183844,-1.53659736967418,-1.00059086112685,-0.634712468940533,-1.20748519323558,-5.5334418668648,2.07964446278657,-0.335739463083417,-0.338909038089376,0.683132960766518,-0.616523791018317,-4.59953801047439,1.16639395060508,-0.179653989097872,-1.14664640758649,-0.0170393169711777,0.209246541344484,-0.522444370197909,-0.0924548598969285,0.26920478989082
106.35,-2.3033751296615,1.35514454722854,1.0420617106487,-2.74335331326556,0.356648739296732,0.114263525713444,-0.942940774267374,-0.805567841781814,-1.14578553132005,-3.97715060420222,2.19314940725025,0.319612807927697,-0.208764862491071,0.189273200909071,-0.36813590842944,-3.98966607964702,1.9134249073195,-0.0308035432292946,-1.0672712724155,0.00307956234243798,0.0390936267601183,-0.703789303780316,-0.428190612040328,0.275963148910198
106.355,-1.01020729318041,-0.333409868074204,0.922153305164085,-2.79615074371099,0.016116787298704,0.172993845666089,-0.859805931182099,-0.718335009953651,-0.927883733069689,-1.58895001851544,2.85386476730121,0.565807245532052,-0.132781677267802,-0.300136216282129,-0.215463262048996,-3.22949668287686,2.40958863818651,0.148627422177706,-1.09205056821885,0.0586836869818205,-0.147062303837229,-0.663746984468217,-0.506610374948735,0.171848813854126
106.36,-0.891768756641838,-1.20880545852883,1.13937240217737,-3.58407033728386,-0.253872675323525,-0.451688639074428,-0.881081216863561,-0.524897986066373,-0.742781673857554,-0.0212462022854968,3.17549392551288,0.143395118487842,-0.118190482393322,-0.64438939934538,-0.620091808831798,-2.57772731350219,2.5427376951875,0.283282195054642,-1.14863732042547,0.118445563971361,-0.289201969390524,-0.551629096224699,-0.529402721835412,0.0304656453641697
106.365,-0.662365151633143,-0.217816270055782,0.961481200876229,-2.01664974045906,-0.113964272954288,-0.611296663265756,-1.17721098250517,-0.31304012447954,-0.48019921064051,0.551619180505567,2.66227543362145,-0.239401283406125,-0.101023117167059,-0.894207466753495,-1.25900993795883,-2.05093820532932,2.60258885542667,0.554785301958752,-1.18262726779911,0.149675044295013,-0.353683087210093,-0.312551439927773,-0.519419718492278,-0.100759959598434
106.37,-0.699989431027506,0.667611402640307,0.746793530543577,-0.803403063925699,0.0158636341928379,-0.367235852506943,-1.19239785972893,-0.22829708303482,-0.380588033913885,0.630171460822864,2.07400100319538,-0.265825385917206,-0.0661959991380738,-1.00152464522376,-1.51926947029189,-0.450973946765988,2.6071698521049,0.998983222407534,-1.19953558928933,0.174548284356689,-0.343130559570638,0.0786502442758172,-0.528333221539202,-0.273539842420731
106.375,-0.719683446287147,0.488512658599538,0.810971512313638,-0.626020248532402,0.0684371351994433,-0.213473837898611,-1.11303881096308,0.0853390934738421,-0.405222294518222,1.05769415674848,1.89908559118568,-0.00136548311978988,-0.22380668953741,-0.830213796975678,-1.32007392781007,1.22762926890561,2.22207901182051,1.13242694769525,-1.19191573338521,0.211397238856143,-0.307967958502611,0.283413545802009,-0.572825629993611,-0.365137146542728
106.38,-0.687268132068296,0.0369983610548725,0.893870902549604,-0.781249117745239,-0.0390012961096092,-0.19717892073299,-1.09407842920921,0.337369375643922,-0.464335862686058,1.12231658262424,1.90090337786189,0.111441992555778,-0.610440062157251,-0.613788151296325,-1.03040277535398,2.50930680205399,1.62072747870758,1.1105724546792,-1.15353615482253,0.231971754024585,-0.26936665180359,0.361892166462098,-0.608369925425898,-0.425733425056406
106.385,-0.712611894306156,0.0618095298289244,0.86034360230302,-0.834836957495807,-0.113577793715683,-0.254592454604983,-1.08094071806054,0.417872048566761,-0.436139004786276,0.971362789934141,1.89213637514412,0.0443583067347885,-1.15693965521791,-0.30029864874803,-0.751515440799171,3.14195791677237,0.936460772966137,1.07581761567089,-1.07099768301243,0.247796126173193,-0.211838778465614,0.314546707570102,-0.572918393891487,-0.490349601973395
106.39,-0.66926628230895,0.283150447635758,0.848793217249381,-0.465789933838288,-0.0632884450027728,-0.163487342555253,-1.13888212887264,0.301784911996829,-0.256427509449745,0.47189536849186,1.82592286476538,-0.183819367793944,-1.36410516082176,-0.0453247891769665,-0.569227609903055,2.9226376976777,0.601958843128679,1.04387521872335,-0.992291259447469,0.223620232893621,-0.145766166183375,0.240822915601295,-0.477433574492306,-0.520532823788142
106.395,-0.548618865373716,0.183753295199016,0.874145971012225,-0.128921020914253,-0.0440111446192587,-0.0788177158092713,-1.17455575802749,0.138325821089593,-0.145863888968307,0.103641885053194,1.72555349945671,-0.289022150904774,-1.4386773644681,0.338067182199591,-0.507944963468696,2.52323882842362,0.383546081230506,0.883916407814313,-0.949494786405179,0.181692304481244,-0.0511019983756732,0.10139495303112,-0.299534821567979,-0.574244538236327
106.4,-0.480242143655847,0.113608719989908,0.865484476993521,0.121613650838454,-0.0152490869153739,-0.0576179166476998,-1.1552060397651,0.0206305583155248,-0.114183443105271,0.0459918015922847,1.5433485148223,-0.306801447223041,-1.42824097009385,0.814702795275193,-0.651150534931457,2.29343195487758,0.302338646000807,0.626321726411299,-0.940865896831147,0.13571881821059,0.0352656979176673,-0.0858903514109613,-0.0852778085636459,-0.633406368825129
106.405,-0.516711008926965,0.243800775998823,0.815872784746468,0.0136154975065193,-0.0346333176266326,-0.0710767020697178,-1.0703652209991,-0.0260507388627685,-0.126560939708442,0.270912281528202,1.35625185852441,-0.2839790024446,-1.2666859010335,1.13262968481515,-0.797917791617055,2.29487628875092,0.461431062856702,0.392433620346349,-0.983435238433616,0.0753259938827337,0.141781556739751,-0.238791656950329,0.0679625882363136,-0.683526662860735
106.41,-0.567902695506685,0.274665926842282,0.825852063014404,-0.294037992643849,-0.0647548261853198,-0.0674070132841342,-0.97442121645734,-0.00953817678092546,-0.123144949627944,0.555586701937148,1.25829182623662,-0.284275776468934,-1.02136162276438,1.39803757465892,-0.715339236161024,2.12240116562228,0.755872893848847,0.225825820470502,-1.03345869197506,0.0513569667953202,0.215896980864975,-0.372380752560451,0.126152415716101,-0.712702854310808
106.415,-0.569746346593795,0.143161262703803,0.860051787772612,-0.414222232560971,-0.0681790390388239,-0.0457819508250918,-1.01457079285186,0.0403592813940528,-0.0969877045865848,0.653743531681652,1.29716326535408,-0.271164294427496,-0.962217499537302,1.41042016703165,-0.466512764123302,1.63339788631941,0.863526997337551,0.156119211863071,-1.07322001201447,-0.0412176881394286,0.270634193500071,-0.395741252583014,0.0891157564088828,-0.694030382669385
106.42,-0.502007133324484,0.0757957725816272,0.854665142170789,-0.280616116988996,-0.0632805139693242,-0.0124018702367276,-1.12558509149479,0.110270374470542,-0.102612114072387,0.466486663924793,1.38196435662795,-0.217077094999788,-1.05582732757264,1.10336632446796,-0.154858731191985,0.820573091345923,0.743500375840582,0.102892765304266,-1.0993332209365,-0.0942672759176464,0.284856052128225,-0.414300541273592,0.0165696104956573,-0.663874779421887
106.425,-0.519875591730256,0.076977978785227,0.842569065782654,-0.096205683312149,-0.0261255005895889,0.046591270390652,-1.1685557925845,0.124960206135234,-0.130294554128031,0.0316254767203699,1.38079772591379,-0.138911350858479,-1.1448202085825,0.622722952728305,-0.0153554783311395,0.0560349384487578,0.555318502086495,0.0835247539646562,-1.07949592028972,-0.137864737580027,0.259887245789975,-0.378652095615417,-0.0222757047090017,-0.660944839594648
106.43,-0.541156281848569,0.122623938197908,0.84330985221165,-0.0167323649073209,0.00331157279498225,0.110398873100938,-1.10528427665665,0.0872849071405649,-0.141953371137343,-0.22305004844867,1.34929868299541,-0.0725783617770155,-1.17084189422661,0.241652448870006,-0.00500667910445387,-0.494591937613194,0.482162738458228,0.0410207282034602,-1.03762231850324,-0.179512293805266,0.200253306594704,-0.172899677257854,0.0509489290718587,-0.68796762633216
106.435,-0.547162843986237,0.174531505031046,0.832429420759256,-0.0325828669414819,0.0103946124664183,0.137484008303703,-1.02980949432836,0.0818880639189897,-0.164694880970947,-0.264067463673495,1.2865449446852,0.00153989728641222,-1.10172607837892,0.0240166918398213,0.00691321565746229,-1.00092947389755,0.468064034428794,-0.0356093865771297,-1.02151337604793,-0.203851190078797,0.161038334561901,0.122000806048823,0.138560938510756,-0.687520671520732
106.44,-0.534217267605217,0.195897979402956,0.813292534756403,0.000622490625211383,0.0318615909281415,0.171874239339374,-0.990781710233979,0.10877078216962,-0.170319109242699,-0.180605414011403,1.21479939145552,0.0816655239287122,-0.992493393864097,-0.0579093723673376,-0.0267646530088661,-1.15375911770867,0.546408738189776,-0.086332320915468,-1.0191470373403,-0.220618034851052,0.122755144078255,0.493724123840101,0.202391322952304,-0.692090295293483
106.445,-0.514496151344705,0.205165627015518,0.802500728965424,0.108740725431606,0.0546908161912758,0.187930489807473,-0.973126860085211,0.195149256353129,-0.168539956594126,-0.0931644879525738,1.09871100207582,0.156657556507928,-0.890754273978886,-0.158716062863096,-0.0706714431021978,-0.812182174820978,0.745248173480274,-0.138990608702461,-1.01767428268349,-0.246918090701358,0.0958488273291623,0.838290180538434,0.19196988250571,-0.705727173142626
106.45,-0.528201825109378,0.263847891831965,0.767455994582992,0.260882983705621,0.0704715343372816,0.193720316131665,-0.954584742591087,0.294429777502139,-0.168958335726137,-0.0958401090901671,0.99786493574811,0.167745715493781,-0.869297032697876,-0.17875137655918,-0.101460654070781,-0.39620088795293,0.872230728873403,-0.192115861539782,-1.04693544541063,-0.267984326822344,0.101088733387761,1.15297961975546,0.139973548426091,-0.689673943063872
106.455,-0.550748562799839,0.323035720846874,0.733784955680057,0.329225300901553,0.0702348323881628,0.201975652596067,-0.925362935886569,0.411332331476082,-0.147576934830926,-0.151978390268595,0.943118635983614,0.0763903266528987,-0.859212089663169,-0.176171303155443,-0.163987308021153,0.316121934548264,0.988080016958933,-0.321667872633786,-1.11305795628934,-0.277921252415252,0.142883358651965,1.41545741249116,0.0579776030664568,-0.65450627769406
106.46,-0.515923713124468,0.362870466915284,0.769708383509792,0.326961647689639,0.0992478495899978,0.205785425391969,-0.923840023824727,0.515945693212645,-0.127763150151528,-0.293535056076283,0.916261517247689,-0.00307365293674924,-0.87787109075936,-0.148360224577423,-0.206937137114948,0.773938553584405,0.956856673712578,-0.44127964398556,-1.20713337222511,-0.292602036693284,0.197672730860272,1.61689079726829,-0.0817297263900994,-0.601216189996807
106.465,-0.697793341339852,0.162066722608686,0.940916920348525,0.182389754035324,0.0715160131954918,0.206449631099034,-0.970438237213879,0.537168888481275,-0.143096729677654,-0.564736440784451,0.900373366790996,-0.0953232344105298,-0.885860096465553,-0.0690726512477709,-0.266759117084325,1.06437182667425,0.805643812823193,-0.533933760046654,-1.2843998212244,-0.302078858031869,0.24989376955711,1.77537612620723,-0.260331892135663,-0.55309772225265
106.47,-0.451969035684278,0.276643293742034,0.664467049153976,0.371748322109902,0.00554460401143273,0.147095883787411,-0.996453181520553,0.533843051848184,-0.117407483784012,-0.9474064529904,0.875660648700044,-0.173330752561973,-0.88594739831739,0.0516524575135027,-0.26689571261278,1.03572535498954,0.783669598508646,-0.517772795992215,-1.32990944671182,-0.317740878438602,0.272768389907467,1.88538557634997,-0.554954822223031,-0.507470488016946
106.475,-0.571720295634064,0.306018075922863,0.828028798244872,0.288201190688963,0.0612789035282513,0.173059739178984,-1.00781463849819,0.392045845460137,-0.120207517028356,-1.25724488261886,0.832310729440038,-0.255349581541509,-0.899385243975994,0.195478442805127,-0.18824434585252,0.755178511507599,0.932014842573542,-0.318457893752722,-1.34153527553512,-0.309122762763067,0.272459361551023,1.94481910508399,-0.801507582251369,-0.491132018143927
106.48,-0.520766517322131,0.379558431721801,0.763661712125502,0.370437711397343,0.0569888614539438,0.117063630495152,-1.02076857508225,0.23820641990886,-0.113703722872392,-1.30121706745392,0.830345993839276,-0.302975297205207,-0.943105449252623,0.347871569388722,-0.0884575969257161,0.450565532792875,1.12262490867369,-0.0250556850078925,-1.29132235342852,-0.279463152615554,0.245819196451032,1.96602306240769,-1.02337001807627,-0.455969790568796
106.485,-0.526979546933749,0.340537586936286,0.692247195262298,0.194844708480111,0.023135294318207,0.0676873149513952,-1.04809896576625,0.0927711089593684,-0.130371758265796,-1.10503240739394,0.8434240781662,-0.292540202559889,-1.00141480292924,0.451463648880547,-0.0412436248533966,0.263234819727472,1.22402696772558,0.191096783116382,-1.23154126323354,-0.231221564558106,0.202564814035486,1.96678410682274,-1.14107864016467,-0.435004843692531
106.49,-0.536674251696285,0.403807210333263,0.769222573757462,0.0610342822550107,0.0389137637043938,0.0354130019928828,-1.0754405238081,0.00285807244558774,-0.151021333492104,-0.859085893136637,0.835264282380867,-0.259363518899621,-1.05590771259421,0.525234947826267,-0.0584721820552256,0.137525120738114,1.21544931695955,0.40210027889819,-1.15990914332329,-0.136725566223501,0.146291116899688,1.83406136569801,-1.21109512207245,-0.44352321354327
106.495,-0.567220930963706,0.354739137407126,0.734095480683422,-0.0907021103644632,0.00806306243402343,0.00655780173986667,-1.05671760023485,-0.0283280564817226,-0.145326005881441,-0.551926384507683,0.804777688702681,-0.186801620966284,-1.0784692116013,0.537476859353496,-0.079940830544997,0.151218249978962,1.18199306802475,0.475921495192878,-1.10368206671017,-0.0721125541737746,0.105683424073811,1.75574198829041,-1.18144537000272,-0.46147255633519
106.5,-0.571946406493511,0.296406543933811,0.804204013196603,-0.21336627237842,-0.00561292472361603,-0.00800419537018271,-1.02310249963506,0.017740682497265,-0.164049878539973,-0.175602993616723,0.792055070400238,-0.113971625127087,-1.07503089740981,0.478488382510996,-0.0904009774812973,0.256815100999061,1.1744020256691,0.453506928279564,-1.04791894300964,0.00990470046500721,0.0968170392474178,1.67087001263136,-1.09237971540427,-0.4928950536443
106.505,-0.516412287505048,0.283284525582461,0.727206502508328,-0.197488281056979,-0.0101435872205097,-0.0295190103778719,-1.00249374530582,0.0938775694801685,-0.17412290719822,0.108870404770078,0.77686364181154,-0.0646139569617817,-1.04915706088379,0.385478970425338,-0.0820988434357866,0.369009185408935,1.23340461008798,0.386087450267601,-0.997183220222254,0.0550675934441588,0.12121467899887,1.61164297385079,-0.952398487060413,-0.538336755486266
106.51,-0.570154762724969,0.251401223201906,0.826002079417395,-0.207111839232567,0.0154280438589922,0.0101818562401327,-1.0102339458318,0.158885544519931,-0.180106396254795,0.178798651046131,0.722128189333474,-0.0231777206013964,-1.01171670996539,0.278453366771882,-0.0688107939797721,0.44903917588334,1.33506100444427,0.303645204174179,-0.966690491366487,0.116706226599806,0.164481440389289,1.51049301524852,-0.802447500044698,-0.598861065044085
106.515,-0.537856283451897,0.248242165968483,0.777408959731021,-0.134946093222994,0.0176138620507282,0.0040170039895072,-1.00644474496654,0.203152060916765,-0.127452779952445,0.21785513196194,0.647429247997815,0.0296127349033145,-0.983412872974528,0.168702168791801,-0.0663435098172679,0.493099813725057,1.48677165730037,0.225513638598452,-0.935028357667164,0.164748495192396,0.242289718084185,1.40167945538773,-0.619009737266338,-0.640194111315322
106.52,-0.544049938758404,0.253890552076376,0.781364856096598,-0.0470330187875288,0.0596833740164295,0.00176775108509944,-0.999786757578269,0.243767397174356,-0.0994685644077136,0.306398736481808,0.574334988671721,0.0688555283719887,-0.939525481919188,0.0343940303148788,-0.0396183858180388,0.539341234361948,1.58955905035563,0.181710505122392,-0.92113764411942,0.19412641036637,0.309240823870124,1.28807163922832,-0.508707468812537,-0.657445031736495
106.525,-0.513932650933657,0.288448495272826,0.770596246595885,0.0670184763130324,0.10983236069481,-0.00320968957426561,-0.981862668396444,0.293712445130553,-0.0962473982490834,0.400375490961533,0.502127464235286,0.064398109969844,-0.95442918913439,-0.0427889524679872,-0.0253154178253155,0.709397926590173,1.6561114025671,0.143907420345245,-0.898127332555451,0.207352171235438,0.36465617761907,1.11164407246423,-0.441792353177038,-0.686473143541228
106.53,-0.552579220161912,0.250144462487843,0.773091150672152,0.16365663887555,0.115845260785296,-0.0211782991191116,-0.985786566443057,0.321008802539169,-0.0987433707650191,0.427313552044447,0.500461890217389,0.0233862704022918,-1.00216331085038,-0.0327223550612793,-0.0349507049508704,0.777285757185763,1.70128210525695,0.141433016464564,-0.878822590173728,0.200314280645042,0.37198990643689,1.04059569576039,-0.405782157115984,-0.71189163156008
106.535,-0.531864887062979,0.290689307979423,0.772733231349359,0.247553335101515,0.131604540571181,-0.0107583089983659,-0.985699700474654,0.335752765678363,-0.0963163428657321,0.394122352467171,0.554426295465195,-0.0415300322080692,-1.03587002380337,-0.0222592158412371,-0.0397579322465513,0.860902634341178,1.65804861262882,0.14125058772838,-0.824062994474106,0.18252135142966,0.353425207056022,1.01591354893701,-0.362341179227652,-0.791631959159683
106.54,-0.533422779057039,0.290223129198381,0.761540890909953,0.279524416376406,0.137708839864354,-0.0275111334584571,-0.981270040824147,0.328470354714056,-0.0808094879347137,0.339857336413786,0.597580122971567,-0.0726788535550542,-1.05007777771155,-0.00191480477647635,-0.0415557275629476,1.00887138608904,1.5313997872448,0.114355529372304,-0.784492446581235,0.147961582537694,0.30484761346622,1.07083160137318,-0.299376867009916,-0.873641821405752
106.545,-0.555540066325652,0.297919992188795,0.787272010473976,0.285735264175889,0.153449739025869,-0.0223682232445947,-0.970829307156063,0.308563414868978,-0.0726096912259255,0.295547372317278,0.615926364967503,-0.0819481984105395,-1.04202836062867,0.0192398937106482,-0.0248221464950602,1.19172578044139,1.40016888944319,0.0971079045216352,-0.731870137775531,0.0887028319232714,0.221637158162834,1.22079761647795,-0.189909851781003,-0.969519078436226
106.55,-0.548481272643348,0.29709798112196,0.754367088117887,0.29577233105879,0.137338257457838,-0.0402340584927782,-0.958682382236036,0.271605152242999,-0.0765683772438792,0.281812812051348,0.619408394638485,-0.0787658789946773,-0.996542133114178,0.0353851425622954,0.0135145825300994,1.38597180183312,1.28485126147713,0.0794286877998135,-0.682090269029168,0.0335438741981097,0.147215390755043,1.43249589243643,-0.0821243713345099,-1.01103000909418
106.555,-0.541099852347318,0.304406609438903,0.766928549753286,0.253125552474313,0.131784475667088,-0.0373190612875397,-0.94973534637165,0.246175484970247,-0.0837561232635506,0.30153578580655,0.598243868203264,-0.0693711568540887,-0.925414609142334,0.0552333402802436,0.0608077028594372,1.62665104588015,1.19299918403688,0.049236812970319,-0.643204287298622,-0.0179771514832217,0.102003455626626,1.63047432416315,0.0561154307311302,-1.01780843371227
106.56,-0.541303663381469,0.309843040674055,0.763733114486019,0.185342443940791,0.114247447343249,-0.0419695812176742,-0.95672918070477,0.237478474805694,-0.088404256737129,0.3198110613645,0.570120864791356,-0.0663514509797096,-0.919344028147733,0.099688684925047,0.0858159688391991,1.79195140676368,1.17248221936687,0.0575178573529656,-0.618582100356403,-0.0656140191095454,0.0699415818370406,1.78030492979239,0.195895543198703,-1.00133490549306
106.565,-0.551406155388986,0.311001711098272,0.760187479939616,0.107814957756027,0.112532708124664,-0.0527457317279948,-0.953750732416892,0.243303599786543,-0.0703291491049053,0.326188772916794,0.564559612126018,-0.0718091335025952,-0.931376971135597,0.162163641654515,0.096423780229564,1.94563314306751,1.1985354560226,0.0809526110724933,-0.600099957435963,-0.0904735766792269,0.0663000494461139,1.83368506577849,0.282742017743069,-0.973476477721789
106.57,-0.532403367300537,0.332174412820148,0.772846504889182,0.332544971245345,0.231835481659359,0.213351539303451,-0.959584978602809,0.260667297369683,-0.0563864726956662,0.747270675397862,0.387090858890641,-0.247483793956881,-0.986356440693765,0.2155805401618,0.0926013964375531,0.574111903005781,-0.387875918586673,-1.23609203527489,-0.609381661541583,-0.0943159555907596,0.0824305623071063,2.46795914318227,-0.0461535651934711,-0.372934930761491
106.575,-0.539424874541537,0.316936059131675,0.768333316638442,-0.0255213965511547,0.108549653039366,-0.0834811425544689,-0.954905392837622,0.266228970363568,-0.0599109787729842,0.331449932684336,0.589910623297188,-0.0694549715579582,-1.00151954203964,0.214892646475347,0.104339557634045,2.04569079669512,1.27678005329924,0.146811904719553,-0.627725139923685,-0.0837271351040435,0.119486128051983,1.80290820883005,0.108312442291997,-0.835908848578862
106.58,-0.535025734514243,0.30728028258701,0.767584694897379,-0.0589801137054766,0.100191972801808,-0.108580022348616,-0.958660313222495,0.251745569967346,-0.0658865411922915,0.345977533326468,0.590607669543323,-0.0626863688230515,-1.02235687887747,0.219132429851004,0.0983660347646258,2.0874077458134,1.31567961446896,0.158779616554646,-0.643678699460567,-0.0703222773576894,0.14477786180366,1.80185536227875,-0.0116451508627473,-0.743852447597136
106.585,-0.542516954711908,0.30261374155577,0.752928496819855,-0.057908438894195,0.0945287766881668,-0.123150937671838,-0.954702365148712,0.232240005458347,-0.0688187865136455,0.380225321391053,0.591436918966693,-0.0539537659469876,-1.03976069746034,0.24460427917198,0.0865515124894746,2.08388371202013,1.37353968002607,0.187390014430811,-0.674246922625758,-0.0606964857389347,0.175105417018328,1.8180159688833,-0.0937620677685868,-0.677291994542437
106.59,-0.548772470513709,0.291644863547782,0.775876946506562,-0.0440447994241854,0.0939428294118743,-0.133319387089433,-0.951649516584857,0.203253584619405,-0.0911506010032665,0.463057353659461,0.59512956673916,-0.0533549477358974,-1.02409873326944,0.299548236939508,0.0748435209330825,2.04599340290248,1.42653739040866,0.22600927450677,-0.728401406964466,-0.0299302156019759,0.208925739525179,1.86213420817556,-0.193699524120724,-0.646213281707558
106.595,-0.544155675502442,0.28885717044341,0.761753580006646,-0.0041212067756763,0.0947026195585797,-0.146547209773907,-0.945834881721313,0.200576834247652,-0.0949017942571762,0.553797948449998,0.620617683991379,-0.0575152360174305,-0.982653025036064,0.320673470114758,0.0610833113478538,2.05381132413925,1.38931695375436,0.229585405225549,-0.775697574824026,-0.00150703874723249,0.228364531638125,1.91326249631737,-0.26246464400875,-0.630869801747024
106.6,-0.542661080028619,0.292822293908676,0.761241223762425,0.0307041725801966,0.10317772112821,-0.150240806477965,-0.943978758515204,0.203694529034804,-0.0935279334706247,0.659389752918257,0.646617823430468,-0.066835316515024,-0.947974001113693,0.358161594512293,0.0390493311874782,2.06056298179013,1.26604807815263,0.228586783495648,-0.830882124122403,0.0339033828461949,0.243811201085573,1.98411729281623,-0.318303829294672,-0.607065582670172
106.605,-0.549168191955055,0.296018518555031,0.768015330218338,0.0625141165447098,0.113509977483798,-0.150419615595425,-0.944389803198625,0.212140955776848,-0.0807949931549631,0.73588787785815,0.668905633277346,-0.0755378862124053,-0.933159762161834,0.414196266247138,0.0306307079783507,2.06484594401678,1.11211295109042,0.209320939580156,-0.873486635170592,0.0702012891197009,0.242870093157201,2.02820643840812,-0.348437291146575,-0.588952875427544
106.61,-0.539840892436953,0.28042309662995,0.763359072635576,0.0833790071404109,0.127372677641967,-0.158967957141927,-0.943833454225671,0.222938713005984,-0.0762400357498798,0.782809407532303,0.6890639415032,-0.0838997264515561,-0.93919765443029,0.460152972683341,0.017117031522309,2.08054231769727,0.947531412199724,0.163044141847026,-0.901696202181552,0.0871269552923215,0.246214219551755,2.08290413165855,-0.36392660590447,-0.590008778845896
106.615,-0.538584189379463,0.273634915585187,0.772217326501393,0.139021379505531,0.150102232978056,-0.154468700931548,-0.947993775784135,0.242249565643141,-0.0853226285934004,0.82126144915534,0.708325691900354,-0.0908825780531119,-0.956660918672492,0.5024719611232,0.0248714407379986,2.08991545767679,0.775145216725153,0.0937611661489409,-0.930691072401216,0.130008547266157,0.24958328626159,2.09552770024856,-0.355202882712192,-0.596193400404239
106.62,-0.54235336995039,0.282964498042109,0.763883514884119,0.177880395970623,0.16686609330298,-0.149894945623383,-0.9496058473624,0.248393648534469,-0.0979476064589405,0.82566608978624,0.721265613726257,-0.106931939223063,-0.966871433049174,0.52417443681494,0.0395649155423506,2.11370607900025,0.651343858630596,0.0162608263335701,-0.945736547654742,0.158908849399625,0.244315444311966,2.06538174468809,-0.325806390443074,-0.600874369545446
106.625,-0.545539981180483,0.27974267725472,0.770419348789765,0.184774989069582,0.187696493356615,-0.149434749114442,-0.954153438047604,0.243691935234063,-0.109834524761807,0.809350531299253,0.748669022755196,-0.120350848508646,-0.982944238551174,0.541459953168022,0.0664047928391622,2.11450646154656,0.56434272847664,-0.0878401067700799,-0.953557991793529,0.158905983725061,0.242968166362049,2.07564506299791,-0.282199631115089,-0.595788941313302
106.63,-0.548901425809968,0.288072981605312,0.765460834617646,0.192355526076,0.194314011673514,-0.153836527142301,-0.960245153456197,0.241212429635395,-0.113496169733457,0.783515227999071,0.769935370667278,-0.144706712631172,-0.994603708356815,0.528766262208216,0.0889611559781417,2.06444006117743,0.561135255703798,-0.14994335880036,-0.960444732303354,0.156048715271227,0.247664385014113,2.10436226348104,-0.196388354015033,-0.615995533465459
106.635,-0.553505358654874,0.291524054435277,0.764920870673819,0.178574778162196,0.201858386397362,-0.155085207078006,-0.957205844115809,0.244064090506241,-0.11960490335647,0.744089311190276,0.793005649649792,-0.158078280511116,-1.0037680428402,0.49711599159652,0.102561860342373,1.90649540620731,0.612567374053759,-0.214534902172439,-0.971159491754443,0.144337097291954,0.253958480132617,2.11869181178229,-0.131277682729485,-0.639534858924553
106.64,-0.553372116875556,0.297273949304873,0.768432688384332,0.146025608983208,0.212413875972155,-0.158072454041636,-0.963165043633258,0.245834373356877,-0.125519411424648,0.709725433283918,0.818168169547302,-0.168719068423876,-1.01620926277278,0.46444770418596,0.0902105439549196,1.71780246101603,0.684912458335192,-0.240001223618498,-0.979804013442321,0.147196428044751,0.258229926904929,2.10544420016428,-0.0945345723394511,-0.686142325989338
106.645,-0.550350276369606,0.300827803007561,0.757231937521231,0.109968181563169,0.217901342341466,-0.167243440645363,-0.965189475088994,0.243006052993082,-0.124606638869592,0.677955278978639,0.837167291764294,-0.17468861639438,-1.029624027845,0.416087968428012,0.0632635430438192,1.40592041009486,0.759442863035453,-0.224822782595575,-0.976856455619852,0.143887706365414,0.256787680336949,2.04625576445547,-0.0844010012248231,-0.727255662193312
106.65,-0.54688721299679,0.315163841430865,0.760085072077832,0.0803807609548151,0.22776615234022,-0.177178358576083,-0.965252641113051,0.244210604196867,-0.132208587947876,0.631601059640482,0.856195458007917,-0.177984852885655,-1.03096264259229,0.358564792892987,0.0313723094877264,1.11933473561373,0.778488282177041,-0.181924030819483,-0.97105584305389,0.12759586322824,0.258187218497872,2.04720575287311,-0.0957098714855363,-0.760396103817655
106.655,-0.552888080144798,0.306475506412174,0.763288976974914,0.0288494518352334,0.23801710545171,-0.193660014562021,-0.980267313633201,0.241650675028008,-0.146562527903882,0.590430517899457,0.865119607751421,-0.179330897445016,-1.02943439021238,0.273961161345491,-0.00284654060469493,0.86005800966838,0.763216218835237,-0.128539013850137,-0.951406811497002,0.122389088033737,0.264834751060112,2.04576029345516,-0.0835713816462253,-0.800299738687211
106.66,-0.555091915803206,0.298613075175716,0.760733326699716,0.00124993593738147,0.246734133132219,-0.203488225612995,-0.980307432661646,0.229486091811236,-0.16410307809767,0.571459017392427,0.870400767697641,-0.17706601325449,-1.02626229899416,0.192516772607569,-0.0368037272048119,0.6756842969027,0.714804303718345,-0.0684302093840911,-0.930794543130898,0.115713787020724,0.268498044385991,2.01328112241708,-0.0610849781575069,-0.839479967309804
106.665,-0.559211628529162,0.300189429749694,0.761966101318112,0.00123303633223171,0.263702122599175,-0.21264695094428,-0.988737260217891,0.21493490551073,-0.175550095924818,0.553920023523804,0.87872875267041,-0.176447116568873,-1.02051789290122,0.128828474853302,-0.0488582750762351,0.6248601900657,0.658453266187812,-0.0153969148147195,-0.922718572469488,0.111498363894781,0.259048681469604,1.95660940899904,-0.0357596308850208,-0.868397748303926
106.67,-0.559070797914106,0.282336327592898,0.771933383302788,-0.00749521027830779,0.260105630481732,-0.22487987223051,-0.989595436901296,0.19164874228499,-0.190962470216475,0.574868690531087,0.888981229544675,-0.166415234844545,-1.03697719165352,0.084830386056445,-0.0756793159099316,0.648497016499383,0.596324517309729,0.0573923573215189,-0.91380563896695,0.0921747852107855,0.261928464995227,1.93263535989554,-0.00763360532276486,-0.887917729889292
106.675,-0.55064396095576,0.278329867119962,0.76876781560218,0.0153015831288852,0.272881833405986,-0.231590065391436,-1.00650148408862,0.172544167828297,-0.20024939630447,0.612457377165714,0.903608234607261,-0.152993743009826,-1.03606425679298,0.0288178527319739,-0.0720127999930474,0.745741828150569,0.537358559455593,0.102179662329215,-0.920099435170599,0.0801882032742577,0.252193805304702,1.92904790195987,0.0351132501996,-0.896614374126041
106.68,-0.553823773308018,0.268390701224788,0.770169553801376,0.0771416913382706,0.294251627636819,-0.244566734469152,-1.00676625674362,0.166678926225973,-0.212228935851543,0.671325706400905,0.915855303073371,-0.133826596320486,-1.03014807292294,-0.0285226109096657,-0.0636836522140708,0.903930295768532,0.488090580640415,0.144186916105829,-0.924876137112085,0.0817760636167204,0.248243036053163,1.9228436240922,0.0435894149219873,-0.907105536437251
106.685,-0.562420320834515,0.284024451145769,0.772213552947499,0.169941345975044,0.341565109620824,-0.266087300001169,-1.00549910504129,0.179860429812986,-0.220763405764036,0.74863551117833,0.914940574629214,-0.111115588780716,-1.01993460793161,-0.072181184806526,-0.0461967655061754,1.04054347562118,0.491918840422414,0.171503606333144,-0.905273585292796,0.0868012531215826,0.243146362523021,1.91967790426337,0.0454159717824572,-0.905799074199112
106.69,-0.557876742882211,0.29198466967931,0.774329747553069,0.226242008340609,0.339534170604616,-0.289883822752243,-1.00614354098302,0.163708842305175,-0.205190914820213,0.828779540361715,0.906149788728432,-0.0855124780832088,-1.01732498301703,-0.108133981724525,-0.0294525314545889,1.13098516315549,0.52737372589194,0.179769573432904,-0.88793621962787,0.0938354159571548,0.241931122584861,1.92463287001249,0.0749788808184326,-0.901151791456174
106.695,-0.562548161442966,0.26185723299599,0.781215338052835,0.260314033355897,0.364378941079815,-0.318427939939628,-1.02847776199779,0.132577785703428,-0.219895922725814,0.902573826123592,0.895694885661426,-0.060038719584766,-1.02166944091986,-0.129506516097975,-0.0203833576980167,1.2090707300871,0.585169541710213,0.187298092277448,-0.902724272472238,0.0940817749073991,0.244096913945478,1.91626677656175,0.104838216859677,-0.884793816541854
106.7,-0.563278729346029,0.278453469797926,0.770801501514436,0.317806509251286,0.394811176655702,-0.329102211676481,-1.03842459829308,0.101397710409702,-0.231167169875737,1.02075260519035,0.889674378919257,-0.0385042521995769,-1.0236775673438,-0.13239853102715,-0.0218891913027019,1.25544966934112,0.618739232134511,0.182105033290987,-0.930132937122412,0.0954802335608358,0.261442702461093,1.93177034211475,0.082331421161165,-0.869665670795427
106.705,-0.566775540223079,0.251640417187298,0.765992666165295,0.321169115254899,0.438825839245272,-0.335119147170286,-1.05858435454173,0.0922555074270151,-0.252878137901084,1.09119507617092,0.894253659047042,-0.0255200865495578,-1.02077742069222,-0.112166294299835,-0.0310084175265437,1.344937575555,0.644867960758328,0.160674374822452,-0.962546519112077,0.108623723030714,0.284704943188694,1.93555935063672,0.0140232447806337,-0.860800849519877
106.71,-0.566298480918665,0.27173594540175,0.772716905892843,0.389666228077898,0.475934508140072,-0.341145397641173,-1.0576238528365,0.0880519274534946,-0.245620349546011,1.1300300176787,0.898160343140478,-0.0161471556536485,-1.01862360578632,-0.0605867757587619,-0.0645576967283522,1.46224410022829,0.655976998087478,0.143125656558823,-0.978159978312126,0.114538489407421,0.290597671707777,1.94193417072984,-0.094371927208849,-0.822236640972556
106.715,-0.57118688064107,0.27001634276418,0.76714246800793,0.390452552739134,0.518283291116473,-0.33858095118443,-1.06043663492092,0.0834079764994592,-0.24510408148198,1.13534226766777,0.90894603277282,-0.00227982880206986,-1.02063267067652,-0.0189757958711493,-0.0801755915788055,1.62944497592107,0.657750732395201,0.128150519776244,-0.98315450166954,0.12449981275378,0.300245500801306,1.95895981652433,-0.208095848737787,-0.783722481278429
106.72,-0.57567758906123,0.260462586131519,0.767305762031557,0.379645906824971,0.555267979171437,-0.337865199630951,-1.06145210256497,0.0733730557275439,-0.251207871853457,1.13626256805499,0.910350260914754,0.0107056642835896,-1.01923694045673,0.0223206185363443,-0.0881476973142429,1.83792658390435,0.667442786820542,0.118253942372421,-0.982529581876705,0.139575296419055,0.308104551484689,1.97974130263315,-0.354209176422947,-0.756508808431251
106.725,-0.57638839918465,0.234495671519548,0.764208956175484,0.360965285269825,0.606463122946693,-0.321766699622139,-1.06308984103026,0.0659453476579139,-0.267702657072611,1.11906525163904,0.915768920527408,0.018653440117129,-1.01454340943632,0.0659777098769378,-0.0866675445824133,2.00070484254071,0.687522495021979,0.109073349010053,-0.973180909652195,0.155474671904111,0.316455632084268,2.00376332471018,-0.478449006473594,-0.738019494745486
106.73,-0.583232398479451,0.226663945620821,0.766787430572964,0.370467209356615,0.648488572367763,-0.298962226560945,-1.05465091590446,0.0805122701827887,-0.273620970607438,1.06082500980664,0.920269010761285,0.0223563640769136,-1.01207544220965,0.0915528533511463,-0.0879451569905192,2.11249705234676,0.72753500777605,0.106976712837419,-0.964180752649154,0.167137696785129,0.323091736852963,2.02397032318522,-0.574776446270172,-0.719445143044465
106.735,-0.58722956694336,0.254579925770481,0.764883623696378,0.370540163241727,0.67698550927089,-0.284468203700591,-1.06804483589784,0.109147678679566,-0.265267371068251,0.999319863495864,0.937609131232019,0.0187024673679325,-0.998466056704193,0.0910223805607924,-0.0815203689678306,2.17625629415286,0.7503281072962,0.100535270500835,-0.963458424710659,0.170743015579345,0.32990582603944,2.069441811028,-0.642294149101365,-0.705689410119956
106.74,-0.585278134305611,0.263691352705843,0.756516818837192,0.355985188039264,0.7221386018289,-0.27144352504941,-1.04827710108233,0.116013960051218,-0.250573875276896,0.925861207953278,0.94452475141595,0.0218159773551125,-0.999599811763229,0.0844298692395052,-0.078209318092002,2.21341254274884,0.742983506490211,0.0981030620872545,-0.964425196872154,0.182232114106574,0.335193852161446,2.0999612930245,-0.664581449319632,-0.70268161953142
106.745,-0.581479060438786,0.27528045380955,0.752773685714977,0.360122879262517,0.758094017136632,-0.267466302531343,-0.997475930066642,0.119777458900862,-0.242289964287745,0.868487834664293,0.940718982355715,0.029463372480671,-1.02900101022508,0.123084142576697,-0.110570530286024,2.1706963755607,0.743887037921839,0.142021702999541,-0.955145091998968,0.201336909328512,0.347767988607726,2.09427184145306,-0.652162225657972,-0.714092612056931
106.75,-0.586021603579225,0.247386588494043,0.750281166100538,0.344560703003571,0.809290985613663,-0.260416394954719,-1.02819847775997,0.154523981477404,-0.263784152743241,0.843149728687933,0.959739039582342,0.0240794631032282,-0.95137694537023,0.0554770155464702,-0.0909388065128736,2.05605334716073,0.69295142451549,0.136122073985091,-0.945475443644175,0.211332871582143,0.350835464489689,2.06387161880589,-0.642726335300213,-0.721451443312556
106.755,-0.599697609920933,0.253992338096517,0.738825901423015,0.351398494822119,0.842304709464958,-0.251294047769838,-1.02390791937277,0.153004119500428,-0.274461477624584,0.77930473846688,0.963738211035078,0.0288706245043988,-0.948886051402964,0.0421981044933153,-0.0904133631177741,2.02825034219906,0.631476428326643,0.133054293321433,-0.939375126944244,0.222377595891407,0.357548266126224,2.03740561300688,-0.602286216575389,-0.742438238773619
106.76,-0.605483046362596,0.283697383439129,0.740409909017017,0.35369285941124,0.889321285092734,-0.238382734105995,-1.01557470766999,0.159792457644368,-0.280908527555459,0.717265231242344,0.972244420798646,0.0157775055476941,-0.927908197269886,0.0401106741243394,-0.0956327794730541,1.96547007149217,0.581184826897717,0.126793500446447,-0.938554286866299,0.232597544422836,0.374900821486107,1.98478364501762,-0.571764510731672,-0.756025025064913
106.765,-0.600943043810853,0.282904813425607,0.744026210676537,0.355800308556588,0.932233640299834,-0.229965586048414,-1.00774847550766,0.169333555657848,-0.259725483139521,0.691687050977924,0.981857621857954,-0.00125972206753958,-0.924336374093056,0.047067528406758,-0.093334531702497,1.91485416873317,0.525500714540801,0.115435981228445,-0.942073401169713,0.230353591656511,0.400229611251823,1.92155287071149,-0.547256182901363,-0.767816102289251
106.77,-0.591427685693561,0.304158747935108,0.731885795334185,0.371521261746363,0.970253875177687,-0.246536478943526,-0.998278248809798,0.18887737138747,-0.243495607734863,0.680804908497463,0.997572908219386,-0.0106019705037794,-0.938665844677409,0.0490612569623355,-0.0918194329932316,1.8971010328727,0.463402259100042,0.0935335889751754,-0.947303598247649,0.212054112758763,0.414217272281888,1.86708691947337,-0.520360851531297,-0.784664675045357
106.775,-0.60039616121608,0.322072591598665,0.732679310356301,0.394905237210836,1.02125494541384,-0.260416124858439,-1.00069828239742,0.197992283964185,-0.244337158108815,0.689810690825918,1.01156999481339,-0.0128828909231924,-0.958469813989885,0.0751860361491779,-0.106722520756541,1.8628124493218,0.365594430049639,0.0704492889751343,-0.952415705720712,0.182431156979686,0.433916423311085,1.83152661630599,-0.494069990904122,-0.812896299564738
106.78,-0.609618721616354,0.327029939547865,0.721755237366004,0.422235559878694,1.0745617389096,-0.298407794979958,-0.997194950741701,0.205589409082302,-0.26411597070241,0.741420975557029,1.0160831075067,-0.00526470965872392,-0.974451460391541,0.101992689011028,-0.117945697549182,1.82959877474152,0.317202108948286,0.0468924818937708,-0.967466203750544,0.161128321895426,0.450959085636299,1.81270771255362,-0.475078751816783,-0.842082370664095
106.785,-0.623173596462451,0.332629561668612,0.71656428259378,0.445355515386266,1.11016449903476,-0.331797449326491,-0.990865560996259,0.212341588625847,-0.284509456855893,0.799494817380598,1.01885959359062,0.0102580241812856,-0.987651033222828,0.137348323534596,-0.122859715394085,1.81916693163796,0.274850069752818,0.0234116621591949,-0.980951285350884,0.138646591065688,0.469928520199506,1.81813219764276,-0.446170872771091,-0.881877388243334
106.79,-0.624316976051874,0.322347588086347,0.716666502539764,0.473864720933512,1.13908519569089,-0.372127465954575,-0.981586100110301,0.192240208337345,-0.282123409446843,0.862430277598116,1.0317646199159,0.0264589505436941,-0.990024177486039,0.168192720688046,-0.132547833867454,1.83533474769652,0.234846419044989,0.0172802821835947,-0.985595543908923,0.11880801073559,0.47855982560837,1.85614376286943,-0.436193507567329,-0.936035212834157
106.795,-0.62698890208882,0.315565616930621,0.705992459618204,0.505665751183009,1.17802329516705,-0.40275416902359,-0.980636846009185,0.170920625013605,-0.294604106881189,0.938139627499294,1.04157866699559,0.0392061325508171,-0.972479542197226,0.19960568725216,-0.139043869283432,1.83312288198199,0.212314751214029,0.00822104568417549,-0.991503548518786,0.0948896621314018,0.485369682816119,1.89681128571683,-0.433059096922149,-0.975405487717395
106.8,-0.64169463443445,0.316094031706688,0.701178757969084,0.530046779457146,1.20986769104784,-0.432524919672489,-0.979298877655005,0.150793860549673,-0.315500747196112,1.0413824156142,1.03323036143941,0.0414919628510808,-0.946302278505113,0.227029852536681,-0.151916569450753,1.8162388947717,0.202026635408401,-0.0039278639448458,-0.989230215434563,0.0702467896271501,0.475814701990951,1.97955426763793,-0.432053977298165,-1.02120211511574
106.805,-0.643690874574292,0.318045073374533,0.69371423985665,0.543024975517566,1.23326523449075,-0.466359242336554,-0.974478691242105,0.157348161928256,-0.324737509039487,1.14758062094419,1.03538618019658,0.0439828968517622,-0.925450222409241,0.260966361859367,-0.16929010532857,1.81695061018764,0.200956653004927,-0.00966771277891919,-0.985922692054425,0.0597823154745071,0.473220006675645,2.05881017558896,-0.433024901742901,-1.04920533938835
106.81,-0.649176524061484,0.316223775588865,0.691652363502341,0.538434316290446,1.25734935396067,-0.487230652985096,-0.967502712018013,0.175210511666388,-0.338948386874678,1.22813463592014,1.03883743286133,0.0415106415311145,-0.914323835084882,0.293809336947096,-0.174024591792995,1.84903802336325,0.178201097966045,-0.0145743937555662,-0.962791423481468,0.0630011001479977,0.478896272074679,2.14463685731832,-0.463126830890195,-1.07221967632843
106.815,-0.653839728823168,0.320679334140197,0.68442082519956,0.554050743579865,1.2756534805364,-0.505179657612821,-0.959805917970044,0.178472301966468,-0.337005055675142,1.28225717690732,1.04242342364492,0.045270996606798,-0.909428307536886,0.331576799223266,-0.182907750767694,1.8574795297201,0.160085724604039,-0.0215925627182078,-0.932158341531484,0.0708477023422461,0.476684918921006,2.12185751375038,-0.500751700290259,-1.05696907784539
106.82,-0.661760658377717,0.317190978630793,0.682381437336025,0.554050743579865,1.28973940270346,-0.520554020752601,-0.958487196223033,0.185803137717339,-0.323816471100083,1.33095265737772,1.05169984306094,0.0452722050212318,-0.906207871980445,0.342965913249252,-0.184038993379448,1.85887439296152,0.14045842223781,-0.0255279833522858,-0.893974906873507,0.0754842022141831,0.458933604903086,2.1198851158983,-0.521207622495779,-1.04763944940022
106.825,-0.665021560383057,0.318318233604198,0.673589775152644,0.557213328402917,1.3053143832533,-0.543032570150021,-0.947299794693959,0.19435486642606,-0.321363853064242,1.36208558553222,1.0610604953686,0.046983527205942,-0.901172318876735,0.34755533772598,-0.188458191234416,1.82820165750261,0.105880284970086,-0.0349586056311646,-0.860326958331835,0.0702674250009624,0.435007663310657,2.1538647206953,-0.536079472947957,-1.0347070009479
106.83,-0.666013127350195,0.323972655468671,0.667745707002397,0.554612828048879,1.31918976094706,-0.557410459483743,-0.928756719385297,0.202571957512558,-0.334984754386698,1.38750006881098,1.05943561656644,0.0347693408059952,-0.88732746243197,0.340562059719446,-0.200042078191553,1.80671093640056,0.0819501215766476,-0.0492183120065489,-0.836340462232598,0.084357898645228,0.432977898474082,2.16898927515788,-0.520746425992334,-1.03479862924312
106.835,-0.671996022637669,0.330007771193523,0.655250837215512,0.553532851457437,1.33045068950755,-0.565518670916637,-0.918614630369196,0.211858550654638,-0.349787287419257,1.40062915702817,1.06880879978183,0.0184366259372503,-0.870288682081264,0.324895745085059,-0.208231905684788,1.7542857765822,0.0582942850477639,-0.0693008643022944,-0.798299233645527,0.108164640926154,0.415688272600865,2.15686853824103,-0.470712507230848,-1.02820122042128
106.84,-0.683363272281892,0.318728032011677,0.649118716328728,0.535140478641539,1.33667070120869,-0.581567401001839,-0.905944714405409,0.213391542107009,-0.367015921160687,1.38981656561722,1.07806178263365,0.00159532218079323,-0.859499509719563,0.298130107524396,-0.207906066656842,1.71425199393277,0.039336650536794,-0.0828883672106709,-0.765299837148689,0.134148752410791,0.394559796582083,2.1010394221006,-0.385131774350812,-1.00980922459153
106.845,-0.698027470940594,0.329100130579225,0.642747500743695,0.525344177371272,1.33330104293094,-0.60342631370688,-0.90024254553982,0.209804728365161,-0.372988583357121,1.37568478744756,1.09023054959994,-0.012536446944981,-0.860289130227101,0.270725055323899,-0.202179631731396,1.68328339694487,0.0236395520619666,-0.102390326176348,-0.747590396665985,0.155209715527352,0.384868362534192,2.04973521536741,-0.309927561826877,-0.994413658531498
106.85,-0.685147641936941,0.326514984266637,0.635383294798679,0.497260592800136,1.33346223612792,-0.606612134075754,-0.894095712347862,0.212563009077034,-0.366976970129473,1.36090522455838,1.10344487830464,-0.0285377183885326,-0.860963477673206,0.221495171872396,-0.183238209410066,1.63445496559143,-0.00039699561423559,-0.12627252599676,-0.726206224749295,0.174796015652719,0.382404959304492,1.99180921320042,-0.223018659917821,-0.978903148673272
106.855,-0.69020395631426,0.317572840331601,0.632679666097404,0.474446608822649,1.32227653903655,-0.618889959488448,-0.884393406048198,0.196886293533605,-0.369002916099258,1.34419557228309,1.09910123369729,-0.043848369371826,-0.850781157717061,0.183712871647418,-0.175818046224605,1.63396359989141,-0.0022217750938969,-0.14894520334557,-0.7174071725622,0.18909600076021,0.39168339869888,1.96252048012353,-0.154099482046175,-0.970663141055802
106.86,-0.701007267958571,0.30912768173004,0.623462543186515,0.452510267688375,1.31604373455048,-0.62946858385832,-0.878619790229947,0.173177129754887,-0.378785008289514,1.32772515191183,1.08206540337617,-0.0595212065239375,-0.839300409570418,0.142923365262047,-0.175347262370747,1.64274419350708,0.0116087162059453,-0.174228474433618,-0.714907109259823,0.205927666935124,0.407517277575307,1.94082826363561,-0.0883075683458121,-0.969407887973803
106.865,-0.717103010730502,0.300361738449239,0.627282831177601,0.437033311661629,1.31287428411958,-0.633509405836422,-0.878527750849649,0.128103540068844,-0.413610534955749,1.32644775278605,1.05505556409115,-0.079917194201518,-0.825534797651307,0.106325852617919,-0.174213159979621,1.67203822949022,0.0185240165040355,-0.202136424760933,-0.714919528924821,0.214626618938828,0.424404094219474,1.93778784131495,0.00403306219311943,-0.966908461213749
106.87,-0.730277218423654,0.286591587948425,0.62908449332791,0.416717242836243,1.32447352105399,-0.645906936868436,-0.894675385681146,0.127233434129212,-0.431550383841767,1.32256781226622,1.04024704353734,-0.114319605628628,-0.83002613027361,0.0804602743143956,-0.179387287933799,1.70614396040758,0.0438823547261971,-0.218356613929289,-0.700614890542949,0.219028675306129,0.42483365583426,1.94294844244093,0.0964485921169819,-0.953025108811184
106.875,-0.708986556116282,0.313319736628272,0.610178198513873,0.434895720689724,1.3367523771551,-0.652961439110454,-0.906540278598966,0.133911454104087,-0.393038653080572,1.34989578308517,1.03918129879708,-0.150231509464456,-0.86198557656535,0.0626399569863369,-0.18193066180311,1.77905338599372,0.0344053511623077,-0.232696457567466,-0.690590991627829,0.217114478850648,0.421601291454566,1.91457058677295,0.160083532313728,-0.938304564233751
106.88,-0.712302464527563,0.300606134131055,0.612114061821156,0.42642046048406,1.35605789585453,-0.651425957001688,-0.920842377794671,0.144989805653059,-0.393379262051885,1.41815001228631,1.0474838949938,-0.164775210795357,-0.884586808414407,0.0488951561503374,-0.177690159902248,1.83039139179445,0.0350785168326039,-0.240175046268267,-0.678531351402599,0.203773627351273,0.430968217272341,1.87204209149797,0.225865442099443,-0.920191210437266
106.885,-0.722475327511731,0.280116148235748,0.587807999432342,0.476170653119322,1.38074035799537,-0.666009596326463,-0.933065408023397,0.149164887731654,-0.419586511098326,1.50642007578568,1.03003458312315,-0.164379351163151,-0.90862729091684,0.0437415239781952,-0.165766722850359,1.89226891283552,0.034654475748539,-0.245412425307443,-0.681774475420496,0.181636247733751,0.434382425380622,1.84661526920092,0.256522030518577,-0.909823656820352
106.89,-0.73341708455501,0.297872839098265,0.61493140902599,0.50024599280862,1.40536596591934,-0.667050879686766,-0.931846346635953,0.132519946144078,-0.425817431232088,1.57988001997647,1.01515633034463,-0.15493287228982,-0.913059274363551,0.048524745937897,-0.148817349093867,1.9436706974416,0.0248428147448806,-0.249235013228861,-0.714105822744867,0.155989118274064,0.42400003910129,1.82444030463101,0.290565672367045,-0.894381566525993
106.895,-0.745986025781621,0.270257845829748,0.635498293787428,0.510939440503109,1.42376424945444,-0.666767573200129,-0.951745220551482,0.111777934898868,-0.437831236838134,1.64291916070381,1.02658342750267,-0.152049485251732,-0.921573716690958,0.0635607509702517,-0.140112259614125,2.05122750781441,-0.00300368443274849,-0.255444122009826,-0.742828098341125,0.141895641947783,0.411332729004141,1.79846120103858,0.315127501167117,-0.880612700487544
106.9,-0.727469114131656,0.288932317425169,0.632331448802644,0.563064522096664,1.47992837256637,-0.664739073184894,-0.989738447281836,0.0855691760251301,-0.424666521669878,1.72908635696286,1.04255847853433,-0.165101372523426,-0.960403338436032,0.079135291041599,-0.135102712258669,2.18194121239572,-0.0197276509214801,-0.264067123080133,-0.79480285601759,0.118642411067685,0.392087664508181,1.77422612145413,0.337937399358584,-0.862382997288922
106.905,-0.73411416183202,0.272538998137219,0.639614401440598,0.597754586073257,1.54037169056744,-0.660082452283414,-1.03923784001533,0.0747356042888368,-0.392510490032046,1.82102045219137,1.05799624172562,-0.191848571537589,-1.01314011673616,0.0852331395545005,-0.120946274222447,2.28827671745166,-0.0393732084909414,-0.273395522282807,-0.842533268997828,0.0842389680661011,0.37571676722769,1.76727997073801,0.354889740820725,-0.843317176567108
106.91,-0.730381932189099,0.288907835550325,0.635381749615734,0.663022908691949,1.61582174615687,-0.668459338726318,-1.07249873187656,0.080107965720406,-0.372987449765936,1.93257239524992,1.0544251619915,-0.201186642750432,-1.07356633095511,0.0917542721318522,-0.0943127824671272,2.35864922835217,-0.0676518467162591,-0.2818820929006,-0.90231023297685,0.04931289698003,0.370793957490816,1.75331265026131,0.364068937973963,-0.812750515403365
106.915,-0.744912404951017,0.300625318114335,0.637454649981155,0.726859872358191,1.71248627228765,-0.667579718049609,-1.10232838942473,0.0790786381962015,-0.358887264286809,2.06278348833131,1.06171153030571,-0.191874592569994,-1.11323575832144,0.0917147795773693,-0.0640228929534015,2.40992988089913,-0.122342037783769,-0.283144276446858,-0.970381402528442,0.0184659241146729,0.36310496349848,1.78236662397081,0.409202445070118,-0.787997492404821
106.92,-0.737485634876713,0.309481230620523,0.609986369585592,0.810153570596442,1.82069932029422,-0.67855293573408,-1.09507765038854,0.068527128447298,-0.358311616027445,2.21722340176192,1.07733321315647,-0.175974609123882,-1.13427266471985,0.0877485674900585,-0.0328524547086705,2.44041175229334,-0.187921342105212,-0.279348104331658,-1.02924280779172,0.000644028142735478,0.345037085187348,1.82329065690805,0.468536646496414,-0.765523513679715
106.925,-0.731710163880406,0.362998718983783,0.621390025812792,0.880274846002419,1.92008718282305,-0.73297485056183,-1.1566977886269,0.0599769921288718,-0.367476074339507,2.34269761133734,1.09404431070928,-0.159394273086539,-1.13649946201264,0.0775812049543599,-0.00498438198224965,2.44920757746418,-0.261228544693469,-0.276687293307792,-1.08173302231142,-0.0226682699922964,0.304258928691116,1.89969907624473,0.565586982772139,-0.744796578699425
106.93,-0.773012092553814,0.349520789155184,0.577632265723723,0.894753402381534,2.04549097156481,-0.795661769358717,-1.16786237623953,0.0718531884681138,-0.322488165527942,2.48436079098475,1.12284456409149,-0.140556530187501,-1.13656431308673,0.0641649435791539,0.0189137033448171,2.44514781438172,-0.355558802264304,-0.297083170484632,-1.11804897535146,-0.0403325641128031,0.275217538240182,1.97181646966649,0.637602296670923,-0.715388511117673
106.935,-0.767727681125435,0.405802354112747,0.607069753256434,0.922574467926981,2.20429944212916,-0.811666304997639,-1.18654823607295,0.0814029451631861,-0.311522009762865,2.59223209958129,1.15010423837531,-0.118979099312738,-1.14571505187287,0.051884290269211,0.0440649405633897,2.44833837454585,-0.432009039543952,-0.315100046649289,-1.13663227784143,-0.0766256315640212,0.238829260813066,2.00821466997063,0.669526925885016,-0.663828678196049
106.94,-0.746482889760894,0.408462854263252,0.617729746174347,0.938581356348842,2.33313902311017,-0.927544656082049,-1.20228162583173,0.0931734368150927,-0.291405207120202,2.69038790607409,1.16385298390278,-0.108259589655334,-1.16503455095626,0.0313804552040757,0.0841378087285537,2.44049967271742,-0.518892948678377,-0.334419249998489,-1.13406433911728,-0.114401033119204,0.197381179106415,2.02014365130851,0.63703526362259,-0.606284810150452
106.945,-0.773857683589968,0.420920510917692,0.626560680242562,0.919472237697519,2.48194477130248,-1.01015026541396,-1.2229314258928,0.110824115212763,-0.269600526358556,2.78049174634212,1.18994028272148,-0.10206364934208,-1.18378863006542,0.0150319103583841,0.119843031888175,2.42496961310441,-0.608668671494846,-0.346719621066194,-1.13147430429702,-0.145097279227159,0.1542725670226,2.0277791426927,0.572127383795729,-0.562589773335113
106.95,-0.732793979223542,0.384519690075926,0.632775196039121,0.917643168730672,2.63583656387636,-1.11921850681173,-1.25368400429914,0.127807116126972,-0.213341898728094,2.8233846157864,1.2291613194008,-0.107240555603574,-1.20663863806742,0.0172725410269854,0.1422928970734,2.3746280743826,-0.7090044760973,-0.361447588235572,-1.13507859509596,-0.157154907614345,0.118975243323951,2.00461629164761,0.438115196746623,-0.510861072954377
106.955,-0.737447167541207,0.402805457631271,0.616714426494236,0.942845915219719,2.81146104516787,-1.27069717622258,-1.2749875560259,0.155186004412085,-0.183114464765099,2.88418465723295,1.24814506982293,-0.0978681671875247,-1.20609285729327,0.0156873838714042,0.139253410247737,2.35690600465739,-0.782368932870017,-0.353388020582751,-1.13900144818886,-0.1555543929384,0.0846224612825332,1.99077330011385,0.345761468634335,-0.4713758047739
106.96,-0.74812202304883,0.431853486936557,0.599229755842169,0.942868051183166,2.96776353064959,-1.40111603465219,-1.2859767976451,0.189150255001516,-0.142434445987279,2.97067692828238,1.2289627597004,-0.0756660360976372,-1.19750091368356,0.0373751347915828,0.127051791690999,2.3414454954395,-0.853762002463544,-0.34131237156212,-1.15733567861916,-0.146213362533605,0.0614066343018811,1.97299875969512,0.283606199437821,-0.436473133889931
106.965,-0.794276781191039,0.419742680782139,0.601370607395553,0.937981608440638,3.1337627464373,-1.55950318411217,-1.27958140613871,0.203326677046306,-0.21096854475329,3.04567344978835,1.25519078813166,-0.0536302771984716,-1.19176008618214,0.0818276735978617,0.0993832954458598,2.33621039838809,-0.910794186104521,-0.332182970970643,-1.17242845543342,-0.121587527631186,0.0461488380874502,1.96167898747396,0.270528482869381,-0.43223871520608
106.97,-0.805217040729367,0.430181770407927,0.568590391322057,0.938083976279151,3.28686889340589,-1.70896450737144,-1.28779080253113,0.205633764343712,-0.27696322539601,2.97747469457236,1.31979872291004,-0.0887699621728222,-1.18292961312513,0.12370934398875,0.0598857231139912,2.3759551305363,-1.00162751630007,-0.316913971676875,-1.17107390723407,-0.0837576150874488,0.0494770203500307,1.90667895282301,0.291047940267601,-0.448872980630751
106.975,-0.75643459983499,0.469059458088777,0.549824741356195,0.980174334044323,3.49917725773015,-1.88624169445032,-1.29606227963026,0.222123100260982,-0.285426822629235,2.83620208230972,1.39281464217291,-0.158537780841971,-1.18186080513016,0.149743739080256,0.00947958941228944,2.4582766361588,-1.07483047905288,-0.29504496388515,-1.1580533857517,-0.059784207610027,0.0535087921440991,1.83491302647215,0.329359982694753,-0.462635290326471
106.98,-0.849322880771958,0.399847981932682,0.602032222584141,1.04855459849133,3.68094369568979,-2.03667434335859,-1.30828641987121,0.272084827462385,-0.304773478323689,2.73836185423675,1.45249995579804,-0.203714578546405,-1.18618042590984,0.171662349974759,-0.0811265409748612,2.57774956266009,-1.11199286207551,-0.26101998349744,-1.1534300782548,-0.075121805110579,0.0661096321441746,1.88940528133005,0.380582445839489,-0.488379868237151
106.985,-0.853826860912338,0.433720179686062,0.576851783220687,1.34110062385958,3.84256611131392,-2.21849952250636,-1.32015828188187,0.318703239831604,-0.286821458132398,2.70856665893927,1.47189128734402,-0.230688474617697,-1.20633370077791,0.187732471420235,-0.160632441226198,2.6806138683567,-1.10502370934468,-0.226390177625245,-1.17716087508577,-0.0773779554874817,0.0761651638885315,1.9772303158995,0.440995389130096,-0.51418224822261
106.99,-0.927472701727502,0.383453719362176,0.478914640211662,1.54623670502035,3.98233487070125,-2.32354677373231,-1.30603044753418,0.319297175844525,-0.362864440660062,2.65447368176592,1.48101588140035,-0.236735937357402,-1.24258538412058,0.214542432666535,-0.235980783587733,2.78201545359524,-1.06130065619034,-0.186318840668804,-1.21567897020224,-0.0820986928857727,0.0765307162350467,1.94916335203399,0.556492589544696,-0.501115427326912
106.995,-1.07351836458161,0.479988907434062,0.455062447936814,1.85624924869243,4.08134566299179,-2.34693917270499,-1.27898354304974,0.296020811824813,-0.552256289798095,2.51576954179373,1.52508976276942,-0.240060741346037,-1.29383177670808,0.236219848486278,-0.320618441537886,2.90415440776141,-1.01154206098184,-0.134169216591773,-1.27810485768233,-0.124381098477165,0.0780587696086951,1.96866080158621,0.718208284667362,-0.465605954563018
107,-1.26185874687584,0.407013686461066,0.411684570564442,2.1968082720587,4.11757444597519,-2.3216665329078,-1.23108978632525,0.255842415356344,-0.73668799978963,2.24617662144196,1.59534083715674,-0.268360463748222,-1.33553195640116,0.240731327273861,-0.381330116005296,2.9739187839352,-0.97363925095177,-0.0776249272284581,-1.33991973876584,-0.125937623676637,0.0800375032976651,2.0248852450906,0.859932302309931,-0.471711766753202
107.005,-1.30942823323094,0.367810249760923,0.329065512245239,2.72762007052829,4.08662830790118,-2.30406751131183,-1.18007416735347,0.219444651194137,-0.842314507931249,2.05304619517897,1.66101230204346,-0.280947048560677,-1.35981317786208,0.230118362840469,-0.454273442452188,3.0435276512008,-0.940403713759545,-0.0117542000380927,-1.37125568038563,-0.0858779478988742,0.0660321604610861,1.97315144576879,0.999796409444898,-0.46328399280164
107.01,-1.43797281552502,0.453000437583152,0.160262572475415,3.37078339028224,4.06376607833637,-2.22590720586764,-1.11146559942426,0.242724103217405,-1.00564360437241,2.01141637268248,1.7228751606977,-0.245074460430849,-1.34716216587417,0.225018020721436,-0.513773054403838,3.04193420625815,-0.921421733768158,0.035170439327747,-1.32772341464431,-0.0317015163373976,0.0541187971171921,1.99990200252471,1.07337748633713,-0.472662983921792
107.015,-1.63586612836658,0.837855238634805,0.300396767029286,3.83572042364088,3.94301628277998,-2.02063184925749,-1.08439040105403,0.268009904099957,-1.06260724309631,2.04830661880555,1.74552124924494,-0.19421964410763,-1.31693397211555,0.221099982909201,-0.561160293846873,2.98284827040428,-0.945706731135225,0.0800955579434061,-1.24778070707605,0.0231521789739433,0.0510432955774262,1.95893657475099,1.01340001627491,-0.472426519682635
107.02,-1.51643839169332,1.06789147922018,0.635878570455547,3.8070497860676,3.57121891966722,-1.88890346471081,-1.05947294118732,0.354104547773312,-1.00119644903439,2.08214923160737,1.7459417517146,-0.137725941347118,-1.29213046537334,0.196494794824351,-0.607763886719487,2.88025252808858,-1.01071876939227,0.117825936555415,-1.14720827733178,0.0254369900276672,0.057852623830187,1.87985941711662,0.814956147936335,-0.437283408958281
107.025,-1.35749661336396,0.719696143700615,0.699714151252649,3.37658679449638,2.94756528248782,-2.03130890558318,-0.981399158220224,0.548117169295742,-0.841079237384047,2.1157612183418,1.69372864601637,0.00877063741734889,-1.28013788241327,0.155860409164039,-0.634258397831455,2.75735959971659,-1.08571229606345,0.145345527075431,-1.08788450314717,0.00861744739696619,0.0671163699323009,1.74065558100643,0.54877071000973,-0.384295522426774
107.03,-1.2264244489032,0.373610940800702,0.617692295138413,3.09313544045406,2.59351451515673,-2.41394765580216,-0.944601819249676,0.545880409478194,-0.699650702745905,2.26196023149826,1.61285519681715,0.170071455891519,-1.2857714659052,0.0747595483479525,-0.639356493621793,2.54357207579574,-1.16873539514984,0.169826159135258,-1.04693676156552,-0.050969019830653,0.0885506973454256,1.57321403580126,0.281193357427518,-0.326348410154791
107.035,-1.0857015918887,0.290837581995272,0.441269773774943,2.99144199668018,2.3812613679138,-2.91809187275583,-0.924406282322316,0.475646762878698,-0.653827843099222,2.44010209123164,1.54977724099773,0.288886880517598,-1.30496874986254,0.0169118088235319,-0.63134026817889,2.33854788881689,-1.26330241193259,0.168943424237415,-1.05568787166641,-0.108575632712403,0.107806799997224,1.43449202264873,0.00860118052553774,-0.289368591090625
107.04,-1.10528313433372,0.352001146969932,0.36442454829576,3.06491546929043,2.22025228647416,-3.23242910561083,-0.896472043129853,0.355086489781133,-0.671185198141451,2.51032130475201,1.44939677306187,0.426883095928247,-1.3224563323523,-0.0794517127828821,-0.60893217401065,2.07217108062497,-1.34362066134199,0.162986242325935,-1.09062455311258,-0.138973170583071,0.13046808407523,1.32611863416937,-0.233126305469316,-0.2868833044515
107.045,-1.24644590387475,0.466852187616965,0.356860095054585,3.34518088448014,2.06623440197365,-3.34106275881534,-0.861044546928887,0.218596713090108,-0.69264233398856,2.57986295908798,1.34436929140329,0.534753594605798,-1.32046326770889,-0.13870444395985,-0.583524772966134,0.52227431739076,-0.298228963718229,0.0901329711286037,-1.12816323292837,-0.13500634042214,0.150877205177086,1.22783048157505,-0.371195456765551,-0.305276028191331
107.05,-1.38558708594548,0.514419810314113,0.428637696477602,3.77198056203752,1.89257139492033,-3.25325677862209,-0.821464567371742,0.0997617788158147,-0.748325501695038,2.76170267461054,1.23605359623965,0.631367111245091,-1.29324302036518,-0.202747844071002,-0.557276054483679,1.54588270174671,-1.43095129374426,0.109114605622537,-1.15989324587232,-0.10319293553173,0.174160525736147,1.13517018120889,-0.427900390043996,-0.358852846250946
107.055,-1.30209430652662,0.572468272555134,0.491386997592627,4.32220610240736,1.5248192689566,-3.09890569380335,-0.802712414217432,0.0520635837397996,-0.769391570850882,2.96497169162917,1.15704528734063,0.689657981883191,-1.25537161585475,-0.249777943961571,-0.532741079352646,1.2908165874325,-1.44359588623047,0.0665310967831581,-1.17055675715775,-0.0519860927148338,0.194939318058272,1.06619509578576,-0.376978499030162,-0.416942159903153
107.06,-1.23080981445406,0.598121899803399,0.577494969071391,4.47192438957522,1.15737917699606,-3.06760110671968,-0.778543916744264,0.0397501252083069,-0.76408019590311,3.08855304977794,1.10716418220327,0.720923393507285,-1.21803077173274,-0.282861083015601,-0.5186336125876,1.10061366684216,-1.43640893227545,0.0310458710375299,-1.17080453090789,-0.00871041041550523,0.220019971607579,1.02290961625024,-0.262509709794526,-0.491146564547344
107.065,-1.1825018658856,0.557584316447525,0.90553327934203,4.70192104787349,0.581416141161453,-3.16212323677294,-0.761251903857271,0.070503847567768,-0.715194358881993,3.14349162511734,1.08190267848079,0.745235067104614,-1.1889419788056,-0.305453608569249,-0.512311787464235,0.889673282341582,-1.39719796638075,-0.00403519890554544,-1.17182183768222,0.00499477296059351,0.233434744278017,1.01999283015991,-0.171115172077289,-0.549208006344797
107.07,-1.04855824212772,0.428356821259979,1.04056210150563,5.06607657832814,-0.0310415810372196,-3.335167855966,-0.732927102683738,0.122711196311386,-0.604522647183119,3.21818477306153,1.02466533149166,0.810665940869487,-1.15528222985966,-0.326978937531811,-0.506912583575182,0.793575783634557,-1.36120649384316,-0.0146858310884984,-1.15425539809002,0.0135864443927165,0.252831314476136,1.09311279228093,-0.0641487956984122,-0.635222729481219
107.075,-0.874190359820467,0.230585541959207,1.2007042257946,5.45653943717118,-0.675542581256683,-3.59042037179933,-0.704389125365454,0.173588871125061,-0.484276621774061,3.38912945616508,0.935910930249776,0.91102431849531,-1.12704858116249,-0.34753944732649,-0.505527080831003,0.698985314135794,-1.31231895060684,-0.0218638908498153,-1.14022678288961,0.0158712901104843,0.254446997317354,1.16330227472156,-0.0169567146116742,-0.689051473936406
107.08,-0.66766607325217,0.00815542651834886,1.35658785454784,5.81157774939866,-1.27109215975537,-3.83398290816774,-0.660329242139762,0.210412200130212,-0.318934393517405,3.60320599144368,0.775587477222638,1.04419906617406,-1.10683707462804,-0.363701636771598,-0.511645810861852,0.658899902239647,-1.28503303525977,-0.0247832033783197,-1.13306367384991,0.00332062537639595,0.24232614224211,1.21730139872313,-0.00448126144374975,-0.725351326096886
107.085,-0.431557476552994,-0.499440651876072,1.3916358975287,6.03486918210376,-2.04078465974419,-4.16635900720142,-0.59058207587904,0.203343520292801,-0.1922787905196,3.81471924643106,0.595156863096653,1.16167668646916,-1.09159358241934,-0.394736877011493,-0.502855855671775,0.629259500208952,-1.25437481910707,-0.0303041715029207,-1.12100137015831,-0.00584280403646626,0.228864242395852,1.26100136963639,-0.0144102428088006,-0.744710350519501
107.09,-0.321602788112464,-0.786811154154373,1.11901407736117,6.00313867490318,-2.51501139909711,-4.72273730639823,-0.538287183181214,0.138935363429494,-0.228005469541333,4.06859657930436,0.387674509354968,1.29586761050749,-1.07775413488502,-0.406422036639764,-0.492581666019458,0.645157146308926,-1.24565882983468,-0.0354358598074959,-1.10202672347024,-0.0085620708087671,0.218372050502029,1.27892605845408,-0.0387156264080331,-0.751074366714388
107.095,-0.523703923746918,-0.178142289541041,0.864637630825659,6.33628115965859,-3.08239225919617,-4.84921288365544,-0.506308434869008,-0.00822673642429097,-0.223227320080819,4.24256274583867,0.204529357392297,1.40264559446219,-1.06336538634513,-0.42492625137865,-0.487458910751932,0.678631517934442,-1.25347733195389,-0.0370611623267012,-1.08001000186107,-0.0162255726494956,0.21374996026728,1.2835558335284,-0.0701003539344161,-0.755219757556915
107.1,-0.873150346320894,0.850549844453282,0.608148376342063,6.82976005520758,-3.39944025655629,-4.56646436004593,-0.45493800363739,-0.185976450853275,-0.164526687481948,4.48618402315797,5.26293412994733e-05,1.50261346849487,-1.04134784903651,-0.43646586918807,-0.475373665729806,0.712754427903442,-1.25502506052817,-0.0518189040958889,-1.05331428183705,-0.0204270077566694,0.212749426070432,1.27945753598577,-0.0887375362308588,-0.761667208702168
107.105,-0.972609105858554,1.34047742904857,0.439556184321772,6.58204586022822,-3.70876626464758,-4.13309672114661,-0.436227670698218,-0.299543038784471,-0.11493160325909,4.80413041817508,-0.191391037657365,1.57946988165861,-1.01744499623008,-0.446373138003293,-0.472134552207527,0.763941822072218,-1.2488271597209,-0.0720119594461868,-1.01997827917195,-0.0150042798799971,0.214761825787958,1.26468003832429,-0.0777019240172955,-0.783975933251039
107.11,-0.639920327886464,1.22417474351467,0.194724086884137,5.63612458917629,-4.0039732852431,-3.61845804904571,-0.440291894172714,-0.37643021222585,-0.0682246717054185,5.15187411444995,-0.350012265721737,1.59718588352204,-0.984447663061658,-0.466931321438568,-0.477322728593848,0.826652633492205,-1.21687790849314,-0.087794170816081,-0.982498510742087,-0.0191356559954081,0.219862309480313,1.23624641071362,-0.0517957405966934,-0.812197499171819
107.115,-0.28134378761767,0.904201585443582,0.0294023656879424,5.09659174350597,-3.95333500384102,-3.15608231580244,-0.456520895513817,-0.384188973320653,-0.0207699140087251,5.45842501416641,-0.453557871338015,1.5870699727741,-0.951175517237216,-0.475097731772117,-0.475615239939096,0.912645037290787,-1.2067891510996,-0.0944374189799665,-0.953736204986725,-0.028310083135706,0.220263262739946,1.21370182778701,-0.0139773661478263,-0.838824343989123
107.12,-0.0440884183536215,0.66104774310832,-0.0734407461533538,4.96513600621599,-3.72721030093551,-2.59377900310762,-0.446989667655674,-0.355100283582858,-0.0246772991373736,5.69809405206974,-0.512377850434238,1.61493059653389,-0.900389090442057,-0.482837457685476,-0.470893197617126,1.05691480123746,-1.18208284805311,-0.0980848744511604,-0.931426750668051,-0.0445458745323364,0.217737983261112,1.19961220952975,0.0340767252727572,-0.867929919152075
107.125,0.011667990794912,0.61503078946591,-0.121789677832739,5.08793992185301,-3.44422192226983,-2.11971094073029,-0.429366037775967,-0.30905621285564,-0.0648726164827521,5.80280165283596,-0.555620865404114,1.74239303169246,-0.850061344657124,-0.487394453691616,-0.469281276354211,1.2525624331189,-1.16367943657738,-0.0903678160857884,-0.907715386603274,-0.0580981284873969,0.216352633315814,1.19978366555059,0.0970385322118159,-0.898475748962668
107.13,-0.0777841223885027,0.721096135875822,-0.122131297778986,5.18285622993091,-3.114346866763,-1.64223692721318,-0.430182342241609,-0.183582289309957,-0.0623839492443982,5.72770748002983,-0.636160286793518,1.87938734505746,-0.813577578073598,-0.479999756179035,-0.472016197011176,1.4834592302027,-1.12774742961427,-0.0604215072317433,-0.884977862188471,-0.0714429491688203,0.208334367041132,1.19633114337921,0.157524028483286,-0.914599432560506
107.135,-0.160917613806352,0.794378548264085,-0.0413134065931942,4.97740072919787,-2.95055002534605,-1.29212720555133,-0.403414759796685,-0.0900823425960749,-0.078137721004502,5.53978322898218,-0.744195230054755,1.99043332458869,-0.765471692708541,-0.463608296742792,-0.472184667882649,1.7697334497582,-1.06123693414024,-0.00896135989967771,-0.869275797555844,-0.0918992739165622,0.203743393894499,1.21253405370326,0.190313121500834,-0.92175584623717
107.14,-0.20507377772741,0.753619175311664,0.0802802243275831,4.52539013345104,-2.79377778372331,-0.878137387232805,-0.37426428901871,-0.0310850793127866,-0.0932554723495187,5.35329294724243,-0.822437919326414,2.06646097794138,-0.719507548372114,-0.446842196202902,-0.480557420598661,2.00755429481882,-1.0088311001914,0.0461824350553072,-0.852776941254721,-0.113116429574295,0.20230689858865,1.26214070013653,0.2271553059879,-0.931526449738592
107.145,-0.221346223112977,0.647336136288966,0.213532017384374,4.11474439945407,-2.7130831070503,-0.605231626228243,-0.351034581051988,0.0525081872034768,-0.0995208448663861,5.08591722761456,-0.890769301756654,2.16147667097737,-0.684053675500967,-0.419779269572818,-0.482502666693401,2.24332001149763,-0.943639264720272,0.125751140045743,-0.848279992000097,-0.122078588665408,0.20158525054069,1.31568768622043,0.254959124088152,-0.934696776005028
107.15,-0.256259757322667,0.474914978083833,0.362508883020751,3.8476564150129,-2.67436626480389,-0.328846417826288,-0.368145408175985,0.115199069060837,-0.100805795964461,4.7568611758409,-0.925170051588158,2.26851446540365,-0.64413701402455,-0.388588748455236,-0.486619176985598,2.49171697815074,-0.887557546653949,0.193893108304074,-0.830790498391038,-0.129564965450704,0.199541805316981,1.36568943743847,0.295693243607767,-0.938662631148001
107.155,-0.289433418040394,0.377720386047285,0.460695502899011,3.83828961438569,-2.69197390828636,-0.152939710141606,-0.3817117516728,0.147463031697557,-0.0811445515123098,4.29702588045354,-1.00615055928989,2.3842984361437,-0.618712451393774,-0.364444007436207,-0.48719335829915,2.65856161853067,-0.820675420047229,0.256252282086165,-0.818676293396792,-0.130684031066939,0.203347599824649,1.3888489779785,0.302279632055361,-0.938168704230326
107.16,-0.278057766509558,0.31254440887538,0.532249499042415,3.84362092526833,-2.76703391208567,0.0810299826525973,-0.404039508136687,0.150714999303838,-0.0707126093009551,3.78594304974683,-1.08984569516237,2.48981680378415,-0.608715313367824,-0.333144801635592,-0.48990496491079,2.82934998188586,-0.738277623066951,0.317545251788724,-0.805444744706956,-0.133953595357486,0.203030657539307,1.40564114176742,0.316023721508022,-0.928706070773082
107.165,-0.305176513192785,0.271314719240012,0.577783808766284,3.816129047077,-2.82534665907867,0.179966865167779,-0.428452374504997,0.142504650083863,-0.0574460203814123,3.27192074200964,-1.17942277152535,2.56010942965829,-0.607207997338363,-0.305247025393146,-0.491043881194628,2.95916507822687,-0.64640632948935,0.371084928511923,-0.797261464499073,-0.136916027658599,0.206787022718467,1.42021264410396,0.325803886631244,-0.911588625426032
107.17,-0.323869353237781,0.240298878890113,0.653878380699706,3.65729699339364,-2.93929418655974,0.251647796885483,-0.453382784411828,0.107466049746013,-0.0474113603334315,2.91398016524024,-1.25462925573124,2.59949327946352,-0.617084799583688,-0.281402069414064,-0.492905547400714,3.05036545236875,-0.572898540458951,0.41184341770919,-0.800162960026894,-0.127806025666348,0.208396122729186,1.42892378623532,0.348994085886683,-0.889005181065335
107.175,-0.321124661296236,0.149635759115006,0.691547984555623,3.51246511720893,-3.019418243792,0.299322986139469,-0.50950012531199,0.0625606795904553,-0.0382335617801574,2.58309316383394,-1.35479498132585,2.62330445369494,-0.627973758066493,-0.250882540224444,-0.494914244849382,3.14167427888515,-0.486389837053942,0.456388604052437,-0.793619422360718,-0.12485630526692,0.208111465809545,1.44814591961784,0.354281598232476,-0.86818837243245
107.18,-0.332405847616981,0.0272874751601353,0.734614205617616,3.4206379790356,-3.12173084382583,0.313958353056162,-0.570021834340313,0.00914485497592408,-0.0229852989614645,2.2695232177604,-1.45176739585619,2.63853900001118,-0.64839918580856,-0.215484069670985,-0.493841005522429,3.22339489046388,-0.40368506547077,0.499631495047501,-0.785788928186381,-0.110640201183885,0.206535988722685,1.45855897569763,0.363612629695027,-0.845756664904839
107.185,-0.345955147565033,-0.0649175818139666,0.758942291871101,3.4336600518686,-3.19267865784724,0.299514383155024,-0.622360626506061,-0.0854413900577797,-0.0165569679142258,1.92245251612049,-1.58135328202309,2.65842271992765,-0.668725483691481,-0.19065449706035,-0.492818755173308,3.27099746365253,-0.304539156365734,0.54354120718709,-0.782653000326211,-0.0939493557191818,0.206752917583119,1.46693373790537,0.396034241320541,-0.80807024913615
107.19,-0.346445675166975,-0.108825866496547,0.769277487721346,3.46367230104897,-3.27023884165325,0.266529961249941,-0.665342769645346,-0.162676854776393,-0.0307134429527444,1.71214348998197,-1.66205265657838,2.67337714409692,-0.690704530335931,-0.160323212304764,-0.48524852395951,3.3030808891015,-0.223618799000371,0.559108318308265,-0.781968280565299,-0.0789598927246534,0.206244967773425,1.48368488402288,0.417711543103067,-0.783801741147437
107.195,-0.379844604225628,-0.102595957428054,0.776407148273182,3.4537061363281,-3.30642887383008,0.254944039203115,-0.712677584167934,-0.240989942312599,-0.0509345337836886,1.54052164125062,-1.75677121214547,2.67970963098887,-0.709131620299155,-0.133762665502358,-0.483957654069085,3.3292581389671,-0.147373995293058,0.576083146881102,-0.797816850460136,-0.0572946002471854,0.214245527680358,1.51738425955072,0.44680110725695,-0.767966390549538
107.2,-0.447745835642831,-0.111041557594434,0.784421723022472,3.36337625428784,-3.31037246533375,0.254957798341425,-0.754853947914956,-0.337774322798015,-0.068882998762262,1.42613712784229,-1.84509206169445,2.67660700630038,-0.733225044079038,-0.105896253277754,-0.477521082762086,3.34748772072009,-0.0709197889838258,0.58914912474891,-0.812490562354433,-0.0278449287440708,0.220628864581248,1.53271986156982,0.472770256709157,-0.746326700887668
107.205,-0.499223065608748,-0.136794931699359,0.787990735943629,3.24661083122198,-3.32525143298361,0.268457353929702,-0.79105719476706,-0.416884885938726,-0.0837885447220019,1.37512019325814,-1.92178691933195,2.66089824710103,-0.757736693087232,-0.0744791665006552,-0.479036640795442,3.35105000303118,-0.0218435006676551,0.59117946320029,-0.829770784919088,-0.00946283870302728,0.228237203710701,1.51652548983869,0.474642988437098,-0.721430143797529
107.21,-0.50740936541316,-0.204772159023188,0.807039288349645,3.14859928378162,-3.31196105345708,0.284031052309743,-0.839795709942204,-0.490467398715295,-0.115059192417681,1.39087334418059,-2.02597447672247,2.64549143514725,-0.773924311762475,-0.0511979685754266,-0.471323204858576,3.32318566796021,0.0282454702163261,0.588807972610543,-0.851808660265136,0.0087059668073408,0.234736966124608,1.50773280317997,0.460637237285003,-0.679378040145238
107.215,-0.539917276961237,-0.269695268105404,0.829928728763375,3.10770549478383,-3.28973428612331,0.299250812099168,-0.875735858830814,-0.5305466938157,-0.161729105459602,1.45800676240833,-2.10360639411204,2.6405519778891,-0.796163864762055,-0.0184494478920107,-0.464727293818738,3.28715346541649,0.039384027636364,0.578165358427165,-0.881673577168644,0.013567664775263,0.242254408695961,1.48579625578873,0.454477743921858,-0.649269010924646
107.22,-0.613324954172179,-0.298559934678554,0.848882004924943,3.14738769286978,-3.27600373578274,0.309929377339661,-0.90200662843016,-0.564661405216634,-0.201506897730883,1.54283602566747,-2.17988990735534,2.63449050570465,-0.821296759278293,0.0211932616001155,-0.464422702894065,3.2049550981146,0.0608924030360275,0.561382515290066,-0.912875102550438,0.0259354629579588,0.253244463913601,1.45741375147956,0.457334339618683,-0.618842065846847
107.225,-0.703825329114687,-0.310914307456111,0.852554668248485,3.20066144769237,-3.25425397090461,0.309920195038274,-0.925986780402301,-0.605343271194968,-0.250208716414007,1.68261780254665,-2.26403416957196,2.64766893804139,-0.829286066273524,0.0432036316231825,-0.462874045291251,3.11862707037396,0.0842239302462634,0.544582001472737,-0.941556980809645,0.0355422635041787,0.265319639982873,1.39671155706885,0.448396396057236,-0.580894310538811
107.23,-0.781068751900089,-0.315781215415772,0.856781660767336,3.22517045477001,-3.25129945239519,0.316859166312012,-0.946481858317172,-0.633625005084635,-0.290328363209556,1.84889482426442,-2.29397280149777,2.6462598202753,-0.835944199954472,0.0794289446897702,-0.459744708460034,3.01694398000722,0.125867665056416,0.524713403734031,-0.966645271950461,0.0379529133971109,0.262370207013362,1.32613298649054,0.441368261478143,-0.548280479713607
107.235,-0.851613892028242,-0.337479418016132,0.861984158006058,3.24182214997233,-3.24234949392531,0.353710457821517,-0.956465969759418,-0.647259800055175,-0.326409846846301,1.99515530064034,-2.32525442459535,2.62813856703655,-0.840966363573373,0.10266267785212,-0.455451976276391,2.89810479946633,0.151548899303787,0.500667812254337,-0.991267513017952,0.0365840821184252,0.259086276464888,1.23004223688118,0.421415230912057,-0.517644165721255
107.24,-0.896299979489205,-0.378970617162832,0.856635671107048,3.2471186548054,-3.21939810737538,0.389632977720141,-0.957402164002718,-0.685385872742221,-0.35316948708674,2.11160290372114,-2.36327128842182,2.58769465749825,-0.837875304518691,0.126329668192335,-0.44312990527715,2.75786125216699,0.174576534514793,0.473854443159824,-1.00804727246722,0.0335737724611889,0.251924749848054,1.14002786560102,0.410497686889205,-0.490501692738589
107.245,-0.930305811008697,-0.404313658809351,0.859971199151952,3.24877770388829,-3.17337291975864,0.455124471974211,-0.963745296913842,-0.725510955041094,-0.376408514284971,2.21626670472245,-2.38297094501472,2.53499180469461,-0.836884619056959,0.159779737622318,-0.433408203548908,2.63134934658461,0.184581162820832,0.446397943754274,-1.03628186355871,0.0262404670605193,0.227151231310623,1.05023334880183,0.397368896551076,-0.480948984738341
107.25,-0.964177953387896,-0.388742586747772,0.861656141343473,3.24059954072321,-3.12670098754475,0.505005965185006,-0.983497054394757,-0.743335838821897,-0.405458792795604,2.3695063496092,-2.37946367263794,2.43549415285688,-0.825683185952034,0.192425863578259,-0.420660391685435,2.52713530878911,0.179663557170309,0.433352261781693,-1.06303389245276,0.0233077460680598,0.207756993632748,0.964517981575855,0.380406933862678,-0.473199106505308
107.255,-1.00186006246712,-0.376150328052322,0.862883269462369,3.15628232715559,-3.07159412825973,0.556178986163634,-0.99576756607773,-0.740469634310328,-0.417650100922515,2.48041962422751,-2.38132984830861,2.33478445659691,-0.814542886012809,0.233222117166469,-0.406287282578962,2.41519850554893,0.1658407300728,0.430895673859165,-1.07991519600527,0.0118115779248701,0.192527073962643,0.870481702260691,0.343170841887701,-0.473725707496349
107.26,-1.02708681297253,-0.410594850347197,0.863113105704795,3.01086256227028,-3.02873104619423,0.60057295126555,-1.01068732066821,-0.727222035331494,-0.428431194241286,2.5911997695861,-2.37039134326901,2.23998470562611,-0.806746680502535,0.268871754209816,-0.398925821230007,2.31242911250905,0.150484742958633,0.428042180063405,-1.09531618175968,-0.00206388512531252,0.186608524362576,0.770986393076891,0.288869960621832,-0.468143110909816
107.265,-1.0283765313867,-0.457916079516356,0.874606379180675,2.87046835639791,-2.98817805271191,0.604557259026208,-1.02401414600044,-0.68620567062523,-0.430509378683921,2.70389042293652,-2.35260073612763,2.12021169039285,-0.802256305676849,0.321123856669042,-0.381806909137552,2.16466237263535,0.143615648462851,0.435104561490214,-1.10464878325741,-0.0218192425106984,0.18519957953268,0.697555641442938,0.222652239741537,-0.460088121379767
107.27,-1.0253679671269,-0.484068655154117,0.876205251530451,2.77308041939112,-2.95268376891416,0.580040382126351,-1.0362984720171,-0.64230754227335,-0.430474851656704,2.781723922245,-2.34192911917273,2.03444081582835,-0.797002780287795,0.357935499924695,-0.376862200256685,2.01289668237152,0.140269102071158,0.447499113195776,-1.09630158767187,-0.0397575867309262,0.19517026199314,0.634838802951386,0.132252826962458,-0.456556014717841
107.275,-1.0254235948952,-0.480804417266941,0.872705744193534,2.69670985206938,-2.91136197626087,0.491119688681785,-1.04570115077927,-0.574445210332069,-0.433774618228243,2.84055329254796,-2.31372432354878,1.95019838034619,-0.800977526161505,0.403381434199877,-0.373415320670099,1.80735668459277,0.163434046774051,0.45803696972961,-1.09117194655959,-0.0621083165155615,0.199727885630157,0.595191898560811,0.0595415301836081,-0.451955869437374
107.28,-1.03459974135365,-0.4580030754701,0.864229561756627,2.64236265433583,-2.89375557989683,0.395414956659348,-1.05690958427839,-0.511602138433833,-0.434011945257054,2.84800628871009,-2.29144747417745,1.89289795034001,-0.807077992507574,0.447193056441991,-0.359468092643555,1.57667475921676,0.190454812279878,0.469952289090066,-1.08611117380967,-0.0826936743224033,0.2108719836682,0.586731064728229,0.0143600829168581,-0.446555285559142
107.285,-1.04499916361866,-0.42542318658148,0.82951135501052,2.54747890539654,-2.8706526665103,0.257384741678864,-1.07774102293265,-0.455091904036401,-0.419817968610954,2.83125123934928,-2.25697150620952,1.8461132694425,-0.82243674176989,0.481642692101032,-0.345252057620985,1.39077021051909,0.209064394386177,0.474540468080278,-1.08172306681528,-0.100197949969708,0.229951674683701,0.582027777002382,-0.0282082060748034,-0.442674951287575
107.29,-1.0473657957216,-0.405071231116777,0.80249130089639,2.46680537253855,-2.84623862758743,0.138504066621681,-1.09426474438544,-0.402660553228152,-0.409306758183483,2.76663234206986,-2.20566232895621,1.81260966012583,-0.851107616858298,0.524894451077205,-0.313233398948571,1.2049044103569,0.227360009858537,0.467162292837429,-1.07280660200568,-0.111470775599971,0.244198857559295,0.59185136410898,-0.0691425720120295,-0.433210448760058
107.295,-1.05482545144088,-0.357994086916795,0.771725848479668,2.40257441465441,-2.79704335747986,0.019949534846067,-1.10325267462824,-0.335833701658312,-0.402407954606001,2.62197038518341,-2.1369488502334,1.75672163768062,-0.877289157964282,0.540481009736415,-0.286477476599358,1.11311798729754,0.227141057017539,0.452358220580314,-1.06830124029091,-0.118538063679501,0.251995273207305,0.595307112898313,-0.106003043431862,-0.423424797542637
107.3,-1.06101561698913,-0.306127207073442,0.730766356915657,2.35517460507846,-2.76663501412243,-0.0702497802708954,-1.11595194743317,-0.303543726524069,-0.401305503325132,2.404586483189,-2.07369771960045,1.70110526053006,-0.906540902121411,0.546159569880454,-0.248425225372853,1.06840894550568,0.210352954724309,0.42200504073138,-1.05676010673557,-0.128770182118658,0.259866453364799,0.622896091622367,-0.136358970080268,-0.419270493500721
107.305,-1.05371301887361,-0.241067289795063,0.675497788083136,2.29464163473843,-2.68842220089278,-0.141319791375692,-1.13352532001376,-0.27971789635967,-0.398066414277381,2.15229978216357,-2.01987219914498,1.63795499808836,-0.928292698632561,0.541157163974616,-0.232113040799462,1.05449814660656,0.182472417909186,0.382498037777029,-1.04810725105689,-0.140707577619961,0.265959507145638,0.65192816121738,-0.162745064460573,-0.413456414681064
107.31,-1.04844068511846,-0.182860630255361,0.619361060377264,2.23022916378963,-2.56792183986817,-0.201616884207323,-1.12952031990857,-0.283405650526101,-0.388472367750092,1.89839319971223,-1.94860427610732,1.57186357647445,-0.947648892081588,0.503460669669861,-0.190513719330242,1.05835132750953,0.183909201777602,0.332224207060419,-1.04361953050171,-0.139683643060317,0.269973539900441,0.677812389637954,-0.171057987370978,-0.410645190527872
107.315,-1.03679262911317,-0.117347970681448,0.562702142390556,2.12763918200951,-2.46301570576619,-0.20967270727213,-1.12677344973684,-0.296882524951982,-0.391577840368626,1.62092769347475,-1.88571184306198,1.49067822491535,-0.949012813101636,0.468156430707925,-0.161867233836209,1.06148028373718,0.195707054667453,0.24349358537304,-1.02490748960025,-0.144373831275085,0.272087753861147,0.698731818137497,-0.18194482829048,-0.392203405547724
107.32,-1.0139608692228,-0.0453799297079004,0.513560636451653,1.97192006937904,-2.27696563372928,-0.206198789161521,-1.13114249424582,-0.327963588578789,-0.391304788892588,1.34732970935581,-1.81086326397288,1.40760057851506,-0.944736089504392,0.4280844630158,-0.13495658246294,1.05190247370784,0.207190127611654,0.167382349533363,-1.00190277006733,-0.138544153670128,0.273960558925445,0.723482617051367,-0.1682127998858,-0.377755650646266
107.325,-0.993695106880088,-0.00143185563124844,0.484457476550538,1.82128298254709,-2.10501593935228,-0.177346836820461,-1.13820011302124,-0.363862458357098,-0.391546374651587,1.09571529444046,-1.72455801264973,1.33668362389804,-0.949321468309668,0.379278396542444,-0.106775245760344,1.01260110342165,0.226032132619704,0.0679997987239662,-0.990908073351078,-0.140033288342157,0.26977183628807,0.725075705846148,-0.121005075500759,-0.361780921215083
107.33,-1.00680018907134,0.0600147533730583,0.471655433631762,1.64301960315101,-1.86682138618961,-0.119738544856266,-1.14808063805179,-0.375640924117048,-0.408811178747814,0.917758278334348,-1.6582901281346,1.27941248936016,-0.950503542061391,0.337887971929397,-0.0666641738334122,0.93863441265763,0.230995498649528,0.00804431378172611,-0.975832864570412,-0.129633070131466,0.27406043348905,0.728984129967124,-0.0723349888419806,-0.357517291831325
107.335,-1.0288332753345,0.119120418828468,0.46082219881658,1.50051626054981,-1.67330015082727,-0.0540498665108461,-1.15736825372596,-0.380361715739839,-0.426514018608571,0.751576559254124,-1.60288260055957,1.24093040629711,-0.953364462860729,0.284883165321862,-0.0206937751136879,0.789220162887521,0.240599193653212,-0.0930062588722305,-0.94367691333916,-0.127530176900923,0.26533877993475,0.734617665804517,-0.020070557691005,-0.340088429453575
107.34,-1.05113242962402,0.138087898835348,0.450091085293754,1.30937242667421,-1.45854594915766,0.0608694190814498,-1.15854151087851,-0.382469991792357,-0.431221356654215,0.609109347687075,-1.5480353262692,1.21115934877797,-0.960810465419233,0.238086775880863,0.0142023249358261,0.594271019810939,0.239430637867773,-0.185834870435562,-0.927829857612567,-0.118767402493267,0.263329281638133,0.734139708264018,0.055220145546047,-0.320335757978989
107.345,-1.05632519202065,0.115365053689013,0.430483692006011,1.14849948796894,-1.26732527347696,0.197594213496828,-1.14037477322932,-0.388232129556191,-0.435564092356988,0.449454070944666,-1.47726183027266,1.17125978797149,-0.972031089344741,0.195227027218318,0.0436549648616196,0.398704340657409,0.243328232504944,-0.260500707353361,-0.924512374618289,-0.11498227579173,0.263736467189001,0.720928773492328,0.0963566718342127,-0.304251271296565
107.35,-1.05174109684976,0.0855791468627436,0.409173833521861,1.03506714901318,-1.07630922919046,0.324731919631334,-1.11633974897116,-0.400421764271494,-0.443603247960701,0.339271077136404,-1.403712970579,1.13219396217785,-0.982973356546923,0.159659717187714,0.0751369046936675,0.196409844800835,0.247565754141275,-0.322115447794868,-0.915192465424428,-0.100968111971593,0.267613127259372,0.701367763594307,0.0978804369499473,-0.292108996667225
107.355,-1.03236422419448,0.0600536431741582,0.401889853808719,0.93997250344766,-0.860371228648862,0.445486454440892,-1.08578766397553,-0.407750684776247,-0.45097103453504,0.260307254943975,-1.31130518047711,1.08823989233096,-1.00051148528778,0.126572801806318,0.0982542433388474,-0.0342186713807248,0.252597778226566,-0.380069086252182,-0.904612459633415,-0.0870028866686945,0.26517013392364,0.681871238471965,0.0820844172163084,-0.280355441915597
107.36,-1.02126763877869,0.0370274225838267,0.407749336684658,0.849104348168431,-0.638153604695351,0.550879500957731,-1.05975331581073,-0.39759505825679,-0.455991597063916,0.238356868225638,-1.24035292563295,1.04855445564969,-1.012391680387,0.102485818013661,0.114150031950201,-0.198412284633349,0.248392183658404,-0.412075385102364,-0.901052796558213,-0.0676249047335767,0.264334671568816,0.658509197381189,0.0591601051984353,-0.265792937351788
107.365,-1.03675314990244,-0.00114734893786723,0.420375006985112,0.786869463958871,-0.476612333105817,0.626129999093095,-1.04583971153825,-0.383854122087255,-0.460635477132752,0.243490657271103,-1.16494821225988,0.99576330612927,-1.02392141837812,0.0777274971846339,0.129638232727743,-0.385894971203048,0.250777264551779,-0.443808004446433,-0.900610637859951,-0.0495511037761504,0.258494361087075,0.636832035292359,0.0406686130495317,-0.248253533527175
107.37,-1.08676989880755,-0.024161171516714,0.444573078618402,0.757736940743212,-0.291083706419918,0.662053205498089,-1.02824924202349,-0.355419628578457,-0.460882837190624,0.275436227206974,-1.06483883312182,0.937322790737362,-1.03568166026842,0.0630116441154126,0.131182127379167,-0.436150237548041,0.2412889848119,-0.449974595966806,-0.905856493265088,-0.0397439180125118,0.259333665784808,0.608501750075165,0.0324414757918871,-0.236448044364201
107.375,-1.10358520812218,-0.0327752631544749,0.461263107216799,0.724511012618749,-0.220598166810595,0.660576175426631,-1.00419912525585,-0.30293996166177,-0.476005603343481,0.311204753567938,-0.970168524934725,0.896416183450311,-1.05135178685926,0.0346918524322562,0.139099851067001,-0.423721299036737,0.19449396417606,-0.456279651483884,-0.915571203233942,-0.0332170681518025,0.253192845220398,0.582885720775847,0.0252812439228473,-0.211274904590759
107.38,-1.07445590887826,-0.0846205810239031,0.466474519117956,0.66268717644111,-0.152633053687644,0.616318905258631,-0.985015591917283,-0.258583179196889,-0.467531389333209,0.333338698907002,-0.865392334141089,0.847441696228675,-1.06319879856421,0.0128064033253276,0.147799862257505,-0.782388606565628,0.222749154693316,-0.450837590250571,-0.927953583998129,-0.0253939611121785,0.24960093335842,0.561148883985455,0.0199841645452112,-0.196178783667918
107.385,-1.0344965849008,-0.144703192933027,0.465741447673854,0.617037328477957,-0.104116949951979,0.559278657973602,-0.974990127815385,-0.223336188932099,-0.447281603770618,0.334249802680517,-0.767974809321753,0.803484219747045,-1.06849477163481,-0.0192496472388523,0.150725909795979,-0.918141315604135,0.185578555965308,-0.438788691618117,-0.937199535261457,-0.0259541702544968,0.247030887069357,0.536984515484638,0.0220930421015654,-0.178418319452139
107.39,-0.968735714999356,-0.206634821569343,0.450580333093283,0.591923296451569,0.00428828642429732,0.422320779550842,-0.975316647163545,-0.198257816143405,-0.420722339000978,0.299282360561635,-0.688895126221939,0.755625134331847,-1.07413274829729,-0.0460711410381495,0.155449889133296,-1.04737283970435,0.147010361740495,-0.413647898622852,-0.943096446972967,-0.026311073456579,0.242964299871717,0.514362645181374,0.00948272047878523,-0.150024678612684
107.395,-0.922662386859221,-0.232669492149858,0.433624795155681,0.587075082905361,0.0811971161766403,0.268948280308825,-0.971589541285849,-0.187523056182495,-0.399993914141133,0.235922352964428,-0.582900833677761,0.686870598427574,-1.0745168112856,-0.0790544804685701,0.159318134356154,-1.18620635229467,0.0998844672252531,-0.378334863985071,-0.954294814360036,-0.0319548222873885,0.239827012225689,0.494943530038485,-0.00280981949350759,-0.130079355178452
107.4,-0.883487225309672,-0.236296206581963,0.405611396167459,0.562558322522534,0.176253157294145,0.106657165525521,-0.973089139020915,-0.182516580653393,-0.37620127872337,0.168834994040768,-0.501290925306858,0.631975475648399,-1.07614427261767,-0.109395961305799,0.165660407906922,-1.24741158186134,0.0664416530796659,-0.344590627930765,-0.957917745769562,-0.0394449543579411,0.241171096539856,0.47807577144415,-0.0185846366371538,-0.101840434645206
107.405,-0.852812142119212,-0.219205675339081,0.39431167132639,0.510604054605508,0.282145973044379,-0.0861132890309656,-0.976782364981223,-0.180814717958091,-0.35925092800273,0.0989060887779977,-0.414999428828268,0.577237208315323,-1.09622827412298,-0.145817744911072,0.208343562620496,-1.31333125440978,0.00486181381905897,-0.302952413061251,-0.964772132104943,-0.0481864048372992,0.24012975529734,0.454109612910154,-0.0475625122083178,-0.0660576620575579
107.41,-0.841223652918124,-0.143096645149184,0.452776536710131,0.350166360410915,0.419401959766974,-0.321002120105286,-0.984526483234843,-0.183824265002706,-0.346835634880527,0.0243013222119092,-0.337228887662356,0.516646040580411,-1.13780265197353,-0.174086699769471,0.263280247694414,-1.38177783240451,-0.110065415892009,-0.27494297827536,-0.975978622970834,-0.0525528961971257,0.244656088227356,0.429442672651603,-0.0544437886964554,-0.0350525122368438
107.415,-0.86716758586397,-0.0645189019660268,0.652908186069656,0.0229153959977968,0.467870698817513,-0.54258253652234,-0.996133497356531,-0.172220910736884,-0.325278474049394,-0.0230024205915558,-0.256116883810751,0.446803461128223,-1.15648441901292,-0.197757314144826,0.291841543525703,-1.45051578428914,-0.30306847808305,-0.236465807622171,-0.979725893883391,-0.0630478296226685,0.250635816036986,0.400153573829516,-0.0657251032570626,0.00397506605533112
107.42,-0.834728976583184,-0.0909333657885615,0.884652042363545,-0.486918567619416,0.364982204936357,-0.722707444142333,-1.00027749908966,-0.164800840599019,-0.2494135677635,-0.0701550428239747,-0.203134367348943,0.397549274287737,-1.11299555625331,-0.215470771219988,0.283156346459835,-1.48940611704185,-0.548544014898102,-0.174297141109096,-0.983248941089882,-0.0667249517240586,0.252284173412414,0.381906871198195,-0.0752954253659146,0.0407337688976571
107.425,-0.757768265732044,-0.173816932254862,1.07599336421494,-0.912656904182209,0.114017775265918,-0.934698844397503,-1.01362598920359,-0.170709395826256,-0.152134134556267,-0.154596554288407,-0.182958437260432,0.35988290762284,-1.00899630106588,-0.213940120794042,0.226091674165343,-1.44404503801646,-0.686671098932757,-0.106822314959679,-0.984454198603279,-0.068789938319533,0.255032127574396,0.372466707529941,-0.0787668916813539,0.0786348216197551
107.43,-0.570666241455987,-0.0722567119694475,1.19058776371495,-1.07016437499357,-0.106441616715477,-1.13933900027624,-1.03298668610764,-0.174199068046613,-0.0369984865214459,-0.272227979439091,-0.195998726927635,0.32371056111937,-0.879344941106819,-0.216528925786416,0.130156729465887,-1.28257463207318,-0.596207723741514,-0.0267379437709154,-0.993509704176676,-0.0701357583869418,0.261303192831456,0.375295329831323,-0.0798230737914273,0.10731941759133
107.435,-0.430733141909317,0.0518032981718476,1.22811518308662,-1.23314963379968,-0.319374126823965,-1.25293515721429,-1.04808282105899,-0.175919561797111,0.0847720623563358,-0.432875612557066,-0.254522283464736,0.292463337996066,-0.742663192123056,-0.217088343718557,0.0301647262073732,-0.971264957957791,-0.221695436145701,0.0717159165416241,-0.988880097566541,-0.0721242021127669,0.261165455575344,0.383483431092941,-0.0782735146422491,0.136956342029944
107.44,-0.345632296406175,0.162287482487088,1.2542161366562,-1.25450952271651,-0.467554894129539,-1.26512477113212,-1.05000685427231,-0.159883426797253,0.19193078113575,-0.591344454887204,-0.331434127091408,0.267327719802038,-0.658607639224257,-0.210088366724458,-0.0594516899246012,-0.640242262144446,0.242040804255141,0.15754445544129,-0.989023951480577,-0.068581455770298,0.258848555832886,0.388784007220088,-0.0708684368419818,0.175641019567555
107.445,-0.239944971388361,0.33169563866531,1.29108546105422,-1.21758110969253,-0.610618093717604,-1.19307067115027,-1.04000302821207,-0.130834453735163,0.266078564975905,-0.6828134407205,-0.394887578940069,0.259973461593135,-0.603327591910096,-0.194879262053798,-0.146131808477653,-0.162927030280504,0.901700963038189,0.262372275681185,-0.982281391957721,-0.0709245032978531,0.25825443975978,0.387781010586979,-0.0466869284847101,0.213593502283602
107.45,-0.205839456300711,0.508388741138993,1.28670309092077,-1.14954720547387,-0.718029770397771,-1.09873332089026,-1.01461874485796,-0.109294524182621,0.369560685014624,-0.724707197491359,-0.475080739800166,0.267999621609859,-0.603120233000111,-0.187771640499977,-0.200949305374329,0.228104870313266,1.40086863161006,0.344021043727825,-0.947892834245645,-0.0724972776307061,0.244830736446877,0.395553447037979,-0.0188692204065832,0.223632964317661
107.455,-0.144313318620906,0.702081719063411,1.32899246427733,-1.15714620128408,-0.848512867839435,-0.883644688878762,-1.00739484095154,-0.0709765024769836,0.438734528029803,-0.764241594146675,-0.535996070881459,0.286854218586297,-0.638496852543244,-0.189806588093097,-0.243077411525988,0.618864525205527,1.69789623106198,0.403694816969115,-0.985502418894419,-0.058801390535455,0.252279888172727,0.393971348012899,0.0368598444960253,0.241198824917345
107.46,-0.107348895041903,0.673424367583327,1.31848958668662,-1.07366241369093,-0.957480312428942,-0.682558066853849,-0.991873380510776,-0.043564751220486,0.524793738044669,-0.778123467533551,-0.633281946126329,0.302944107473184,-0.696911809997709,-0.19874998279942,-0.293603017769844,1.05214797856113,2.00021150830241,0.430058747923259,-0.994803653607788,-0.0474543633210763,0.251137082028255,0.388027825942696,0.0188689360921451,0.298536604932199
107.465,-0.0468732379491301,0.535501907068985,1.08144030718828,-0.81225340760461,-1.02229501566417,-0.47746399383599,-0.981206079298168,-0.0289422041502344,0.544887118672025,-0.805839855756054,-0.746375068833218,0.304407103284644,-0.766341327580416,-0.206608781883535,-0.329444419098589,1.43485471291005,2.23069281232076,0.424307784793568,-0.993881982551078,-0.0444582042724186,0.240592414449777,0.352728619991372,-0.00327515809248424,0.338041582432278
107.47,-0.117888567939629,0.314160001581624,0.823852398337536,-0.764315197555634,-0.955016750145098,-0.391824131082983,-0.947978188922218,-0.00215032343782861,0.471456758732357,-0.818062929646579,-0.823708123739384,0.307549225659657,-0.849011023204856,-0.212690595321975,-0.34941665980262,1.73963764934491,2.23638772291441,0.39414186778033,-0.985779690375126,-0.0453220751070693,0.236885099939708,0.329004098532792,-0.0378726081425477,0.353620944941122
107.475,-0.315945260125215,0.235116298532627,0.83156311679223,-0.846292751562076,-0.858368456236168,-0.432439823360913,-0.92217855318316,0.0365261407647319,0.290553006670032,-0.78239533523227,-0.865616101713505,0.297840295967874,-0.951964029151541,-0.22794595444649,-0.345923277817892,1.99864357576189,2.16878021741979,0.341026918987677,-0.978819674394684,-0.0420038485903623,0.229430800043086,0.314815959166812,-0.0628382702258119,0.367248258450318
107.48,-0.649858404396879,0.298833581222032,0.848957896854862,-0.967715236406294,-0.859630838744569,-0.488579054429683,-0.912426819758699,0.055422795929413,0.0709658974380619,-0.78732739556005,-0.839376153310311,0.290956191801602,-1.03604866446766,-0.232737565354275,-0.325119194998441,2.16177871593169,2.03995556133534,0.288969239005506,-0.972208548562002,-0.0372693132491875,0.221264287650538,0.292751482591234,-0.0935415842070076,0.394714344550264
107.485,-1.03472847591596,0.276953874860803,0.824673872614533,-1.06861528324034,-0.908675233714799,-0.442556068268261,-0.929136775371114,0.0247728037329724,-0.164610403824871,-0.930104583871818,-0.750239859153977,0.255846142448834,-1.14084830262763,-0.226470637670646,-0.267951584974824,2.26427364500321,1.81052033886338,0.233745512685338,-0.968683831036703,-0.0360401309084173,0.219917608233701,0.278465640113033,-0.122282515143808,0.417343326864734
107.49,-1.18353577046177,0.210430011527166,0.731898283027773,-0.94123335251633,-0.953565625792566,-0.356025447733719,-0.962739425220315,-0.0221780339119397,-0.300526630230662,-1.10070595595652,-0.656944759302736,0.20562162484743,-1.20423373607627,-0.214708561448534,-0.189230082629628,2.27479011420346,1.53373922077649,0.210463741753203,-0.970189868177767,-0.0334459487394314,0.2200980167206,0.280513882830049,-0.177860466248594,0.443070561913021
107.495,-1.1091209073773,0.116778099637823,0.516309147438859,-0.840153424061923,-0.969335916244265,-0.264349435634216,-1.01942420402747,-0.102238421717756,-0.352527917003063,-1.26396237793841,-0.560091581265333,0.137541666902925,-1.25425406563488,-0.179485905727702,-0.086814697658086,2.19322113423606,1.14489447590775,0.213238040321743,-0.973331620606053,-0.0365837439965312,0.222447482072366,0.27286734008152,-0.22527336665625,0.437001128985799
107.5,-1.05475922049001,0.0250240500314787,0.501590464192913,-1.00625860571674,-0.902769673003379,-0.186091112279987,-1.07159917846865,-0.188436707706643,-0.369455348821829,-1.38411155581723,-0.417831273066852,0.0774593380310061,-1.27988277952589,-0.122363492004099,0.0254239804258052,2.02768516772015,0.666391340300728,0.233930045837785,-0.987851194735044,-0.0383929531311652,0.230485392593126,0.253291274510315,-0.274729527173022,0.427398614517477
107.505,-1.01584894419828,-0.168056888211402,0.722042054289324,-1.19926276654668,-0.811166524559222,-0.056975529538934,-1.10314049407559,-0.253952457814942,-0.335577243550218,-1.41306407397785,-0.273370283403781,0.0482452800940829,-1.29259968295433,-0.0497584651077766,0.122997917635998,1.81359793955141,0.229367738009722,0.25683782894833,-1.00258509090618,-0.0271760274364929,0.235686528753007,0.232482318838952,-0.342172962160499,0.421702053732514
107.51,-0.89841240601607,-0.193837734766311,0.836848179209162,-1.11777373144681,-0.800635066926129,0.0425667146135174,-1.13384305274375,-0.283170037373761,-0.22725302392027,-1.42220811381822,-0.16285656039024,0.0393248031703713,-1.28272173176295,0.0399147315213798,0.227138294706816,1.49832072796568,-0.300614214503295,0.281008213209317,-1.00481374342874,-0.0273865470146355,0.234105095479112,0.198541192825562,-0.39197791191591,0.433868384361414
107.515,-0.546182982850025,-0.0702414529175012,0.959432866187487,-0.876898919618544,-0.800167808922934,0.168625085547781,-1.16974576797675,-0.283707117160878,-0.0342835921346757,-1.43182969093323,-0.085162140096332,0.0530331469797328,-1.26734901547048,0.130825784186502,0.283616172713607,1.24211108867807,-0.662235230824205,0.292379174425362,-1.01141582673469,-0.025832908835125,0.232359311938777,0.148067057018707,-0.427906892551767,0.433412247280986
107.52,-0.355981097176863,0.0156257364809848,0.968406452478928,-0.690829054275758,-0.768145993669207,0.261588516680478,-1.18892562834488,-0.275128759234774,0.152519047538791,-1.39449174116712,-0.0906907009890465,0.0727021906392505,-1.2354548760373,0.20627733591865,0.299379837289195,0.981706552633111,-0.909686537185082,0.295300781726837,-1.01029704239094,-0.0358672554731022,0.228341745108147,0.0952450745784326,-0.441822668446257,0.420091149989722
107.525,-0.334730650552039,0.165591393099468,0.931367658740697,-0.376143711881997,-0.65374135560459,0.288642937294767,-1.17302062964124,-0.23766500891859,0.23138814919941,-1.20077623281765,-0.193860254992051,0.085124287924204,-1.16626767331445,0.268824583104157,0.259859037132649,0.697215917557737,-0.953512389358319,0.291981584130538,-1.00383753233519,-0.0416457563671175,0.228449023657797,0.0691429660593385,-0.440818324575215,0.398392164396013
107.53,-0.408786756042589,0.294823192187409,0.892189793480954,-0.17524136234579,-0.558093009155831,0.28673813680919,-1.13122379219584,-0.162012931484367,0.216347585613941,-0.912424870201142,-0.274015912615285,0.102309880379696,-1.1226130481947,0.28693754304395,0.197574537255672,0.50499369623621,-0.74193829459455,0.273398085601831,-1.00359783520748,-0.0474926006787914,0.225734359132109,0.0394791639741159,-0.408152950420192,0.374816396051101
107.535,-0.477325650419455,0.3569052040762,0.851361862792062,-0.0803852331140842,-0.495053058313901,0.259034140557348,-1.09001600698036,-0.0850566684692476,0.171677299424081,-0.570518814195278,-0.313013194517674,0.110794253647327,-1.09791878224727,0.271315719631134,0.124905969325217,0.37232685525632,-0.345090159487428,0.224693420481191,-1.00709955719986,-0.0470202419673931,0.230830719470298,-0.0147265726455874,-0.339208729334629,0.340073322710532
107.54,-0.509825245543022,0.370536386239381,0.829516009961107,-0.00940555921413443,-0.42098297910513,0.199457536660583,-1.06785154511188,0.00255502559051451,0.126939697180537,-0.201472398939391,-0.298975828350263,0.113893522945779,-1.09612845354506,0.244349519642002,0.048525359326013,0.339557536681403,0.115440862910696,0.167109181880464,-1.01021123202573,-0.0481139665618315,0.242151959869758,-0.0403923794817274,-0.277421541421691,0.314214292132489
107.545,-0.514079187830934,0.358703602093978,0.824582540659556,0.0594665836811719,-0.345258656131723,0.137822401179462,-1.09540981324356,0.0840356554404051,0.0947638441149869,0.0517736274174914,-0.254480519550608,0.116764279850513,-1.11927880610322,0.227997886079307,-0.0183035567756506,0.404454411048241,0.477345771250801,0.123702200974651,-1.01562045068537,-0.0485654835590702,0.24413058399734,-0.0797054861166168,-0.212900335684072,0.280795881607254
107.55,-0.52739925259055,0.317513429883559,0.820109243798365,0.140811815007329,-0.252545581231134,0.0836391561515821,-1.12019465911547,0.135519696343372,0.0821701208937379,0.164446959316271,-0.22046419596764,0.102557043959419,-1.15930259269035,0.212665712249618,-0.0732041397254104,0.573012613186445,0.781274964903674,0.0577019481076456,-1.02150728089108,-0.0408004161224928,0.244619366481345,-0.1043163959746,-0.180157675755567,0.244500723415188
107.555,-0.554572036176268,0.292505643968721,0.805708241097463,0.199921717651276,-0.198527104028598,0.0640402967389719,-1.15558814405445,0.169882481909392,0.0572865353009776,0.168894600140872,-0.178426978298314,0.0932931816819103,-1.19695790031223,0.21139191755333,-0.104281046286778,0.712370941822688,0.862726887595588,0.00757209807676718,-1.03743864150956,-0.0414877524863421,0.239384862282459,-0.111467931032215,-0.159671270131997,0.199447257440146
107.56,-0.56767596528081,0.299901169984633,0.787280610040288,0.225725008952777,-0.153598779732826,0.0487595295785776,-1.16102038395762,0.182646382421198,-0.0039399126086875,0.117465022252285,-0.134256110119485,0.0849245189361983,-1.21632360525363,0.220797401785501,-0.119839548692416,0.833904745669137,0.818024690113438,-0.0560805184712848,-1.05758544725921,-0.0289164872177673,0.236524307302074,-0.114150139647009,-0.151878872069615,0.142956919107289
107.565,-0.589802709441046,0.317798792025043,0.769523562397585,0.179303143061014,-0.113207519333377,0.0366631799865731,-1.14245937507464,0.168144046929188,-0.00993371256388754,-0.032904027023062,-0.0818696686822838,0.0794599220162047,-1.21305745527702,0.223694433124077,-0.11146975954968,0.863055088598086,0.709484728052476,-0.114705825919521,-1.07060586549036,-0.0295843955143721,0.244083721871553,-0.102166054650501,-0.142247838497481,0.0842266775934503
107.57,-0.586400370912197,0.306278296163011,0.767219434968783,0.0915040129660243,-0.0918435787762844,0.029474381867071,-1.11297420324904,0.139942754347542,-0.00935191533418558,-0.167113725146419,-0.0568215685146736,0.0840952582250396,-1.16978154001807,0.225363964459344,-0.0838482225353828,0.773485438073349,0.593540268851951,-0.140207063447285,-1.07914755067606,-0.0147179742107308,0.230944091986387,-0.061472621875862,-0.144237002512263,0.0295947633221686
107.575,-0.560889694339893,0.284651941878524,0.773460370014833,-0.0187709053088098,-0.0855519639918759,0.0141625064013971,-1.08122752905597,0.109869484099936,0.000828032928281167,-0.26719681479486,-0.0363709031225304,0.0988082960293176,-1.11443737398126,0.218594288095463,-0.0649032553847034,0.534747273895224,0.502052872546979,-0.144741077898621,-1.07289807409623,-0.0087271121054287,0.223142166703204,0.000477922018492975,-0.108868052493779,-0.0333839998206742
107.58,-0.538967592379261,0.260795822169398,0.772693967763677,-0.131271885994875,-0.0832554287103428,-0.000371006796691823,-1.03276713561476,0.0833423328507098,0.00976287492611527,-0.342765706744703,-0.0418605857395196,0.108674487588907,-1.04779998748967,0.198380971658183,-0.0510955130884039,0.244853089834918,0.485087364004427,-0.117625506885315,-1.06175250731404,0.00162980369757865,0.212030522419096,0.0385160418563847,-0.0944838163341333,-0.0746702493474638
107.585,-0.543510582834444,0.263340246874165,0.767380131407576,-0.205515966823506,-0.0827964395284653,-0.00555716453574679,-0.975448446476856,0.0655001025384716,0.00900226189428295,-0.390828689647684,-0.0688811978270403,0.107409342386627,-0.989205494570746,0.166426700669601,-0.0439357890088934,-0.0636002316025968,0.509669444631473,-0.0658413515013444,-1.04260163538987,-0.0384806150065737,0.205331524225055,0.0602375417425032,-0.0867340555847571,-0.113684015278335
107.59,-0.546958168961808,0.273597465419264,0.76536502234796,-0.294972384807124,-0.0915909160086071,-0.00445169174382117,-0.921075846377792,0.0606500856308227,0.00422825041640914,-0.436336480514841,-0.0889432518628083,0.0948809572483366,-0.932292431836693,0.121350707779992,-0.0587082982555171,-0.401499503147729,0.559682274417733,0.0188969325905089,-1.02521102212577,0.0236954587889126,0.198422068130233,0.0482757720773857,-0.0833431190014381,-0.115882024503934
107.595,-0.551618556309061,0.267433994536857,0.763075081653561,-0.342580292909309,-0.104139723937051,-0.0135028430100124,-0.87778385054894,0.0552137651650691,-0.000389625867536251,-0.444990289320328,-0.0839511636878826,0.0844966200994599,-0.914209568717915,0.092112285350871,-0.0846839756905782,-0.59014835363519,0.601792843689908,0.0654195093745689,-1.01897709466716,0.0274220700371068,0.203591624432803,0.0237486563010714,-0.121522198052811,-0.120916003156505
107.6,-0.551030561636079,0.251552493787978,0.770226548282607,-0.369509953918514,-0.116332523332807,-0.0157925249985678,-0.867891885958265,0.0422876715686826,0.00315372125007264,-0.434948564658322,-0.0601677972942232,0.0822490583781587,-0.909376474939178,0.0525478578036281,-0.132692823075563,-0.698250752573213,0.629361777158774,0.107573025970207,-1.0019781226596,0.0226252935464245,0.209559409619683,0.0251068453169529,-0.208358744055197,-0.162624171901613
107.605,-0.552861692183144,0.244236101211185,0.772355920314049,-0.364636656718409,-0.126180024406833,-0.0199359030692975,-0.883353095463915,0.022031018995738,0.00408029366285392,-0.414889313900713,-0.0315739631750697,0.0826952829957008,-0.912945875572519,0.016268175030272,-0.178355396324228,-0.716432068277574,0.644692645022917,0.110527863828853,-0.972273314420364,0.0246598932715482,0.212654297228273,0.0543215969223188,-0.288035974210725,-0.183053646753652
107.61,-0.552095546812116,0.244200882281604,0.771429894894184,-0.325631884368434,-0.116071969858762,-0.0193259357131357,-0.914609920064303,0.0113342754880622,0.0113845904324486,-0.359166882093654,-0.00264969029092628,0.0968459392058941,-0.937014135692776,-0.0158416022769992,-0.205430931135944,-0.661673635369701,0.619438182034353,0.0889086964042231,-0.94285263825657,0.0223331402142465,0.223944420659676,0.0570349631456133,-0.343420399945942,-0.180478487086741
107.615,-0.552467605136795,0.22754043344852,0.784898189428686,-0.271165863789206,-0.127708976410898,-0.0122978686984512,-0.95546507278495,0.00393534144541673,0.00636608627883119,-0.293170927540766,0.0217832899085087,0.117661726559859,-0.96217417658472,-0.0453218897372628,-0.221141012671887,-0.600875490893113,0.543192472396512,0.04568252870109,-0.939443546348729,0.0178129631680051,0.230014398542511,0.0426421186521338,-0.324959547947378,-0.204024375018022
107.62,-0.543017385480064,0.210862060104573,0.79273875557564,-0.195563706867436,-0.126922032128394,-0.00615737565526173,-0.990800060480988,0.00531693138417269,-0.00665020199125814,-0.220291756106829,0.0300485479254908,0.138880154617356,-0.978337909099661,-0.0690225009210085,-0.223739942453228,-0.520385897234044,0.451970988217275,0.0198699508576281,-0.934739753202367,0.0210419927574675,0.237094910396055,0.0689746994322349,-0.30753309420353,-0.190529252558255
