Header,foot_Accel_X,foot_Accel_Y,foot_Accel_Z,foot_Gyro_X,foot_Gyro_Y,foot_Gyro_Z,shank_Accel_X,shank_Accel_Y,shank_Accel_Z,shank_Gyro_X,shank_Gyro_Y,shank_Gyro_Z,thigh_Accel_X,thigh_Accel_Y,thigh_Accel_Z,thigh_Gyro_X,thigh_Gyro_Y,thigh_Gyro_Z,trunk_Accel_X,trunk_Accel_Y,trunk_Accel_Z,trunk_Gyro_X,trunk_Gyro_Y,trunk_Gyro_Z
54.425,-0.476752410721528,0.337712438332059,0.791901765127795,-0.0123737305974804,-0.00323089871965806,-0.0366041575056003,-1.03042118926246,0.110080864341168,-0.248745342287492,0.0549375948289993,0.639479916948376,-0.0506394238905362,-0.891119338055741,-0.168074707070573,-0.405112566072308,-0.469381975192024,0.825913735099826,-0.525255769557088,-1.13706414975095,-0.12003392707051,0.13406695235711,-0.416944223626024,-0.0448151942548502,0.0430888840468354
54.43,-0.473492859529579,0.346523922250637,0.795022257649883,-0.0177034628158808,0.0116253027922899,-0.0402811517656833,-1.02967805444701,0.114330935434373,-0.243214900055417,0.0749771696512314,0.614393539538112,-0.0480260327458382,-0.89143756602073,-0.170072572324958,-0.405939886000148,-0.411367928705149,0.904309626933938,-0.534165621285792,-1.11889407224247,-0.120077485150366,0.124372438720516,-0.375471681490758,-0.106317388368096,0.0510649013968119
54.435,-0.47563492934415,0.350729268910336,0.793686806855987,-0.0257285456473282,0.0179625970341624,-0.0444082808688202,-1.0237702164285,0.117655930016768,-0.232748823162013,0.0730263029813071,0.585315088712449,-0.0485694396258873,-0.903377917609628,-0.170179598106316,-0.419034057806937,-0.353421810879268,1.00309861014344,-0.512629411173287,-1.07918870688861,-0.102894741034064,0.131943419076389,-0.355242528721524,-0.190929244411831,0.0581888048445671
54.44,-0.474838927368122,0.347047031506204,0.793112112270016,-0.0352992895780319,0.0261013710173705,-0.052800617582419,-1.02321409438764,0.112954827090056,-0.236885724089946,0.0656470798384245,0.56047369074963,-0.0529128089547157,-0.927094853771147,-0.170908474313028,-0.415793212868903,-0.312136695757962,1.07992065419721,-0.467373913534015,-1.05277563752741,-0.0849688311634305,0.140575313023292,-0.350730107043074,-0.244179183990802,0.0568111506653197
54.445,-0.476257074391117,0.341247850992292,0.792878116838226,-0.0470005367250878,0.0310789342789865,-0.0531343392907922,-1.01822880741254,0.106063008709398,-0.239454089418126,0.0621594466051776,0.528897722979628,-0.0536536017155436,-0.94848945928359,-0.172207692813621,-0.418828997583166,-0.285463013873004,1.11065385007941,-0.417446866374099,-1.00973178212599,-0.0629487595405784,0.144892249492997,-0.366554532299441,-0.262018231826201,0.0520384012335672
54.45,-0.476105649024441,0.339376641350787,0.793012463665532,-0.0553913411056065,0.0463869768229608,-0.0570855285397776,-1.01622578207762,0.109072711236096,-0.247564233318104,0.068411223590374,0.493585629200956,-0.0461652612278798,-0.962712724074832,-0.170560038175508,-0.427797352086811,-0.275664352099173,1.14069561168768,-0.359730292349313,-0.979790939500535,-0.0415894090718389,0.159544456735915,-0.405699083292312,-0.251474333812167,0.0447217796555214
54.455,-0.479395127222733,0.336234925304085,0.800936241818047,-0.0608635170865961,0.0681277968546586,-0.0650207780858712,-1.02543856384696,0.106268808343114,-0.256619008899947,0.0654383330125443,0.473189375737177,-0.0387750771196063,-0.972449631795544,-0.177335507395623,-0.423138747303274,-0.298864385630755,1.15232833474186,-0.31898333706777,-0.939562658927396,-0.014321688780846,0.1795475369797,-0.477021563455081,-0.215541240824396,0.0103130233536883
54.46,-0.476696021427654,0.327220261677325,0.805211067861435,-0.0552725775710214,0.0753809990325418,-0.0680428529467062,-1.03368242918692,0.108555721106092,-0.254306944080983,0.0386462960317049,0.454867407195663,-0.0332546319345951,-0.972732095393828,-0.188186742375117,-0.428855944345356,-0.339432428554481,1.17364677468739,-0.265517796589683,-0.89977764449095,-0.0282177713269237,0.190984706727893,-0.49513997412043,-0.16836760137668,-0.0104917971177784
54.465,-0.479141623559127,0.327227303039692,0.804307592270498,-0.0530683600442459,0.0890723301277986,-0.066292089814417,-1.04052330464936,0.0865572671721751,-0.250874860261902,0.0164483758304458,0.444436266896403,-0.0178636813777586,-0.971977013857434,-0.197717107712474,-0.426867078514149,-0.392602150629451,1.18263885849773,-0.212122524017624,-0.88790016431677,-0.0274814315740326,0.205580398229512,-0.510422548480166,-0.113421198200734,0.016723075026888
54.47,-0.483125132433124,0.319679774977618,0.805236384409987,-0.0405261960711297,0.103476235398179,-0.0669951861969108,-1.04373318716143,0.0565888500789113,-0.246679867902015,0.033773474411967,0.409216380406004,-0.0171616966249909,-0.976088707006702,-0.220047562091583,-0.416907343572562,-0.437522206725413,1.1896769828834,-0.141740693260374,-0.86001807939245,-0.0217034735153945,0.221264482109103,-0.518927991390228,-0.0721049614050363,0.0675340475732787
54.475,-0.483365431754783,0.319195288380055,0.802615847858875,-0.0315871156873464,0.121407102624792,-0.0622190467338301,-1.03860093849282,0.0436440731302583,-0.242891517079482,0.0784158601444597,0.380423735633159,-0.0163921139940286,-0.962532684591542,-0.226021231411232,-0.409848755054323,-0.45301404554787,1.19390693256631,-0.0900293098633436,-0.852971341157422,-0.00982025922033774,0.235700231329208,-0.530816838524734,-0.044249403720233,0.109911837507434
54.48,-0.488111704830312,0.322494013853269,0.799364366216484,-0.0217602315227154,0.136715703910152,-0.059460958364962,-1.03354734820289,0.0397911350912292,-0.244079217942985,0.129962609763847,0.366847088723001,-0.0109485244355307,-0.961403207419048,-0.226479135106205,-0.404168208133445,-0.453541237784453,1.20071865537732,-0.0156825094204537,-0.855060993650976,-0.0029545946325967,0.236602910668603,-0.540486286397812,-0.0155956389366405,0.142487037113136
54.485,-0.48333508692083,0.322465707064269,0.799680946720935,-0.00884957486556957,0.146675460921785,-0.0501650591578174,-1.02837316205808,0.0478195284562478,-0.239649141902372,0.174008906632784,0.358409704656378,-0.0109100465391283,-0.953928710404905,-0.23446083713979,-0.384588897965833,-0.437944378413948,1.20459528026391,0.0309032875608476,-0.852513921078641,0.010098271260573,0.240262651757328,-0.561688590405801,0.0144110698149536,0.151399389250023
54.49,-0.485248796897295,0.323674650018014,0.800543068731612,0.00140790837520634,0.162784292821356,-0.0461487801595448,-1.0198968142076,0.0580103466912638,-0.232873750463179,0.210699444837501,0.346826211951542,-0.0102520179758,-0.944715580528018,-0.249437303810532,-0.356765984590959,-0.412835477502425,1.20618624884838,0.0688243946948834,-0.846093527492391,0.0173623808782067,0.240602532525981,-0.585373761455004,0.0459825276651244,0.116236637606541
54.495,-0.488501274809573,0.324645446182182,0.790366844420139,0.0112382993782167,0.194514599741119,-0.0495620979277033,-1.0162598696302,0.0754233722045146,-0.221925127919659,0.237751343114784,0.338942282986149,-0.00295917215276822,-0.939324277616448,-0.261620790771129,-0.330498881863037,-0.382857933839217,1.19900312667198,0.0898592395495404,-0.854972344374885,0.0124719245520368,0.23290497585169,-0.597114556035481,0.0639457056432126,0.101190462924458
54.5,-0.484113688822791,0.317282132179915,0.798691016193276,0.0249093129984399,0.17448437619789,-0.0403875473846139,-1.0072612851148,0.0831375868468701,-0.210783201984206,0.264395464322618,0.318477358512663,-0.00592661035521008,-0.923273017066153,-0.266539701436743,-0.29556937937434,-0.313519840372947,1.17823472819581,0.13091052492581,-0.852850401689772,0.0125938729700638,0.223487256983506,-0.602164806933816,0.0949425692035725,0.0820260961297132
54.505,-0.486483310350582,0.323422896180835,0.796894403429101,0.0354348314951938,0.178019926670071,-0.0380963324843478,-0.998048867144577,0.0913067544294331,-0.209419984087504,0.273219705617541,0.321648997426465,0.00266085265681125,-0.909830734743967,-0.268836655369686,-0.263789013671944,-0.242081757299485,1.17075932752224,0.149699004490749,-0.848902519060456,0.0155408503053903,0.221723349809863,-0.608868918754478,0.101723646694861,0.0740181448293994
54.51,-0.487509914818767,0.324480956634389,0.794945349712698,0.0425262661578772,0.190189700220382,-0.0369586189616989,-0.986286634892629,0.101607723497893,-0.203350852578587,0.285753508540206,0.324026760179196,0.000156470315733323,-0.902081423392767,-0.258227028666481,-0.222547895486488,-0.137993563860371,1.1665898813871,0.171121714766953,-0.861075582754492,0.0145522921850601,0.216884001324991,-0.596220656282351,0.106742852876022,0.0706457644701004
54.515,-0.486274139565483,0.325575772568279,0.793700654228683,0.0526306203262416,0.193306520581245,-0.0397059116271836,-0.977220252177903,0.111942166801739,-0.200858468566227,0.303524891862548,0.326541397108392,-0.00155354573178334,-0.898469895585189,-0.227300467076302,-0.204289199309719,-0.343191553177032,1.15249768058407,0.173178586317673,-0.864544005606278,0.0123857606320281,0.217244579257857,-0.581983154442112,0.115259855985641,0.0583189855966497
54.52,-0.489421146972451,0.334134415337113,0.787058769047836,0.0526766555935793,0.19304353396054,-0.0384697047373756,-0.960222184723946,0.129030667950686,-0.189779184527303,0.321438021154028,0.346521174899134,0.00212557194634297,-0.876596709260455,-0.191373943279301,-0.137614214750504,0.0626819734677818,1.11924732127084,0.175982160316467,-0.87062418418555,0.00662908808564474,0.219873176075329,-0.564328782452412,0.116943831386264,0.0389146458158215
54.525,-0.490139547218555,0.339283694295506,0.784525658884544,0.0573173776454519,0.191492994944302,-0.0468029950672302,-0.948865285222519,0.131821758544592,-0.174623002655138,0.34635411621962,0.347225845804939,-0.00458964938974861,-0.872345819229625,-0.156250062008505,-0.120336737995189,0.149226298275942,1.10417821479571,0.170832902476464,-0.86982268319218,0.00171426389826105,0.22811647906997,-0.549837483182654,0.111632739940343,0.0139224068400329
54.53,-0.492636480418658,0.349598582523969,0.781119319383034,0.0557333332060751,0.187532879015661,-0.0554782681765712,-0.931598263870216,0.137084827093862,-0.164526909058747,0.378520248231729,0.348580002784729,-0.0180792056385943,-0.864129770408546,-0.121825790774417,-0.099776344746372,0.209887228847951,1.07384379268154,0.156368016341522,-0.863168364660501,-0.00530030051146405,0.243772546826632,-0.537389271578105,0.0995331300440596,-0.0120994430316606
54.535,-0.49416033203863,0.353066156089993,0.777882050643073,0.0512021202064907,0.188666557730227,-0.0660734194016108,-0.927335280074887,0.144189193439417,-0.164985757674314,0.420113328782506,0.372875013519447,-0.026306238290946,-0.864649880337223,-0.0579521288622132,-0.0834566659169592,0.268676379132447,1.04452001152162,0.136880420032155,-0.868203694881861,-0.010397908293238,0.249942786355478,-0.533590383858086,0.0889965147424805,-0.0243373717328985
54.54,-0.493009302399247,0.353556729855251,0.777618903211268,0.0427315985613061,0.169900158288106,-0.0773469370642675,-0.918696199305678,0.152694364508114,-0.164444337467864,0.446263885243855,0.384147309810306,-0.0318531237367961,-0.868195128858336,-0.00466648667182871,-0.0619422952909184,0.289219000808693,1.0103558442121,0.129779948567962,-0.878883753094423,-0.0149088974281806,0.256075780528672,-0.521436373104913,0.0841020014205662,-0.0356045283926233
54.545,-0.490382575440295,0.350403226634623,0.777399293371198,0.0360522828996181,0.168918789832861,-0.0945811305682544,-0.915987598657013,0.163313986044415,-0.164096382418722,0.469629935432857,0.403005099763365,-0.0457341873562099,-0.872505859724428,0.0362580341199647,-0.0448736187872776,0.291571470285101,0.944536716381889,0.126465695286436,-0.885094596887821,-0.020231992160283,0.259777672093694,-0.512819528579712,0.0710828029453988,-0.0487092495776019
54.55,-0.499103138816443,0.3603390558063,0.773502251730838,0.0302996119081164,0.171458347349135,-0.110148919930604,-0.923542936199152,0.180215979453334,-0.176219099612776,0.48093157064796,0.428151362110496,-0.0608755121306457,-0.879707602164467,0.0730454023506429,-0.0399335986082342,0.296516552158571,0.887492749307078,0.117189478732648,-0.892604506688226,-0.0397318394369882,0.263899383754517,-0.499627613590975,0.0639935481960585,-0.049125165831547
54.555,-0.500405179914939,0.352745076381505,0.776569640599816,0.0150302984646849,0.171436608994652,-0.126715579269646,-0.931752525255346,0.185550062580435,-0.174154306778859,0.475567556248448,0.452359932449718,-0.0713241064262861,-0.90745095826226,0.0993431188101712,-0.0591099700775844,0.272844140242389,0.821299266876503,0.103623893026106,-0.905854344451293,-0.0320361299407391,0.269065315498986,-0.483533479095881,0.0517548448863515,-0.0612625825973845
54.56,-0.500447480552703,0.355199018040651,0.773178751777641,0.00799223887241867,0.160084491781447,-0.134868824201902,-0.934584027471225,0.192588289642267,-0.172597443101721,0.454186656297377,0.478713216036736,-0.0898436966812447,-0.932801500304285,0.106814644770292,-0.0901452007141266,0.263457908872832,0.772008925903213,0.0819526680537542,-0.921083570877257,-0.0300584396243403,0.263291923251409,-0.468259935838254,0.0437953378450229,-0.0868420986176544
54.565,-0.502835819689437,0.355085233542756,0.779291412334748,-0.00281166325398723,0.155894552135281,-0.144899242983009,-0.93868295588233,0.196270368853196,-0.177732856685693,0.42286004519017,0.510176816636361,-0.10622309270659,-0.971078521361966,0.112177062909113,-0.139669304912966,0.234329396796574,0.724046446487315,0.0541942286982064,-0.920903395994417,-0.036730516701754,0.258428171541673,-0.435538223365031,0.0440964409066182,-0.118111323603883
54.57,-0.49426067078497,0.353810708882946,0.779639977372856,-0.0192766054717359,0.159919670742275,-0.160143481240399,-0.952686038008054,0.19697853243228,-0.179609638546301,0.369762374419781,0.546395559603857,-0.112665786469553,-1.01196530512367,0.114804836627328,-0.181316522903205,0.212793589612706,0.685347936693967,0.0247162541376797,-0.918216404899291,-0.0409922945043001,0.256984870597235,-0.365722797908942,0.0444015711545944,-0.122396537003735
54.575,-0.497858107754566,0.353394283888377,0.778915159505317,-0.0312923594263502,0.175424352180461,-0.17587437930808,-0.962720602493496,0.201562996797193,-0.176750610808531,0.346331594961158,0.557128407073413,-0.140493811137604,-1.05197758948538,0.100243886562224,-0.224042143905237,0.177311391074257,0.65153257801016,-0.0139523485755314,-0.926864164145963,-0.0350819861808358,0.253271720755198,-0.352143055959131,0.031850530291457,-0.112588183058274
54.58,-0.496319907147759,0.350568725987942,0.781971907427478,-0.0491314938782239,0.174181121252716,-0.190412469696415,-0.975873905880485,0.189600503804875,-0.172063917725626,0.300076537919692,0.587267063509451,-0.156985181772385,-1.07990737353182,0.0838159612740712,-0.2330205283948,0.156353001089214,0.619749626078251,-0.040077438887174,-0.931654832508257,-0.0338895618082917,0.25068762852078,-0.315333135064117,0.0145021667432541,-0.0890101500470815
54.585,-0.498884895497181,0.347630606681743,0.784112810824781,-0.0609456699473442,0.179614362892068,-0.20375342726361,-0.989675177091938,0.162181085661783,-0.164157267810941,0.275204112109778,0.616510200176647,-0.173355031733822,-1.11252117065696,0.0574486665727487,-0.232398058533761,0.127647685380586,0.578477085123429,-0.050820662793558,-0.92997327944211,-0.0341719318741055,0.246796690391296,-0.277667083693722,0.010808367272405,-0.0695555698639049
54.59,-0.492460399664846,0.350490736793633,0.782838493426478,-0.0697665820369141,0.198410959302695,-0.215252668252804,-0.996936506779376,0.147884566656092,-0.161032348944375,0.260657756670441,0.644460650882862,-0.179858923170933,-1.03569877892546,0.0615336900096239,-0.220312323860156,0.0446737900093011,0.600679781355047,-0.118268927282744,-0.9462830765062,-0.0128906884154769,0.257487503555347,-0.255288659272459,-0.0102950875400301,-0.0457112543441163
54.595,-0.492240742415719,0.337541758977973,0.784716952201778,-0.0790390060342424,0.219217604003259,-0.220986905300481,-1.0000825942851,0.127466192310224,-0.157049369016022,0.255219266564081,0.671441011736766,-0.191875278893926,-1.1568346989868,0.0151506434560835,-0.172512908853366,0.0490218566686356,0.586021881136406,-0.110081836326118,-0.938863983888067,0.00813465996350654,0.244890768174847,-0.247439355617734,-0.0411358941549082,-0.0557839140779894
54.6,-0.497686925023929,0.345287900406542,0.783939264340331,-0.0975960775080815,0.244890478513547,-0.227544867945294,-1.01305782685492,0.109667598082647,-0.153614470413594,0.248146341670962,0.702423501082153,-0.20123918225747,-1.14219963251412,0.000705106830849974,-0.173090722078277,-0.032142361771039,0.452052242756484,-0.149896474401547,-0.952866312582581,-0.0135194919340397,0.256244326606529,-0.222047852739553,-0.0270633745961339,-0.0790310517410001
54.605,-0.487297773292335,0.349887801467843,0.790731599177934,-0.117315267577734,0.262918401138027,-0.229834970144731,-1.02165462499338,0.107074810199915,-0.141922189667504,0.264988040779255,0.744160857691943,-0.203181251883507,-1.0365041412172,-0.0503963860965507,-0.156584161329891,-0.121638648547233,0.557262862022766,-0.157318548559219,-0.956615120317161,-0.0137244544147806,0.255541192759457,-0.195712779567313,-0.0258528652256835,-0.104098558320317
54.61,-0.50043048614402,0.323521055974241,0.793138601667706,-0.126190542612744,0.302540357385261,-0.237360491224672,-1.01269132940643,0.093890420088734,-0.136422673722305,0.280626154917604,0.77753668248352,-0.204351522312746,-1.06262898730503,-0.102369534271353,-0.105380383147995,-0.211190816450362,0.655619807960767,-0.148400717835082,-0.950617195890821,-0.0161247458488633,0.260680860950986,-0.158882735775801,-0.019211657037376,-0.108929142508171
54.615,-0.499782833100385,0.322796687338268,0.793990213738879,-0.127707944437271,0.322200708530274,-0.236974367083089,-1.01427699595254,0.0883319329655936,-0.144221818158833,0.261330103478115,0.804078460632235,-0.222099345496201,-1.07836782674045,-0.139583751668142,-0.0917891693114527,-0.234778124830767,0.609782768572704,-0.142935386210069,-0.932507899208344,0.0124585412153345,0.276957964063671,-0.127949916137691,-0.00440352746012561,-0.104110275845829
54.62,-0.496123361196306,0.321226750380325,0.792818219922577,-0.131984839666548,0.347162765350336,-0.219953158632642,-1.00667694181853,0.0764999184255083,-0.139217492411372,0.259960384915962,0.85040814293169,-0.241364923509894,-1.07345077598007,-0.161884384482101,-0.0804849239104805,-0.245886910982893,0.612992045525495,-0.14691414595763,-0.933186197593199,0.00636111605515241,0.275304110020776,-0.156584367263448,-0.0416360384932372,-0.0578255355848995
54.625,-0.49442344855334,0.306294652793376,0.800977299399057,-0.134757889232219,0.380312185200045,-0.206897842341526,-1.00263819196391,0.0712806542673787,-0.13147059942012,0.263882368803024,0.891435278908901,-0.25650838870214,-1.05683383975261,-0.166930111229359,-0.0613978522846487,-0.222744418608855,0.624643403916474,-0.158130274386291,-0.933220965707018,0.0104601712934715,0.268339007118046,-0.178090046162443,-0.0689421234586217,-0.000145751477651371
54.63,-0.503959984173789,0.296937984630171,0.798857263031716,-0.136206641793251,0.409615638998675,-0.194349852883569,-1.00676824072206,0.0760102683480026,-0.138716324686632,0.22873876483581,0.955894387781792,-0.284029935424331,-1.0724358671037,-0.1707828859846,-0.0482277944762257,-0.190077565039693,0.604432727539258,-0.172386240721078,-0.932735302168934,0.0108422750045289,0.273844512037892,-0.16962842601883,-0.0620026144294807,0.0180428447152658
54.635,-0.505271719551078,0.306156558757175,0.797805363615179,-0.132080811306262,0.441843437081231,-0.170973500685247,-1.0300157979016,0.0760522744449755,-0.142169051592385,0.157066158722607,0.986446930559457,-0.322009155605403,-1.04136269234108,-0.161685649276683,-0.037346704588745,-0.147189442245038,0.559341307671583,-0.18679281780743,-0.935844964288255,0.0277869175025205,0.266611682364962,-0.18080521360349,-0.050300652321956,0.0227297821894337
54.64,-0.503333678946515,0.303960798651176,0.799241397283679,-0.133311993121198,0.485236551755183,-0.149645099165505,-1.04373809219587,0.0685934524828187,-0.141107609027592,0.109005805043155,1.04288820068405,-0.347835930290703,-1.02996003274509,-0.157848547794504,-0.0296362222077534,-0.123878673898668,0.566001557580273,-0.199440475936552,-0.939507454611394,0.0237076324305023,0.265905196424923,-0.194582973911879,-0.0264170199118134,-0.00390737004963788
54.645,-0.510650963703616,0.302174101991817,0.80056568048634,-0.134700555618108,0.523148030761579,-0.137390249248937,-1.01227887752038,0.0651294541367219,-0.14442670961926,0.0578217939205498,1.0892452704464,-0.369307855974898,-1.01511453272689,-0.155157777683571,-0.0191605440163048,-0.0734312310146756,0.543305878069152,-0.219782133968756,-0.947622005841427,0.0158774386342962,0.269314457100313,-0.208222498580479,-0.00454590455899114,-0.0184980864694033
54.65,-0.510549367037271,0.299402923748898,0.803535403160757,-0.135112636638329,0.574510102445872,-0.121967422963557,-1.01274727735339,0.0660723534208719,-0.147744728269164,0.00490617004769008,1.12414849554443,-0.395471360952725,-0.922245347690599,-0.137175057163529,0.00109110546701269,-0.0409104847594385,0.606579417278353,-0.22636279463768,-0.965332463269479,0.0178601824066884,0.280305867876823,-0.205333633553884,-0.0409686859660697,-0.00830496446475991
54.655,-0.495241940201083,0.323965770982509,0.832537839945869,-0.0932390508774097,0.63536962755391,-0.091095661600599,-1.01495956407226,0.0492215682746938,-0.148569062119418,-0.0164149336793022,1.16907941062618,-0.392550495680468,-0.866408136202315,-0.117618620807584,0.0144017176586449,-0.115477931635156,0.985437727091039,-0.386916971632226,-0.97179745131086,-0.00655969646814141,0.277459516512463,-0.249580621348805,-0.0503028473067378,-0.0310553580350515
54.66,-0.506596297036894,0.278228412857994,0.819399897806166,-0.0076217965129129,0.697876656704656,-0.0525168080375569,-0.996899148290149,0.00978180141575329,-0.167069892087879,0.0253126167799252,1.22047177980325,-0.363740400432462,-0.975641952611208,-0.203990252718801,0.00218606201884908,0.0444552051501915,0.899300258787482,-0.239368118756793,-0.999527704093754,0.0100486697216889,0.269230775330876,-0.261153335436775,-0.034407463505942,-0.025868931716848
54.665,-0.515777036243183,0.307686047727676,0.802810709838606,-0.106371459088101,0.718986271081048,-0.0743141016650585,-1.01902188825644,0.0181005337298452,-0.175735453105946,-0.010262856960329,1.31181924153821,-0.501965752462782,-1.08799579876979,-0.143518399825507,0.034687089355339,0.0191814136601581,0.672966606707122,-0.196266015817203,-0.992942980227139,-0.0232953929229537,0.282719309781382,-0.277436276557703,0.038468000740561,-0.115416181800996
54.67,-0.517978066985267,0.284751553379511,0.812507138184425,-0.097078026198351,0.796812770224412,-0.0547054242412076,-1.05683388045775,0.071769678254354,-0.191710744374442,-0.0899621607510658,1.32669473899258,-0.534323714222851,-1.22048099893238,-0.131079365297709,0.0227727837826241,0.0134807823209129,0.4779840994792,-0.211380127130137,-0.964367450519912,-0.0380621263184843,0.303711581441206,-0.296348236031836,0.00750578332845992,-0.137222239870922
54.675,-0.522977384729919,0.292576500018359,0.807887886784534,-0.10297196550886,0.872834575632752,-0.0399922472878037,-1.06152999710785,0.0602644854681454,-0.151884158827364,-0.0951443503945547,1.38044755284515,-0.483600454714052,-1.1759979716039,-0.173481539150461,0.0491322440550108,0.154586748860832,0.270351750472991,-0.306590167224118,-0.941056052523864,-0.0276394384038742,0.307923173396271,-0.305446541573185,-0.0182144250895627,-0.100463474200069
54.68,-0.522780684165298,0.30635507277391,0.806289053600076,-0.134789141159562,0.958978116391746,-0.0204253180637222,-1.07542558361981,0.0283515413685166,-0.164745238016096,-0.0792863724020147,1.38722272590109,-0.5015220452013,-1.13759224793835,-0.204175872804951,0.0786642607905379,0.212434950929165,0.164710525235493,-0.321346621190176,-0.97742503593435,-0.0148271416647864,0.325762483340199,-0.294803303813588,0.000211587535893312,-0.0400863842748276
54.685,-0.531006526965141,0.299624016728554,0.802861943076713,-0.143909800442243,1.03780457068777,-0.0156434777984566,-1.05666683621073,0.0138143206817881,-0.184664793239278,-0.068427204286454,1.45773246891917,-0.533924990428654,-1.06784174008558,-0.230303183872379,0.110760578633275,0.279843223236928,0.18865279637291,-0.287991671216956,-1.02326675402809,-0.0185875619575228,0.341810394655035,-0.266747540634971,0.0619248374143218,0.0148826622581571
54.69,-0.525046439674105,0.296692995800173,0.80245000589739,-0.172554031283826,1.12050270539023,-0.00640994720282582,-1.05143481694398,0.0239354681188657,-0.194333013566952,-0.0709959351531175,1.54419740359105,-0.56814874976433,-0.995597099324702,-0.250663442941245,0.150659734263352,0.351966501262114,0.283664426624152,-0.219710300630993,-1.07639851604607,-0.0648421012240411,0.361487673315544,-0.257507553141212,0.103776347802734,0.0207116433561929
54.695,-0.530609787267633,0.289927657207707,0.808328835554301,-0.162713298222734,1.20953152239468,0.00604890569363021,-1.07627353913778,0.00812976124685791,-0.17841415036771,-0.0333965107906632,1.58081681268729,-0.563905922710366,-0.977777355429289,-0.291562396869274,0.176629097327526,0.464438244995426,0.360323180333788,-0.159831211296483,-1.0964463127826,-0.115074922131485,0.390579403152635,-0.259007838073077,0.0733228254240994,-0.0794574606965735
54.7,-0.536741107313219,0.29417255495142,0.804865832042129,-0.165993644295801,1.2912248953945,0.0155673758761355,-1.07443136933298,-0.0171695028808217,-0.173289872073654,0.0969415444135472,1.61279124104799,-0.531165797986558,-1.00036778924756,-0.295153653813483,0.229833443263732,0.621917685338932,0.361857729862106,-0.126898386492127,-1.07636037353781,-0.14946806497907,0.41548883964218,-0.253824263111052,-0.000161222591865372,-0.180383407923523
54.705,-0.533728688522469,0.292472363825557,0.815217994519129,-0.172807895273693,1.40110100559114,0.0192515517983093,-1.07946488050554,-0.0331554501891323,-0.186436382532295,0.191476524930295,1.64675592053667,-0.547729611548926,-1.06627443370157,-0.253233428943109,0.286726594732402,0.795187389720228,0.255907187312428,-0.12342751660062,-1.05002947219612,-0.152031926932456,0.428351680457026,-0.246770554274773,-0.0621255236395838,-0.228528751191764
54.71,-0.532384472312805,0.3039421792466,0.819573988446561,-0.190483773305902,1.52347048999774,0.0267536682987348,-1.11671330546156,-0.0317014716260959,-0.18877714495486,0.305718832131463,1.71965561596552,-0.575068071794667,-1.12475335294827,-0.167176466972754,0.529432719397953,1.0679005745955,0.0794839441682342,-0.124945049630265,-1.02670522362687,-0.135512456155251,0.427796395313482,-0.220928586519211,-0.096018053934072,-0.244527904470523
54.715,-0.535543734751496,0.301258729096662,0.819574593119517,-0.211803086833714,1.65316158330226,0.0429271600037979,-1.13015486693066,-0.0452225233703743,-0.212493324226651,0.423597175385342,1.74729840208398,-0.587130959434119,-1.1722919576285,-0.146232513207773,0.751406269066508,1.75034283742915,-0.385972670897469,-0.128419236782169,-1.01569816296748,-0.123462851014052,0.414460667924348,-0.173959674878294,-0.0828941611019767,-0.244569007116217
54.72,-0.552886645503115,0.293825854045073,0.813520685522213,-0.24799804352738,1.82394754477414,0.0512204917149226,-1.16008774384749,-0.0490471073121122,-0.217398399380021,0.626291089208005,1.77238508444684,-0.630448231892588,-1.10853196187561,-0.239170678617298,0.563412416164003,1.9967426482376,-0.774249644834644,-0.180074216065582,-1.01720969824123,-0.121993075118825,0.404358897831683,-0.131004697436539,-0.0741162336337153,-0.24882903273705
54.725,-0.557390225561565,0.327342376155671,0.81291513473465,-0.273753344528863,2.00689386981855,0.0695313046983396,-1.18345579384192,-0.0429669950288608,-0.187992369816187,0.849362419828067,1.81580557505907,-0.681939505181395,-1.0539503392206,-0.253020943469123,0.27698938029249,1.95355176353305,-0.711806763803683,-0.267848679637175,-1.02460849738878,-0.131837603645105,0.395896006983786,-0.10990385191038,-0.102991399753938,-0.252207642320288
54.73,-0.544169543170476,0.391264800539276,0.792753157759581,-0.346242004468239,2.15804917136452,0.0783941828857684,-1.26349523222867,-0.0153420080798932,-0.140738536379759,1.14962628930446,1.88061565748058,-0.758639902208405,-1.03971127871241,-0.14727592474993,0.13965035447707,2.05255936871193,-0.475838947733923,-0.28866919875145,-1.04453189950456,-0.130884213355703,0.375990742047222,-0.120561388399996,-0.154426422242178,-0.259168940708036
54.735,-0.532170702409808,0.460586543903158,0.788838731165593,-0.506471000323782,2.3817749954795,0.0487052041500479,-1.33999685941251,0.0433501340279376,-0.0809480925916816,1.38981353166338,1.91533819108969,-0.839929342278343,-1.09902987519471,-0.0375732790699013,0.0945279443830897,2.34197949362083,-0.312612189559981,-0.280664014915408,-1.08723548664661,-0.144439967794042,0.324910048073344,-0.118789524675892,-0.177736314658715,-0.231013935795379
54.74,-0.503997243002248,0.415219539078841,0.820080388571809,-0.575523092234571,2.56836762120989,-0.00576074971628244,-1.42120592552115,0.153924717077882,-0.0407265919690232,1.58035817322487,1.92238607285796,-0.929315097044959,-1.22962693467248,0.10246541301896,0.0882101441117038,2.53959983996862,-0.10255776790417,-0.321079906282143,-1.14339331340007,-0.149455724948632,0.28813111561655,-0.130424721981775,-0.138869336504816,-0.165774589916563
54.745,-0.4819636349854,0.413489633244457,0.817621328613093,-0.721307606872414,2.76146132551431,-0.0637040597378334,-1.46694841182682,0.26290551948234,-0.0264723652494845,1.61982593945444,1.95798971217168,-1.01311973754081,-1.37732026760515,0.234201480069544,0.122782132091789,2.58993437438884,0.0236745085278245,-0.354697939396093,-1.241807904251,-0.180435986891071,0.247249362377497,-0.162836255520987,-0.0421855221218852,-0.070212533110259
54.75,-0.503533164758915,0.469107264906709,0.833655876551188,-0.807858940088596,2.97355202047127,-0.226360792159395,-1.51133887212987,0.406687661616791,-0.0363232122662762,1.44327149192279,2.03157314316381,-1.10057216771972,-1.45200452686293,0.305294410789251,0.177705954747889,2.47172937693057,0.0133986509244901,-0.335610611288817,-1.35371716989215,-0.228440696545821,0.216650339568734,-0.18647673947205,0.0764226726048258,0.0113905575851567
54.755,-0.522351968371287,0.46047240380271,0.835100969099833,-0.976331823621221,3.15254029927084,-0.291727556019088,-1.52323505917218,0.451561894113929,-0.0370194649131655,1.21143794793941,2.12052758222523,-1.1465745353982,-1.53038693984342,0.294391655463585,0.190345349551321,2.19788738068004,-0.0864707035888282,-0.189039232615341,-1.47621689684528,-0.26430915281635,0.203605846460495,-0.198250395380092,0.210614651255875,0.0917489585505727
54.76,-0.49164574133078,0.436169155747396,0.855372843415664,-1.0375119556609,3.35241775107698,-0.386317424243509,-1.52396845309669,0.416465707862253,-0.0403806787409784,0.876518540497926,2.17610907179313,-1.16295130382553,-1.55215554361516,0.211991464891703,0.280161505369321,1.83196566558519,-0.270360241839055,-0.0708424813067383,-1.58367346829175,-0.276761207185124,0.196314940874495,-0.222041636473971,0.316708227369686,0.140832444294695
54.765,-0.506175934828249,0.414022716582351,0.848604098824139,-1.11101186340373,3.61161034328185,-0.506518165813859,-1.53259545754828,0.304892339733179,-0.0312089743203083,0.544200533901343,2.26868315950814,-1.16286334100749,-1.55465668141308,0.0319930690326189,0.414210974462843,1.36502911650036,-0.551100853055619,0.0744536922358594,-1.6235530979448,-0.250608244378032,0.18597806324726,-0.229375315534837,0.358046755876665,0.158904895413758
54.77,-0.527423447618947,0.38284823510902,0.860937289855409,-1.13171510847579,3.85714723665634,-0.604063827669064,-1.50621805457457,0.156757068128273,0.0150751393309164,0.392383716560575,2.3280496161379,-1.15281172570796,-1.50328755060902,-0.202092950407966,0.438028004326691,0.958845586631804,-0.811887034379216,0.168659121229374,-1.58745866602841,-0.196864604012027,0.165415591649286,-0.217426776899802,0.304500371380521,0.16821755491313
54.775,-0.595701912572958,0.416866111936554,0.820363268091177,-0.884683217480456,4.19210877168847,-0.682001178606697,-1.47115885422331,-0.0365835081294901,0.0643514155885817,0.563936622056573,2.33289060402814,-1.0193888515653,-1.47168766004503,-0.336009413091416,0.454644946281955,0.600299765032522,-1.13443410301537,0.180755279758285,-1.51895300557077,-0.123938546148259,0.122107458880472,-0.186441376631082,0.122366502904109,0.159644185387346
54.78,-0.523313478297955,0.475880219917565,0.782648932281766,-1.11468372174227,4.42711359675256,-0.861280139144937,-1.50753883687646,-0.00279324802631099,0.116889205757461,0.497953481381695,2.34968442864308,-1.15798476404713,-1.37444336893527,-0.489147369455073,0.33179995152521,0.355641077225599,-1.36266394915746,0.133833493431103,-1.34568662773504,-0.0641418328633093,0.0688048974633948,-0.106468659365064,-0.0541967655322396,0.13373865364609
54.785,-0.592929606695544,0.414664142440396,0.804097494677186,-1.07728735484323,4.80412696818033,-0.964098992942736,-1.51484219207572,0.00103805353584739,0.149570439353352,0.680024217364373,2.34641106878008,-1.09937238145958,-1.22655997718958,-0.450187553497862,0.194750365921826,0.232483272112223,-1.52334876281231,0.0840865335095328,-1.22414021819304,-0.0178654614537347,0.0330797278060345,-0.00153499771960637,-0.223047997359665,0.095797376928533
54.79,-0.622614102156656,0.345837616076216,0.782226151893752,-1.01452974249024,5.12390051724751,-1.07085341232432,-1.50285151044449,-0.0166533961040989,0.143371081330493,0.660353118869091,2.34965961808459,-0.964290250843523,-1.15081727613577,-0.407544387328536,0.250406908280258,0.143587492503639,-1.73846217350361,-0.0305338915847686,-1.12046199708451,0.014866157240357,0.00134800052726787,0.118513656553023,-0.372800690279968,0.0540621446079079
54.795,-0.626091090471121,0.297581306979599,0.791137444141663,-1.03444330227037,5.46093808752227,-1.16434690282199,-1.44699297645784,-0.0547728211769218,0.176704357642947,0.649281401017575,2.31156679981547,-1.00083464496064,-1.17173867575993,-0.491363311826911,0.232751378050013,-0.0926053003026781,-1.73963167516516,-0.0835076581354966,-1.06619831568049,0.0342063923056645,-0.0124422969187658,0.14006449958253,-0.443676023926629,0.0408259571651282
54.8,-0.681247933158434,0.214952237268855,0.825430442004313,-1.01918590324174,5.83009925064047,-1.23566584742566,-1.42083515538593,-0.112941009014972,0.123812224536124,0.644063385859564,2.35422311558656,-0.971723214663374,-1.14302718890281,-0.494616123124385,0.19037169704319,-0.394143586971487,-1.62320289038038,-0.141454855506185,-1.02844980078157,0.0209836269020686,-0.0240485208042454,0.105605014798686,-0.499282534479129,0.0828234725483955
54.805,-0.695835567466516,0.08929677704255,0.901694556862487,-0.873751380243188,6.20787141953563,-1.24968607616959,-1.36969126626769,-0.140736952369,0.102913531430144,0.648059662707131,2.36001663836094,-0.940621874351067,-1.11080886960885,-0.488091356470621,0.142639955991632,-0.58978600418598,-1.49170695226775,-0.137557212984468,-0.996321791773826,0.0206202008209881,-0.0472286662999763,0.110648327988608,-0.524007299870481,0.12913157161794
54.81,-0.701010336118262,0.0842296961623928,0.917647318822954,-0.689114398648598,6.61162265675316,-1.27832373665945,-1.36051334173174,-0.100075939500605,0.110671141516905,0.733738500476206,2.33003733683416,-0.933944217398304,-1.10375660000047,-0.438986899721659,0.0663581410018861,-0.587813653561182,-1.34602797158158,-0.112267730259725,-0.966545725605097,0.0251319375772879,-0.0621253636504068,0.141628785193826,-0.517686448609715,0.178761388573419
54.815,-0.657331589099549,0.354861378120991,0.88205076045565,-0.558313182466555,6.96958208583775,-1.41269858842501,-1.34211362167659,-0.0687087419352497,0.0895370088960818,1.08368899069614,2.24750643625896,-0.988384659891053,-1.12322125947811,-0.37184422790844,-0.120862247814378,-0.459665540552144,-1.20534730404035,-0.157207395514288,-0.929784456545167,0.0629569314915549,-0.0559069362307866,0.109087275934988,-0.499847257802531,0.266248227435852
54.82,-0.643529637285746,0.526301017865895,0.859245917269091,-0.588524072058164,7.39744226665355,-1.611306426496,-1.29439448470369,-0.00712761517963984,0.0278867926487829,1.25451348126097,2.17818358295604,-1.01596585057789,-1.14209491501456,-0.292689645898388,-0.264039339719861,-0.107650030680471,-0.98254622403304,-0.120016951586637,-0.892885369490647,0.0729951482726213,-0.058087852450304,0.120125347528075,-0.492725516786136,0.331996805505932
54.825,-0.706868639012046,0.575383512294583,0.91589736726326,-0.633409088672214,7.76676865944394,-1.70912244568733,-1.25098648006279,0.0829994849652057,-0.0796969852834788,1.35130027226308,2.13553353043912,-1.01871278552125,-1.16280958295116,-0.212797798729391,-0.40956588174989,0.200140823466006,-0.860829426989892,-0.143927097559027,-0.856126289792078,0.0640987788456794,-0.0729654758273214,0.156968773077183,-0.426672569796695,0.320824057551679
54.83,-0.811527953587374,0.548543630087764,1.00382022193092,-0.709687100653942,7.95537580436692,-1.72457440125636,-1.17725854579179,0.189572414009501,-0.223915534356296,1.29152228423627,2.08729541945241,-1.03810835808074,-1.11047397350186,-0.120843094535657,-0.505349306267727,0.554120636694514,-0.641233110980614,-0.14379576875403,-0.774330114650651,0.0867795995229048,-0.0515351430278004,0.212063256403062,-0.331801798270101,0.29813101261324
54.835,-1.12541666881657,0.527144174731058,1.24413025616647,-0.810762587130426,8.01405816730281,-1.83522248340433,-1.10828376214638,0.2502188250491,-0.337629091485053,1.0567127375413,2.09477092710439,-1.05714559555054,-1.0979965338061,-0.0589206031395022,-0.593196322745537,0.762223478731906,-0.464569933263753,-0.172802114854282,-0.687504408729642,0.0352409266444226,-0.0563493964925227,0.318861350021635,-0.229810613850543,0.33115724246078
54.84,-1.47188124966553,0.379701018460443,1.80109467431953,-0.525489460233525,7.69701414407804,-1.75605879672852,-1.03198806669803,0.282408981524097,-0.451864691869947,0.769608105382463,2.09353034812466,-1.06186771052895,-1.07371282505185,-0.044889856124196,-0.650884016422666,0.891567265597842,-0.30750915322115,-0.0847142323257903,-0.623747340977738,-0.0121747947804348,-0.0559523984555226,0.321553787865592,-0.0751078027102982,0.312548621486808
54.845,-1.68624251724601,0.118800107081051,2.34353664737589,0.521410981400235,6.53203606718757,-1.81897210788795,-0.955639639780898,0.244647388150105,-0.569408646153938,0.366302557637307,2.09453260935659,-1.06691920757294,-1.06023376581645,-0.0224666791218765,-0.689757183644128,0.948393177928249,-0.139307930476485,0.0116511991042979,-0.582094091708295,-0.0675631270105196,-0.0414377068536183,0.2624707780139,0.14013799084024,0.328596920797624
54.85,-1.45733362447823,1.04911147692494,3.26184002264458,0.320359588332217,4.95164137557697,-1.84413396172842,-0.941549057597225,0.125288624586895,-0.802481827554336,-0.239060596421241,2.08980255390129,-1.10004921915757,-1.04109145802825,0.0342926342449957,-0.666006834140245,1.00290879308754,-0.011545907683475,0.077684251080609,-0.60066181637909,-0.104594680005131,-0.0309938051572564,0.137121357787841,0.308194263896291,0.284979045547108
54.855,-1.57795935955814,0.198716550645623,3.76430132821429,0.592812127535751,2.78563293739549,-1.61952942890023,-0.958209968017951,0.0579988279724407,-0.730598003019611,-0.732032879131999,2.03751923533893,-1.10085982856183,-1.05591109655073,0.0755428635158721,-0.680202041881591,0.963886322794238,0.0693485768588946,0.15495762322834,-0.628956516395126,-0.160237186117842,-0.0285995546439938,-0.0120134842673736,0.41708179105436,0.214461206621561
54.86,-0.813897539164826,-0.407881965179788,3.05650178682253,1.26370906069933,1.11643538134551,-1.91971878008752,-1.00908703033236,0.0334946467325125,-0.468779590337928,-0.590130597022385,1.90990920990337,-1.11035128740359,-1.07260002465355,0.100204625524379,-0.630667966920856,0.880327863806891,0.0506223698015201,0.204637777806981,-0.68668763396132,-0.201508856899405,-0.00883600446295922,-0.172251302421426,0.492834617301905,0.13891837576015
54.865,-0.252896714277222,-0.554154014941282,2.50766390488151,1.63118921234146,0.212651379453549,-2.30701370651156,-1.13413619953404,0.0497020202128469,-0.101864216368622,-0.0430507950082643,1.62046849473412,-1.11739320126257,-1.09945737375254,0.0937865727283293,-0.614110355898179,0.657675726123465,0.0329994380454935,0.187929973971443,-0.752845578368813,-0.235659220787468,0.0176181425688252,-0.356772004642424,0.516281746505638,0.0663624851485744
54.87,-0.0345383312929297,-0.321321374867742,1.88839403691795,1.41345168612869,-0.412913770519966,-2.79058178142893,-1.13804001718363,0.12710155211729,0.030432150390435,0.415710770430035,1.35229788598875,-1.1310066701409,-1.14898891487643,0.0566753743072613,-0.613547483660198,0.41545618107893,0.0297038403499298,0.12816731325958,-0.825261963977266,-0.252836700248758,0.0396046905127883,-0.486982238316936,0.521896471694602,0.0113436807418411
54.875,-0.0751674060219031,0.167884721842527,1.40157052372044,0.62315057751306,-0.538374340359724,-3.08650270848419,-1.07269109274306,0.205061747798236,0.0228386519952851,0.782398014234354,1.04400259594986,-1.07930104933872,-1.18501915298191,0.0197298893397643,-0.639993884265126,0.100202394164822,0.0515390673243013,0.0760449149606203,-0.93363935905001,-0.241142346226604,0.0663259328120356,-0.642966405726084,0.484138159992102,0.0328024999007142
54.88,-0.201306978464923,0.226684300068196,1.59927811597697,0.415531944692428,-0.694122236072628,-3.06240320205688,-0.993724804088689,0.17817829342244,-0.0303670178292924,0.664049737514357,0.871159283807484,-1.01786964041211,-1.21796939696257,-0.022708966163735,-0.672168244313294,-0.175019490860429,0.0653730140076764,0.00692652322193542,-1.03725991326039,-0.234669957504407,0.0813576502625272,-0.708873594140813,0.439313574507531,0.0860528022472511
54.885,-0.261595318041654,0.243032420173533,1.53882944185502,0.306814249104313,-1.14708678823966,-3.16484481355781,-0.931094901207638,0.0770609130605058,-0.0516130090369215,0.34034918736962,0.637280316208458,-0.933531046501484,-1.27249839098783,-0.066025417216195,-0.694669510936348,-0.330776397580172,0.0987326688837951,-0.0322798931795884,-1.16440753898478,-0.196121703697547,0.106604165282988,-0.733341969068715,0.384610543623191,0.146730312392806
54.89,-0.271461941289902,0.4401050790787,1.35930790939329,0.297038770574574,-1.47363411581952,-3.25681517448973,-0.854545246958445,-0.0263922015906907,-0.0578699272531,0.162202385173757,0.412973089708679,-0.833783746098187,-1.2654948554436,-0.0989432463024534,-0.696062841020336,-0.435544680361024,0.0853268863868931,-0.0869920544080866,-1.26016309159951,-0.142839548867034,0.120224577074299,-0.713450830726836,0.354970180024617,0.186327030533678
54.895,-0.255639525517861,0.651606181957416,1.21383683578428,0.257133407014998,-1.70742788602306,-3.16463013603167,-0.7717715693652,-0.117383580989703,-0.0755266780459277,0.194789804376267,0.140610052622208,-0.775804782506052,-1.25738588777694,-0.123334848788739,-0.717177274111507,-0.509081120686602,-0.0372273949087922,-0.154269824111262,-1.31367624664765,-0.100116544114,0.111342556316207,-0.676183845799649,0.320161793433924,0.188823975612736
54.9,-0.241468476546771,0.840650550219535,1.09510411961518,0.0796858560027527,-1.93210872638187,-2.88872169508261,-0.722379572012652,-0.142972572924925,-0.0821318220613313,0.307599893331029,-0.0582194699615445,-0.76803864117365,-1.23181180869977,-0.123542127906804,-0.725128380207483,-0.552093635733071,-0.193923747839456,-0.207733825801396,-1.33465442694327,-0.0605422633478178,0.0936316171017083,-0.651978240470748,0.28857320573261,0.170112614732882
54.905,-0.203326615729462,0.992771666529126,1.01579479206587,-0.143864845185298,-2.07943265353442,-2.54624180745812,-0.69614120578246,-0.150661389861812,-0.0905182230513473,0.498612209265253,-0.265530210486359,-0.779760778892529,-1.19796204015869,-0.111026293642799,-0.728302556876537,-0.615767320200297,-0.37809975751551,-0.250558115479421,-1.31925849269703,-0.0281618907636685,0.0667648783206763,-0.615573160102751,0.253863605348377,0.149883396463838
54.91,-0.192251050541194,1.08448669162609,0.942310044164793,-0.407105775569443,-2.21586061271736,-2.15251450881452,-0.67966407728965,-0.138071389752169,-0.100106353031236,0.610948521180531,-0.419663498440276,-0.795208440738435,-1.12498951119051,-0.101231680567111,-0.727309825301243,-0.717321467653226,-0.653784504643676,-0.278348280550818,-1.2603983495441,-0.00450574901300273,0.0361762858743537,-0.555212645082738,0.203960727327363,0.137994511176528
54.915,-0.170661675964455,1.18142631646291,0.871059682820316,-0.679631673642643,-2.33707645782396,-1.65968204765081,-0.681025791718387,-0.0808166268961656,-0.107358464664614,0.734690533195364,-0.646139118433681,-0.792094220339114,-1.07318254196922,-0.104364437481094,-0.735233979959883,-0.763256672317837,-0.867298192185712,-0.322560648384467,-1.20857193209191,0.00486709103527026,0.0192270163646901,-0.534201681645554,0.166510220954754,0.160161483886092
54.92,-0.161678268499238,1.18573804167937,0.831209849977571,-0.893667070565676,-2.4202250926732,-1.25166890130295,-0.683084118336967,-0.00934923267748539,-0.123991474700804,0.764966459637599,-0.845620515764157,-0.760515352582395,-1.02474156543866,-0.104292073319384,-0.736229200037176,-0.77540108287627,-1.02719440401209,-0.378014663842443,-1.17225476443303,0.0199222644489911,-0.000345235908157659,-0.543880215341832,0.0978370603262377,0.189639993900221
54.925,-0.15516946451025,1.16352322749727,0.777908347066426,-1.14797190975006,-2.51712102522378,-0.763107556646499,-0.675998009935138,0.0600704705658808,-0.138700430100807,0.722673134152864,-1.04531434259123,-0.716352398936712,-0.988187050624051,-0.10116282182768,-0.740773327978029,-0.746379714910181,-1.14392091486625,-0.430413004822078,-1.13708333745845,0.0329203408975683,-0.0160917938524671,-0.577598875999312,0.0422287902987252,0.221243871929471
54.93,-0.138825985230623,1.13005642548581,0.740946804898249,-1.32643913933407,-2.57764219746071,-0.357362412703233,-0.652689109881347,0.112685015252598,-0.141397809158143,0.63868382386184,-1.22536893929756,-0.668610054431445,-0.997584341949412,-0.103895316459357,-0.761538982716128,-0.720127952055514,-1.20319989400235,-0.45444213156265,-1.10330542210682,0.0353337582110629,-0.0270495738174302,-0.634490153176617,-0.0101382242329564,0.256056518689372
54.935,-0.136951439892921,1.07379454902251,0.722454012149164,-1.41000733025097,-2.64386607526784,-0.0238950578596525,-0.647997835598398,0.167823841108173,-0.16242975125351,0.422087654663606,-1.44315855575277,-0.595437177119432,-1.02724981838915,-0.0997456724621762,-0.783650977570927,-0.664987770474091,-1.24167441444642,-0.41459357095846,-1.07520960692181,0.045413490174353,-0.0318929762230571,-0.677555472422579,-0.0347394142628813,0.263058846104666
54.94,-0.138626737148275,1.0066784281934,0.712365731372053,-1.43988129668561,-2.69801035799107,0.286874814289113,-0.633260237636859,0.203664461831555,-0.172420265727257,0.227873897874088,-1.62518570786673,-0.541783812483308,-1.05097036718335,-0.089034299331132,-0.809076287155803,-0.642853368655404,-1.31268352645887,-0.346140402104806,-1.04316596646484,0.0474437296396393,-0.0282978288803566,-0.760878627641579,-0.0619042222229436,0.266738063665033
54.945,-0.167531677444775,0.95600943429708,0.728841015143596,-1.41893763029017,-2.7498358063459,0.75409218144479,-0.633073944791687,0.233064206824104,-0.19369442834277,-0.060395482139072,-1.81424086901721,-0.466995788317711,-1.05942410932673,-0.0727917546649737,-0.82412580390049,-0.648981087146771,-1.42467164318127,-0.262243641890506,-1.02662646478307,0.0412452307565254,-0.0223213052227147,-0.813076926348067,-0.0789978882620692,0.274059981268159
54.95,-0.199529845350229,0.920074201967154,0.750797829367973,-1.38583941409774,-2.83003339896129,1.0384546655101,-0.627983050898881,0.256863367978727,-0.207709736245295,-0.279091618702559,-1.94324854968786,-0.416689775790271,-1.0537203172134,-0.0656097931630562,-0.832799245321466,-0.687242477572826,-1.55136824259759,-0.182493869454582,-0.9926587628297,0.0169722005666738,-0.00403077661231183,-0.832785182502237,-0.0753836587630367,0.281927939355414
54.955,-0.234686156617054,0.901609395558747,0.761991866974922,-1.37448878484557,-2.94507315575889,1.36114956323597,-0.642224576015564,0.245619360702988,-0.223022171692246,-0.639121049129903,-2.14954559794456,-0.347584043245034,-1.0332277433512,-0.0586971204294246,-0.837892458952505,-0.777472826551567,-1.7300324971491,-0.105452764879909,-0.991586587466259,0.0115591479614277,0.0153295724313226,-0.84520631689343,-0.0306740798920737,0.345810980452813
54.96,-0.248144938184286,0.85054737560527,0.755205254074827,-1.37064050114248,-3.03895132881343,1.59773041288319,-0.630998497760124,0.245710734564169,-0.238493409652733,-0.919126666116066,-2.31104213320798,-0.294638980073187,-0.998770928329807,-0.0643565039067476,-0.838624490753089,-0.880886975233247,-1.86976735564222,-0.053811886198736,-0.986594589478704,0.0170615066915746,0.0361376766533779,-0.900796758777223,0.0115014677735991,0.319164244126325
54.965,-0.252916412285998,0.782871385018244,0.728467123109539,-1.35912275314331,-3.13797962233878,1.8319805282763,-0.628802916337086,0.244398493106894,-0.238231330639195,-1.16188706921165,-2.45766502253573,-0.24798996407177,-0.942994290653063,-0.0668853764814561,-0.819643388870397,-0.970849317840647,-2.00533834413958,-0.0158537311693561,-0.980169552564757,0.002605796791404,0.0613544619697614,-0.940712882184214,0.045313831090647,0.259711969889911
54.97,-0.267656887656811,0.720587401900876,0.706938572149526,-1.37318644076857,-3.21308309784808,2.00148473161609,-0.639357599772648,0.242651144871158,-0.238479374749528,-1.40856654841906,-2.60664435587922,-0.208987931034168,-0.898103008389995,-0.0726613182445063,-0.822001603335735,-1.07185179807651,-2.0944506950129,0.00298578190060242,-0.980638107352799,-0.0321920579900938,0.0696989631166199,-0.952585221051339,0.0638008665584755,0.200692301276685
54.975,-0.27622817527855,0.663007185281568,0.696462883558359,-1.39502752999355,-3.21756325088831,2.15423692856421,-0.654391083544391,0.229905350225317,-0.241412209913249,-1.72018823697257,-2.77640184861037,-0.147681170359503,-0.840713459238267,-0.075721651024894,-0.802902920602304,-1.20398982023873,-2.17822725213104,0.00036281220739018,-0.974914286989406,-0.0728004636895342,0.0884177054093257,-0.961810422445521,0.0405310355667802,0.136665741534955
54.98,-0.31468406260351,0.639356172430836,0.705934721744698,-1.35758414764029,-3.15823526666588,2.25321334408655,-0.672963795900254,0.211017641140997,-0.25151735525518,-1.94329314843512,-2.91010709090026,-0.106943826855431,-0.793744604613405,-0.0732944660525752,-0.792931813966988,-1.32381368532882,-2.21427347990639,-0.0111683550770625,-0.968389964731604,-0.12169923862353,0.102561398535591,-0.960540293614175,0.00534195260724693,0.132874319876392
54.985,-0.39600128302596,0.626666446957294,0.759106868316829,-1.32497176232835,-3.3736814129806,2.34276917126133,-0.705488548646945,0.189743289512687,-0.275297289848824,-2.16891800662806,-3.07442571127763,-0.0863829160703136,-0.754257751402489,-0.0704277495628148,-0.783047730968467,-1.45574489076018,-2.22450435974894,-0.0380699168201488,-0.958282045001371,-0.136543546643674,0.118473039691525,-0.982142819533143,-0.0214274266260294,0.144857764599534
54.99,-0.486637167393288,0.631026844089785,0.829770415024988,-1.32588380554667,-3.46955430414557,2.4441974791563,-0.712278785468456,0.172024901217003,-0.308517216905171,-2.32963305500673,-3.21764696241323,-0.0691998655360163,-0.729393943264201,-0.0518883699296235,-0.780248238690975,-1.55965993759763,-2.22190549943012,-0.0693833230750413,-0.933958495583997,-0.181348651145086,0.120845687282032,-1.02188573841484,-0.0276919938277654,0.168123182484345
54.995,-0.54988794970534,0.641990495024701,0.87012914334422,-1.33150817450688,-3.58127107683352,2.54035707442531,-0.738416000545083,0.158321382644072,-0.367145350666864,-2.44979205844915,-3.34379355788725,-0.0422356515206578,-0.718033992254701,-0.0343960745110856,-0.783321310596587,-1.67156163893005,-2.20901826034558,-0.0927662861746616,-0.921074816725223,-0.20752845082388,0.133474591398165,-1.01584451630308,0.0327717768705012,0.275260030384936
55,-0.592609444201719,0.635615294816322,0.855371055807472,-1.34963192739609,-3.71168753517101,2.64868298769785,-0.768682394196309,0.135284395539951,-0.395633425491168,-2.55653259777564,-3.47205691135875,-0.0283469817042439,-0.697574937610331,-0.00954752481781369,-0.789944563695773,-1.76552311280579,-2.2107387033653,-0.130202840765818,-0.917002948582236,-0.191493536832205,0.143437276708841,-1.0633002539993,0.0884255119752602,0.306421087615236
55.005,-0.625517096004695,0.584307659708334,0.810198381773142,-1.39202248165089,-3.8200669709331,2.72947850867557,-0.79931679525711,0.111845291749492,-0.403237471965886,-2.59628903677639,-3.6054053627258,-0.0397365338294364,-0.690595254810433,0.00343933177241852,-0.802375123180402,-1.8367983195286,-2.20548951215625,-0.158257808687128,-0.912994443956396,-0.184579886751656,0.129798685947816,-1.14260950276999,0.110985211957043,0.26977733101173
55.01,-0.648554490028048,0.546459032979173,0.773236826960374,-1.40072387338183,-3.89908387670024,2.78046945967546,-0.81984474668895,0.110908127121383,-0.41371761326804,-2.59407953622286,-3.76425975935482,-0.0489861901125135,-0.675632592045016,0.0152995376389215,-0.812561373268399,-1.92507277602015,-2.19271911987494,-0.202252638131041,-0.908319088443799,-0.183714003413987,0.120059024777204,-1.16393619135818,0.131011510971018,0.235751431430215
55.015,-0.710311442119834,0.56771961134262,0.724591424436889,-1.39793644721459,-3.93700722235884,2.81400392942619,-0.860372750280028,0.0844607721246224,-0.438246751665987,-2.60894362677207,-3.85444819635027,-0.0496791950966987,-0.663134434207858,0.0159439354647576,-0.823605751664108,-2.00660647437516,-2.17770159071485,-0.241993474424312,-0.918737418922975,-0.176420152962079,0.11346126441017,-1.19662688515486,0.110421258659262,0.194394531655349
55.02,-0.757023538184351,0.600065283034165,0.702783311660611,-1.37742458047032,-3.95509310164052,2.84820213114355,-0.865430496029579,0.0677619677616664,-0.474832350651005,-2.60644950605101,-3.97328634316093,-0.0514054209923035,-0.649573085055937,0.0161711401567771,-0.83971907837525,-2.14115402778315,-2.16453161227146,-0.294063471361218,-0.918108867525638,-0.162340913288056,0.106934448104598,-1.22809758721821,0.0652141083934078,0.147043211391142
55.025,-0.852489385162471,0.647875457380173,0.677387916827068,-1.37565969015891,-3.9864955684478,2.89925127927365,-0.872721679046232,0.0444440113299094,-0.512848940090717,-2.60402267490073,-4.06282133313232,-0.0644960213265298,-0.640966107764212,0.00192708023742668,-0.847180109109371,-2.27747380974232,-2.14516083611571,-0.349129193936591,-0.920073265986782,-0.141171479217538,0.0999787172939449,-1.23026592398542,0.0383133442542984,0.127160519090618
55.03,-0.900587234082641,0.692754727533762,0.64487284510057,-1.39371317775089,-3.98640980003041,2.9664663564378,-0.871176218204996,0.0189668767442711,-0.541241231665344,-2.60475541793665,-4.15630564780906,-0.058195444827433,-0.632996633297287,-0.016602969873543,-0.859428414730411,-2.4320932022746,-2.13040203090632,-0.395375689466003,-0.914486163085155,-0.116854082886463,0.0898806734247612,-1.24323195928103,0.0406560561977603,0.131650063960585
55.035,-0.930021889133839,0.72132217144915,0.57717898568716,-1.40012610751484,-3.99450983514521,3.0561472990089,-0.875704519507249,0.00429813781865132,-0.552583044170043,-2.56655537547685,-4.24190229320453,-0.0776248127664612,-0.627648506612671,-0.0585162934443041,-0.87433560004324,-2.64394474213815,-2.11215739306615,-0.448454859619499,-0.920299478987969,-0.0902401880020489,0.0841336642779126,-1.27060917578064,0.0790825542424159,0.144286478342662
55.04,-0.953862161069585,0.761890144723121,0.519964237694097,-1.38510082737528,-3.9316123581173,3.17525718525584,-0.898840529239178,-0.00272138346319115,-0.566344660803566,-2.55219031934869,-4.31822250438062,-0.0779909393186237,-0.61312153535467,-0.0972650723280318,-0.886584503825278,-2.81994004084397,-2.11487388143399,-0.482631731291154,-0.929226926346899,-0.0779068598505001,0.0863698564011076,-1.27638242722291,0.11407670613512,0.15557473804747
55.045,-0.976724137482919,0.79719679376417,0.473445432129191,-1.37166135282048,-3.85233807793871,3.2914598214688,-0.921562543965821,-0.00486239442621014,-0.571533100170597,-2.55267498268801,-4.39395317994987,-0.075573557945023,-0.598220960036492,-0.155282158513203,-0.910403660880729,-3.03551489775751,-2.1067547244233,-0.506947577983498,-0.932844212921559,-0.0676700407857454,0.0903045850210088,-1.28957470766838,0.146519517600208,0.179773943795327
55.05,-0.987508464381634,0.831767582510026,0.429383508914961,-1.33903515098113,-3.71410570594281,3.46178109171967,-0.950558248910757,-0.00645014704308981,-0.590119836443401,-2.58507709055639,-4.43572910284699,-0.0525734206373765,-0.584470087960331,-0.202499312119234,-0.925509265956952,-3.20601739395793,-2.0985616912385,-0.519328428142932,-0.938563789013782,-0.0624804974662196,0.0937559323147385,-1.29589460388574,0.162781403584823,0.191515683057681
55.055,-1.03099172390558,0.914635503121434,0.415870873553007,-1.33517306414694,-3.56073249354081,3.6388164448708,-1.00154982591917,0.00435243020412886,-0.607886976009641,-2.59331178683778,-4.52809979434898,-0.0463558379813239,-0.554103234178596,-0.255987286752937,-0.928337065129248,-3.36584531348176,-2.1088405968921,-0.521820053567183,-0.936860668869676,-0.0698869087523429,0.0950149385106975,-1.31245342333792,0.175460659397773,0.211468457331971
55.06,-1.08518368393541,0.984344280601021,0.414500262461223,-1.38516972903062,-3.39395881609883,3.83500584142798,-1.04417887275924,0.0158896379525671,-0.632766116540616,-2.6208061211629,-4.57347226966293,-0.0245461747992083,-0.542816982957735,-0.299663315507867,-0.922178325165004,-3.52849692163445,-2.10096558560054,-0.533609137020034,-0.937972013428935,-0.071685936397175,0.0964034196467199,-1.33886644424104,0.187958926767282,0.228359836472553
55.065,-1.16325020303832,1.06555450144028,0.442167690350338,-1.47770301080462,-3.24463352841122,4.01705719887532,-1.09284240223215,0.0496606796360034,-0.657966671163193,-2.64960138159451,-4.62048954386125,-0.00199344967998899,-0.531975122172928,-0.326728406488078,-0.903841909089193,-3.66434939519082,-2.08749361800898,-0.546036106773049,-0.946342327235063,-0.0740852708049708,0.102580021300196,-1.39375091521683,0.183011222642338,0.248821859975717
55.07,-1.25394088288277,1.10876121790586,0.466283211555925,-1.59001867588369,-3.11539582331821,4.2000752174512,-1.13159571216157,0.080524829422765,-0.689642924047602,-2.68973706244374,-4.66126969482829,0.0265335561520258,-0.520742983637536,-0.341762547458155,-0.877598602879013,-3.80732683545274,-2.07550281399566,-0.572632791894443,-0.938838880987796,-0.08877279128831,0.0967610510327401,-1.44199079091232,0.159574968731694,0.246662576586702
55.075,-1.36775809332213,1.11397847438774,0.500394885464098,-1.67473641473858,-2.9781888022741,4.38759216027802,-1.17090152773259,0.111678340588165,-0.734656894053634,-2.76902669035442,-4.67276633392284,0.0741783786334232,-0.518072342959545,-0.347912546849733,-0.818197832375893,-3.90463974477845,-2.07665197348695,-0.610452585230252,-0.94246847251752,-0.109054016763747,0.0906581294815741,-1.45730988384608,0.148931782700887,0.264167260536967
55.08,-1.48438593490668,1.12936019786138,0.51202468158794,-1.73790538877339,-2.87146670682133,4.56902621577124,-1.19204775949883,0.163597687747972,-0.771552947595885,-2.86359148656805,-4.67339080260385,0.134501352704655,-0.528565345358777,-0.346764508574169,-0.744889432529896,-4.02082989072863,-2.09231567382812,-0.652309519709242,-0.949041586857058,-0.107725120220957,0.092531079609949,-1.4963799726936,0.154339615839877,0.285045935118484
55.085,-1.56454143425858,1.15557069465518,0.483184645598983,-1.78525023480885,-2.78336320693293,4.70657387680822,-1.20082224242389,0.20939789493826,-0.816098100787102,-2.99879723323763,-4.65202348402386,0.196461993702412,-0.543272334373825,-0.335086305102997,-0.689964826196375,-4.14809181659601,-2.10588916310921,-0.698206719468332,-0.955041950869944,-0.11779491529323,0.0924933604708084,-1.56405084745415,0.129483319219339,0.276766714959618
55.09,-1.6428843321275,1.15780426546049,0.433373453764402,-1.82199297319357,-2.67386946162863,4.83085608539611,-1.21284677258322,0.21781104008431,-0.857096061671666,-3.23342097652438,-4.60810439718926,0.256894493612242,-0.575370175554349,-0.342420871719563,-0.631822696782096,-4.30661245261207,-2.11184014876997,-0.75447854756245,-0.959572653881287,-0.148586838691986,0.078854519399593,-1.58783905417404,0.101973360664639,0.261328559008684
55.095,-1.75053190131947,1.14228594570179,0.342340942618828,-1.82423448995066,-2.53867725734357,5.00218625689836,-1.22108527565867,0.322810178249056,-0.908241955937656,-3.41762853481538,-4.55524446865642,0.287623344750875,-0.602655764487653,-0.335886183951107,-0.599174380377659,-4.43806422736009,-2.133489276082,-0.803570125810936,-0.964150524290884,-0.179420324797474,0.0829022331135637,-1.54046174582485,0.0727976420516951,0.274493816651477
55.1,-1.82113231963823,1.13850145101491,0.273513213465313,-1.78561026131277,-2.39192881202206,5.13707786038536,-1.23170459653701,0.386202010219812,-0.958252368529681,-3.7355800679772,-4.46289921227143,0.323569008982591,-0.627224369945282,-0.328461416602701,-0.551427287207565,-4.5892150593601,-2.17016714984877,-0.848268624859966,-0.964482439999915,-0.212078048344381,0.0799632975841938,-1.50789637260039,0.0841373921996117,0.349873813392669
55.105,-1.90948401704517,1.1737225492916,0.157086887455908,-1.67387160068144,-2.20652968043169,5.28196825186458,-1.22704722162624,0.406539854405574,-1.01529360009859,-4.05330726914769,-4.35645686300563,0.333305830837374,-0.653867021485449,-0.331616783529049,-0.505164447071044,-4.73160668473543,-2.194092087914,-0.885138018164686,-0.968738469124288,-0.176527075771729,0.102675370023577,-1.54750590001999,0.0963280279392533,0.378521662964058
55.11,-1.98888005622582,1.21381557463278,0.00542302489882122,-1.59320587002286,-2.00491798156108,5.40781357732691,-1.22644515721206,0.426049616891716,-1.05533416106578,-4.49602679833269,-4.20781684825315,0.326188400353497,-0.675766807606426,-0.356210243416985,-0.479231850306976,-4.8684631498443,-2.20573272130443,-0.918376574136032,-0.979918492554359,-0.170240308776058,0.101126107959088,-1.58283467560904,0.0811719213597982,0.36396199563096
55.115,-2.0693853942987,1.22467729313446,-0.154962329209838,-1.56816123731152,-1.74700528008648,5.55629190259953,-1.22437047454564,0.418153122838244,-1.10534208587836,-4.82197180329871,-4.0423131156461,0.314175149951831,-0.705034201279134,-0.400083869424528,-0.442467566459965,-5.04454732980679,-2.17930042416447,-0.963609235591926,-0.989317790654233,-0.152784456569393,0.103211518332643,-1.60014303947453,0.0700340560047602,0.313386320941257
55.12,-2.13810252670144,1.18991964640295,-0.289970609859436,-1.58269286155701,-1.46055797307985,5.70793902773408,-1.21697006487752,0.412890951921108,-1.14179053301474,-5.15818629781374,-3.84770685997459,0.285774654089774,-0.725293358213637,-0.432433401610145,-0.403691705760845,-5.16688488909325,-2.14550657367858,-0.998611606088911,-0.997578063783263,-0.157368415095452,0.109352480696664,-1.5826198979967,0.0360414535856496,0.25108286334446
55.125,-2.19912206722811,1.15980116169591,-0.415470818644887,-1.58355627851252,-1.16418452195674,5.80328946808133,-1.21089817305476,0.408625641720135,-1.18083072024551,-5.4620050806828,-3.63003009778191,0.260262622576196,-0.755588495687818,-0.469071120703527,-0.34868869705378,-5.27407198958813,-2.0972801158169,-1.028500568557,-0.997671991889772,-0.160608219172245,0.11003419671312,-1.52343927732094,-0.0102875285743366,0.206546857288955
55.13,-2.2551027712445,1.10843756851759,-0.540145295193149,-1.60833207803241,-1.05626755342769,5.91629507784078,-1.20307867797723,0.38121304537819,-1.2025524001758,-5.68724162912052,-3.42102595776633,0.246792958906045,-0.812606087621164,-0.529289791084641,-0.279826229095254,-5.37270455006517,-2.0049110108578,-1.06738837497013,-1.00059825920075,-0.15605587914412,0.120568985298626,-1.48918120211256,-0.0687126151365829,0.189269983279577
55.135,-2.2841487415858,0.896881007623125,-0.657731537919969,-1.63287552135868,-0.477069202253848,6.01421206955576,-1.17853961720799,0.262307661655895,-1.20680204965441,-5.98869291530262,-3.15323237191873,0.212932435080877,-0.860327302327688,-0.546584486195214,-0.179744930559043,-5.40143394564377,-1.90818244205695,-1.08586251759228,-1.01041948751194,-0.149050210723089,0.117911359158871,-1.46879699410671,-0.121140709121348,0.228247328735512
55.14,-2.31685289131305,0.450912609520041,-0.695350084375075,-1.56283459707242,0.00820296805349224,6.22210735521867,-1.16855640541235,0.203762224519148,-1.2435178499049,-6.05923267989604,-2.92805687272411,0.167102553132875,-0.929285564775064,-0.530317434871438,-0.0383185570796329,-5.3544867054967,-1.80901199478407,-1.069265981188,-1.01077253562894,-0.135093813784734,0.120364767731715,-1.4949940710629,-0.158317311073747,0.268473015690965
55.145,-2.28346642261065,0.344879716100176,-0.651822098855495,-1.48303389353943,0.378918644266554,6.15840188142434,-1.15570992191198,0.166672015843376,-1.23003430813562,-5.86757411214629,-2.69432284233131,0.103138616378574,-0.985043940082114,-0.541071898303716,0.0714215695328382,-5.29330239422684,-1.71966190385331,-1.02480631012922,-1.01683369826688,-0.119249145156828,0.121668648170079,-1.52864277953674,-0.19839188146776,0.319843536903858
55.15,-2.30522035083895,0.408588204334996,-0.67628309209588,-1.54492684573754,0.781635599358954,5.88681565869178,-1.1178681286923,0.118178199086479,-1.26330283726984,-5.63156078066795,-2.47063634600609,0.0191485203557821,-1.01980395818884,-0.555331201379917,0.124339678151903,-5.28644418716431,-1.63005910399362,-0.973604711424532,-1.02818478244296,-0.10372206275469,0.12454584499506,-1.55490389861114,-0.224419229445098,0.344629503088781
55.155,-2.34918189868423,0.36212602391109,-0.710295724318323,-1.76759821653582,1.044953220412,5.62358527051259,-1.09060724287369,0.094121169312305,-1.29751711645263,-5.38160233599252,-2.2320361963643,-0.100637485250696,-1.04651582516111,-0.572311439632029,0.1521709208492,-5.31478408190537,-1.49472099236684,-0.877304004363817,-1.03519880839271,-0.0975365104368516,0.125161205550095,-1.59248777585653,-0.263456071902373,0.374539538529426
55.16,-2.36568369118067,0.192052343271372,-0.747435936130256,-1.9590010142824,1.26806155216054,5.31779989860204,-1.05797889369,0.0786226897270111,-1.29861735053966,-5.10285449815699,-1.91558521232231,-0.147631784886166,-1.03594199179917,-0.597418834816931,0.146951092124988,-5.27805487393721,-1.36517552513725,-0.775533730744141,-1.04060375680937,-0.0944445713755271,0.118993968300394,-1.610500280479,-0.294605107730467,0.388885442832517
55.165,-2.27627703800323,0.0167488824577569,-0.820865756633946,-2.03181323249677,1.48965303838605,4.95407917752218,-0.998135881332038,0.0673897779897344,-1.2783231116643,-4.76301676349318,-1.65811198675029,-0.116912078017763,-0.986728000828247,-0.625090779959242,0.150294798870845,-5.19393218637932,-1.16514288920952,-0.638818139221907,-1.0459891530239,-0.0955215694407908,0.113821433160253,-1.65428838091712,-0.31848301464475,0.396838188171387
55.17,-2.14077560467119,-0.126380148343026,-0.9142939454748,-1.93855364415391,1.71504386336258,4.61407663535591,-0.928185159656056,0.0653545250575403,-1.2311142836562,-4.43731456920805,-1.41046764798995,-0.0785190506376492,-0.918607419289076,-0.691506032113521,0.140213483321674,-5.14543128035414,-0.921794705433617,-0.529997544234931,-1.05376298970442,-0.0986285440251655,0.113960271124495,-1.67334139399735,-0.34143394399211,0.392010062462683
55.175,-1.97106250032714,-0.229558256927102,-1.00822513482309,-1.72807941611424,2.05124468086236,4.11162506028168,-0.856952627778091,0.0881968849140418,-1.17544790724961,-3.97438523006894,-1.08954176984227,-0.0245230889291534,-0.853635028088774,-0.679819594535811,0.263642046994917,-4.98072808708741,-0.623784998270545,-0.428567673934765,-1.04987280423308,-0.110147243538955,0.0994937429848641,-1.66552517514546,-0.345019696770341,0.407460428522769
55.18,-1.86699994595226,-0.257043072163922,-1.04130709862489,-1.58625259341302,2.32626851768645,3.66803432120604,-0.813737623838098,0.12613689037693,-1.1551871713098,-3.63193703543015,-0.840049140164909,0.0168972027460508,-0.776240817764176,-0.718054027140584,0.343722663338202,-4.7936398286752,-0.44887447279059,-0.343632861738516,-1.05180720703659,-0.119203062072568,0.098699123260478,-1.66420317476484,-0.354327682382562,0.422421315100186
55.185,-1.78851141314909,-0.259830992373219,-1.01481646264962,-1.44047343947271,2.59017573345175,3.20188473965514,-0.797736102400416,0.173924448758944,-1.11939757061176,-3.25200544681,-0.537719044135835,0.0616576404754734,-0.714804716130905,-0.736331722152277,0.43829945952878,-4.55386468965093,-0.253617781466289,-0.247616188465063,-1.04904376422807,-0.129858503764918,0.0868978896300313,-1.65298890325937,-0.365781013989002,0.420061207028747
55.19,-1.73357186680577,-0.269909452215653,-0.927916091338376,-1.26053520324655,2.88662162670021,2.63689380615766,-0.801692478903405,0.205323818223219,-1.06719269933374,-2.95633903843913,-0.288773360680102,0.105591862136117,-0.760057809582418,-0.716671340877477,0.53928797375465,-4.27266116212105,-0.226624970245455,-0.118256623118022,-1.03940595739367,-0.149649870425569,0.0851901527977187,-1.64175966823973,-0.37450740462147,0.411592964316339
55.195,-1.72908163768299,-0.250026132940794,-0.804132035451191,-1.10621502080832,3.11167889199739,2.1745643131433,-0.772557134108571,0.206750133264227,-1.01383881760126,-2.6550366093138,-0.0514577607766215,0.171373259906453,-0.55698981903151,-0.73489186440734,0.518191928121038,-4.02060263013871,-0.13853190427565,-0.133491932295353,-1.01828473373315,-0.179317773013306,0.0838735063557261,-1.59564391363681,-0.364276933645807,0.391936963345456
55.2,-1.84548179795774,0.0212256510034448,-0.468182852547713,-1.1037174434757,3.21329892720914,1.78022031720681,-0.774378968279439,0.178754986347454,-1.03284355261199,-2.41650747699278,0.216433241834613,0.235852784317249,-0.573667243555834,-0.738273144447444,0.528695228169377,-3.55003706320706,-0.0112905103858659,0.0780903010065244,-1.0003171099911,-0.183580238586291,0.0937579077193945,-1.55738867421215,-0.359367534028018,0.394396648813933
55.205,-2.21461651183685,0.414445319342923,0.229534282063511,-2.15151070610655,3.09299419975571,1.4082958530889,-0.74451839370011,0.173709180008215,-1.1508883884788,-2.287939166487,0.438161902182046,0.283659264099648,-0.573627826809502,-0.717314691425088,0.505032033161605,-3.22413189335195,0.0822847258203834,0.214746250156484,-0.98034097739621,-0.1885557037372,0.100882545431111,-1.54117148019894,-0.364576335640661,0.412480587324895
55.21,-2.54334779388214,0.165726456440542,1.20941725684882,-3.52873738067298,2.31726313858551,1.0911304168245,-0.694769734064347,0.189853393080364,-1.29193203922453,-2.15140935271738,0.733117004562378,0.349268232302211,-0.556630435138946,-0.723847214176448,0.42567681894982,-2.96605864863216,0.178170739895114,0.297676529875081,-0.94146181051196,-0.205412611581359,0.109240861892128,-1.53181024753615,-0.364880003487404,0.436945234170977
55.215,-2.74823255118948,-1.31882342797218,2.17331466554052,-4.33618225042056,0.0849491937677963,0.719489654272408,-0.657779509432624,0.16078441274716,-1.39643153947444,-2.17789171459375,1.03290365813158,0.373426777049624,-0.561753876406439,-0.659523298978725,0.287388064749185,-2.63298539193672,0.421030377274772,0.320082872256707,-0.916390498116789,-0.205256211744647,0.113660168948655,-1.54366592398472,-0.366990171058901,0.457053842826407
55.22,-2.5160163042176,-2.12188161167541,2.06839672998189,-1.07176734395956,-0.842279483200778,0.0573498134610655,-0.694214854167018,0.0755902296110093,-1.27616015699093,-2.26352998333698,1.29613406495096,0.40449807915032,-0.550518628761293,-0.572745210871487,0.129194060897536,-2.18703926393688,0.62117835147414,0.304897466261073,-0.894939430363649,-0.205919126099966,0.125667388093488,-1.56645993545963,-0.366059352693554,0.485311554279997
55.225,-1.63513383409102,-1.48475064294164,1.64425468962304,2.77406938679287,-1.00983898988953,-0.824172877393485,-0.833492631534719,-0.101129286678248,-0.967595885189961,-2.26585084845068,1.50189725513626,0.453807348020072,-0.512247597555539,-0.436821019146304,-0.0819836786634036,-1.47177124298139,0.94017799188217,0.261966808415464,-0.871908169761106,-0.201172521945283,0.139317451457219,-1.5903385083179,-0.370668169715982,0.509222462748293
55.23,-0.61406313756361,-0.375368817594859,0.884074552921827,3.19388920549467,-1.26069205422935,-1.18105404284907,-0.985076357562916,-0.371235992308679,-0.474228797644547,-1.86032177926094,1.50112448992186,0.465236384225554,-0.492010972279935,-0.33369487354247,-0.236583651629386,-1.01752263954586,1.16965716941094,0.245351467981122,-0.870676391334243,-0.19031911126519,0.149362612458213,-1.641133842259,-0.378220818332688,0.547922814951975
55.235,-0.262670322008037,0.617396035057991,0.773124492957436,2.90858977987969,-1.38775662711378,-1.23086400711371,-1.08837920312578,-0.470814678136229,-0.29539049780399,-1.15414301811831,1.42428005092599,0.399553590199353,-0.498787423891882,-0.296728360360791,-0.418339726403635,-0.532155214457352,1.49876626270092,0.283961482321866,-0.863114742452778,-0.177595129575111,0.158131194206795,-1.66730655678268,-0.364583837553124,0.567550407123145
55.24,-0.285370120094232,1.59245514390634,0.642648921411365,2.60613519532937,-1.20077385643755,-0.988644420414068,-1.17380630750512,-0.424780580019699,-0.195109342496332,-0.313869091647926,1.31684194410607,0.384154163412306,-0.517353918047763,-0.386200578655476,-0.595940030654983,-0.345159014225081,1.69295468721213,0.389778263181141,-0.867395800445686,-0.173018448438629,0.167739893918275,-1.67404355864867,-0.329564639209097,0.584938821700593
55.245,-0.513370161965802,1.70855779089013,0.492856489887444,2.38609672533028,-0.959358386563296,-0.577134097010871,-1.24554867948412,-0.38165618825926,-0.135755898971977,0.600724137143196,1.12747791559682,0.435004894392466,-0.583417229126256,-0.455141933991313,-0.879085387167457,-0.221465532906792,1.83638285111467,0.534690832131424,-0.881981138979182,-0.152708711906949,0.171312777619177,-1.68808529820762,-0.28882081317093,0.610629228827631
55.25,-0.644449079545619,1.00985444083565,0.64017723352179,2.19960613123364,-0.91041390615234,-0.249057029817061,-1.23702149068562,-0.338493446410686,-0.149564318113004,1.34359936057035,0.895630638474474,0.504345344247918,-0.68360872196813,-0.458707870581753,-1.02418774186015,0.116654775658046,1.94444532717092,0.672524246094356,-0.905508062091479,-0.135483268947926,0.168396926184422,-1.72191765170105,-0.257688965201623,0.642066780924552
55.255,-0.651248688449652,0.159205710597881,0.924676352641409,1.74601556089475,-0.968912072617402,-0.168258439040533,-1.0603792169542,-0.225069683005297,-0.193737265856347,1.97740781942848,0.609130768318311,0.607324481847877,-0.82440645408617,-0.40423690840573,-1.03108242861019,0.913903828973769,2.00847914394447,0.848471388112914,-0.919343941511386,-0.121160502285739,0.164579470495613,-1.74580172108336,-0.23628656405563,0.65980414463601
55.26,-0.635804158407301,-0.0082776555884916,1.0067481807427,1.57422272597359,-1.02518645211239,-0.295654111222261,-0.973924018533555,-0.141659708891242,-0.26447205258462,2.20315884350776,0.474563211111142,0.650366111238065,-1.03134028496118,-0.359824461705938,-0.91165564936831,1.63985252952039,2.00545703390453,1.02435686829507,-0.936968365220109,-0.0959302563924696,0.154897069430081,-1.76749619713027,-0.224375538543479,0.657673959326277
55.265,-0.635431540311847,0.160877048622628,0.935009715325873,1.41852456048678,-1.03369991883689,-0.433599268530524,-0.912124655512689,-0.0996500632438194,-0.2805256535472,2.29759946592849,0.424488627036943,0.667848408712701,-1.13399917784418,-0.287931165459988,-0.854268108496617,2.17463854806726,1.92515712865923,1.18868540442235,-0.944240064179033,-0.0854296692059286,0.145327753822816,-1.76993622067342,-0.210614971480775,0.65095067024231
55.27,-0.665305633917368,0.503146660494252,0.727566648960054,1.16107356010914,-1.00284341679715,-0.438314473140917,-0.96272676071385,-0.0672055778788685,-0.249643927907952,2.25755690351565,0.460545874588284,0.671552002429962,-1.28324146029552,-0.126727145280403,-0.751141760869182,2.54150275519391,1.81158851284376,1.3865600966213,-0.961841914570561,-0.0724474795544116,0.118998672201346,-1.75660821888859,-0.196375937203714,0.654584654784315
55.275,-0.686657392338777,0.736188152936108,0.617908967165657,0.57255182253238,-0.876124494195589,-0.301873740729077,-1.09132991442901,0.062048951775236,-0.232357319047908,2.04406983545234,0.448251560182507,0.64562017139214,-1.20686843425493,-0.0230853424127157,-0.712604720530142,2.70896888638615,1.85279081962884,1.51454430288047,-0.976253989936556,-0.0495866014959768,0.113231990093512,-1.73512606480209,-0.195356687043242,0.650339957914444
55.28,-0.585293105194205,0.555805682341198,0.68515051496567,0.15123171218113,-0.759839817562563,-0.191533675751691,-1.27369404348057,0.284106879632501,-0.22486172613796,1.59167807543197,0.483130002439624,0.574230893701434,-1.39619002367747,0.131075840711818,-0.640708810247107,2.6146559476547,1.65802423722239,1.56753982484718,-0.989075265013585,-0.0402356252062802,0.0977691502383039,-1.69984789609569,-0.157403844273839,0.613968808352716
55.285,-0.504339246529153,0.306080295948213,0.892372082702572,-0.119410482810506,-0.633499912592523,-0.120016327881472,-1.36702911667048,0.45354697046063,-0.209502342394928,0.980349057633427,0.479645455868946,0.507793665676302,-1.36883845412589,0.24955202952804,-0.593739983547765,2.3138924830673,1.42265270670057,1.5281212479681,-1.02361752861711,-0.0348876109838766,0.0883990615263512,-1.66981617494259,-0.117223778660294,0.556072094981353
55.29,-0.463074241264308,0.221156532191781,0.9579773922898,-0.226988793507536,-0.558195438790428,-0.104543874741281,-1.42796339321832,0.455348514681433,-0.167005290502327,-0.107339475747381,0.51681297178708,0.440384406501557,-1.31808019441195,0.336010835709004,-0.55796789234991,1.81795758041875,1.47309346944002,1.5030721468238,-1.05740381799375,-0.0383901299006085,0.065186019868408,-1.62864688715097,-0.0986993695522332,0.556785281403076
55.295,-0.464537803974437,0.284009306360807,0.888000126814855,-0.236204742320142,-0.478640228932636,-0.0797806084631574,-1.31751275246938,0.259937516199681,-0.116877816918022,-1.01991162135575,0.521485026468555,0.370773814324489,-1.34621265461103,0.319891895234693,-0.394517797005172,1.01842030055639,1.47418326034975,1.41408323841217,-1.06452732176105,-0.0216680756444704,0.0704196180663819,-1.57885865790597,-0.0738948964346052,0.507699062817976
55.3,-0.506742409486726,0.338626153585441,0.834559043532685,-0.278722760944934,-0.374052195176727,-0.00578114118127998,-1.25894546068391,0.0445331411020016,-0.0827778091967314,-1.75607535884983,0.579238812472735,0.34722370480153,-1.22224190022305,0.277617193814192,-0.332677275492953,0.21950197178803,1.30654105225888,1.19821088711742,-1.08301410067358,-0.00390638479008796,0.0662028002233776,-1.46348166213203,-0.0368240303272687,0.509841542327767
55.305,-0.508406164489927,0.315623160128258,0.838809741271107,-0.306974011164198,-0.293028770791219,0.0690532082199819,-1.16729725452529,-0.153770222952208,-0.0615126891195037,-2.30009320064026,0.606291240060266,0.371290722000877,-1.1886239440646,0.183449942721644,-0.330795711559291,-0.638988056121561,1.01358320472311,0.829716225439409,-1.10118592743739,-0.042365520890707,0.0655203268205338,-1.30133850883739,-0.0218636191606533,0.667905154903679
55.31,-0.502004492180737,0.273723717212049,0.867112628056518,-0.305339221876808,-0.216221180704426,0.159243231353495,-1.0888433089827,-0.277214736861019,-0.0645847281715818,-2.52600102465515,0.60184181175782,0.391306925912418,-1.101880248329,-0.0248462192457751,-0.365222820916198,-1.48180606836381,0.76383820876768,0.563626227391487,-1.1187833526394,-0.044954667410512,0.0510734480044035,-1.36783865367916,-0.00465958425584101,0.642319764786602
55.315,-0.466606325817431,0.244681582140597,0.880298840526045,-0.239609969262211,-0.16288033881702,0.230709295891617,-1.06185629858531,-0.343058821287296,-0.0876655489238218,-2.56746336929932,0.572431516298852,0.388939099492796,-1.02725631804424,-0.198790098179848,-0.392602883751953,-2.05135858341606,0.690851193794768,0.435292691822251,-1.09634799021553,-0.00506422601011266,0.0335394193178837,-1.55491991118872,-0.00665119699940052,0.464133061864632
55.32,-0.484830141899319,0.254878842630979,0.854083909767613,-0.177286730503936,-0.119627360441241,0.293029355205064,-1.06165625851731,-0.345596904068219,-0.125675939110611,-2.52242711892394,0.523560538603123,0.367203504115913,-1.01481495073959,-0.367730914776343,-0.371677716605158,-2.39836464563476,0.580719778470077,0.310450663896944,-1.10362062527675,0.00281128670449813,0.022318081310134,-1.55616115408879,0.0631243615188173,0.385871894888602
55.325,-0.498318764225378,0.276520590410866,0.839313440830975,-0.124526131318242,-0.0795604966256225,0.35561862494321,-1.06585859102868,-0.329875601557111,-0.152074168547345,-2.38802899972533,0.473378678843764,0.357912612378532,-1.02683213718781,-0.523705923987736,-0.349147957861528,-2.52847281289901,0.445791742972325,0.166007147752372,-1.10566501966977,0.010271882844915,0.0127687407175569,-1.56382388958102,0.142620494996357,0.372675648221454
55.33,-0.488828258615092,0.283122481914038,0.840026575205841,-0.0744737040581005,-0.0495426816335152,0.400863737915518,-1.06509423858599,-0.307727922372633,-0.179058924888212,-2.1294924566804,0.442282505423003,0.368167392486651,-1.03462553200889,-0.605826444136062,-0.334949069759193,-2.48488899564366,0.278127793797193,-0.0228760602220827,-1.09770509854102,0.0209943820080596,0.00858126778134657,-1.56108425929352,0.148316849955924,0.354211204776795
55.335,-0.484181156081082,0.297190848221145,0.843643604107044,-0.0270016199000082,-0.0354021139192813,0.427974022316669,-1.06847952824052,-0.279842774286005,-0.177722977711307,-1.84367529332472,0.377383457411652,0.381001119611378,-1.00842473741597,-0.689814826513376,-0.352177899630261,-2.24666145462403,0.130535107929447,-0.197848375021664,-1.1179019965794,0.0444125367137779,0.0130027586831084,-1.49656884989737,0.111397435473392,0.339788107556392
55.34,-0.467853293605484,0.334629107012316,0.834467691612308,0.021380063704436,-0.0123867290744034,0.441080130136892,-1.06937827608312,-0.239046941103153,-0.169348563848027,-1.48398337046257,0.318959921596194,0.422438976140066,-1.00917686703497,-0.669947372385209,-0.340374210119151,-1.99722329815134,0.0664627037541309,-0.263144129125072,-1.12580900846627,0.0496180245396268,0.0261487577720192,-1.41804539798519,0.0639188174567259,0.357148052386868
55.345,-0.449882271148671,0.374011104772424,0.825865382034595,0.0523913152102868,0.00498790792516754,0.439921948792198,-1.06659315703195,-0.192708386910438,-0.158168147865673,-1.16257643633788,0.261673744978523,0.453912829902594,-1.03480160112992,-0.581393096404248,-0.323365384171967,-1.61061517616433,-0.106005067355052,-0.276611015530594,-1.1160716496316,0.0521236832645918,0.0455734302745593,-1.33666558008057,-0.00649254335053898,0.358057994786907
55.35,-0.445277328124884,0.383019758148539,0.819425874974831,0.0719095324168251,0.0169496426050561,0.407863171356676,-1.05901968367628,-0.111427751877117,-0.154146439164271,-0.766056962485438,0.190555529819267,0.484421751708342,-1.03293089989609,-0.448601686183431,-0.31714572371091,-1.27083149141039,-0.29347553677392,-0.218308821961554,-1.11132409348459,0.0528654319900871,0.0636252832788769,-1.28768188856809,-0.063914129233663,0.325106392602707
55.355,-0.430283539585724,0.391826038665871,0.819485879355365,0.0742408037233717,0.0224658657346842,0.383322685928126,-1.03283280215409,-0.0321373157077625,-0.148077226853425,-0.466989909918707,0.133850928691829,0.514895317270199,-1.00720967057022,-0.316241165800011,-0.286344932387732,-1.00238117120575,-0.351963869493055,-0.160033254892022,-1.09782647397746,0.0464567884505101,0.0793143530393269,-1.25867742791621,-0.123568073611573,0.291171421224187
55.36,-0.428544356994979,0.388775317873147,0.813970609174963,0.0783657962975864,0.0141575701423257,0.332448725716602,-1.00868448275364,0.0318752180773217,-0.133643674256616,-0.232989562305803,0.091587548360969,0.530043022438817,-0.933447302671576,-0.203560869689772,-0.281975484626236,-0.719257898581309,-0.30200333598792,-0.0782313009224326,-1.07141011578364,0.0567934678654307,0.0904766642110421,-1.21090057122642,-0.157828004458007,0.266088427900099
55.365,-0.423104749541014,0.387103661735003,0.807284135110614,0.0737791269822939,0.001926448761822,0.280343659764431,-0.996968936195219,0.0830566116403009,-0.1198563949372,-0.0576943043981751,0.049545015863686,0.546282396059775,-0.992146823435658,-0.100316140150598,-0.284012284769735,-0.568804710096387,-0.356435046217775,-0.0110736694108545,-1.0460782548067,0.0552715980645051,0.0999530393202221,-1.17984537479173,-0.173687068137213,0.262147991845375
55.37,-0.415531248262544,0.390031619064634,0.807790396497853,0.0615694292448504,0.00351057404627672,0.233313170327496,-0.985653590362015,0.10106524790334,-0.0888602983624347,0.0915169654556865,0.0113867069256628,0.552795472566462,-0.85061143435308,-0.122242103681347,-0.2975919010322,-0.381638007195753,-0.285946428079322,-0.0725184517714172,-1.03271120204174,0.0700593128311035,0.116374350267506,-1.15501332485704,-0.182610227165602,0.210663033703863
55.375,-0.415810611728459,0.396992368517072,0.800070888348742,0.0454615452449574,-0.00440754361887527,0.183858514315705,-0.996434237424526,0.119411497780054,-0.0747708049456073,0.195068117070367,-0.00830584893359849,0.558682913200229,-0.8434492501281,-0.0758210174592923,-0.220102660949916,-0.268956871541964,-0.111600991919362,-0.0981513033028051,-1.00902518743905,0.0600227469334792,0.122486486656293,-1.12126719024272,-0.185637201965069,0.216616336989562
55.38,-0.408141694353785,0.398874991331267,0.799614505419166,0.0243724601111173,-0.0039365879973671,0.14072567252425,-1.00739155461829,0.135997816179339,-0.0616322092963747,0.276527930881811,-0.0230427928941985,0.545296370282519,-0.881483138908868,-0.0679051498952814,-0.163123161103468,-0.0956171029067854,-0.0439296596301006,-0.199410354846005,-0.992345968633511,0.0637391818999349,0.132727650042596,-1.10172750127005,-0.148765177995923,0.2361012390493
55.385,-0.41577474598263,0.400723218676488,0.796424346231673,0.00864422742845411,-0.0184447097773944,0.102308625792454,-1.00754911704816,0.171604707951893,-0.0470599461219482,0.304039430662351,-0.0366811802717815,0.523644710231145,-0.909022780756431,-0.0321467310982919,-0.138773879911356,0.106187388127904,-0.0659197151100464,-0.364773927018125,-0.984245585581979,0.057355094955535,0.140467981966188,-1.07945339886201,-0.0916920261708447,0.260260315740945
55.39,-0.419179449127003,0.399987065555733,0.795906608627913,-0.0165416448175913,-0.0240261364625384,0.0573599571403872,-1.00045068527717,0.192880693071326,-0.0322365476605624,0.284338260665036,-0.0365566979082171,0.503513548301308,-0.918244555215156,0.0217423047933602,-0.139561221968718,0.210978153359284,0.0431844232714283,-0.469167726018763,-0.985145077283134,0.0495723882458307,0.140852560570173,-1.06633541454707,-0.0511933724342843,0.290273229262693
55.395,-0.424482519151815,0.391863007639604,0.789725128715167,-0.0288635206435717,-0.0414960420489435,0.0447811172629416,-0.982063592014148,0.203316840025543,-0.0235099252089476,0.164757821961308,-0.0137940938169681,0.476303866917372,-0.9669135029834,0.0978829115518646,-0.102464502182804,0.133445536156124,0.213377485524246,-0.497515895379295,-0.982261082656588,0.0367128238921781,0.13637481076421,-1.03761584789514,-0.0229202475074186,0.291427755202059
55.4,-0.425328614712614,0.390722360375167,0.792288239850175,-0.0468072101602056,-0.0424805134534836,0.0173227990246873,-0.980996985869361,0.211090466216252,-0.0176754331902721,0.0373319523148129,0.0150485295861684,0.460429610435856,-0.999765284011046,0.171448987420281,-0.086543397174973,-0.0904360538707978,0.369482636399175,-0.457596914146648,-0.989112853766716,0.0232943811883736,0.133596367665226,-1.0179871675421,0.0290372588778483,0.299722504908923
55.405,-0.431573179345411,0.374393829555582,0.798628599022557,-0.0588755223262035,-0.0408301552161653,0.0117766077789733,-0.978472841824126,0.209465558303449,-0.0236852509681273,-0.176604698931901,0.0477377944427615,0.44036806459684,-1.00744680779874,0.196337749128329,-0.0725404373675159,-0.356934041617373,0.491019086647046,-0.351777731961908,-0.999628519957818,0.0240123908895387,0.123423516310748,-1.00710052861101,0.0648751354184995,0.288149718835095
55.41,-0.448406804580967,0.355368407532448,0.808555831735913,-0.069626910911606,-0.0274347897132569,0.00794309264508649,-0.975945232056456,0.210804274249561,-0.0278502911402635,-0.324740637343044,0.0737537217466327,0.424066579946437,-1.04429546605477,0.177513724362137,-0.036607224180186,-0.752377873258072,0.557408836176774,-0.188194059690704,-1.01479633973096,0.00974248998117884,0.0996349018589678,-1.02913121643839,0.107295440274203,0.272436764962616
55.415,-0.426356438127494,0.431951029628049,0.825283978673071,-0.0685625931485878,-0.0370483233236691,0.0133253481573204,-0.968877459423706,0.212938019737003,-0.0354089144392542,-0.572225274809653,0.103032084121131,0.385308350368078,-1.06453365364999,0.127071577338896,-0.0291719821931759,-1.06876780154233,0.523794581805793,-0.114114922046472,-1.01001523723293,0.011313448203551,0.0909076592806619,-1.06073709459269,0.145478183465194,0.260317560651595
55.42,-0.362505694803081,0.562606807948151,0.922940333992178,0.177728136894943,0.0690083947891592,0.0514389194457159,-1.00721865943484,-0.00267330110624234,-0.0285354540272055,-0.553717933984671,0.0498850399401275,0.417338389906998,-1.03729302445393,0.0897502054900641,-0.0183968546298958,-1.3221890100486,0.442862026459885,-0.103074644329297,-0.996803128794945,0.00823964978340352,0.0801994113718563,-1.07416853930529,0.168969676124454,0.262429427485532
55.425,-0.324160553986916,0.356169954554572,0.864853637318716,0.259841739607833,-0.0447045271863715,0.0825837765550737,-0.952776650157579,-0.152245822247685,-0.100769636993888,-0.470110458537316,0.0466565735178034,0.376509124099632,-1.07479242299247,0.0310879645595311,-0.123181572246092,-1.44587056004366,0.250201222198019,-0.170277166086824,-0.991982712935731,0.0295263983223531,0.0676675051987829,-1.07388502520727,0.190693517242148,0.280159942682512
55.43,-0.388138179536991,0.324092985759247,0.794141881094167,-0.021144180745139,-0.144976316907131,-0.0108151726412578,-0.956764379639502,0.212264542412765,-0.163022475914079,-0.88823781785506,0.311271243008877,0.104018722661206,-1.0021029647902,-0.0586116434912116,0.00161814506592454,-1.73892884997968,0.434115373119065,-0.0421055464056196,-0.975932192783083,0.0335596610957436,0.0649658424391209,-1.09284315770505,0.217567867455334,0.304929864655083
55.435,-0.484386943456099,0.331936739647271,0.8321006419831,0.120003526490775,0.0561633577994285,0.0315181189210073,-1.04021321993846,0.190084111050349,0.00234439109032893,-1.08614870132895,0.3342428893067,0.179739620790266,-1.18691209910945,-0.095459659609434,-0.0644835086968584,-1.77162686500354,0.029191402067882,-0.0395171516843994,-0.965708812035376,0.0495743039409797,0.064679512279657,-1.11389327049255,0.242342375301021,0.335172215503893
55.44,-0.420626619696341,0.338305863466673,0.799773444210919,-0.0674187807296535,-0.0824347098930875,0.0107080199876342,-1.10315431450207,-0.00246198638220402,-0.0257858324032679,-0.925943150960507,0.0245543074733527,0.346247617191547,-1.06635573311317,-0.221684638422131,-0.0627531059385917,-1.57545552812787,-0.107928684584453,-0.20995265133358,-0.959099955304412,0.0567038760984024,0.0646254523479892,-1.09920293305923,0.261873194837754,0.36448951621005
55.445,-0.426243069513945,0.335280499579031,0.807367298804256,-0.0609794403788712,0.0278596548623808,0.00289039382312801,-1.00582668248146,-0.0391086327761901,-0.0956003706501681,-0.762755054667715,-0.081569162616162,0.342137257883808,-1.01048476694258,-0.224167160974724,-0.1081828523917,-1.5108406767722,-0.279720689951625,-0.318475119988837,-0.954092827846867,0.0600224638419502,0.0670452152015245,-1.08365892996328,0.278627442398802,0.389168547669188
55.45,-0.467460035015339,0.341626962178563,0.810186436388627,-0.116377418220057,-0.00668721408524533,-0.0053954467555374,-0.981888039926487,0.0926914551711811,-0.11375185648689,-0.926233826742283,0.098649622862188,0.236100431671933,-0.970945851380065,-0.132139304821665,-0.124995374454509,-1.5489301227225,-0.0979239850147228,-0.277082543992439,-0.944283911751888,0.0614297517444125,0.0768855843025882,-1.08093847527653,0.300724831319819,0.391966917208832
55.455,-0.421247852372635,0.354035621895919,0.808558154208762,-0.172197340070038,-0.0461834790296943,-0.00969985134590282,-0.998190541051591,0.0524973071663542,-0.0775657288622843,-0.884263019267014,0.137880265783883,0.26551187150905,-1.0134013026984,-0.174527927701803,-0.137577033566798,-1.46013810622372,-0.162259462237447,-0.194523606841485,-0.947922511333735,0.0708266135163063,0.0855187193915689,-1.04028143934573,0.332721471786499,0.411196730292544
55.46,-0.43192286562826,0.357204715586127,0.804637014541104,-0.191939690825639,-0.00840281760801362,-0.0246652961855722,-1.02933690703189,0.014775315684186,-0.0989622531180986,-0.776334427465436,0.0311053549289173,0.31687196263812,-0.958331447100899,-0.240696102344654,-0.126512596018279,-1.2781597491417,-0.193646082452081,-0.21954383045851,-0.946523053625506,0.0675799362966407,0.0912396168190895,-1.01877363350891,0.334844044589733,0.42079084272657
55.465,-0.455865608649132,0.359084209283606,0.796352014138591,-0.199365020117124,-0.00327912959500731,-0.0296270438056843,-0.972281508335727,0.0198766844835513,-0.098241369581491,-0.627624292219609,-0.021534603638729,0.316624873906394,-0.932848312363103,-0.246944642388416,-0.141131253392727,-1.1544604084421,-0.214218632545125,-0.280576492108411,-0.946889533756123,0.0738397016006362,0.0985062801264395,-0.993161129258062,0.341081672046522,0.425631851229736
55.47,-0.434018300463038,0.358002784614808,0.810166160984632,-0.209412156373488,-0.037401409837319,-0.0347300715192542,-0.955916663594348,0.0368540904822013,-0.104946351560134,-0.490056814273904,0.0797681266528867,0.290628628169424,-0.936230655392109,-0.19630686129027,-0.178672571517922,-1.08491647375984,-0.171319403798689,-0.262933293349129,-0.956807888160475,0.0711293858626846,0.111030857547266,-0.957374769389628,0.346990324352713,0.430523644680028
55.475,-0.430033794319029,0.352341100417209,0.805635795572795,-0.209563147937495,-0.0268068493300675,-0.0350662308327018,-1.00195429396644,0.0709051086271276,-0.0971672242502379,-0.433299690226201,0.0964648660491365,0.294116015168801,-0.918332867704465,-0.203845245515342,-0.214685857564572,-1.06112090003551,-0.110357522487536,-0.189522450230159,-0.954535699597281,0.0702158980905843,0.121040708942725,-0.931629477696877,0.364872994197231,0.432364204166198
55.48,-0.43739794549563,0.348684194637081,0.809274600470144,-0.176047839723256,-0.0274466981479391,-0.0430359309107518,-1.00189040866669,0.0699506054724654,-0.0856597009726943,-0.388083766462792,0.0545766270315923,0.299035567428121,-0.933961344235653,-0.254782468747432,-0.233321721400762,-0.938903025828453,-0.0486554091387251,-0.0536593944703208,-0.944554127006106,0.0660546217482466,0.123046134895275,-0.88508631647725,0.377302948024921,0.434987454071368
55.485,-0.431414017385963,0.353617208573885,0.810562512483903,-0.140077514835875,-0.0351820081153747,-0.0534330338085055,-0.984871232269491,0.0800511673288865,-0.0999635050559262,-0.334272610828302,0.0474971268773437,0.281399356523911,-0.93458690471167,-0.270165136994908,-0.241228597728316,-0.829833401899148,0.000728296941362611,-0.0149266276795034,-0.941418018074964,0.0643403039005011,0.132235021806914,-0.834403714282459,0.388360983502924,0.437922166330426
55.49,-0.436032874295064,0.349586628074577,0.810880942729588,-0.111377233393289,-0.0372114193433566,-0.0574918469967708,-0.980989312767296,0.106324828994875,-0.126048144314857,-0.287739817867542,0.0936950844611462,0.263690506359736,-0.913764122598641,-0.248222254639715,-0.266164272416725,-0.681201400001331,0.0591748363031744,0.0282704873533453,-0.956719575665302,0.053666519667936,0.136417853155959,-0.784879180950305,0.397691099458777,0.433018761453312
55.495,-0.448268396895345,0.346104963303951,0.813883227248187,-0.0681961749268336,-0.0470223563591782,-0.0689068121853004,-0.985496084353333,0.107944041578987,-0.135777625902748,-0.261658423938557,0.130807267675463,0.246586181359178,-0.897944190264065,-0.239215261710365,-0.273430530223478,-0.551398061931584,0.0968940855540156,0.0753058125347071,-0.954084406998018,0.0485504972131793,0.145846245731326,-0.760012728889267,0.403579771518707,0.424789748196248
55.5,-0.445163393149064,0.339663992703152,0.811461707168227,-0.0425867236699914,-0.0542469040010119,-0.0688618110705275,-0.992659667483637,0.0897919175641559,-0.135552214692845,-0.257322640732628,0.131002888909532,0.232886704080853,-0.89645619419197,-0.229847851058084,-0.255653829610133,-0.38376567271088,0.116508007049561,0.0906764370815433,-0.973665208701302,0.0459499462758624,0.15040830651076,-0.715098165366909,0.405055079990284,0.417607009410858
55.505,-0.451627850282631,0.344997149349012,0.814000037230028,-0.0212959644843628,-0.049613205046202,-0.0776061358572173,-0.995043553601034,0.0689518333788222,-0.128292355858021,-0.195577500917403,0.123788207769394,0.213998010759896,-0.891874456496612,-0.248328403976251,-0.254466882720384,-0.194919318283492,0.114214185169685,0.107143027444598,-0.990709509537304,0.0387710553374186,0.156409490813006,-0.694481417716962,0.400164364684704,0.410526512969616
55.51,-0.443690370444524,0.344383549971364,0.815108995023337,0.00876179360219324,-0.0420235052911473,-0.069049626766567,-1.00094817115499,0.0616251923736037,-0.124388773015191,-0.149677058520792,0.136666675115073,0.189014299474669,-0.901407328026746,-0.232963502814991,-0.269863543940733,-0.0743063537648965,0.102808052104104,0.0897947637253886,-1.00403717547218,0.031389133453861,0.154781985299799,-0.669128830302095,0.39624959230423,0.406611740589142
55.515,-0.441610543747041,0.328213756487268,0.809589248369886,0.00249920103643265,-0.0515997177758675,-0.0691790389889076,-1.01317363231043,0.0750926812843113,-0.125371546697061,-0.169910523776741,0.146643439045004,0.205075016069128,-0.909836055098714,-0.202847435639619,-0.288897970786074,0.0553537727322986,0.120904804327012,0.0656992102210442,-1.02391805068484,0.0274450380917167,0.158936837152571,-0.638980688287929,0.393894072603562,0.392558121902744
55.52,-0.447321100281993,0.331248834085597,0.817623651229569,0.00745693850151891,-0.0443971359871723,-0.0670069065278039,-1.01596879705434,0.0787148990713852,-0.13432041600554,-0.185751623258252,0.118710570589927,0.201560040116802,-0.935399542141742,-0.187349060715957,-0.297989264085092,0.106769726155892,0.142141825529361,0.06793469223614,-1.04901645414968,0.0304435240901897,0.155625871057711,-0.597786222687502,0.394978130528586,0.384969689982625
55.525,-0.449097972611904,0.33696942738102,0.818011842910458,-0.00359245396946673,-0.0512561071512001,-0.0638659859628622,-1.01250211027222,0.0815725909847861,-0.140523781491399,-0.207926623644293,0.0901353398881997,0.190204381942749,-0.938073113888442,-0.175350693790412,-0.317430314486867,0.147355223916287,0.153025864562755,0.0565090708894341,-1.05446743244717,0.0325834915202361,0.161707081481349,-0.574925435206901,0.383668007029063,0.375011826929355
55.53,-0.448477278896284,0.336395796867046,0.818141662615993,-0.021717291077866,-0.0575667524891379,-0.0640050611744559,-1.00374059676591,0.0776774637369772,-0.139313726253255,-0.251112749672549,0.0808848824725066,0.20076756734023,-0.95423263026945,-0.168113166639201,-0.318164393630895,0.168842112927029,0.144485793358203,0.058615626119656,-1.06753428240827,0.0398569771890603,0.161833483714807,-0.523565661953493,0.362375629923104,0.350775138552625
55.535,-0.448360128527984,0.333141580554413,0.81944312194718,-0.035496705336488,-0.0573684237406159,-0.0574899328729906,-1.00144927979313,0.0657932599432311,-0.140373148088176,-0.290541877617208,0.0602878782467723,0.207176589701862,-0.959956530874144,-0.154392287781875,-0.324817120519999,0.182777854294624,0.12082461239343,0.0677615428875344,-1.07102809115187,0.0526811889368217,0.15700437129585,-0.499657328739338,0.342821792568484,0.329971746410647
55.54,-0.449583785310112,0.327217351816078,0.824119437588108,-0.0597402475035773,-0.0364445356710816,-0.0563169844895179,-1.00592087655226,0.0557219491624255,-0.14142747482235,-0.287848634884372,0.0242215916303718,0.199129632793672,-0.950857718124514,-0.13690888965451,-0.323010678960042,0.196201429428389,0.0878802498475871,0.0855658931019971,-1.07260144496877,0.0656839026047864,0.14852825372471,-0.474032743733822,0.300431021492599,0.313397283341508
55.545,-0.456467166960548,0.330786362557371,0.819101959828742,-0.0854032925715598,-0.0280078489593645,-0.0455317260525128,-1.01600197286614,0.0591573612128857,-0.154169160329936,-0.303164159983568,-0.017073574494206,0.201975922649965,-0.949461259248448,-0.125247368039563,-0.314280394005823,0.186114333926132,0.0724339405401214,0.108003323709673,-1.07335131507942,0.0764267325776079,0.14625793828968,-0.441248268889659,0.265554419863474,0.302511224670646
55.55,-0.459953851423434,0.316038943462138,0.812382329568446,-0.108081497543527,-0.0196353411519,-0.0412261759010387,-1.02430171520209,0.0743989006041628,-0.149166076316364,-0.349967887875401,-0.0380064398567778,0.216453738228458,-0.942666785990186,-0.108278115380484,-0.30298593903401,0.127216503302399,0.09496207521352,0.143033519032672,-1.07177197884824,0.0956892561885167,0.143807441800532,-0.414110683732284,0.237715969959993,0.282266499039791
55.555,-0.455070259636765,0.324365508865052,0.818747504920612,-0.116902552745595,-0.00655873027753045,-0.0311361981493814,-1.02349149098344,0.051950188161454,-0.121980242455565,-0.372476680390089,-0.0787690067682259,0.219783640520545,-0.94482402045168,-0.101422317677916,-0.30340443883025,0.038402680697555,0.104869984509209,0.204222760031683,-1.06492666995506,0.0985836444447767,0.149989440805488,-0.394907535553265,0.210522527292773,0.26913055349966
55.56,-0.450282008782917,0.321442301199633,0.824512537304453,-0.11788122355938,-0.00673573019310761,-0.0240876461669363,-1.02385297836961,0.0440802783305012,-0.13062656741785,-0.371226219459436,-0.112939742088261,0.214523229513512,-0.947072668459194,-0.108924344420934,-0.293337938634708,-0.0277569597025458,0.11152326825477,0.23584041609684,-1.06831847558138,0.108211651147054,0.149657725780551,-0.384530907771595,0.187881358432443,0.240386653297157
55.565,-0.454203113441096,0.319717283966222,0.823571586622464,-0.122145149002733,-0.0127669186157676,-0.00477989997479704,-1.00980527577697,0.0491367336160987,-0.138290095411987,-0.382144393876158,-0.139848170898191,0.222392061617198,-0.955615238503054,-0.112299389401553,-0.282161237481125,-0.115226865774914,0.112902125260654,0.249137384684391,-1.06046649901988,0.103190467188261,0.154273950273184,-0.382400672613108,0.179090473602553,0.219040696240953
55.57,-0.455604245105143,0.318625851358095,0.822997914659635,-0.121669018857609,0.00406121789115274,0.000384842045605183,-0.998595868550244,0.0433335262897504,-0.137131587618286,-0.377797562602671,-0.137847952920564,0.225585149212071,-0.965650463978229,-0.115049377443318,-0.278953708279694,-0.190797014994655,0.105644016726769,0.250098049640656,-1.05570686049042,0.103908519161296,0.157466727584975,-0.373627833854653,0.152166841570983,0.196654936201416
55.575,-0.446321218710192,0.331015590508829,0.816125529788764,-0.0996489113023549,0.00445415836321423,0.00924585852998734,-0.998273534201884,0.0466037316985753,-0.124641196904328,-0.349502722819081,-0.132235149395505,0.211286655206714,-0.964590276282409,-0.129241290022711,-0.289149239502157,-0.285525827158121,0.0798571705818176,0.221766312171117,-1.05410762626117,0.105237939040871,0.160410516327161,-0.369263205282827,0.134749469336328,0.186972640367106
55.58,-0.447090966680327,0.331416744274738,0.817946790260377,-0.0782954310116976,0.00750465386342705,0.0144864810966864,-0.999533107922358,0.0470234602681834,-0.114978759146693,-0.315110909422032,-0.132616731257359,0.200204293830514,-0.964400226174326,-0.138542637253718,-0.293629674949685,-0.354210566467902,0.0625672659998026,0.206380648881595,-1.04241948446361,0.0998467532634544,0.162215849394998,-0.36621899182392,0.115880635566973,0.172667187638545
55.585,-0.448699384497038,0.328278868310925,0.819611199985475,-0.0474808799150958,0.00624674458785791,0.0138234822079539,-1.00393259114384,0.048868950786866,-0.11887737174823,-0.260675527629169,-0.133462111091291,0.19281504042084,-0.95799728595724,-0.144374762155616,-0.291020241950717,-0.435195439913992,0.023736993423893,0.190623765274751,-1.02792997946067,0.0898936250192555,0.163360459125823,-0.349435811049363,0.104273054137961,0.157398750089311
55.59,-0.449385166139892,0.319104268357209,0.818253848483771,-0.0256977579480137,0.012132834425154,0.0231131732219223,-0.998869664779814,0.0503413261989437,-0.126412540660314,-0.22561583358577,-0.149233295880704,0.18319325180702,-0.959052082821253,-0.140801382936009,-0.284229316528413,-0.49294255926132,-0.0208399465618134,0.185416340738271,-1.02079988846416,0.0917680495536331,0.168179113857222,-0.340587775524168,0.0702930605724135,0.145232637421011
55.595,-0.453394046238894,0.323873697237151,0.820077287036285,-0.00105545045142703,0.0151736824870294,0.0294709497108906,-0.994691951443222,0.0417640724881234,-0.119864423398554,-0.169225399324166,-0.159644916653633,0.18245107245743,-0.949194923557492,-0.14729662136558,-0.272458853666107,-0.570487615547235,-0.100258362125235,0.188018068823684,-1.0175408434166,0.0808253090457945,0.173453557686626,-0.324998508869452,0.0337421462525155,0.128998859042357
55.6,-0.45120581903427,0.323077461851748,0.819894485438029,0.0138247416929994,0.0140319728045533,0.0366801167783777,-0.997376015011037,0.0415559727522246,-0.114930783630857,-0.142292118415172,-0.164885199568893,0.187064369072898,-0.939499200018166,-0.150850299108368,-0.26530409213954,-0.617897161137834,-0.162083487078268,0.188515638538802,-1.00454627630364,0.0737633754477906,0.176854834648717,-0.311847696346691,-0.00326042598326049,0.106063890655851
55.605,-0.452347070809674,0.330290582448983,0.817041919370625,0.0173649614997343,0.0139433539121805,0.0458594976053449,-1.00104261172772,0.0520866979252467,-0.109198729948307,-0.104564033311653,-0.19112598457816,0.179185129287777,-0.931263574611342,-0.149601153378098,-0.267458538545968,-0.661656034805315,-0.209327904459165,0.194065474098934,-0.99887874620785,0.0699874789459564,0.185149619985455,-0.303273383829598,-0.038457507944999,0.0895565248575823
55.61,-0.449393485725625,0.327310038759519,0.818605669672576,0.0154296359930419,0.0205360415468876,0.0514767744559277,-1.00148376983762,0.0602050372188201,-0.108410704160734,-0.0976433169314735,-0.197565395107789,0.186107711113359,-0.932222123495743,-0.142375009263189,-0.262640496254347,-0.702007573844824,-0.233798763756476,0.199959439267242,-0.983325093216882,0.0725552018014069,0.188430319634746,-0.283217343929906,-0.072763938220382,0.0707170864237851
55.615,-0.448701812166641,0.327799583851525,0.820609836651973,0.00880158968110634,0.0164755615519572,0.0529177077114582,-1.00519281829188,0.0822629866433603,-0.0962634870924726,-0.119849576111948,-0.218188765030605,0.194244215592631,-0.93092620028759,-0.137504315254751,-0.265618424833276,-0.759183141238095,-0.212288296943311,0.184774682320341,-0.98411667891762,0.0717677296323164,0.192486311544819,-0.268801963553337,-0.108895013849281,0.0538576045850283
55.62,-0.446423771910877,0.333978693303156,0.820424791015051,-0.00632353514685205,0.0245209374291399,0.0562951733563391,-1.00323717912427,0.0972148204692506,-0.0984764542542378,-0.155224000337542,-0.242283565915558,0.201701342813749,-0.922975977155518,-0.13052537822759,-0.265559178413511,-0.807087594868992,-0.168810649667451,0.173443707524611,-0.985537076715779,0.0677606052348286,0.189082256047176,-0.252024479100301,-0.140601610153557,0.0413585084100972
55.625,-0.44940862971619,0.331498848541696,0.819133669276619,-0.0210518241608848,0.0254364300785602,0.061967509199144,-0.994285075439325,0.108488908826066,-0.0926456596844245,-0.203839057058162,-0.258892727491134,0.204527270398918,-0.92216583744494,-0.124704255160303,-0.260033707200751,-0.841685667288543,-0.113115799591705,0.148029925005145,-0.983778414457481,0.0694616640289954,0.193943856250172,-0.235176021937839,-0.173388640300129,0.0287941918385254
55.63,-0.454238405028818,0.33795139735741,0.818468363376526,-0.0330907299660315,0.0247126817703247,0.0615400759280742,-0.994715284228531,0.11865771153365,-0.0997349478558678,-0.258846262578386,-0.271716503883456,0.209589346540498,-0.939099427577008,-0.127274383072809,-0.244297909703318,-0.850385156381178,-0.083060792338422,0.131853260564474,-0.988629647844553,0.0718972124327495,0.184464296856524,-0.210022995575846,-0.209455720922177,0.0169728616844733
55.635,-0.446136265966145,0.340392533018269,0.814117098702488,-0.0502883953147631,0.0261341912493022,0.0656455912716731,-0.9905956071904,0.121920397451685,-0.101635834926648,-0.308364636233882,-0.270279529478701,0.211512797972427,-0.93131159012876,-0.11236326819618,-0.245995047436532,-0.880376689328991,-0.0476504824156329,0.113719705402331,-0.991346839273747,0.0738590717621652,0.186914546490855,-0.19973204221915,-0.228987098919735,0.00953592791129124
55.64,-0.449826978928288,0.341245267041856,0.81477252481808,-0.059130402935902,0.02338150022761,0.0692463499059673,-0.988118345160151,0.125379321086599,-0.0990154247624117,-0.340605383146874,-0.272431988723862,0.20704246389635,-0.944296730571053,-0.102303368215443,-0.241183425410212,-0.879842231143372,-0.0338352161090278,0.106486618316778,-0.989342872872642,0.0785603100409231,0.182318101233873,-0.189052386448615,-0.245185222865048,-0.00207669387128262
55.645,-0.448069646213681,0.346391564535365,0.816732553672802,-0.0587309062790642,0.0247126817703247,0.0695124440204869,-0.991301348195486,0.131626317561905,-0.101387027846495,-0.349248110225082,-0.276927590370178,0.204359070294787,-0.94790086906256,-0.0886287320706876,-0.237617399057423,-0.871053711555301,-0.030994654848602,0.106905218498628,-0.992885801668595,0.0780970652338071,0.174609250256399,-0.183866122419678,-0.257690701622886,-0.00908193766586365
55.65,-0.443933374438642,0.348548789368175,0.808564275194163,-0.0516092903908038,0.0150993260523544,0.0720041838501968,-0.995848783741058,0.135429989758461,-0.109190836962112,-0.342006350197949,-0.281239407937448,0.194228920336164,-0.950026476605705,-0.0705425322370967,-0.229873039682833,-0.852460894427636,-0.0302279457033562,0.109205345934365,-0.988705189957503,0.0747445587249405,0.170402758199802,-0.190741308396368,-0.258689020604537,-0.0166540614388752
55.655,-0.443104555890355,0.351594021421228,0.81025404147529,-0.055287335816075,0.0207960721183454,0.0670749850727389,-0.992713948336037,0.134119957243868,-0.115169782285514,-0.326545740995632,-0.280418028669958,0.182176429601031,-0.934396336753387,-0.0656684362795606,-0.243454201493468,-0.858189580626973,0.00438453310939427,0.0767578286038218,-0.986765481982948,0.0680924976912712,0.162553860955037,-0.197856937205022,-0.271264829944026,-0.0182466732825506
55.66,-0.44178140957559,0.357916379086043,0.804595943591896,-0.0505682406987155,0.0170711268497771,0.0667875171699232,-0.992362428496357,0.133692653379676,-0.107672905302383,-0.296439736640018,-0.282572601207345,0.165040060601857,-0.932391818767669,-0.0611307500566234,-0.236676616494033,-0.835964357460282,0.00819681889824607,0.0832220229924472,-0.991395045413539,0.0743082369325631,0.152299031091599,-0.204278002813165,-0.286465510482055,-0.0232125817583907
55.665,-0.440725923094555,0.35535315419411,0.804344302499235,-0.0501391665419763,0.0137174278497696,0.0590616947532613,-0.993825491857246,0.134516700865954,-0.0998312467160325,-0.257228621575026,-0.277906592106008,0.154858893370387,-0.929753237082119,-0.0566667578801676,-0.229962074113127,-0.845141083454358,0.019592884558075,0.0806411905873677,-0.994555677229695,0.0663013930973406,0.140094969907795,-0.202491078461747,-0.297389992565332,-0.0359786163273485
55.67,-0.445334876164476,0.358149900720433,0.81030302900512,-0.0465598246827113,0.0108109219744193,0.0572987663994638,-0.993714321747251,0.128754644148349,-0.0926201563884064,-0.220922318219773,-0.28727305968083,0.149415365080814,-0.920118725802011,-0.0630276943215505,-0.238219032201395,-0.851464607331141,0.050120069984139,0.0768462279354889,-0.991718537288767,0.0578864102748425,0.130998506302363,-0.19283601058261,-0.302516620320492,-0.0537805125588792
55.675,-0.453073594436433,0.348102225459427,0.821167869843165,-0.0568679517840094,0.00883065164089203,0.0455696773073389,-0.995369901595589,0.121436101793324,-0.0911214401923337,-0.19384787786934,-0.293138292133199,0.148650264843449,-0.919107762426266,-0.072555909194648,-0.234312829817254,-0.853318318910561,0.0450328522548812,0.0760246768780332,-0.990506927054396,0.0489829150437784,0.133505780566118,-0.177144846591808,-0.304389641839053,-0.0646709914357565
55.68,-0.451819123725983,0.346109551647172,0.817788943754318,-0.0638376031576754,0.0106772164111397,0.0465201721243707,-1.00349755039669,0.109979206178417,-0.0978286284079937,-0.156588923134111,-0.304818201862074,0.156294793484301,-0.907090680018311,-0.0721484935823399,-0.232782331783531,-0.845192319135821,0.0541928107964146,0.0632857340986907,-0.987697596886328,0.0450056392379945,0.13026046927687,-0.162176335532699,-0.296430141551486,-0.0827042658221426
55.685,-0.453150574898848,0.352182535685811,0.815173470091364,-0.0796300103043527,0.011150216853628,0.0535440325990307,-1.00220187278643,0.10792610181337,-0.0974820569319234,-0.136183698130273,-0.322346868560154,0.143849369432227,-0.890135371510841,-0.0768901951202458,-0.225450241824124,-0.813098512324447,0.0692356532518296,0.0534303742867538,-0.981194057973591,0.0380715773410691,0.129247293685157,-0.14443338554526,-0.276550206153942,-0.0942959230030992
55.69,-0.450346547544085,0.357927249925834,0.813507232516796,-0.0995489641875408,0.00638726353645325,0.057802202301569,-1.00160617770717,0.110947076361712,-0.0924757341456664,-0.123118105633417,-0.32234695934372,0.141336604952812,-0.876030005817705,-0.0753421464239578,-0.218976895406839,-0.778864590253598,0.0998995373284078,0.05096185952425,-0.973602138128188,0.0329119294236066,0.128040266052248,-0.137800643791762,-0.260007147991607,-0.0931026589909401
55.695,-0.454771425048686,0.36366090226958,0.803493253230659,-0.126655445400397,0.0137421340580172,0.0663934053235333,-1.00466102570215,0.12339479918818,-0.0889807228484644,-0.134843710296493,-0.320803869022163,0.138997925353422,-0.848823993379856,-0.0638707758491876,-0.196934967462371,-0.725016845082453,0.146516296410081,0.0479287168144824,-0.974404880166651,0.0150640880593554,0.12425537009582,-0.147492005314644,-0.246073311718059,-0.0936789588984158
55.7,-0.44893497483905,0.363573318463051,0.806304529730136,-0.154399803029495,0.0170572486484556,0.0730095310742642,-1.00070407143238,0.126381815954994,-0.0880809442692512,-0.161417130201739,-0.322173077104318,0.135971281014787,-0.829767416525735,-0.0500937775985892,-0.171539944267246,-0.64487608174769,0.213411544834685,0.0408068803443478,-0.982804715091575,0.00286093039119004,0.118839199960301,-0.164001973451393,-0.234176419513208,-0.091839611530304
55.705,-0.452548093044989,0.360587573401222,0.808282741373126,-0.183513218835535,0.0223331377383674,0.0828651767342439,-0.997359229977564,0.115675501997557,-0.0835539184115703,-0.195648543553624,-0.32557727150248,0.126458189249189,-0.814149259700725,-0.0444996312359147,-0.157210022880819,-0.545799882063193,0.244759772054809,0.0342697287787968,-0.999898548431975,-0.00244372505667531,0.115117556073416,-0.189658161574216,-0.221323298017033,-0.0872635134562148
55.71,-0.457670588401447,0.355932974622768,0.817073767912533,-0.215456833254076,0.0356279505504238,0.0971041473305354,-1.00294864770632,0.109191097678763,-0.076741846951269,-0.223681548475669,-0.322574952483454,0.132450123101128,-0.798924365638156,-0.0265290799861259,-0.142736057865814,-0.430465866061176,0.301714926857245,0.0153330312384677,-1.01452209151739,-0.0116334894618362,0.110760800877056,-0.217935014984284,-0.208717240095624,-0.0964983275638393
55.715,-0.455808625879509,0.339333316336314,0.819332292099066,-0.2294228399911,0.0432585430507341,0.116960184385971,-1.0041263208689,0.109144344207652,-0.0746973018674215,-0.244219997715739,-0.319076712608322,0.12508821654932,-0.803962554535288,-0.0281305391203356,-0.132201079716548,-0.333168973088896,0.366351411662602,0.00163422251669914,-1.04644164371393,-0.0152539435975727,0.105837726411084,-0.249571999251122,-0.204202616396916,-0.0906221725756197
55.72,-0.448620637179291,0.337741635755507,0.814571988301379,-0.243382352088438,0.0503682643175125,0.13475523707179,-0.996375810354533,0.114668176898417,-0.061737248580103,-0.251743313983076,-0.30337411765202,0.117043897213743,-0.832544084559242,-0.0372614889773127,-0.124714308041726,-0.260284487352687,0.409139426397008,-0.0158853957720448,-1.08504687153657,-0.0228245662558644,0.103038618373387,-0.28117008737858,-0.194450333457238,-0.0966838307922627
55.725,-0.443847956762333,0.327631180036483,0.815698527215315,-0.240956068694762,0.0522685853747875,0.140970078853548,-0.989390647260181,0.120411709942818,-0.0474982327678145,-0.248959192443406,-0.302128903394662,0.102058266225281,-0.867556686550009,-0.065383168709316,-0.13039667787622,-0.217186802991828,0.421102678013878,-0.0460317353395166,-1.11854500468438,-0.0372199269197709,0.101327841001987,-0.28741155041024,-0.17912598260477,-0.08722368968088
55.73,-0.436914322366021,0.330839099464976,0.814874778542681,-0.231786157780591,0.0502959496842189,0.144257448548403,-0.986817804789754,0.119821751240028,-0.0371368659404978,-0.250451028347015,-0.308315580872929,0.0893795351070508,-0.906502580986946,-0.100793660835869,-0.135549363349455,-0.201639702519012,0.401716345235613,-0.0718757593219425,-1.1564264845709,-0.056208535231375,0.102941492622375,-0.271056761638201,-0.1573209866996,-0.074807365989456
55.735,-0.438599659031666,0.315654473175558,0.818267655040471,-0.217894620232746,0.0540126532662528,0.140838319132451,-0.973195904412605,0.0974410820595691,-0.0247761378088432,-0.281657057472171,-0.293355701115905,0.0912471413612366,-0.903316801178697,-0.130264197255655,-0.143797685422871,-0.181818496697876,0.334829240093007,-0.104994910197059,-1.19400689349675,-0.0627127883973412,0.0963697747560181,-0.24465023620095,-0.156551062952139,-0.0573450586349704
55.74,-0.435109562022779,0.3066853780281,0.825738647286024,-0.203845849579878,0.0486880740004933,0.136850328421761,-0.969985501524245,0.0824796623154266,-0.0149729899318951,-0.274845817486443,-0.280788238207224,0.0904066041973127,-1.0009660597003,-0.170777007429908,-0.165373771223256,-0.128311215177893,0.24514825091893,-0.125884737077368,-1.20682467002087,-0.0612524123570593,0.0998145879297833,-0.237932630958056,-0.189557463491961,-0.0295314591527719
55.745,-0.436234905856754,0.308502216428049,0.833905430233795,-0.186777461069326,0.0375589745968785,0.130439805396497,-0.970736923272181,0.071431143965666,-0.00784606164903766,-0.250837854047258,-0.288488877953707,0.0931244896849713,-1.04462060107465,-0.190975612364283,-0.179434808812084,-0.0330631781973082,0.154219678013252,-0.128241994831817,-1.17575750374571,-0.0648042623263843,0.102271029593942,-0.176486091665712,-0.223342971698003,-0.0292034214147544
