Header,foot_Accel_X,foot_Accel_Y,foot_Accel_Z,foot_Gyro_X,foot_Gyro_Y,foot_Gyro_Z,shank_Accel_X,shank_Accel_Y,shank_Accel_Z,shank_Gyro_X,shank_Gyro_Y,shank_Gyro_Z,thigh_Accel_X,thigh_Accel_Y,thigh_Accel_Z,thigh_Gyro_X,thigh_Gyro_Y,thigh_Gyro_Z,trunk_Accel_X,trunk_Accel_Y,trunk_Accel_Z,trunk_Gyro_X,trunk_Gyro_Y,trunk_Gyro_Z
28.08,-1.59094006376922,1.53185287090826,1.77147220369831,-3.1673418402055,4.12577604588428,-2.59449948572868,-1.27827699060945,0.55473225886992,-0.947907348574389,0.520609683740399,2.4495346296401,-1.67579605809011,-1.27990575954066,-0.51424446131819,-0.714996116277607,3.98950827407607,0.855134877085408,1.86877609340636,-0.934515969186493,0.107469935764207,-0.43988043957435,0.0107483329570576,-1.17738406204476,0.627798697214645
28.085,-1.31137736996395,1.15103906372724,1.9312906236645,-2.71301705412621,3.73856109691631,-1.95703029491729,-1.21511730855154,0.759438462160224,-0.810232645501203,0.186369591936419,2.40040248494388,-2.07830461222507,-1.38905967817148,-0.316077025906153,-0.725435323131614,2.86668773542198,0.90539742277609,1.88192517054545,-0.956176684445076,0.0479825363894298,-0.322578959105928,-0.250913165945987,-1.31339602344394,0.667224422708974
28.09,-1.03466993466286,0.730561944847482,2.22368955474736,-1.63064721738959,3.15187874028432,-1.54763699514318,-1.17471445212012,0.824676451818441,-0.656745002354603,-0.462686766742434,2.46450860534304,-2.49976045586156,-1.42988797515142,-0.148006565685617,-0.603578924111909,2.24229644379754,0.837184963287567,2.17126825026274,-0.983285295054652,-0.0183842531407815,-0.219198628405393,-0.503993076433921,-1.32122895039207,0.615828425328754
28.095,-0.879906954474832,0.0912094298243084,3.98416504842856,1.04299496799047,2.52817540934,-1.29971211380767,-1.21151496887292,0.808224738366789,-0.342485488981932,-0.972550618366594,2.34855624787132,-2.619127591158,-1.41775359716219,-0.0737019645034033,-0.470486921113293,2.06259188567124,0.632787064624214,2.54204043623511,-1.03455073395931,-0.0654863087094437,-0.126769999940844,-0.753420148617833,-1.21642379757713,0.539859726529451
28.1,0.0478688573618298,0.75874041512258,3.11653794387565,1.48882317896172,0.00430279596289868,-1.3110150369794,-1.30116904944257,0.747256850793595,-0.00279072715916748,-1.23176046175369,2.09896369981803,-2.43876131708777,-1.43512903211477,-0.0894208757829854,-0.378474861609217,1.96959912435211,0.351877587393514,2.80529749756854,-1.09822707545064,-0.0948503008204266,-0.0499118844974131,-0.945558268991436,-1.02468122320689,0.397909704043959
28.105,0.152274500911326,1.77947638178556,2.13864901480369,-0.601974844907642,-0.469365136595373,-1.51899750812537,-1.22151901730227,0.597082797516102,0.0463530293661047,-1.26425497219753,1.93327669914429,-2.29529978434302,-1.49291748795183,-0.185705811268874,-0.254584517199556,1.39038184311946,0.18789407208169,2.82054005115338,-1.16235901439684,-0.119654235102057,0.0246257570925478,-1.0771386067651,-0.76380427083597,0.197518033210358
28.11,0.282484005184893,1.38085958496951,2.10743093400897,-1.5593440319524,-0.723327283440134,-1.86704777242248,-1.26889458033407,0.606573979420895,0.0817718511994369,-1.4656194218549,1.4270926222303,-1.59076918390118,-1.52381260717132,-0.257334763803895,-0.134211169743894,0.560312633132391,0.0571820546373293,2.72236370938383,-1.2147904612938,-0.137013990938892,0.0941698309276194,-1.144412465088,-0.458908033853269,-0.0298604706609679
28.115,0.427687272865708,0.895434620669154,1.74995452909479,-1.57355583803376,-1.03271356705458,-2.14410230667993,-1.23150809647315,0.488920691786229,0.216783797586351,-1.43274642492999,0.988176260274546,-1.23930604836924,-1.57990268632814,-0.2640535284008,0.0316152776886925,-0.279474835233098,-0.0956787193043879,2.46292003982825,-1.26727045925158,-0.133987959064121,0.134981408489961,-1.11792498636984,-0.22430638014236,-0.238554844903061
28.12,0.298792784454551,0.926918716060381,1.60729277541423,-1.22742396509822,-1.34102952303066,-2.04715708281204,-1.0432222225261,0.268542959953214,0.296304903952624,-0.476732327608491,0.403707082863626,-0.879975974205956,-1.64645665725574,-0.226645254059572,0.166982542299655,-0.709632007488066,-0.272531053581792,2.28889764884773,-1.30893551564127,-0.101930202849085,0.165015954405322,-1.04693026498471,-0.0278319054716088,-0.476623860709527
28.125,0.125849418204438,1.19553867695513,1.50399134575048,-0.969370863592297,-1.77539553025555,-1.89613670971905,-0.866171220351625,0.169671799115032,0.1791447119867,0.270141185954626,0.0977756204297242,-0.696170673828546,-1.67081021651613,-0.188301567574064,0.235619782304571,-0.674564796370947,-0.416618014758143,2.27691505662117,-1.37085103541409,-0.053414955612278,0.182935633462996,-0.935098842287875,0.0284325168717806,-0.634948568177402
28.13,0.117075877433845,1.35272681183052,1.29997865922005,-0.887429372293313,-2.13022976844738,-1.71339710089971,-0.708175182192491,0.0969992447404824,-0.00251900570773603,0.559573665664983,-0.145520016778007,-0.542697730119297,-1.65151844473009,-0.151250709202191,0.264884615195456,-0.48088984289572,-0.496817644689176,2.32837077521936,-1.4206690415885,-0.0185642644131689,0.169706286924382,-0.796466237513469,0.0267375290833865,-0.770798603114965
28.135,0.202565359651264,1.3965749768768,1.07768802605868,-0.882855100185993,-2.41075910729065,-1.4621918335766,-0.577138342983468,0.036716881046476,-0.0728833718821321,0.592843899276509,-0.397840342388193,-0.455906433425226,-1.61015130454978,-0.127639876239083,0.278239409560855,-0.309138622826621,-0.519895651744511,2.36809034457566,-1.45800656107554,0.018206257952691,0.13033637355612,-0.715210549764418,0.0142898607173312,-0.80952505788137
28.14,0.275794572177246,1.42318153094483,0.911332129577009,-0.883235564976969,-2.59862654014698,-1.19905124007856,-0.469926014015244,0.0457018254602732,-0.0615114840294654,0.896269689176543,-0.594770646744912,-0.445035831874396,-1.52747278883811,-0.0821165506450745,0.293027713452458,-0.104439883448422,-0.562663391518902,2.3454354022079,-1.45547665763556,0.0684216753294074,0.0778957375128729,-0.678969979286194,0.0177087221436109,-0.769953537658835
28.145,0.318474994233411,1.44980695247323,0.748098477600014,-0.822874868114627,-2.75963020912345,-0.867841207558376,-0.392992109854438,0.132033045345267,-0.0350340179323122,1.19762264983311,-0.751121070741052,-0.423642592678166,-1.46525100055819,-0.0419373688561433,0.301349522083603,0.0690270434792857,-0.585692570050891,2.29343204551461,-1.41529676892487,0.098875156652437,0.00157211449676061,-0.680030818770277,-0.00141129198196334,-0.656427428979361
28.15,0.328771792499474,1.42598335734463,0.623188485584826,-0.67378257213328,-2.85094741424444,-0.564858079381479,-0.377217154708846,0.264564797305759,-0.000685195175770826,1.31339967611548,-0.970400336120258,-0.389564423117373,-1.38439127453356,0.0109247701464997,0.317624997694369,0.250414002572032,-0.562048852848813,2.21890179291626,-1.3494493613808,0.130047315709063,-0.0923262468602849,-0.674401458434158,-0.021071622599502,-0.50356006577359
28.155,0.320508425459799,1.41626600938294,0.483144914503984,-0.595657430425746,-2.87862372398376,-0.140809281330561,-0.389259494941468,0.379824723879536,0.0233213140961955,1.3146284510399,-1.22896741998035,-0.336929900257705,-1.29453396312119,0.0601929749161849,0.335393662179251,0.409252375681167,-0.503105555466945,2.14330563538766,-1.28505920482007,0.152102479964091,-0.172032338844603,-0.642452788418278,-0.0371759412139887,-0.379966367802661
28.16,0.298052957928231,1.39208136007214,0.39360650935826,-0.551863290963239,-2.87559732933327,0.221148396284043,-0.395126875386479,0.503031330750727,0.017639285864983,1.20442766942308,-1.53301745622083,-0.263806110942366,-1.23318103792146,0.09124860027054,0.343267075271639,0.503602855401735,-0.436147773383249,2.10446671082945,-1.21796707361664,0.174807922506246,-0.237463978405338,-0.602614704658549,-0.0760913046308185,-0.237253604223291
28.165,0.261303064771019,1.35817683764005,0.352984438954604,-0.495294890192226,-2.84532559195329,0.62973069697112,-0.409349491926134,0.554098630832239,-0.0137210660350909,0.845030622329762,-1.74107755163129,-0.160991661931307,-1.20517341031868,0.101504252711511,0.334835943532862,0.476077639850008,-0.369923880520166,2.21941083078776,-1.14116229883629,0.195245602274258,-0.314419841938719,-0.548621774979078,-0.141379746125783,-0.142470214275773
28.17,0.206692160792665,1.32117642002544,0.339050638701798,-0.454792763122369,-2.80253187096373,1.05025345389767,-0.443807783362644,0.540476492130691,-0.0483828996808681,0.15322427135969,-1.9679274547002,0.00256264029188254,-0.942300774663445,0.0959563411465653,0.470881525973635,0.631565117245159,-0.418802540707124,2.26329882852537,-1.08247626349019,0.200599759306796,-0.360329893541027,-0.521400377789216,-0.211586103074584,-0.0579887554976946
28.175,0.159098631508472,1.26871623481938,0.354225632479651,-0.40507061721047,-2.7627221755704,1.41846149206181,-0.451145215065841,0.46364950317922,-0.0727147907712657,-0.62827863561172,-2.19241296319289,0.156235535661229,-1.06238949402893,0.11635198790343,0.408809795668093,1.36200378892527,-0.484579400548469,1.99555952246864,-1.0222011624454,0.200426253254243,-0.388436392720579,-0.533517433733171,-0.298658372472007,0.025230465816128
28.18,0.0704212702882116,1.18929678963785,0.411018067717204,-0.376550456010323,-2.72311090591188,1.84741213926489,-0.484555011319657,0.368346998077523,-0.125363448832041,-1.20762809367645,-2.44266765996673,0.263216850342447,-1.09234078367366,0.119175173757331,0.364052059325924,1.28904155389639,-0.604552029328985,2.14532453144694,-0.976080435291116,0.187175369732318,-0.389456195893295,-0.59805109109235,-0.377639666138033,0.0961019526452511
28.185,0.00868693445771066,1.12967174257784,0.457177528731196,-0.299147752705866,-2.7219449740572,2.18796078075551,-0.449237337596722,0.26008231450806,-0.174957081675519,-1.44928017438125,-2.73726598811388,0.404281832514788,-0.975296322998596,0.0241657121932751,0.373700831302847,0.987797963842011,-0.677691952268874,2.28374684623277,-0.93784928955417,0.161642292322316,-0.36284405261443,-0.724139764871235,-0.470916562882997,0.190160183196408
28.19,-0.0520059436405042,1.06032646184912,0.509872796348197,-0.269242283329808,-2.74129074042538,2.50507296620038,-0.42421053425119,0.189774751750134,-0.201849753638487,-1.49482160628817,-2.92864486006249,0.525089825216906,-0.887618983379437,-0.0747830431160094,0.40965413578879,1.0531154171874,-0.743919269777568,1.96785064187852,-0.929406755135214,0.137468025320345,-0.314484706231349,-0.899471972539235,-0.509783880319318,0.303746757193953
28.195,-0.106515253099774,0.995378022683646,0.557999262659709,-0.265303600789759,-2.78227573432811,2.72799836042494,-0.435317079297424,0.166938722099942,-0.208780084763144,-1.42701825994299,-3.02833899829163,0.609551914123344,-0.839209232126648,-0.125720008543345,0.395697732348799,1.25354078877324,-0.75710129737854,1.52289726721613,-0.925568211616302,0.110378960401892,-0.253448542107166,-1.05400065899059,-0.518411866875491,0.420803710703084
28.2,-0.189274019810754,0.896799703293746,0.621878886540328,-0.267687751887824,-2.87053246678998,2.95179418478164,-0.464116261450988,0.180718939545137,-0.202240673845521,-1.39525904177263,-3.23594366480549,0.638357390504638,-0.882280733558623,-0.113836280178661,0.366527154319742,1.30769052303162,-0.794670314486802,1.25138366743211,-0.917964716663809,0.0826391464986412,-0.18685343648967,-1.17051443362359,-0.488391895265086,0.508647315878891
28.205,-0.267078688569966,0.814353728890584,0.670788136095713,-0.263808660493737,-2.97014613446221,3.07412002542247,-0.477568782631903,0.212100746135184,-0.211442440448324,-1.5163174905923,-3.37893001641134,0.61937615359588,-0.892388186395239,-0.133083968931586,0.375795647237378,1.34899934042211,-0.87524179321625,1.30512679124394,-0.927037933180296,0.0694857367414069,-0.127042085555345,-1.27066991873248,-0.435436016290302,0.560641392057408
28.21,-0.329458533374179,0.732926959354883,0.708890725142488,-0.261670541844409,-3.11456923617119,3.17370331552102,-0.496721156964664,0.235586479768766,-0.22770588632029,-1.75890904278661,-3.48612740657654,0.586437195840416,-0.85695020261707,-0.190403124902789,0.415099459757888,1.66977106284486,-0.941550240345714,1.33460136702001,-0.92895448162805,0.0535233387963692,-0.0673699779167011,-1.36641361918905,-0.335677602853368,0.568531106488431
28.215,-0.374077021697963,0.666877024487368,0.73570798303356,-0.28853540745573,-3.23920313456068,3.24009236338148,-0.525795887569577,0.248213342985649,-0.262926802365095,-2.08842710818945,-3.61449474523086,0.577024638652802,-0.821324058372143,-0.259784285387934,0.428710948332771,2.32646472337239,-1.00521364906668,1.24434896013839,-0.916936611879607,0.0288504127093408,-0.0200756550258941,-1.45146019548478,-0.209554817730066,0.523673599578226
28.22,-0.405222540906727,0.612976249419024,0.734458655788679,-0.2890681270402,-3.36577481309251,3.25987570425099,-0.561357504889245,0.284545690810824,-0.267553181105241,-2.34175392583773,-3.7870714932701,0.598456966806865,-0.803863443278411,-0.305595637545092,0.397838393911112,2.87369590408893,-1.03342156543737,1.15820653034157,-0.88225723634587,0.00741619318265516,-0.000295953819289644,-1.56816083937935,-0.0356063389089663,0.466321392951483
28.225,-0.435204069343684,0.580249188154453,0.760580776349318,-0.341349060042446,-3.48977461589196,3.27009894987052,-0.572725201874622,0.287026506896436,-0.276033369664335,-2.54714429918846,-3.96860429011684,0.638305369480274,-0.785156489309079,-0.339633166512706,0.361080482177673,3.13704413414007,-1.03721138954163,1.13191719532012,-0.850343950628526,-0.0105372664641775,-0.0096416839947027,-1.6169413900738,0.0563237379146399,0.422037487043259
28.23,-0.462730343747305,0.566680619506046,0.777716621031453,-0.392196617223507,-3.58044417495781,3.2494147360482,-0.605318620390186,0.274699260409215,-0.268109936874259,-2.61124560954969,-4.16467386103745,0.687373684056243,-0.763108447785492,-0.364966988962454,0.332626464548923,3.29341469691029,-1.04971834440393,1.10661537653993,-0.813214104578995,-0.0295109051775252,-0.0185397530599512,-1.63969186986084,0.0969659731012532,0.362473576017597
28.235,-0.519400673278679,0.557380385084892,0.824604292917571,-0.457430242686058,-3.6786065055002,3.20245496849138,-0.647091180252523,0.25938064572356,-0.267267760083654,-2.56973081355881,-4.34185880423902,0.732290389778095,-0.732981251988259,-0.372514275390282,0.300999541888158,3.46014169336368,-1.06646521401707,1.07775866096219,-0.773491575613591,-0.0573083580467752,-0.0228468706687352,-1.64288699626923,0.103496700918784,0.291895146303827
28.24,-0.558408171264992,0.560944065164594,0.87493500620736,-0.477269675158909,-3.813852715598,3.14056458511656,-0.678369423877906,0.23246923860682,-0.283600616230318,-2.52055806468268,-4.50853515682353,0.768104555297645,-0.699974880526989,-0.360381385616529,0.257473108784658,3.72140422350436,-1.14497933703246,1.03989593767106,-0.732168703085551,-0.0917849384306935,-0.0427603880174056,-1.66818995329066,0.103139475125379,0.218756035845259
28.245,-0.604575813123169,0.578320974982307,0.913516237074073,-0.470207593446243,-3.90179703700176,3.10668419000923,-0.731812677733745,0.202211911392374,-0.306727003052529,-2.53175093734932,-4.63608555156142,0.785574897567343,-0.644633227354074,-0.336424766325946,0.157789809972746,4.11033351212247,-1.23086325795228,1.01235627570173,-0.707122160933683,-0.131570918971204,-0.046181711502955,-1.67686660927088,0.103902223089563,0.168867579870372
28.25,-0.642957854997083,0.587044724428714,0.951018431670343,-0.453987292387571,-4.01627770828202,3.05530199185405,-0.791077813954831,0.174908652120704,-0.32874460654055,-2.59932796700599,-4.73233753057822,0.802041295361088,-0.608538913113288,-0.325544534500358,0.0713062356582521,4.19017037381012,-1.2516196503689,0.96809748262999,-0.688518192743767,-0.172020897223087,-0.0475488307433883,-1.67342936992645,0.0969338440840049,0.124941452458788
28.255,-0.676752107580403,0.605683053759542,0.956532685800862,-0.428960311713155,-4.11727103259702,3.01581980752833,-0.864956308827596,0.147294886082529,-0.355618198026867,-2.6404403291903,-4.89325448930007,0.848742785743385,-0.593688926797986,-0.291904150414707,0.0340826121259784,3.89531834740338,-1.28484339918143,0.943070866467047,-0.683153107575428,-0.204157743981947,-0.0439032799107991,-1.68608043313534,0.098859775697224,0.0863841572148253
28.26,-0.728720769247827,0.649019224104314,0.951639260186087,-0.351927569931474,-4.23038763971127,2.97745064109389,-0.90915175904975,0.146112355131892,-0.358395797751507,-2.57796719114252,-5.02611233976611,0.898226373491856,-0.565626169810724,-0.256193845704007,0.0124432283364144,3.61932373434647,-1.31164377943389,0.897776969142796,-0.688801011070819,-0.223182935185613,-0.0337913241525821,-1.71379557208255,0.105788319748392,0.0380899123939377
28.265,-0.774805284715786,0.689712254570612,0.938744464901009,-0.331608107607798,-4.31448702847247,2.95701926097096,-0.950899969661027,0.151236682403327,-0.342503074760331,-2.50672046205057,-5.12318559773001,0.960686415871735,-0.543116522541352,-0.21568580343928,-0.0432357076499539,3.49723639360398,-1.33207954600343,0.800031917217664,-0.68719954112639,-0.25171653234227,-0.0245659594397037,-1.71027083290692,0.112816467881203,-0.0228526514787917
28.27,-0.818673192010655,0.729610528802124,0.915644220710915,-0.298133441695422,-4.36459330893875,2.95086576551686,-0.987590534495551,0.158914314106639,-0.353372233891178,-2.49777556601325,-5.20746605400544,1.02334070001501,-0.536489269410879,-0.176933802497487,-0.111389092639556,3.43170969957372,-1.33306845087742,0.724465647043968,-0.685952804546155,-0.260825443024376,-0.0211275449880193,-1.69551834064681,0.118972801007528,-0.0698463148412015
28.275,-0.858718012276777,0.761987298784451,0.893719644391288,-0.290303573916355,-4.3953178073565,2.95502307916499,-1.01940722348758,0.174276439476994,-0.387353364055377,-2.53534316577795,-5.30641217027181,1.06950781339803,-0.527837057047172,-0.159623115626531,-0.158728156913961,3.32415222973436,-1.30777177319127,0.70211219817456,-0.688014348386392,-0.262205139714315,-0.0154471443827405,-1.68082683843769,0.135733068837932,-0.104150111522064
28.28,-0.900618495554154,0.81129658767865,0.842368041901801,-0.232752718131862,-4.39692207168736,2.97536852129985,-1.04862838018619,0.197904030726128,-0.419217645570985,-2.57880747946921,-5.40389190314759,1.1282257339351,-0.506924299235001,-0.151023652775632,-0.201291621010731,3.12987356519452,-1.28385996498762,0.652979905370525,-0.700437301441694,-0.264967064107507,-0.0122837965101463,-1.60636386683646,0.162774845005707,-0.13096908389797
28.285,-0.942757456660758,0.85783584205852,0.804472152279658,-0.213606635330062,-4.35575400540707,3.00984687712783,-1.08585401382519,0.219148846099867,-0.434263825608337,-2.64832004991607,-5.44358927698824,1.1742892512191,-0.497295368955859,-0.151276844602938,-0.222244089822114,2.96643774965654,-1.27269195385214,0.57737292837629,-0.711874638990758,-0.264252777396823,-0.00650713383362776,-1.53433885785319,0.179391750913588,-0.164368888945426
28.29,-0.986331194119782,0.902373291041732,0.763466446894679,-0.213725029576601,-4.2781973933883,3.054108627904,-1.14702845021802,0.236643239620968,-0.454154990495579,-2.78129840459122,-5.49083364250271,1.25914366757837,-0.492315403390647,-0.153150086866078,-0.236901566985734,2.82642652260712,-1.26378334536964,0.47793830977507,-0.720284824480218,-0.251049814444887,-0.00299236567847724,-1.45599199695306,0.193968916150319,-0.187124848440401
28.295,-1.05436198187574,0.946986265801846,0.751517986169788,-0.21335905735561,-4.12664722392189,3.13508323479307,-1.19783431412142,0.23488089472064,-0.487577665533896,-2.89842616787384,-5.51694793127949,1.32175058293035,-0.488989381803995,-0.17552837960841,-0.254701608002077,2.73909805513615,-1.2409268603334,0.348936437325792,-0.722733640077255,-0.221788245322993,-2.26464442747466e-05,-1.37357941448364,0.187160273126482,-0.19545726149733
28.3,-1.14366633570191,0.990085819314465,0.77249012090101,-0.219906520423638,-4.02280712657245,3.20715527409034,-1.25361786791938,0.235775133781326,-0.532923735527808,-3.07896088573973,-5.5231653907035,1.38180012278914,-0.487848916879789,-0.21873750242662,-0.264063218259436,2.78884092095547,-1.20193792628491,0.204596633139981,-0.727054124253614,-0.198568585576905,-0.00463844419571878,-1.32202648517077,0.170681261982373,-0.190117398619771
28.305,-1.29927419405838,1.06180225523877,0.881161347699067,-0.179699247293889,-3.85550807581513,3.36372792312515,-1.30233931160139,0.228756915613984,-0.574563174917661,-3.22333671593929,-5.530975195743,1.41657680584511,-0.485406522484612,-0.273640134152041,-0.261136748395005,2.87770580826273,-1.1629280666271,0.118038420210979,-0.722070680715677,-0.177998662414349,-0.0114741865322069,-1.29813277922354,0.145323827002546,-0.163080978662597
28.31,-1.4698485340123,1.11185634106085,1.00834153856379,-0.0624237400299156,-3.76015596546267,3.58629456553892,-1.33862862991116,0.210517485982011,-0.642872381727115,-3.35505968277267,-5.52383278920101,1.43956165001942,-0.483954836179994,-0.341001699225578,-0.252309791885488,3.06536081158999,-1.09428209242718,-0.00210617099540828,-0.7167803572036,-0.154466989237606,-0.0232933682687935,-1.27510554306253,0.120254425937695,-0.117551651977811
28.315,-1.57141463926221,1.17676576725773,1.06696950391094,0.0679555777126644,-3.70372426854335,3.829474594054,-1.37220397634605,0.168092398023767,-0.70537973348792,-3.45918191216947,-5.5201150904453,1.43979965329791,-0.484571382362354,-0.379264784117381,-0.24750799368711,3.22600442239988,-1.04305155091366,-0.0799451688371721,-0.709162005763395,-0.135225616353603,-0.0374861353997482,-1.24952347108653,0.09874927281917,-0.0815171762547243
28.32,-1.59877080605772,1.25979167076641,1.06542459574522,0.137096107006073,-3.64936527298574,4.06515940307123,-1.41430522566802,0.141522209969612,-0.74481819137599,-3.53442178552647,-5.52292544082626,1.42823702078574,-0.483679368334973,-0.402069239730948,-0.257935204557333,3.38066382378369,-0.971168674661533,-0.160889463434895,-0.696365227334775,-0.117343695874934,-0.0560307022110977,-1.21376312661654,0.058672277210737,-0.0337080703106331
28.325,-1.61000467463617,1.37128037825617,1.05188304108769,0.120353081562259,-3.53638613658546,4.3452966126323,-1.46829219986473,0.122425270588132,-0.757059098714748,-3.63867103382012,-5.55907135815869,1.42154818550382,-0.482109631198873,-0.413127793219254,-0.276343716973579,3.38698660382239,-0.907597249334943,-0.21095436727286,-0.69951888985202,-0.105344543370288,-0.0648575867535496,-1.18265259155827,0.0286835973179662,0.00612541459439106
28.33,-1.6617993779136,1.41982981404189,1.06717654914224,0.0557222865516874,-3.42592821579017,4.54348301673415,-1.55391808725801,0.128036602029219,-0.753793192068232,-3.74612790997177,-5.60067721684852,1.41439117489415,-0.478454618881779,-0.411633253622735,-0.300316254241987,3.27355293592809,-0.817095726732543,-0.271465525927095,-0.698385936994695,-0.096848512030358,-0.0653040891487643,-1.14535411886446,-0.00152451040758976,0.0582726828441094
28.335,-1.80096200713204,1.44270265189172,1.08896908963108,-0.0788873978743854,-3.28538313341993,4.81148824777659,-1.65077675499986,0.149224423131205,-0.750748658096136,-3.81808483713244,-5.64326201254326,1.40271790075,-0.476426316044812,-0.403002412367134,-0.320894502459254,3.05125605797322,-0.733093164995676,-0.330404867506761,-0.707092591165612,-0.0976983760812063,-0.062413945535065,-1.09007391144346,-0.0228191775628746,0.124041116405722
28.34,-1.91219674477236,1.43157081935702,1.08437993379,-0.135776728968397,-3.19241482173709,5.06681869924775,-1.77502698939512,0.183731942655563,-0.774479764901359,-3.83782759012226,-5.66038404183901,1.37678748743539,-0.473279568255138,-0.389250295165453,-0.333464717683129,2.7941059796722,-0.668003217367172,-0.399112385195769,-0.714975329679598,-0.103515660562052,-0.0574268384618954,-1.03584883785071,-0.0333927077330046,0.179232511965819
28.345,-2.02073867521356,1.42528973866642,1.04461367719628,-0.238518045284771,-3.10055672055553,5.30933302107097,-1.85217190734381,0.20984523869251,-0.81464858815048,-3.83290639854081,-5.62589856448909,1.35452805972881,-0.4735729553559,-0.36269570719406,-0.348329494797968,2.47289344388691,-0.612517339503378,-0.486685408748644,-0.732131507166508,-0.108802407804852,-0.0537820830356519,-0.980556980204543,-0.0229253133455525,0.229227275677743
28.35,-2.13850063491353,1.4442271514477,0.949870841683595,-0.375313558791069,-3.00875486267616,5.53873367363033,-1.89816068031787,0.269509473974654,-0.885419184763966,-3.92091137921746,-5.56406928872758,1.34004804333711,-0.479033611944722,-0.316347434174009,-0.352769384932192,2.23827229907005,-0.57526223510764,-0.572166523618501,-0.752643079778216,-0.12213975017711,-0.0554732261077227,-0.921447747605599,0.0020254978992164,0.26682196441264
28.355,-2.24778951742422,1.45773361782538,0.798078021487335,-0.604358992946642,-2.90183087760455,5.73391324914736,-1.89309071173176,0.339385520805953,-0.960061631311215,-4.05951239604678,-5.49212614639295,1.35161608418696,-0.492843386547812,-0.26888580356475,-0.3547400230146,2.01500646160916,-0.560227382836531,-0.658878014580629,-0.78814182742009,-0.14069671807157,-0.0505973915150515,-0.868295931145037,0.0495552015507957,0.295951683425015
28.36,-2.32885370071987,1.44936310268082,0.655634007616145,-0.818253543408331,-2.79584017779981,5.85731145795454,-1.84931451773625,0.435106758631067,-1.02640979516959,-4.24073027710269,-5.41562804827725,1.38193508093556,-0.524419021428483,-0.211194232694284,-0.35357627507208,1.72722747056486,-0.55918675661087,-0.768340124471455,-0.82633183784423,-0.152211335083763,-0.0462402016989486,-0.837991792512665,0.0958346588887851,0.317428052425385
28.365,-2.40053042875921,1.39763574971419,0.492715004641067,-1.01742960515629,-2.64757343238575,5.97648606942497,-1.79150578609201,0.523131942633765,-1.10887765433603,-4.45346154083501,-5.31833131808414,1.42171471438678,-0.554023335071462,-0.156992974841805,-0.35646155979119,1.45146371734644,-0.562718579971224,-0.865169868570251,-0.87547235891645,-0.163234253027271,-0.0352119456638129,-0.842583765982717,0.120429502546778,0.314795062423626
28.37,-2.4773893829178,1.32782827624763,0.295645757566878,-1.19304324437186,-2.46190308815929,6.07422207986658,-1.73513417924964,0.580703107832787,-1.16216065460263,-4.64469953367471,-5.21657133446497,1.44038481340196,-0.606428574655946,-0.0940930164823208,-0.360160919783574,1.10239414383175,-0.581720818950249,-0.999050259189068,-0.916632127409589,-0.167747251441197,-0.0351072586439855,-0.850757637056634,0.116060554638235,0.300420376013331
28.375,-2.52849375558911,1.24145770122815,0.107860564159478,-1.30594556486676,-2.26763389391435,6.14241880926226,-1.67186608316939,0.619414609447451,-1.21314255875226,-4.8746503230872,-5.02617613889053,1.44037040836689,-0.645019841254111,-0.0307482950033385,-0.359387129427437,0.763799100366583,-0.603188094493337,-1.14324650903796,-0.947798927297341,-0.169528380980495,-0.0265301932476012,-0.85185010548757,0.0910952194122218,0.288128128887906
28.38,-2.57451937000283,1.06451502592598,-0.146752077732814,-1.36367789514035,-1.97294118359551,6.16013025272416,-1.60953747557185,0.639490652938141,-1.25901865765409,-4.98591709339035,-4.91370777014758,1.42890562845767,-0.723337811183456,0.0353753926083434,-0.379979570025357,0.475959480576923,-0.616700476230777,-1.29169493304655,-0.983324140765543,-0.161639817651905,-0.0138512973849432,-0.850929957321931,0.0397879655874606,0.279938379883978
28.385,-2.58084591535399,0.858141709666358,-0.351188903239902,-1.36193229756905,-1.65244451127952,6.10891182122957,-1.49627585791284,0.614696930122868,-1.26876546030308,-5.16198968098437,-4.67053133578458,1.39497890922987,-0.809858898924591,0.122866156204294,-0.39566558601976,0.207535547948081,-0.618231775622657,-1.47025968261726,-1.02313085187475,-0.150878747759888,0.00207077312575789,-0.868959444485587,-0.0428768211218739,0.265409672698093
28.39,-2.52651949416841,0.433825584691077,-0.523385484887779,-1.25665425729277,-1.20473559026865,6.03691867617409,-1.37104133794234,0.532790823688713,-1.25999444068907,-5.30490156613073,-4.42933705191052,1.35686469600303,-0.877512064346037,0.197846709924015,-0.417951477066475,0.0220133222486709,-0.621109168654264,-1.58813668998028,-1.04163707188752,-0.138583793577186,0.00976081484027592,-0.893890038898039,-0.135791866640287,0.253450532619293
28.395,-2.51439363744611,-0.0428884810712992,-0.477271025165117,-1.01750623878204,-0.732038031681094,5.9441249779148,-1.20921652192483,0.391743336826419,-1.37300628541619,-5.56382773247315,-4.13262434195075,1.32898265779492,-0.977769786190993,0.293561096416143,-0.435701269204323,-0.197142254226338,-0.608460809830207,-1.68476034782975,-1.06922853336347,-0.115204124138719,0.0226897212183998,-0.916037463059823,-0.242261018979564,0.254037717733441
28.4,-2.62375505011607,-0.221606664840252,-0.345610985765329,-0.477577612484333,-0.370454399657423,5.81053349039328,-1.08957482686541,0.230218676888223,-1.44282247059991,-5.61646775312893,-3.83772025256089,1.26206119585004,-1.07978694632178,0.385512566611201,-0.436438455161216,-0.395822274032648,-0.592560004682855,-1.73144338111342,-1.08687372630397,-0.102986735307904,0.0259600398084819,-0.924543738091805,-0.33036021085122,0.265313680151368
28.405,-2.70807725191931,-0.150406998468588,-0.264034928663632,-0.0679864122969643,-0.181354014929087,5.64027575544357,-0.982488873271644,0.0749511640851153,-1.46294218396147,-5.43634340397111,-3.46978564151236,1.13663923367978,-1.19578570279632,0.491763423391623,-0.411402647513685,-0.573230549727618,-0.553456007883353,-1.74460016019814,-1.10222964508538,-0.0794634349796216,0.0231991855062687,-0.897434889097392,-0.38547950544848,0.297351788300756
28.41,-2.52941609129349,-0.153304972063447,-0.262588833376406,0.107145682960998,0.0192936564430504,5.39426554861554,-0.929437375813722,-0.045364946422635,-1.51115658700466,-5.22841274052077,-3.03809327631874,1.02054366567177,-1.32669529303432,0.621431858545821,-0.368779969459309,-0.737470860246844,-0.49373821079256,-1.73452868949274,-1.11595345883808,-0.0548114321715198,0.00894860838641767,-0.870000991187132,-0.407406488455136,0.338398046386964
28.415,-2.40509100804941,-0.289543542528671,-0.207781775874755,0.109412235529212,0.236492679253814,5.09154241790287,-0.955845308380641,-0.126212685828683,-1.71278861554898,-5.13659658366628,-2.76610815693072,0.97749386285526,-1.43086770423805,0.714509527007495,-0.326764673127516,-0.868174874578297,-0.425999039795777,-1.71134348934035,-1.12721760820207,-0.0377710277621418,-0.00448094096072631,-0.8722765866428,-0.384476310621829,0.380464769376572
28.42,-2.69133523136273,-0.501148572979631,-0.13527308549584,0.0755709865299109,0.355778730308329,4.72515772692844,-1.02387019524179,-0.203679352502442,-1.79910771145262,-4.86851473326636,-2.69113706955457,0.864866313410451,-1.50896763410596,0.798891959004656,-0.280456259850165,-0.976714325579074,-0.342439888967807,-1.62573179695774,-1.12729923329814,-0.0267271745999944,-0.00709449905556406,-0.859875840178446,-0.333412172222737,0.405608211132621
28.425,-2.7770677807881,-0.553110790274481,-0.186677667169606,-0.0754422099119797,0.332739763829584,4.41023399298524,-1.04264361654731,-0.321456906971827,-1.71038181502112,-4.52188120968542,-2.59837406578274,0.713496329836246,-1.57628521241289,0.876283464640736,-0.230894010279565,-0.97027825015459,-0.231752384247486,-1.45377762458268,-1.11674834780267,-0.0192754216601683,-0.0130643976072656,-0.859885511697019,-0.247560837155014,0.446461881502789
28.43,-2.74502824770668,-0.652229991293492,-0.339808022531764,-0.143220816087252,0.281919347696952,4.03942191842135,-1.01431712000459,-0.380380922491223,-1.58631149058406,-3.97296594017813,-2.33858588968811,0.517897402932312,-1.61757470207668,0.942970207512018,-0.16647515622497,-0.817026900616108,-0.143405353906851,-1.23729513097961,-1.10961443973345,-0.0250784998900663,-0.0140231863047786,-0.8525366916006,-0.169397943642631,0.474554588910808
28.435,-2.67742234642524,-0.7323080212069,-0.447512258190356,0.017387320973957,0.215745939099247,3.68821467166707,-0.962227024958686,-0.400602348910814,-1.57959634996686,-3.61309509640568,-2.02779999803643,0.477673050842467,-1.62833063191864,1.00686532177151,-0.101071892156294,-0.524110200501399,-0.0687734759396252,-0.959080435654475,-1.08868002568366,-0.0377211432925946,-0.00017704920221418,-0.841845596407512,-0.0823416333513217,0.48288768014135
28.44,-2.63189826439235,-0.862318911035549,-0.584260238530683,-0.0161333984729051,0.223817367329541,3.32668310809773,-0.810279551673414,-0.399891778222066,-1.62627187393306,-3.16113058097633,-1.72634944615755,0.558219747482287,-1.64049717562958,1.11996644308062,-0.0159948509535474,0.12003236196953,0.00442240449456939,-0.515270322388336,-1.07522409849001,-0.0363305879935015,0.00857199846424731,-0.82425121629718,-0.00638968305841748,0.478518414446049
28.445,-2.57003382584917,-1.00170660091989,-0.695336418032665,0.0165707497582775,0.265777472093749,2.90144901143045,-0.601194803870885,-0.365517207925237,-1.58934675522541,-2.66964091897975,-1.49010394953785,0.670717421378043,-1.62636743866065,1.21138802485581,0.0524115668906897,0.847808356360634,0.0412770930318683,-0.0927750197164641,-1.05515647425294,-0.0546235845987832,0.0306455083111567,-0.774678749893735,0.0667251493541704,0.453896925959439
28.45,-2.50645299264008,-1.07544408562679,-0.77282824168152,0.0918484848966971,0.309463927478969,2.54946097332653,-0.382845427982526,-0.298881974584696,-1.50731002001382,-1.97610816351891,-1.11880065713537,0.774294127706259,-1.59327351859216,1.26323138831075,0.0904298719052967,1.77247309933024,0.0581339855178319,0.444859960706995,-1.02753869613177,-0.0651469981641329,0.0354220483995277,-0.720996172177459,0.133524362977816,0.421882825109753
28.455,-2.41662481702904,-1.14821525607088,-0.865884355228939,0.249127165707627,0.380040562717783,2.08488778973092,-0.248393873891438,-0.22992972360884,-1.46453369713169,-1.29696844004519,-0.711259344345783,0.813287781338511,-1.54904282634086,1.24868356900474,0.100695664635874,2.67274448882326,0.0391063615760523,1.06451851154941,-0.996867596837155,-0.0752687721822937,0.0328339364542394,-0.66334901297699,0.183909305166267,0.381943307090737
28.46,-2.33158079385406,-1.16133591533583,-0.895263370636394,0.41555781697896,0.457486581474003,1.65400187565842,-0.218794558018124,-0.164157462000568,-1.47093471594931,-0.699884960944598,-0.341247416546968,0.792146489648788,-1.45730281731382,1.1832117660784,0.0821548924019792,3.10386946225651,0.00973260542296307,1.39238024024523,-0.968653735134594,-0.0812237722567208,0.0301303425119088,-0.645291203390926,0.197806423772008,0.320369225884936
28.465,-2.24757358790838,-1.15930455705749,-0.876921164154296,0.587439620239327,0.552161700573937,1.2059861987728,-0.266029900193016,-0.0989051492879898,-1.47311138772779,-0.0219183276373324,0.0329888652676942,0.729263096715021,-1.33933009014953,1.02747480141661,0.0319530473016153,3.58494374020397,-0.0553010282641338,1.76756062039793,-0.935077402968648,-0.0903504998631963,0.0266098188667654,-0.679967608583724,0.163872849793202,0.271169424896115
28.47,-2.1527572303902,-1.13780283216475,-0.834175265702065,0.812345552068179,0.630051671747101,0.715613913288494,-0.335827641351652,-0.0598381392776385,-1.44385408930196,0.40989541858952,0.310683106118216,0.668017572223235,-1.26019559938606,0.868796472239543,-0.0146706638161512,3.76980555423211,-0.122824879532909,1.92144283193561,-0.982747910120558,-0.110316667690544,0.000310436129500989,-0.743897098316683,0.107155682064745,0.252742196761306
28.475,-2.07247375740856,-1.08676367366963,-0.785144737604374,1.01476619777718,0.693254065920048,0.234931952727498,-0.407282206783163,-0.0239903798633436,-1.40637167897966,0.771748507157649,0.64173024689397,0.609302146206784,-1.1916960739759,0.671712073434072,-0.0706114441191107,3.72617168803207,-0.20780600054665,1.8993058513675,-0.937044368619867,-0.108293233686182,0.00408053888909445,-0.714380386214369,0.0506040539600134,0.116055355435453
28.48,-1.96830054305143,-0.944767503870569,-0.713226538847166,1.2406991591726,0.765374490198768,-0.121811595450982,-0.479976447233046,0.0252301957394573,-1.33335664090418,0.996224441917451,0.906843967247472,0.572726427456608,-1.14291213431206,0.519382382729214,-0.11174712153604,3.48918472392629,-0.297380146837177,1.72330422286707,-0.792794288078604,-0.0983162128335062,0.0183277776900386,-0.728862662016637,-0.0573543130797723,0.219399315858399
28.485,-1.88982687897225,-0.779049776636078,-0.66442870483347,1.38592566214259,0.81014343250342,-0.470846808887487,-0.504401013121115,0.082841116304045,-1.24575629471016,1.157501811637,1.13206350521036,0.537524198394405,-1.08925579626334,0.373098030599441,-0.168846919133778,3.16602562139657,-0.356991003618105,1.41311797209438,-0.812063737196162,-0.105584254946565,0.00973326862878219,-0.75874723852059,-0.162161130777761,0.173298191108235
28.49,-1.84648298610682,-0.564051979347288,-0.65668213182651,1.52884734585745,0.899320386497036,-0.862700854172963,-0.509909649047237,0.127618504025032,-1.10715749928275,1.34566060732076,1.35894047574538,0.481624779825716,-1.04508940347659,0.229978409245503,-0.246561711981564,2.69689769921611,-0.438011029590475,1.03677871026717,-0.8070528054851,-0.0849900501990695,0.0446900877754877,-0.810810288079104,-0.297494405268856,0.163494542241096
28.495,-1.77108237238952,-0.236291249681879,-0.691557576463387,1.58562663791937,1.03396333772,-1.21142206557807,-0.503280302973723,0.112707492892552,-0.914040088033442,1.61063014173743,1.55600773793958,0.392368704418274,-1.019204838379,0.117817904160266,-0.273839461774364,2.23480360309007,-0.396853423278555,0.778386055055052,-0.784747841203149,-0.0920264027007391,0.0796032016520871,-0.779982299705963,-0.362816893266385,0.0464529936716931
28.5,-1.7390821442367,0.273466814759431,-1.16717537767435,1.1511824587884,1.36152511326031,-1.65319060045463,-0.536431679388631,0.0616071559205315,-0.632880905514166,1.94650972988301,1.70696900921859,0.27636801141023,-0.940275353994053,-0.0967479247559385,-0.388822602232606,1.36372290897328,-0.534810194002867,0.612756559918177,-0.760159613297315,-0.0775231067255068,0.127896604467334,-0.808971836519736,-0.336673141323543,-0.0253236909880602
28.505,0.241831027416849,-0.313123002162859,-2.39402724566188,-0.890897832283455,1.03947274245967,-1.79913464039688,-0.911712164243985,0.046956747929916,0.252122345238119,2.68983972861817,1.80030607135206,0.109052267521751,-0.897553449333937,-0.216683113823464,-0.414035827170392,0.28664015599879,-0.61883913103723,0.616929833320364,-0.748328826878417,-0.0666489419789418,0.188580392179309,-0.852864220153394,-0.282762422259117,-0.00231920515967343
28.51,2.77574290827747,-1.60551718667393,-3.36932771102808,-4.33198968028312,3.86356844467753,-1.76350167082696,-1.3795893559282,-0.225671111485168,1.62604383274329,3.94709311798442,1.69728563253927,-0.00999431819583242,-0.84049266953742,-0.253246178433022,-0.355719846516384,-0.694069673118946,-0.636566251280437,0.773565762523444,-0.734239899431347,-0.0627511952444063,0.23721465189083,-0.818048933339199,-0.205986907085359,0.043907768523863
28.515,1.0776580261145,-3.15298821850125,-0.432426082751766,-3.08730328305868,8.30552174931433,-1.11211852678757,-1.75240249248952,-0.848581478655027,2.14626267986444,4.89229292928394,1.27905504157548,-0.545936963798535,-0.803644833532881,-0.227361947510647,-0.317991360253472,-1.16150012876425,-0.624588796059349,0.981271189122814,-0.741504379328582,-0.0521762577066817,0.262587163782621,-0.723688413018263,-0.116161382706048,0.103154580547733
28.52,-7.59595704615889,7.83255934853632,7.43679032800714,-7.87319187646749,4.83978134452094,-4.59036258938943,-2.23471622121729,-0.551112045404386,0.17539734399244,1.04922592571518,1.77300999051785,-0.836631908988235,-0.811745604275657,-0.100022835634054,-0.36579225949298,-1.29432335573681,-0.587964854745006,1.22148547919837,-0.758018331985629,-0.0349049258901527,0.273978093346049,-0.598202078911466,-0.0206269186146756,0.145890702218264
28.525,-6.19021046307345,0.747498467577091,3.9435465868202,-0.286157319838334,1.85293345449108,-0.219713510113248,-2.46909226309078,0.550204427660122,-0.253175065499987,-0.317019692510142,2.32573452172695,-0.195282467806421,-0.87210254431688,0.0734066606241757,-0.472352606657943,-0.32633787868787,0.526977314329404,1.01796455633266,-0.814585147755556,-0.00945972548999295,0.267757713929863,-0.110570900699316,0.0492667283739896,-0.479038595560003
28.53,-4.37540560999535,-5.87621151981275,0.262748064369514,0.643991542469737,-1.33008601421087,-1.21838654989578,-2.66622803874762,1.52409809621891,-1.32166593908217,-3.89897044615853,2.68031939095162,1.47446148978752,-0.968191474680156,0.234668919934057,-0.553658842728134,-1.62975544784939,-0.511967022838295,1.60277545385701,-0.920885124424675,0.0214694744852695,0.224833166591726,-0.402951661150192,0.136734885500858,0.201367080211639
28.535,0.660984063746055,0.993107184252732,-0.721826382804212,1.52824161042924,-2.09477001941826,-1.58990043321472,-3.33774424275425,0.786620887692097,-0.661686066153189,-2.99200661989057,2.95410117856555,1.41868267499571,-1.18336605820088,0.485497205023438,-0.685408727161811,-2.10480735946775,-0.470753416239737,1.65604565225186,-1.03624428928413,0.0600258024022443,0.146944790645248,-0.347437794543651,0.180216977358809,0.200390995674383
28.54,-4.26536346359013,0.480502345145486,1.05244077247709,-2.29029974751464,1.1149669877485,-0.855870795983502,-2.78038312001891,-0.724267834259577,-0.888434657841843,-0.500421882723356,1.99031208753197,-0.155820866793908,-1.41312567386367,0.70971875058428,-0.763148147208324,-2.46423640029803,-0.383990910840821,1.61918816006285,-1.16287918086349,0.109188361639562,0.0211598155681648,-0.345374696959907,0.269703373577797,0.184315901623495
28.545,-0.61966156929972,1.13981008261571,0.792463515468238,-0.705214372836757,0.0175208288003852,0.237746327456331,-1.83001443937567,-2.00652206347042,-1.65706180462302,-0.78707776148868,2.18594496463689,-0.871100363416529,-1.85282037824729,0.645857532895771,-0.739689748272021,-2.51544041494989,-0.108681929372112,1.27339628352797,-1.32178463811903,0.182876317219148,-0.152988206540187,-0.474581875382872,0.435837468430522,0.160772938028213
28.55,0.166620869789206,-0.16150424969019,1.00137825545692,-1.45360027879439,-0.114469496423153,-0.0308907717103307,-1.59799060749165,-2.50377838643443,-0.982884678759416,-0.189881096354275,3.12783944190658,-1.22892043277799,-1.98927276935673,0.203248547790038,-0.520545811871986,-2.20202524815239,0.0734656878984162,0.709687867691641,-1.47781431891298,0.260821712875737,-0.303933116838262,-0.692598276440409,0.621574661314133,0.127920598136314
28.555,-0.190959248886318,-0.704013397834853,1.15620843783068,-0.00771404740194216,-0.325056013741056,0.0708080366202208,-1.53313881605847,-1.90980317226329,-0.501000515162381,0.461698473211835,2.91715349627282,-1.82859379186168,-1.98745913504583,-0.392535952570923,0.0645759392666372,-1.87872705454771,0.0108016737402888,-0.112573913173304,-1.60809681200807,0.349089741610539,-0.446764658065914,-0.942287367567251,0.940131244836155,0.0974809165121377
28.56,-0.771648528624639,-0.440973495144874,0.77541741515136,0.63329650938219,-0.551473867148855,0.072969075293043,-1.59748324712498,-0.574283256694639,-0.696841207089051,-0.197129403171704,2.55560049390998,-1.78080627322232,-1.72668135125855,-0.322394836912724,0.818236899226966,-1.7749938143915,-0.0907301421553732,-0.708322113360599,-1.68610684159247,0.418887711015685,-0.563663482716283,-1.12665455687395,1.40231939315335,0.0473014706787671
28.565,-0.84317375847172,-0.120562437331125,0.807458200448425,0.634070789393246,-0.621364703359228,0.180696710248767,-1.13961921321621,0.0502042658135935,0.287883291709336,-1.41681280692706,2.86122317593206,-1.00583875539997,-1.50913221072768,0.110527296079816,1.37340418150949,-1.87903501536069,-0.669875394166395,-0.8462046714498,-1.67167898856482,0.460133607451463,-0.642192135858407,-1.12625895763688,1.89647356132763,-0.0125815367552298
28.57,-0.490745192580505,-0.148708727196015,0.939664493074347,0.316264745054574,-0.407429069906192,0.315143825708449,-0.774610014467318,-0.0998979239973294,0.815302140643092,-1.08703465199709,3.30436389834165,-0.439288488333788,-1.35805534099363,0.104697542810654,1.53995961399,-2.60511126984576,-1.06271236353393,-0.615059752412921,-1.55707668487421,0.467078431868411,-0.696615274344757,-0.959071682865956,2.26826201705228,-0.0522337968211423
28.575,-0.272836608285649,-0.0746896350672267,0.991919724921109,0.24899340972092,-0.132675151010667,0.41763208248581,-0.544692307200463,-0.0899718212422537,0.12398336531891,-0.107753844929195,2.91147755173436,0.0472614976387886,-1.18113551769122,-0.312977422441214,1.43199990447159,-3.61061837885883,-1.37311591615016,-0.337841822456879,-1.41388513663073,0.450860077303661,-0.731542234387767,-0.740864385942035,2.3531715066473,-0.0777889707321924
28.58,-0.317474811444852,0.251901764843595,0.918413967229584,0.321029810382858,0.0252229717287581,0.409693635008191,-0.303321396696257,-0.120943904158297,-0.538978813176003,-0.347113358686628,2.2092908356027,0.183285037312037,-0.871071395455415,-1.07209364477068,1.15763526068636,-4.05106747386874,-1.52865386722416,-0.0464488743009053,-1.30866262981652,0.467576754969109,-0.706763534727562,-0.559391266840846,1.9906333753629,-0.0856377802040553
28.585,-0.363620467221303,0.33781431812668,0.920740883369376,0.0824158242767969,0.164481961177237,0.346476155855559,-0.15500812974628,-0.0329648837698951,-0.67551040096552,-1.40795512682734,1.7983984413144,0.28334893700573,-0.677291663041918,-1.59657266563797,0.738339760788756,-3.65739875612779,-1.35613517116909,0.147186227866934,-1.23509622265756,0.501273070172652,-0.602497349107811,-0.284396076565535,1.43051314278655,-0.041874450950928
28.59,-0.321139063581414,0.106995994468917,0.937174995956265,0.0132301069402804,0.152603113220996,0.285720517088779,-0.157659185837267,0.0391580216020156,-0.35664269801492,-1.92742145822891,1.44834005847008,0.352761987105382,-0.574180170106104,-1.68741441291689,0.216489841135386,-2.54107188055022,-0.979196329640832,0.149582960799896,-1.21498628143983,0.541653100746029,-0.507086487009395,-0.0508911794719366,0.777048146726425,0.0452894714116505
28.595,-0.398107977722835,0.144864879698924,0.908104464615941,0.13590253176663,0.0652185931292334,0.262469194474741,-0.205295103996339,0.112480238433504,-0.20646834138352,-1.77763835604856,1.28717564517082,0.335335377545156,-0.516699252696062,-1.31709479664212,-0.246013846581163,-0.511237160956493,-0.510346143514538,-0.0528500919408916,-1.24423215165887,0.566658079136583,-0.430726418919186,0.128956326456236,0.0839955059243613,0.173535929545052
28.6,-0.447255834250544,0.344126833522585,0.833368272813199,0.214989602673089,-0.047349165319492,0.232542669759407,-0.290289737289937,0.23682810940721,-0.336625302636041,-1.41397429913121,1.29099118864052,0.336288940503581,-0.477232897222844,-0.683617009247062,-0.527624389430301,2.41114419253946,-0.0826163261978772,-0.428924899816604,-1.31757559271437,0.583513008892254,-0.385168611278095,0.154621051628701,-0.526381794206414,0.314904099718615
28.605,-0.578107866247172,0.410910094232281,0.787016500060708,0.182600010544655,-0.0426178972574371,0.193408632129111,-0.515911525942337,0.240018930267729,-0.548090769603737,-0.82947645888207,1.25001376739126,0.323844638357996,-0.494928627502258,-0.0488641194563832,-0.572494480777999,5.87580115391009,0.301632304921454,-0.748018473472634,-1.46694202943244,0.534846804090673,-0.374099800749984,-0.143547209345868,-1.04932204341863,0.493739952603519
28.61,-0.647259494676289,0.372033563674921,0.748896226161587,0.118455485831895,-0.0223660023950512,0.139554825437153,-0.736842692827894,0.0990617799878607,-0.60727244036503,-0.560470480922322,1.22236447759831,0.368240403148356,-0.598412805945814,0.39687326137506,-0.427216357790578,7.14137209734951,0.554551129751395,-0.57439727318898,-1.54459150788344,0.434578664975092,-0.345971935791757,-0.431555906456945,-1.376658751937,0.610138664739278
28.615,-0.617933626855076,0.33912098698475,0.786708528469414,0.0515101540204563,0.0147207857015091,0.0929914663816877,-0.990589660754328,-0.0753137475874061,-0.601249793260877,-0.548750008445199,1.26996059207774,0.373109516400329,-0.675802248741252,0.540177673532706,-0.32719986645407,6.7556460424312,0.756828946577028,-0.157418818723348,-1.62937490987529,0.340120176265218,-0.299356346107539,-0.749638497966888,-1.57656797381285,0.757020440914676
28.62,-0.39945663161811,0.21773747203404,0.899923602518735,-0.00728012565082039,-0.0100851561874151,0.0549449124749881,-1.24439775341091,-0.186689897193764,-0.526082283143635,-0.546483149726786,1.3713466022966,0.217311357022903,-0.693561175182292,0.511310888551944,-0.196059488608626,4.3434346858081,0.944444257598156,0.583376493722613,-1.66528113419271,0.280559336241168,-0.212271700933088,-1.03383214058998,-1.64533654814629,0.86687851602472
28.625,-0.446839335192789,0.209898760663718,0.854156799368583,0.0531335940197435,-0.0222357356155606,0.0401590517772505,-1.52833861781934,-0.252151791441815,-0.46890151043878,-0.59231317041631,1.36873988870541,-0.00796094530819676,-0.660020452096116,0.310117455850563,-0.070693011949672,2.3475093342554,0.973250550600585,0.914673971223514,-1.58634762337834,0.271941801352921,-0.0552411877903819,-1.24416384244801,-1.64675162442657,0.889361449715217
28.63,-0.455077522328941,0.237764512505117,0.874349275267894,0.0848498029984973,-0.0644231213472419,0.0378646105881914,-1.76529700949945,-0.272906424155209,-0.448471251658545,-0.885308335642755,1.24525370224315,-0.182930225689749,-0.59441300418424,-0.0119450768038186,0.0676225020375515,0.743371202448303,0.912077946318083,0.688614930964325,-1.42856498955867,0.311176033765968,0.143666076807693,-1.46148453924186,-1.500372779609,0.871814728794308
28.635,-0.36968327930576,0.192540816170609,0.891374467235909,0.0915687313809464,-0.0898124038934591,0.0466174258797971,-1.87317785249229,-0.31644871066409,-0.429763966128903,-1.05489182678301,1.04071625581258,-0.19354411886721,-0.552245310412368,-0.346923647572748,0.226898083190681,-0.0174701045298438,0.751870618841793,-0.149119014669437,-1.30064057956055,0.321714922008153,0.222855892103806,-1.58212001630966,-1.13098034419912,0.818997292747795
28.64,-0.445879350464363,0.254359864651931,0.895818138953307,0.115210995806724,-0.0620118297378434,0.00865111406783076,-1.62832905762151,-0.325937741567313,-0.437550473201055,-0.839252887218933,0.628136274083844,-0.151994301226804,-0.608433474949094,-0.597464372656291,0.363259928627864,-0.00230078843577677,0.556586348991831,-1.22660494298515,-1.20791530166753,0.297668390820627,0.22417034004418,-1.68124519830799,-0.706981909779992,0.71831955626783
28.645,-0.424654727961516,0.21425342369399,0.882309517374822,0.086941277338435,-0.0104311624486199,0.0124444843204397,-1.36641455872938,-0.222055399536728,-0.355352734694059,-0.553414019793925,0.388233162423777,-0.114037286101384,-0.809313644369759,-0.823755334309981,0.468435130515649,0.472521050319151,0.28295485066069,-2.35010332847071,-1.15195138551955,0.208506948432603,0.110438566410523,-1.60314811827982,-0.282886891174548,0.541704973303439
28.65,-0.430547395605041,0.216203591898233,0.883853463340794,0.0720953475325439,0.044887366466987,0.00538742976666564,-1.15027419833615,-0.163135615695759,-0.275304205696143,0.0735416752097621,0.287833736791179,-0.0342486280410266,-0.955751085045787,-0.912427045456801,0.499269931327195,0.832825179988519,0.0382962877323129,-2.74829220524778,-1.13663361929235,0.114256666599859,0.0536582320592773,-1.41215100668054,-0.0628049700727067,0.31990505510637
28.655,-0.427337312697418,0.215189422654423,0.886160126941125,0.0681333627415268,0.0792938306101639,-0.00913184316886878,-0.992126565332754,-0.108495198702904,-0.303366516219526,0.619067514263996,0.239792717613446,0.0215289372713245,-1.10626496161633,-0.866081678830808,0.484727220528897,1.11862306490837,-0.272620198187574,-2.71615505459138,-1.11664216199008,0.0300597400650104,0.0239113015084749,-1.16723742220388,0.0808257846067575,-0.0195852241646793
28.66,-0.435587639720785,0.218975164366674,0.889567469400593,0.0918934270739555,0.0714951263440063,-0.0109212818753619,-0.934513393179825,-0.0406217802710588,-0.344573390330058,1.10889000930134,0.263797149914559,0.092166156098883,-1.24123588442572,-0.696297906341665,0.442593486229866,1.26870758173729,-0.510851026336933,-2.40236601638367,-1.0792529421519,-0.0392962776964368,-0.00621531564766352,-1.01978020859861,0.160884609577913,-0.383997199066615
28.665,-0.439475267559564,0.211669575710083,0.877626921660643,0.103785544475172,0.0374085771021175,-0.0291917401705452,-0.969809229401504,-0.00867484075554664,-0.323289589275618,1.31536728548465,0.318800765268639,0.16962605453341,-1.38793322626254,-0.461813620076313,0.375495121575917,1.34404547936968,-0.647891287004736,-1.91891993734176,-1.06159230539405,-0.0721980163602215,-0.0635979601533379,-1.03192847701663,0.210114397601038,-0.61304002305596
28.67,-0.440470009670578,0.230334406112452,0.86800322161044,0.133367215882096,-0.0128002467493742,-0.0437012167991608,-1.00754987048318,0.0329085868895361,-0.28538767198132,1.27977793780079,0.311923590403112,0.262517211617326,-1.54827867767149,-0.179067511742577,0.258401966772765,1.22521805079018,-0.643890747703127,-1.25703705590915,-1.03373443579058,-0.105741237268394,-0.171929162274733,-1.1712681407474,0.25881204254156,-0.680372432652519
28.675,-0.433903527144896,0.231650840823919,0.876375169947605,0.145720609727613,-0.04443786607387,-0.0597897163912345,-1.03712883655846,0.051493035844239,-0.227673195365135,1.07222358184071,0.257448996259023,0.338516966045498,-1.64157164465347,0.0601520059672534,0.137342961214627,0.653405754632291,-0.479250932547352,-0.703831003468179,-0.983544690974051,-0.12999178869838,-0.274512150627784,-1.28856156880884,0.289755203645037,-0.600968005981373
28.68,-0.417018524596748,0.203741740658631,0.884624571828706,0.137383128046643,-0.049753410616536,-0.0631976965389936,-1.04405482321607,0.0401630081322233,-0.175052357734016,0.838286754893583,0.168449245269468,0.381794297408531,-1.60947837362929,0.172609571156698,0.0978998608667758,-0.0859131257506379,-0.238423532205342,-0.298493863178977,-0.94469157992168,-0.136198402073296,-0.34151153627094,-1.32097657800072,0.275495483189898,-0.483181149381604
28.685,-0.419688762748769,0.192686454224476,0.88886975399813,0.122317733377626,-0.0235657928762528,-0.0714362916052246,-1.00261231868277,-0.035076527469575,-0.143773975221448,0.614316339894906,0.012908245917141,0.374233305644199,-1.49948935594772,0.195956699739808,0.114751351598176,-0.423826917577266,-0.121058247908995,-0.274881209102815,-0.916945223541127,-0.140775596893319,-0.374699170653711,-1.22766274166787,0.189300719217793,-0.414770671656412
28.69,-0.418365241525472,0.185786743298708,0.883170812475882,0.111105779468859,0.00726935556191281,-0.0698458573532211,-0.956881464059186,-0.0872355000774177,-0.155038949938144,0.537804646716213,-0.121761226100673,0.331180593117382,-1.39654247957819,0.168803877569889,0.12405909723224,-0.200726746963204,-0.0303494727289398,-0.362730868306698,-0.911732842499336,-0.130457324876485,-0.384070534558286,-1.02709971646708,0.0527594149866405,-0.388787699026581
28.695,-0.42349616706916,0.18892790478493,0.885782388593863,0.0991471317691257,0.033244024036899,-0.0677566707725466,-0.916474717827768,-0.125338797873134,-0.168704550215901,0.518252415619505,-0.276231883829715,0.270565631681804,-1.2562982666252,0.132357482047777,0.0317488340661399,0.301350462203743,0.0615541680437636,-0.456391927095615,-0.928896615113319,-0.115772543741927,-0.360802649838887,-0.802751903792915,-0.0659663980917867,-0.35975751642803
28.7,-0.429355145330167,0.193436095591909,0.88009877253852,0.0900014601898193,0.0492264450302781,-0.0611818168842093,-0.903455837042778,-0.122745257413995,-0.174017753129162,0.512387614998362,-0.367219003443319,0.225075404801379,-1.13968221448378,0.114113586078152,-0.0949432344844966,0.6793745676136,0.109221337544194,-0.481306843995479,-0.899423830482794,-0.0748139795907078,-0.319697774198217,-0.497554369480663,-0.166740263282105,-0.29871597365484
28.705,-0.428887793496826,0.18377446371213,0.877192104366286,0.0931551918977916,0.0448910966515541,-0.0567486847216275,-0.895242699243429,-0.0712520275234553,-0.17532230774841,0.50215973072513,-0.45965821928517,0.186103071851977,-1.06151577628496,0.110555668552661,-0.171929901814021,0.77845191515956,0.121228616429959,-0.504554727946018,-0.982314896552284,-0.0192674039084958,-0.252920095673454,-0.290273395198452,-0.19139545502287,-0.239396964053282
28.71,-0.425152593665883,0.184767675440638,0.88134388910493,0.0921238031692832,0.0448910966515541,-0.0549912600286813,-0.919985638228724,-0.0017842591263874,-0.177050134132349,0.454198533954676,-0.491953003066579,0.181189067770064,-0.997132268871476,0.117212744089651,-0.219535947212542,0.803987973545584,0.0917409983221975,-0.594759622323302,-1.00574829629338,0.0380723054756389,-0.192189803986037,-0.162716290560433,-0.163125090646541,-0.144600086342417
28.715,-0.43254760557495,0.185482440413479,0.877163918869877,0.0900212658856254,0.0438598136678197,-0.0420802324178341,-0.965092600249502,0.0921103187575507,-0.165037449710317,0.390509827881046,-0.482274842948829,0.204626249724264,-0.940182180667691,0.129409984309839,-0.264486000446264,0.840581297585008,0.0248456250336817,-0.755251513527864,-1.01628014835671,0.113270222953264,-0.130632269164152,-0.132152420745779,-0.0634059626561585,0.00490209423133289
28.72,-0.4438356340025,0.185287617289142,0.882126617929572,0.0980018973350525,0.0314524583518505,-0.0500414210349618,-1.01092514089277,0.165551370231449,-0.153443716170638,0.319946440693253,-0.458353515363588,0.24571542369559,-0.870996137335623,0.137816356339712,-0.337417578947134,0.856359099230538,-0.102035450485172,-1.03881252792958,-1.01630321575736,0.168124315049531,-0.0883527782240789,-0.205347232922212,0.0513972119806781,0.158103646580397
28.725,-0.446236287102707,0.211360071901322,0.867505600296386,0.0975744564948731,0.0280329303270272,-0.0377101983420612,-1.0535812569077,0.213641834911701,-0.139407064415082,0.177016250656482,-0.444509246896848,0.278516359590446,-0.835121583662163,0.132933446997036,-0.381855210745005,0.728427572046122,-0.197821012135758,-1.2752538853053,-1.01758683275869,0.209518190810928,-0.0684742089572093,-0.334767542219655,0.129580344606526,0.310660412972751
28.73,-0.437325992485442,0.209532728332336,0.867073977072849,0.0814014271215587,0.0260728380953793,-0.0374113913217916,-1.07559023143461,0.226351346007531,-0.125169201653277,0.00943690861580238,-0.470006370268789,0.259019297113866,-0.816481692871009,0.123298570429662,-0.404727503594894,0.453437151120832,-0.290498366033925,-1.5152694094505,-1.01852974008074,0.240841709886792,-0.0580812955673757,-0.466803103726366,0.16564671255351,0.429669300500063
28.735,-0.433472712733139,0.217129785363806,0.870030949241865,0.0659198494396947,0.0196404883048708,-0.0314145095390656,-1.08949130675029,0.214446327990076,-0.112633293788454,-0.286162406390781,-0.468739770586459,0.196629076444967,-0.807707041270445,0.117144952505237,-0.401644376798517,0.149286248415122,-0.338218386917191,-1.70037729401984,-1.00487903641178,0.258600428371065,-0.0497086254076907,-0.548845233494816,0.153721937359179,0.464663538852626
28.74,-0.416740241622905,0.215711115037884,0.873437892764299,0.0501175574898459,0.0189435236289311,-0.0365237824352167,-1.08049014281263,0.188094309367524,-0.0853077337755785,-0.507604882906694,-0.435972259638849,0.152051807361802,-0.815696822596817,0.113592609165789,-0.382526429216184,-0.0901946787525381,-0.341984752931129,-1.79786977950516,-0.985085643828721,0.270412159531162,-0.0369307919471441,-0.596453430653176,0.119248813897291,0.445725507622093
28.745,-0.413384937497457,0.209281549920684,0.878649856946569,0.0304666201770244,0.014674519822,-0.0412501033147179,-1.06356082633749,0.1294096925841,-0.0579146291166716,-0.853366049699957,-0.399995741727911,0.0804924139648304,-0.834863814379674,0.102389892183305,-0.342169255307661,-0.295004248216081,-0.307957210546331,-1.82784131396605,-0.957528616222927,0.281353729875024,-0.0170946860439209,-0.622202349146868,0.0795838366966622,0.38109921571912
28.75,-0.409334126711989,0.214985384074008,0.872796434531661,0.00862612215416651,0.0143113999815441,-0.0376949798417263,-1.04344191307748,0.0793261338317565,-0.0504231781661089,-1.14833542429388,-0.377758757001826,0.0208884453468875,-0.857039504646741,0.0886303603366287,-0.303962145852467,-0.423021066210484,-0.273269080776688,-1.80416283576187,-0.926638528991963,0.283752710688307,-0.00744929988034917,-0.633840302614052,0.0474449698641132,0.312549249395295
28.755,-0.411885417444457,0.222112649893406,0.870262101429983,-0.00533407248557869,0.0157434055570441,-0.0431078566014867,-1.03178949758231,0.00229370103405951,-0.0281075092874225,-1.39095376383201,-0.341086511346016,-0.0146938685167171,-0.871194837905779,0.0747284579596608,-0.257400349712658,-0.580627317671713,-0.231499868102734,-1.71524696625445,-0.895480198220598,0.280451760162966,0.00184449798034026,-0.652903535607489,0.042960319365841,0.224533658574934
28.76,-0.410452205679664,0.21938566582405,0.870002313530721,-0.0102075053173894,0.0189792489584609,-0.0329153812611292,-1.02232056435299,-0.0577389417746411,-0.0197321303336643,-1.46647872675599,-0.308198374913796,-0.0266070138179079,-0.876581529558943,0.0660016939175338,-0.207176902216631,-0.765543375467032,-0.179344075107169,-1.60070753447671,-0.850161394988135,0.26012711664605,0.0029640048274202,-0.655916041721839,0.0680537798674351,0.160962415779318
28.765,-0.413416425076541,0.217124766038283,0.875717664108063,-0.0270240648866993,0.0167921241372824,-0.0375569598314559,-1.00689649329599,-0.112737119183882,-0.0160011997704672,-1.41677914079,-0.281681093462421,-0.0213116433252144,-0.877323709165442,0.0734987126330018,-0.12865390192285,-0.955152122515752,-0.102398478448752,-1.44798496550556,-0.826012766743412,0.23033431291026,0.00233601422279066,-0.654593524046254,0.0999844682246873,0.113216636426444
28.77,-0.406431107151006,0.216600769303464,0.875914448823762,-0.031426704600323,0.0182297482216236,-0.0409714916966919,-0.973440206386566,-0.182208499217111,-0.00943584074810069,-1.26031406371256,-0.25304193215815,0.00873746195000773,-0.876814982508818,0.0815777509956218,-0.0712618807784757,-1.02157320011982,-0.0463403685299884,-1.35325958359376,-0.798786801096308,0.190952070990343,-0.000256068958841995,-0.63596224139549,0.134291967965632,0.0778420826221683
28.775,-0.417852768573354,0.218156967371024,0.874730923629619,-0.0339411161839962,0.0182192845998127,-0.0424592120166458,-0.948680856069397,-0.231116785760516,-0.00780560880460135,-1.0396284003079,-0.238252318345837,0.0462589849110168,-0.881139914547626,0.0862203689197813,-0.0158470089694955,-0.992370347148837,-0.00730074278309337,-1.27209397199155,-0.77548666405494,0.164505454365988,-0.00565109870130229,-0.597788437622147,0.167258685099015,0.0542652361828638
28.78,-0.416613373416949,0.204378408892705,0.874347752457966,-0.0362455567299921,0.0173479145828989,-0.0508780364037357,-0.902135240543581,-0.262076154646786,-0.0148810577955168,-0.656520313341831,-0.227207944663561,0.126992453323545,-0.891698310274125,0.108803210998222,0.0313760440929966,-0.889666237488759,0.0127772647262393,-1.2258678333381,-0.765592770618393,0.151776640322772,-0.0164788773286048,-0.54527159442847,0.194587296341589,0.0242853248745967
28.785,-0.416130331641358,0.201221400558863,0.874220043933478,-0.0364291380104122,0.0275884343959832,-0.0500887632976997,-0.881796424322765,-0.287358491374944,-0.0205544623635112,-0.344769998328971,-0.232655347640913,0.194214534662484,-0.908209023055694,0.130884810937431,0.0603156484928009,-0.726571407682215,0.0118660945525833,-1.21594733668008,-0.742535910747667,0.149508522311003,-0.0259453295869439,-0.493671533429828,0.192691436261973,-0.000743029033622692
28.79,-0.413616521871107,0.194828278180726,0.878285446510105,-0.0352062853409063,0.0373339835696702,-0.0459403123299103,-0.86692810664131,-0.294105287372797,-0.0314604976175864,-0.0392096484912423,-0.247683895228418,0.252049013385182,-0.920933916593007,0.155309614789027,0.0820056672001424,-0.561123722702392,0.00729204422586278,-1.23873809962099,-0.722407792718363,0.146242871677034,-0.0350912932213143,-0.464780073049265,0.195625002705194,-0.0315415476977377
28.795,-0.410336819030621,0.185198463163611,0.875573105150495,-0.0263445204552227,0.0395266875043899,-0.0373727049954551,-0.859913658241594,-0.270810722756412,-0.0399723527033897,0.272631725286616,-0.267463719614615,0.288905256741823,-0.937291222288435,0.175169944342602,0.0964198594825425,-0.452710349072179,0.021486385050091,-1.28366284630735,-0.706688871427958,0.15526936313669,-0.03641278622049,-0.472687184619506,0.210049546740365,-0.0605601073154663
28.8,-0.416995502632435,0.171689569019504,0.870320481011986,-0.0356112253670285,0.0574597996320655,-0.0377065743683735,-0.87171019309844,-0.231606099200651,-0.0415033502725944,0.461630691456756,-0.277121889132663,0.28862873772283,-0.956115183494071,0.19480824112253,0.113937726026926,-0.340446082202406,0.059501650070738,-1.36224074198847,-0.691467109742371,0.152670489793239,-0.0451941786129835,-0.502267623936849,0.230623116909176,-0.0660631113010234
28.805,-0.417695101099361,0.18218937325434,0.872081386878896,-0.0222596928405662,0.0486398622762141,-0.0272205800356826,-0.886489361583911,-0.164039069659569,-0.027466202777098,0.590125708368399,-0.27368934737345,0.286234440729778,-0.974400054403676,0.201336443113921,0.122312292007528,-0.266331732985194,0.111765831006797,-1.41307004967779,-0.684242470684439,0.15839618116427,-0.0451091895421579,-0.51526290178299,0.246357146453048,-0.0595110762440975
28.81,-0.417840619141059,0.204049415338843,0.872058934925846,-0.0157583496501377,0.0523639163901737,-0.0225011669099331,-0.912614299709834,-0.0826237252872956,-0.00400011850792984,0.663446850207765,-0.254833943706839,0.28181897813074,-0.986581441526916,0.193692747385542,0.125039226946172,-0.20462391524824,0.175056276937794,-1.42951939899498,-0.677848471600901,0.16964498134705,-0.0508206595140553,-0.519027311755271,0.250339871336903,-0.0420795728338307
28.815,-0.422136779331549,0.214845905947019,0.87558122725278,-0.00813403801090705,0.0515088807328997,-0.0205670874260651,-0.935103699258126,-0.00947182986656094,0.0231202864276441,0.680970397537149,-0.220852533106023,0.271602571822919,-0.992980435266011,0.175862166045906,0.135301558694809,-0.153480303064471,0.251358519052776,-1.42636463629465,-0.682723001713145,0.185823196664469,-0.0568497895933466,-0.525316160553618,0.243326725762917,-0.0219919666169417
28.82,-0.410485241229047,0.215815984677118,0.878632515502752,-0.00550211500492796,0.0472494781000066,-0.0207694309295465,-0.965418743966376,0.0693027567339234,0.0495591738725004,0.641076419501856,-0.173074758145558,0.25742056214545,-1.00561039610154,0.150936480594059,0.160285026855506,-0.0830165078847252,0.339296241553791,-1.38746919456126,-0.696085301656204,0.198043826571854,-0.0568080825167773,-0.528089523550445,0.223486662207873,0.000399503182770933
28.825,-0.40875725962155,0.211490870821352,0.879790935081346,0.00035280738571594,0.0448046208419431,-0.0155845176450175,-0.979635397510772,0.113720992431248,0.0593567615836109,0.583794659485762,-0.139816853458854,0.241731743815118,-1.01812017171193,0.140692151395676,0.172328266220552,-0.0087044716086374,0.392641947782375,-1.31772643190501,-0.712363609145959,0.216442392620396,-0.0532591144894736,-0.505380917015306,0.201528157360745,0.0261702574066312
28.83,-0.412636457817615,0.221448901704521,0.871201637819664,0.0069541586318049,0.0389589578356208,-0.0170350335783329,-0.993231550878076,0.179213740953835,0.0734701909206554,0.48407579648608,-0.0773810924359791,0.222149823178832,-1.03909647556625,0.122147305014573,0.196498918881472,0.0871115319227053,0.443242274666527,-1.19686917663638,-0.736545091118608,0.241933903246699,-0.0473944604067943,-0.461863341758864,0.151610483945241,0.0255705478076584
28.835,-0.416080047186687,0.229456837630576,0.867918778710176,0.00982941557701526,0.0325048180637162,-0.0151709988713264,-0.995292238727484,0.214623109386355,0.0788656824782309,0.406285051663757,-0.0312875929864194,0.208442583035275,-1.05591034757845,0.114708812833672,0.213862775760683,0.169293546429042,0.464557149032738,-1.07973977669122,-0.752782303979923,0.247590176029325,-0.0476672792290018,-0.40559228453872,0.10130004196194,0.0267331239339782
28.84,-0.414935893684005,0.229400825304411,0.866511486488911,0.00352115071391145,0.0291367255601258,-0.006217971678659,-1.00099592630986,0.232451197765693,0.0694918723608186,0.281983818842825,0.0218656807565559,0.178435936029326,-1.08378207404176,0.109560633531246,0.240372134643602,0.237302425267478,0.459169395203481,-0.907238616946282,-0.778320302317286,0.243398147155257,-0.0529580320538763,-0.317396954467296,0.0423448242181286,0.0305184318537532
28.845,-0.41249706819337,0.23344421254482,0.867800785924347,-0.00120877665657494,0.0204572081565857,-0.00830228526516678,-0.982430902373934,0.240688094418317,0.0672967024494549,0.189692891058189,0.0487573747963461,0.138900722770325,-1.09760523814625,0.103031945471552,0.262511568064645,0.303612719162539,0.44047932464962,-0.75731590666542,-0.807397146421202,0.236622129665353,-0.0604284812400406,-0.191038711352098,-0.0507236396990211,0.02809019976593
28.85,-0.415440308488582,0.226081224592915,0.872280401105069,-0.00195392419845799,0.0137909014033175,0.000599462706850133,-0.973010745886489,0.246968131246421,0.069037457094887,0.0750805681995874,0.0848610495583357,0.0841813384451335,-1.10771542029941,0.0957234486112176,0.286541275622125,0.308039307594299,0.383084715291337,-0.658595526240052,-0.85028981213521,0.249356437052544,-0.059778459536025,-0.178088383687892,-0.0953309412161813,0.0868817454529858
28.855,-0.408380918106817,0.232059923984677,0.872011945209551,0.000266331480816007,0.000755638895831284,0.003766264255194,-0.963160936997147,0.239560379903879,0.0782007170814926,-0.0240534826269992,0.123420581999649,0.0337598042692577,-1.12785132432361,0.111517044908053,0.327098674886336,0.364682031659893,0.331912892394813,-0.600783399784619,-0.87726366299566,0.255468077444957,-0.0483573635392333,-0.144257355913677,-0.134997690349037,0.130315654537383
28.86,-0.406440188072271,0.231633533460228,0.87245827509951,0.000266331480816007,-0.00415366130834217,-0.00426423809480416,-0.951957206405928,0.22880132524335,0.0828783015412099,-0.14281679255144,0.174950050563086,-0.0171054101559842,-1.1359073822732,0.130231371096577,0.351489131153635,0.496347623109146,0.265784936509839,-0.590499190864409,-0.909572673068411,0.230485741394732,-0.0350379756359013,-0.053803944784846,-0.209416870682509,0.110057786695859
28.865,-0.418356739115778,0.219740952312862,0.872468014476162,0.00467444710042899,-0.00825678820134992,-0.0046627564999778,-0.951382455325307,0.20960549035895,0.0625360200069121,-0.23243694449618,0.220553742055402,-0.0490245529936301,-1.14523870097665,0.154578648801743,0.361178082170428,0.665458754040205,0.171848902555799,-0.62063571277778,-0.942456866473729,0.222665856768518,-0.0326029209567194,-0.00793752339878665,-0.263854494934955,0.0478637898769047
28.87,-0.426551264077425,0.220536405869892,0.873737143150398,0.0128606668214108,-0.0132172103305734,-0.00157672068375817,-0.965422118504341,0.17397264498861,0.0194827815178073,-0.347455668740319,0.239061748267462,-0.0849926605087313,-1.15111627517869,0.16668287293414,0.36522415208312,0.756988706655203,0.10722964931132,-0.625310265808648,-0.975614051479061,0.204988085784764,-0.037666838527633,-0.00712955934957301,-0.299199859705731,-0.0440097649895694
28.875,-0.427246762005527,0.214924234428366,0.875160724622842,0.0218486969351353,-0.0253960672661705,-0.00262808692320896,-0.969089934756682,0.136713562230166,-0.00672775405195966,-0.423959970555068,0.243708808491231,-0.119734297962988,-1.14371534585136,0.176047267957345,0.371724847698838,0.870268759762657,0.0366058474125499,-0.61139110910419,-1.01856908992099,0.194619219882217,-0.0398260627874498,-0.0376969192217723,-0.306112660329268,-0.126499891655804
28.88,-0.427788666606684,0.200974255552097,0.870546363403761,0.0351474779440915,-0.0347436134731573,-0.0137247377197865,-0.975718225653059,0.10360864289856,-0.0141409304258389,-0.472991426871891,0.252090842767275,-0.165687669619634,-1.13098794107307,0.175138391024255,0.365878310674749,0.988135616575695,-0.0102703428190352,-0.60246672614547,-1.05753439494728,0.188399245808069,-0.0438790558617709,-0.0758782777756313,-0.298667397991225,-0.171760916545006
28.885,-0.431420149072404,0.200472633449093,0.873560919539051,0.0441411109737526,-0.0396891294434118,-0.0146221359465289,-0.982104710692105,0.0694896080330054,-0.000312922855481972,-0.479612176331798,0.277779231559194,-0.199288488316103,-1.11301451992891,0.166008875972205,0.350801587197878,1.1112149481498,-0.0520796629584567,-0.598758913706298,-1.0881577239675,0.191578787602701,-0.058145750294858,-0.114759329808823,-0.292591410059419,-0.183378115379141
28.89,-0.428508898507239,0.209516636666059,0.871345605078762,0.0518496894254,-0.0482298769964487,-0.0192427875618498,-0.982782574800772,0.0377782077758115,0.0136289653479057,-0.451966523234146,0.310918696956759,-0.219849676338783,-1.08755778342121,0.148660513145341,0.315802546448546,1.20352676556619,-0.0888094043455768,-0.605789378514451,-1.09883244879112,0.192701446808321,-0.0606345013836882,-0.135234139558702,-0.288496546147796,-0.184145681727745
28.895,-0.421172006909321,0.212836758387613,0.870303601556875,0.0660780179034347,-0.060448685029079,-0.027661993798484,-0.991337622867274,0.0117959801841841,0.0291225703395544,-0.398056537035005,0.330972195541184,-0.225114254488347,-1.06569236062995,0.130677435237823,0.277385589658538,1.18900336380328,-0.126584553726058,-0.617769220536,-1.10121898628618,0.187202778138895,-0.0664152649974961,-0.135178928687297,-0.288170500370728,-0.181023314595222
28.9,-0.427100857483983,0.210090699837968,0.87719058396351,0.0708876555319228,-0.0656130200591645,-0.0274533333447363,-0.983570022842273,-0.0111363059353965,0.0296967293372873,-0.340328929685529,0.355610232555211,-0.21663105483939,-1.03459784698984,0.114439182500469,0.224295446356321,1.08433336117183,-0.165043772461017,-0.597030167870555,-1.11335637227051,0.183198987926601,-0.0724114204422314,-0.122469904956595,-0.280569165945053,-0.16494113225636
28.905,-0.416535418345651,0.202235525728672,0.88064150622769,0.0940135256389161,-0.072391577064991,-0.0392816021601902,-0.978048322017758,-0.0393826905249606,0.0334234849189613,-0.266817289956022,0.380891979833829,-0.207826191811419,-1.02116658259132,0.105657883356622,0.184597666035465,0.995978750442545,-0.177742151980272,-0.56927750465161,-1.12272750101469,0.176911784021383,-0.0742017484794858,-0.0861973119972458,-0.283680170996549,-0.153824078952277
28.91,-0.413602540257169,0.198543187575294,0.883416608443162,0.0836501514604711,-0.0709683784637864,-0.0360342233272638,-0.974169928225753,-0.074497896868425,0.0405382490421829,-0.193868542035065,0.413534665515415,-0.200851463201208,-1.00936718435745,0.109295319242158,0.13997793664938,0.931076557768625,-0.179507522945214,-0.517869563883119,-1.13154425587457,0.175774800150029,-0.0756025104330024,-0.035894776675562,-0.298116452134573,-0.137643003390385
28.915,-0.413425900559486,0.20661359304396,0.879258737972574,0.0881675131093245,-0.0689402479766014,-0.032549298941891,-0.965784027439643,-0.095577941560533,0.0343928042695699,-0.118704266401412,0.448724135711861,-0.195781476859969,-1.00726458813189,0.122274918348971,0.0919605822886657,0.907654342830745,-0.161187976898703,-0.453039510240243,-1.13485176690251,0.166618279238868,-0.07174336529093,0.0130761878126068,-0.317030353614561,-0.120248576254018
28.92,-0.40200748166796,0.217609103625698,0.878762847720163,0.087138360828434,-0.0637343447361745,-0.0262716229093791,-0.957967576487233,-0.0920825925914578,0.0478083708941943,-0.00760219639318399,0.491590444758341,-0.190206311749965,-1.00838756400107,0.133529523686023,0.0527255520946339,0.89220023966708,-0.133133593359422,-0.401703777147603,-1.12458334287322,0.159180563590768,-0.0743748119171266,0.0807620600172228,-0.35073560590313,-0.118689222205902
28.925,-0.400714340052278,0.219927403258756,0.878447540108924,0.0923242555949886,-0.0589529350399971,-0.0306575955783034,-0.9544502449937,-0.0890270505497658,0.0330101617733615,0.0712835824355896,0.540668351638673,-0.191788536598092,-1.0225877534451,0.146180091238088,0.00253157757200863,0.856226239494297,-0.0804220370180107,-0.345604623917757,-1.10368217569825,0.150761175245943,-0.067003784408752,0.139495638308726,-0.394411074217515,-0.155592049037928
28.93,-0.409226965837459,0.221200367167093,0.878214844484996,0.0980596076338779,-0.0559977840171262,-0.0327864852351517,-0.952902080209369,-0.0617548654291699,0.0233225809256664,0.173861765079224,0.580738243181582,-0.194803454904288,-1.03421800689763,0.145065156549843,-0.0252879426277144,0.773831911952809,-0.0370076991705798,-0.300770700107003,-1.07340133556926,0.148926489520832,-0.0556215454162844,0.178969887210775,-0.444356855588384,-0.205537816094577
28.935,-0.412116053112724,0.221794884339049,0.879677218413967,0.10002309579232,-0.0483350033278985,-0.0328077259896769,-0.946945772917872,-0.0320508581016409,0.00551788120865379,0.271144216112444,0.587066305871129,-0.201943021407366,-1.04904596511722,0.137676510686386,-0.0463827958582499,0.634380455316114,0.0228555134670053,-0.258498130905267,-1.05066355133525,0.145688909526733,-0.0526750648464524,0.172740572616346,-0.475718865046057,-0.230716878694417
28.94,-0.402271383636224,0.23906040571308,0.883463177167789,0.108289395492161,-0.0485369514275268,-0.0380609033262482,-0.94727928365868,0.00436985469505432,0.00646881091190386,0.37308845360729,0.621780358998009,-0.222547583658468,-1.05635695828735,0.131038406895299,-0.0495194681488817,0.525477341670109,0.0656094972610764,-0.237517088941565,-1.03105198263584,0.143653982426232,-0.0434196251589455,0.14275595396966,-0.500110698932995,-0.259706465896552
28.945,-0.398651089056387,0.242270151031811,0.874983201559065,0.110098400864268,-0.0416465601734579,-0.0474225827617975,-0.961635094691825,0.0326882080454122,-0.0102757808994758,0.434955144422549,0.645609328398251,-0.230699289853965,-1.06291393446791,0.132611827351236,-0.0468489435557885,0.413982365978775,0.108293174937473,-0.205356681355488,-1.01609828560006,0.145656664705732,-0.0392952987322467,0.100945589713701,-0.512320265639915,-0.286890839743507
28.95,-0.405355002769839,0.239690568061211,0.879559407633222,0.100410720312049,-0.0344499162901451,-0.0549279181607806,-0.969954731180356,0.0813968008445723,-0.0385480775580293,0.451422522759149,0.665500297605993,-0.243959960532423,-1.06564013088451,0.15182552394183,-0.0333339968175819,0.366836554412176,0.153262728248559,-0.166707691702255,-0.994872089723908,0.160767381822616,-0.030530714075529,0.0769150172953313,-0.510796343031057,-0.325871113231037
28.955,-0.408106230010171,0.235429058744473,0.878192313089867,0.101288917762679,-0.0248470114033438,-0.0649699233473373,-0.993079550610906,0.110308927116718,-0.0848464430674718,0.430582370283449,0.675031689266295,-0.25469367103536,-1.06565532803875,0.168578393392493,-0.0131960960909492,0.381675397095968,0.179422758700726,-0.108592610459273,-0.975283140378515,0.171039441375106,-0.021175021030851,0.0557522773520868,-0.491716674545557,-0.366285428847514
28.96,-0.406494893337098,0.23162702392139,0.878671312287651,0.103311688364497,-0.0106679066107729,-0.0785393760921461,-1.01752588091753,0.122534469223324,-0.118563177641456,0.385649942567725,0.676472462430532,-0.279411720340572,-1.06242678095022,0.165672732901487,0.00196958483369672,0.39836552738071,0.196097479756267,-0.0387444846162854,-0.967622124933916,0.191371219666944,-0.00949363299160945,0.0294150749345361,-0.446192224948141,-0.404692299765724
28.965,-0.421748531925109,0.230501812093479,0.880416396564517,0.0931904185148329,-0.000560550021569374,-0.081443691574994,-1.03706967921055,0.132716493299871,-0.140625681815544,0.331616763960742,0.665495741373732,-0.310592058616572,-1.05170703966885,0.128558795370793,0.0227049189550191,0.383741417359576,0.20799452724577,0.0407692085520109,-0.958784595064403,0.20321937997946,-0.002604379363914,0.0131648961253256,-0.402007133314453,-0.414221969172121
28.97,-0.417992621590828,0.237855206364269,0.878305554729015,0.097396509963264,0.00891116575657093,-0.0958028361201286,-1.04784681300825,0.13151486197531,-0.155676839736796,0.268205297192774,0.664937631995363,-0.36001251290727,-1.03818073127449,0.0651117051464632,0.0476175933488442,0.322406111418585,0.219703191686045,0.126232157371851,-0.958947332139794,0.230456519332032,-0.00184207295782901,-0.00655279141923365,-0.367794663365789,-0.424991378355236
28.975,-0.412028736272151,0.24231144849596,0.880484011965082,0.0949453449604142,0.0237212378161822,-0.110066753415302,-1.07618513812206,0.125640386660551,-0.172124460985327,0.193057381760769,0.658435704921084,-0.399897277121544,-1.02043865877366,0.00493425238584581,0.0696399277856822,0.268050931242297,0.216108609736058,0.174435228174089,-0.976887599681275,0.236787939732796,-0.0174576110862718,-0.0670756350755673,-0.305363650753037,-0.465969085700891
28.98,-0.424633962083774,0.255481012731173,0.873461852867039,0.0844584348376411,0.0400567306788853,-0.132645836109932,-1.08715860098033,0.129274929037805,-0.19076929201147,0.11522130544316,0.637870319317059,-0.416300306684882,-0.999896200963543,-0.0567425460026081,0.0889823150292612,0.245918878742445,0.217779930492559,0.182776149362939,-0.988012981177998,0.212866720222944,-0.0370978324190287,-0.0338477799300818,-0.261811789790861,-0.421872635333379
28.985,-0.423162427421005,0.248614194043791,0.870060442582233,0.0772330909967422,0.0471061492208426,-0.147142032513603,-1.08244887675215,0.111168121769526,-0.191657776256535,0.0405115445979796,0.595401190454576,-0.443622548016502,-0.99138059369159,-0.110078774728171,0.0991320478197702,0.222376309253501,0.22115101003232,0.167514918792505,-1.05155930289951,0.182076809636348,-0.0794644154123548,0.110279896034752,-0.236338636217833,-0.341804523902421
28.99,-0.425852448430135,0.240557523364762,0.869361726002975,0.0727370779397474,0.0622463407842894,-0.161697974462166,-1.073333186944,0.0854430873804694,-0.205038122151839,0.0180704857830565,0.583620107498782,-0.45611404071554,-0.992525627914202,-0.167610180359814,0.102485611040678,0.16948888071165,0.218455146946965,0.142550121935571,-1.0895384238741,0.175440771903673,-0.107619103795662,0.190209716885172,-0.221054036717382,-0.24877983531656
28.995,-0.445481635558419,0.239709784543134,0.872136715176697,0.0765221032835972,0.0776628021921973,-0.184289327792176,-1.06375230595506,0.0401296201401857,-0.219065963385774,-0.0061801564913309,0.563833095715014,-0.474153762071158,-1.00050336095589,-0.215953339074516,0.105766002784723,0.0916338976944798,0.215502553551138,0.100837126368364,-1.12385009073584,0.159743732777658,-0.140550227818145,0.289830443533192,-0.177519804609349,-0.202728004065044
29,-0.439449096505873,0.234782338728582,0.868964512176694,0.0689645520825866,0.0755751260931948,-0.193450016828902,-1.05113410715905,0.000830511466587631,-0.214821314749002,-0.0416651410129302,0.543082096563077,-0.471910500797224,-1.00437518095816,-0.266025593870929,0.089250874018087,-0.0142266119338099,0.187633041432797,0.0699574374711537,-1.13855393889081,0.144418533090456,-0.157995680181619,0.381268783754879,-0.100301251963021,-0.209934127787429
29.005,-0.434414679815709,0.220274813120269,0.874097397898314,0.0731603398901164,0.0786921888625743,-0.21267915368439,-1.02823963127725,-0.0524603381243499,-0.209187559236901,-0.0627598986761563,0.51886179774165,-0.457847313929046,-1.01229962810654,-0.313742325797085,0.078255612265288,-0.248730944529773,0.141084970492761,0.0432865330576419,-1.14678888369185,0.103448807085745,-0.182659201980999,0.359217655643288,-0.0194904446494365,-0.161633255677214
29.01,-0.447072511304987,0.218332853662243,0.874979548481224,0.0782166745131187,0.0876581887236452,-0.222378952986214,-1.01992349234936,-0.0784796267329427,-0.201955921020845,-0.063792308187038,0.494692132841045,-0.45143208180772,-1.02007230671492,-0.346110635144936,0.0855605980379879,-0.475409946068635,0.132232214818346,0.0292484519409513,-1.13816921785497,0.0789494361796969,-0.18880873010678,0.336814341276263,0.0422081998004343,-0.10504070007174
29.015,-0.436411062539073,0.204256084323974,0.874198797013556,0.0739336610473632,0.106863046606734,-0.220582909284899,-1.0087045526916,-0.108501646680583,-0.18108487820841,-0.0400891202595101,0.467942865044072,-0.42320618948909,-1.02226880132917,-0.366781259629742,0.0905530739819435,-0.505263131370652,0.144819000148902,0.0197749644374475,-1.10976376285881,0.0617407825997851,-0.188312640147053,0.300445446252629,0.0744925351655712,-0.0321090827632494
29.02,-0.441100525890863,0.192800361329521,0.877068650390326,0.0824446073479983,0.104104648058736,-0.24736142501524,-0.987393676203559,-0.135466505258093,-0.169501891639832,-0.0258763026289224,0.447726659014453,-0.399838867896335,-1.0158008587737,-0.395429653962909,0.0683794167899729,-0.44328891733745,0.147895623162043,-0.000632842461617591,-1.07149442772122,0.0558726201341407,-0.175374804848231,0.269731392127527,0.0660799078248771,0.0200640064130201
29.025,-0.430868356523376,0.193768037424554,0.880286539324774,0.0760275400813855,0.123540587602866,-0.242058132175266,-0.979848201171135,-0.145361097660377,-0.156479502116683,-0.000787176718981757,0.442062097342359,-0.376038539322736,-1.01303830902631,-0.402308408606882,0.0447055807839126,-0.486667272459292,0.144509255886078,-0.000246618854229469,-1.01636077170316,0.0618141045506728,-0.148159225620777,0.21015412460211,0.0155975013834046,0.0285570657850169
29.03,-0.436983446309985,0.193340778088137,0.881703843675228,0.0821001714184144,0.143296649436352,-0.253145261723472,-0.975707899160309,-0.149241124237767,-0.143635332119442,0.0445645371578848,0.432274913437902,-0.352698078117216,-1.00770347920097,-0.394390602180758,0.0286946417389548,-0.612609984184276,0.147286696372202,0.0160768489334273,-0.974928944046707,0.079142276242935,-0.120329882272722,0.119101354274322,-0.0356364445193348,0.0135774314475441
29.035,-0.436662149607068,0.19476414026184,0.881088291724266,0.0866550364955836,0.16163742982575,-0.254623115062714,-0.976850891836468,-0.141054768970302,-0.135768559667936,0.0753084589404637,0.417446975053641,-0.342450096175596,-1.00439633353286,-0.367575127210685,0.0155667085866065,-0.719263893699654,0.149396032094955,0.0482802156768284,-0.9338377836022,0.0997739995479142,-0.0894109891045616,0.0261211594035653,-0.0762898044329659,-0.0180477748080304
29.04,-0.430513442393098,0.188015994439829,0.88492446310602,0.0868773426854108,0.182380713624926,-0.25841750461049,-0.979543687704703,-0.129672546376601,-0.121056879703114,0.095430016861275,0.422985106706619,-0.330259246882263,-1.00438385816377,-0.337939125049388,0.0095874097394066,-0.786337530318721,0.152010729638594,0.092911223601157,-0.927472059432802,0.117778106229894,-0.0690222250866987,-0.0500704943253976,-0.0874791505095065,-0.061158501185883
29.045,-0.430008205713327,0.187797415602623,0.884339480810144,0.0845284012265967,0.215299756761145,-0.261185288785833,-0.986307727740679,-0.101571069899428,-0.107892234682734,0.119102465159335,0.423389553164713,-0.326616494129643,-1.01353159754322,-0.301430515860992,0.00155245286698965,-0.865965122668572,0.156187126871367,0.182382313583882,-0.923830299379753,0.136022743394454,-0.0603924641141888,-0.0829420449447706,-0.0776698211869199,-0.115589774783758
29.05,-0.42603265800937,0.197109119593381,0.883557746806776,0.0843267239318181,0.236237084021968,-0.262925438635443,-0.991602164720121,-0.076892134873771,-0.101259938149199,0.125735655537172,0.429260973814855,-0.332583134169036,-1.02867379469402,-0.248957389489265,-0.0158699534287705,-0.953869120887533,0.167383064794288,0.291819191819945,-0.924906990979983,0.162028338709037,-0.0548056847093771,-0.0998052011408135,-0.0267948372591235,-0.180219603660323
29.055,-0.42151176796915,0.203415886970211,0.886194926263048,0.0796106704384625,0.282745798159613,-0.267098520437997,-1.01523441720577,-0.0562041268900778,-0.0878434669567975,0.131312201400151,0.442885666289524,-0.338619265662401,-1.03761039086949,-0.215748773289061,-0.0245989611931638,-1.02336689227893,0.171609215013027,0.391024680474164,-0.927203881089455,0.176207389209765,-0.0561123099220036,-0.0967401504992071,0.0308139589512624,-0.246100061292274
29.06,-0.417568603306267,0.204193347884049,0.884569763902298,0.0761264023869611,0.29966531871897,-0.272646890234452,-1.01950867268416,-0.0342558457224871,-0.0681314396497484,0.13867461681366,0.455154700640359,-0.339732916640937,-1.04825429777467,-0.174584280398483,-0.0260108527055302,-1.09794968854402,0.177940852757773,0.501603822552315,-0.915287983123246,0.179714277559597,-0.0673371864637868,-0.0600569163778182,0.0921423317005192,-0.303734799993568
29.065,-0.406431541828974,0.221250393403371,0.886075528132761,0.0776575633535386,0.338884331601298,-0.286169597626134,-1.03858118686147,-0.0110393736770831,-0.0564456561622186,0.137027048782419,0.469919258971726,-0.349459639217226,-1.06060432181403,-0.151581975535164,-0.0273726927925529,-1.117084187065,0.188490256667137,0.571960895173829,-0.920537539670989,0.174975075644645,-0.078715258554975,-0.0276785857041124,0.142646177259262,-0.322962345156757
29.07,-0.40662828716391,0.236400568327172,0.886168844219222,0.0677645344053055,0.377803696117757,-0.302065861861103,-1.05554296259601,0.00178934441316402,-0.0279682666563719,0.14357285793039,0.498218873139041,-0.362117558992135,-1.07282711720297,-0.132740296745583,-0.0324346070102217,-1.07479097411211,0.18985337977199,0.61070865990134,-0.914101115639243,0.153241021915912,-0.0893341724876357,0.0165770514891297,0.190377173305614,-0.324237954333631
29.075,-0.397184030989919,0.232236225770834,0.874343932748213,0.0517474009836501,0.415076696955861,-0.321824407632948,-1.06983345525394,0.023136734621492,-0.031680387918355,0.153997331603927,0.516412901503317,-0.366309964976819,-1.07976748268382,-0.122307912991682,-0.0356181344835194,-0.976824493032112,0.189910589593337,0.624891840222763,-0.915036391201102,0.130804081592878,-0.104201936632699,0.0733818465262723,0.239523566869191,-0.299484095391654
29.08,-0.349140916442644,0.221106605229094,0.895199302135833,0.0257946953192431,0.462356093653355,-0.342777819915462,-1.06729347516214,0.0457128601294942,-0.0568196297252525,0.183251407742818,0.511690622995994,-0.376144917948611,-1.08431762512915,-0.115403691417393,-0.0378106426780197,-0.845033905709732,0.186046868562698,0.623137017022899,-0.910420114858245,0.0785778677058064,-0.111486906989272,0.138071742299994,0.295905338933719,-0.250355702764879
29.085,-0.353083745580406,0.246778793329223,0.886741244730263,0.0298561979523876,0.494023665524823,-0.357090616713875,-1.08283292631908,0.0542961633566284,-0.0120575302536727,0.249294959401076,0.529469998430604,-0.373289144728829,-1.08603620591311,-0.112465613326705,-0.047038304120795,-0.584887552859785,0.183270053602633,0.608448410717761,-0.900185464213229,0.0529048540270528,-0.125691901738703,0.192372336664449,0.316463813653134,-0.207721240827054
29.09,-0.565192765879088,0.317545257690967,0.829009708783437,0.0288423780371051,0.544152521978317,-0.432859625628218,-1.06654622174733,0.0627990496251342,0.0100871995598067,0.377909839253967,0.562635069501235,-0.354309998131781,-1.0865045453246,-0.105858774945503,-0.0570117986446323,-0.360240470063562,0.176151315292814,0.593786166136082,-0.892852411058277,0.0175321208210876,-0.132428523429211,0.237172505641546,0.3123813119172,-0.152615457144377
29.095,-0.566521748840406,0.248370921584894,0.831870336485425,-0.0421278396831604,0.570586852298601,-0.500123523273898,-1.05097139844076,0.0829737298444097,-0.0462718714055186,0.420097931199601,0.634299999426008,-0.330575778622547,-1.08204452227634,-0.093296072162845,-0.0699859593154792,-0.0780606549326795,0.168044231649869,0.569169020966038,-0.886729175423684,-0.00383041774499412,-0.133092692080056,0.274188126731444,0.281812429575185,-0.101782767331537
29.1,-0.489185523960102,0.19295964579659,0.87299866591691,-0.0445507655505725,0.601517101472594,-0.546709600929033,-1.06993521479674,0.0298665411885676,-0.111760556501483,0.42184768880054,0.71104492805899,-0.30160755989099,-1.075082735565,-0.0670880608447184,-0.0813434151044037,0.145210723973021,0.160524561841439,0.538586824812792,-0.874863795342406,-0.0156681612285445,-0.131359123660351,0.291055500507355,0.240590131778833,-0.0639166051082898
29.105,-0.448254756241276,0.259784563300711,0.86027842685746,-0.0109677868026886,0.644401878529769,-0.578297096556966,-1.0869358726598,-0.019290247297861,-0.140446896801734,0.43443487811689,0.739346205051558,-0.327128768250234,-1.0748853685556,-0.032532315682372,-0.0823321724416321,0.327686661419787,0.142104896881018,0.504579895689798,-0.8701164480857,-0.0349531223323636,-0.121497892217709,0.287207138492541,0.189349473234661,-0.0268393363184918
29.11,-0.444550150440126,0.300862231534306,0.866321321806296,0.0170316689784593,0.680667388058738,-0.606068680352439,-1.09883657373362,-0.015029310017892,-0.159650310381133,0.417266915133066,0.723437625327012,-0.373403925611804,-1.07862954227465,0.00575080181123349,-0.0840164610306689,0.473579836534953,0.119953020224835,0.475891480317216,-0.870363216468637,-0.0466367709192556,-0.114742374913366,0.274047445788281,0.164171812332467,-0.0155057836050758
29.115,-0.438830062402287,0.274393459115067,0.885414591014022,-0.0560382437519961,0.745193829390959,-0.666906994707033,-1.14223519576553,0.0149787138059864,-0.102307014483861,0.497845062936111,0.638442179035445,-0.381975308006606,-1.0886820754752,0.0550878643459841,-0.0761623343319864,0.56265066106362,0.0971476393269417,0.447886933728631,-0.875419930416994,-0.0635869959507382,-0.112362957214073,0.263221386386379,0.148510464557256,-0.0132264302937688
29.12,-0.461034065403429,0.266114483301316,0.884519455583697,-0.167490858978666,0.799396325480809,-0.708926192398734,-1.14602213520736,-0.00155300298978978,0.0153181361342344,0.663364760474328,0.564480193473702,-0.364440457397787,-1.10353042790766,0.102641682600671,-0.0669793487082417,0.588171490186809,0.0720730792961903,0.434848273741435,-0.892112496684966,-0.0785333389575095,-0.108492970601041,0.257522902263513,0.145564844128117,-0.022512501911518
29.125,-0.48863547727788,0.291281437229712,0.882376368013005,-0.27924397990444,0.868698665088959,-0.727225974825958,-1.11059334517184,-0.0466782589467811,-0.0268868050481488,0.666125420642479,0.561450836815631,-0.353214967028121,-1.11664300239437,0.142857408879863,-0.0611076927555814,0.581058274839162,0.0506873214548944,0.427562631032093,-0.910916738604983,-0.0848928406052362,-0.101975370164287,0.249528369447647,0.162063492957597,-0.0478166172103664
29.13,-0.503664216722947,0.272400522675421,0.881904846621584,-0.398256094179063,0.933684877360291,-0.734107253723213,-1.07137331255652,-0.0706956870703275,-0.167553413632897,0.530222415051302,0.635882701527642,-0.358578333738148,-1.14202463014516,0.207955217343046,-0.0488256681645348,0.536209854295885,0.0210047001895344,0.458177433762641,-0.934472649128808,-0.089838497053243,-0.0984996434775625,0.0738393592455978,0.19901967248631,-0.087788273546952
29.135,-0.540067650775989,0.25445611449723,0.878928394655444,-0.529910667661823,0.990493693751752,-0.755523432693213,-1.07419924541177,-0.101478493387554,-0.188029097673869,0.46169228197455,0.658584498529229,-0.369148999380156,-1.16528436133369,0.259107607603969,-0.0341086353361216,0.50247806807277,-0.00380662652915904,0.509301111905992,-0.96464654457612,-0.093905136567677,-0.0999452534724055,0.203219492441783,0.24103647694298,-0.130135952018497
29.14,-0.555572815428331,0.267824257750843,0.898911830210207,-0.580861662714377,1.00451070709069,-0.75901497846608,-1.03823646418799,-0.122542564398569,-0.237260522663805,0.44296936320487,0.610606168197419,-0.406316898011383,-1.19551872822535,0.299950079763608,-0.0183526228051062,0.471990597747676,-0.0376976455651184,0.65165792086514,-0.981941664725142,-0.0978623772194867,-0.10081306622036,0.274127931399431,0.294108447725757,-0.158809372785701
29.145,-0.56171069606526,0.286935819496046,0.896900877373779,-0.629547389340601,1.00424927029856,-0.773798705424876,-1.02993612350279,-0.114538650658904,-0.241587984635646,0.38145769559184,0.646351018833606,-0.418715548741582,-1.20998011965085,0.285719775970121,-0.00223969000472858,0.509678828776461,-0.0651133242079444,0.846256627680025,-1.00650622565001,-0.0980191905939533,-0.104466674142266,0.274782488892148,0.344486627723614,-0.183894371633131
29.15,-0.550141003117104,0.285335848223167,0.903307375287978,-0.688422335356945,1.02167353093053,-0.785487096718236,-1.03018035320666,-0.0943522034411214,-0.205513999965217,0.301046462138977,0.703838307295599,-0.409887493119708,-1.20259880154329,0.253758639552576,0.00676317005043489,0.573962498137688,-0.0855768448451931,0.993742594666746,-1.03168792522881,-0.106958795459918,-0.106608737479308,0.263181516683265,0.395243897317472,-0.20223309937595
29.155,-0.52307167088984,0.25845149063599,0.924396008608695,-0.695096985923881,1.01128038670747,-0.77922002303242,-1.03264991814225,-0.068973271736547,-0.195348240471689,0.257164710468647,0.744514592120136,-0.399102130897766,-1.18346376957737,0.219471193475173,0.00678527970063051,0.667979613655683,-0.103714584891406,1.09540052891703,-1.04872882195894,-0.111658931604716,-0.121726101751028,0.247432426149225,0.438168533511508,-0.216561410900767
29.16,-0.498263763197902,0.240531386390728,0.932391398363669,-0.557717014428309,0.986341865278747,-0.770290474239159,-1.02719291807115,-0.0557067449380414,-0.2112736834846,0.289442714583006,0.738404638506718,-0.388413803677019,-1.14714677359565,0.171939110986733,-0.00317427822237528,0.792856385217929,-0.122175719803508,1.14266030171706,-1.06069613915628,-0.115156170813859,-0.130068444638631,0.243251664416514,0.472888558421898,-0.218632942633964
29.165,-0.471243493914734,0.230356670023616,0.947628313092363,-0.379936698726397,0.942832222347369,-0.773075890667342,-0.994335243130612,-0.0467554981786796,-0.209041281246373,0.28815075788721,0.72109811948061,-0.388531678609405,-1.11541099604804,0.12916943690319,-0.0204469083742026,0.931003939108489,-0.130225186038413,1.17926943745873,-1.07021016030584,-0.123656484620817,-0.138544198186651,0.24156807871362,0.497869993324939,-0.209869343270901
29.17,-0.472886118546657,0.259076793482565,0.951418398085989,-0.137103021211457,0.898061548385977,-0.775561662438865,-0.971722536105293,-0.0600207390768664,-0.214965850171047,0.23654462927357,0.699605085381074,-0.377733299188903,-1.07420777586971,0.0858497405550954,-0.0419291719390062,1.06621790639651,-0.139760388325526,1.21679393026904,-1.07377650093448,-0.126250410016471,-0.140716154372071,0.247197794657642,0.505832173713953,-0.192253782473425
29.175,-0.492360470078827,0.259155654575731,0.923161810946291,0.0608267981501242,0.87634157045975,-0.756530267162193,-0.949874249042518,-0.062761922648542,-0.264392520713302,0.167837409288154,0.660436765422603,-0.368573599059842,-1.02495001068646,0.027895735698214,-0.0892754859636832,1.30106539362058,-0.1373930302248,1.25838437254767,-1.07386282422069,-0.128003157433311,-0.140863064859848,0.248296186327934,0.493776579881632,-0.163025674402179
29.18,-0.509030745480996,0.238129741108156,0.917216209349747,0.325538824101598,0.849616380390273,-0.758965327825609,-0.918541225821447,-0.0548946181960289,-0.306892909978386,0.12912113832736,0.606287083501111,-0.35844563699885,-0.98833823392005,-0.0260743444520719,-0.142151889303755,1.56952077292275,-0.120048251744814,1.27114117868424,-1.0738538945128,-0.136071141495243,-0.133733162622151,0.235639673851262,0.471791648920843,-0.117819643860361
29.185,-0.510482990869156,0.275621091563808,0.798908951312469,0.20267508282089,0.872561929225643,-0.687129544385427,-0.910614000399822,-0.0612953300777596,-0.331659043780945,0.101331993391882,0.558689176950694,-0.342943323911187,-0.963998524120185,-0.098314886277559,-0.195451341603179,1.80771712415573,-0.08740665712836,1.24525772625627,-1.06413546412975,-0.126246091520915,-0.12491040427458,0.227098378149654,0.400003209857413,-0.0639644143220141
29.19,-0.554588026010893,0.295018072998423,0.796952847299781,-0.034255198928204,0.871241638152002,-0.640268338637335,-0.891650986684743,-0.0751387539960281,-0.341021882155531,0.0574749696152664,0.535824212914609,-0.32451010898915,-0.939288432021042,-0.171721010621857,-0.255078006895738,1.99993794624906,-0.0344660018586178,1.19986488448691,-1.05993077160181,-0.124341015996816,-0.108745609833092,0.210334527535844,0.319026622487549,-0.0269895361550056
29.195,-0.555891791132709,0.25675846445912,0.887451075763388,-0.155405790433723,0.818411587028824,-0.623347356005589,-0.875601024552025,-0.0950347922299293,-0.377667382532721,-0.0291550929843786,0.496057983076512,-0.281414070702764,-0.918650864750439,-0.217403739014536,-0.292881034508478,2.11768296487425,0.0109319678608542,1.16049280362738,-1.05697978230424,-0.112168104234942,-0.0891096480922911,0.190973708489942,0.24376961591847,-0.00254761929594394
29.2,-0.519992844861803,0.139005460933524,0.916667865318083,-0.00161358244154831,0.746733932800981,-0.586162893991074,-0.862251091454412,-0.104418474420628,-0.400073545145619,-0.0804477488733302,0.463673228372742,-0.24420220864963,-0.898899979769266,-0.265062621893718,-0.305884583599462,2.20381059987906,0.0662079978834073,1.13331194577628,-1.05291115180718,-0.102177261750475,-0.0718156404887953,0.185428278275242,0.174161064065669,0.0115313655198045
29.205,-0.376862209615744,0.0361634134180223,0.994865637401947,0.184163371176219,0.587830089604541,-0.628389431152698,-0.853125010574423,-0.099096958034804,-0.35693634705432,-0.0757507574692425,0.416598175373087,-0.209909164308427,-0.86880919269844,-0.295752425039274,-0.324887118685788,2.26719334390395,0.106812681726491,1.08321430938093,-1.05341937025782,-0.0897466541954345,-0.0632680047952367,0.17194046689565,0.122514405029026,0.0262065756730858
29.21,-0.109491607876281,0.326362726475731,1.17114080429402,0.732571865007539,0.331421409121752,-0.474443255892531,-0.848844342646739,-0.0774513012631467,-0.228843293335339,-0.0232502452675228,0.354562783116373,-0.17115628967038,-0.845720486087768,-0.324210360994312,-0.333191324604944,2.30738513232377,0.141781468901933,0.981938666103321,-1.05073682571335,-0.0755723601732909,-0.0506196120762967,0.162696490607367,0.0766982507193597,0.0234686578506034
29.215,-0.141578185183255,1.18483980509521,1.351151218816,1.1801616200697,-0.00164910740075142,0.131921559127172,-0.864916748400202,-0.0691034524683695,-0.0608109786224327,0.0974590278186643,0.265634165891226,-0.126101697628446,-0.810694404157402,-0.33181282719338,-0.355912746882682,2.20133756258262,0.159264858325541,0.857070458690886,-1.04671613150135,-0.0703162689414537,-0.0429424377622633,0.153553138801636,0.0333692774367513,0.0067412573115051
29.22,-0.178346869216298,1.39291302138939,1.1675510739789,1.02736823124948,-0.219832689069565,0.612209759786224,-0.864035477598293,-0.0215105477411231,0.0065587698690683,0.138725665317,0.156038716349949,-0.0785859511772985,-0.79126762135498,-0.307464998846052,-0.342652762222405,1.90060808507361,0.168185320140312,0.740743927329535,-1.05082006623779,-0.0764078088609315,-0.0343122911831002,0.140967231328023,0.0049469863800137,-0.00627046750233104
29.225,0.0134294892519433,1.2296936240491,0.951137650618006,0.672781437314214,-0.429382977731656,0.904456349011316,-0.865960245271417,0.0739423529799541,-0.009111647101151,-0.0579245184970809,0.0121316148285898,0.0958885336650824,-0.77690546780239,-0.236234706256476,-0.312880575349336,1.37027714448723,0.171772789809927,0.616337400675828,-1.0628332398437,-0.0736036286162983,-0.0256757614309862,0.145666125879413,-0.00120321393270299,-0.0242288891107581
29.23,0.0197199531582609,0.951381015010334,0.87190181422577,0.440579872724965,-0.499232678104677,0.996457598477421,-0.86526828553903,0.0990048812498722,0.0175700724066048,-0.146823705501253,-0.162168279859868,0.242961803322526,-0.775553312396154,-0.128212791013407,-0.275551422272995,0.78334117712418,0.166555406003133,0.483734552198915,-1.07036900675068,-0.0715557183151742,-0.0202047289832473,0.154815962326688,-0.00588466157918572,-0.0364286760153532
29.235,-0.0372933844993738,0.439389307563826,0.960737518690979,0.448650750238938,-0.560939660954871,1.0475660131502,-0.834214549684054,0.124940509629549,-0.0138202933985064,-0.0733955362668132,-0.387247110580459,0.385200868362057,-0.785881352145185,-0.0429721742433676,-0.237503931416587,0.345328038377629,0.147432101411927,0.396455018848059,-1.07687281379144,-0.0712870565698242,-0.0196151010212094,0.150780633394946,0.000200546974907968,-0.0405284352600574
29.24,-0.113257487372608,0.183563234587206,1.11833240745973,0.421078045468216,-0.666223384491997,0.99706879013119,-0.807031565914462,0.116990246382066,-0.0468898916563161,-0.0716497746045244,-0.532188591311556,0.443056550425682,-0.805530773273454,0.0255277287300209,-0.173985948910517,-0.0618522283994877,0.134298424161073,0.300749576359295,-1.08751709041813,-0.0698673329430075,-0.0245473909023468,0.129269085064341,0.018936067119544,-0.042734220748841
29.245,-0.21074279055547,0.0254816496389515,1.22187735299326,0.506449734385235,-0.896051010487138,0.88725934978953,-0.774519989332588,0.0797279116034155,-0.102921610276303,-0.0808449409435182,-0.638740500429316,0.466270484890352,-0.819277636933496,0.0489305172327881,-0.129167757976631,-0.269938459288177,0.125867875827955,0.212206569746091,-1.08831880674942,-0.0810793654492775,-0.0351415386758892,0.108700259636849,0.0312856742630302,-0.0368633531033993
29.25,-0.257636478272882,-0.0538888889822657,1.23532380833094,0.623451735620302,-1.15761988735742,0.729628427653698,-0.763094156379779,0.0434806467557734,-0.137487940565338,-0.10105792573775,-0.71916594536519,0.47369243587196,-0.831659228880546,0.0639330228108259,-0.100352048746627,-0.3785942150261,0.115679527332981,0.10292859591784,-1.08533796394856,-0.0870374171401362,-0.0548762399235712,0.0758947412789022,0.0573626262217969,-0.031480503266821
29.255,-0.239475003008078,-0.0704899553691483,1.16318845648568,0.701010415546786,-1.37325714911984,0.58062214910371,-0.771820714000599,0.00205714170212305,-0.138855431484582,-0.123553438072277,-0.799505264143451,0.472128325420093,-0.846088412763199,0.0614833531956099,-0.0825139872781109,-0.393789713630978,0.10412436194849,-0.0144523628559337,-1.08530390378225,-0.0968761623105427,-0.0673857973503167,0.0495755179343832,0.0700535897761592,-0.0260723100912038
29.26,-0.196573998005981,-0.0654995275763424,0.922756561308196,0.808205072331151,-1.48002587065133,0.413028883767058,-0.770991134664951,-0.0934951091975367,-0.12479039530851,-0.134368148906082,-0.886592344143903,0.471017986962847,-0.852693223862265,0.0474215139099558,-0.0695680811254341,-0.393338862823859,0.0852595133538244,-0.103190034736399,-1.07487903156703,-0.0974479201943044,-0.0788492969400549,0.0342204897726875,0.0738152914038863,-0.0196045487636384
29.265,-0.27090071759972,0.00439696875301359,0.969416289498778,0.763650181171251,-1.61626511284145,0.31189318740742,-0.801802987970027,-0.0961466587682331,-0.151655685588743,-0.130789360517933,-0.930770394634121,0.4565484332661,-0.845653695334826,0.0195951933494018,-0.0328452243373716,-0.446333350676721,0.063943969631803,-0.186363293305337,-1.05626415130862,-0.105354532568833,-0.0837841327450131,0.0188688316775408,0.0704339916010271,-0.0128785652237382
29.27,-0.327814950876191,0.13934883365635,0.795911693972322,0.738936994377912,-1.68592688057164,0.207352586210849,-0.805461829866578,-0.127223851557923,-0.186865052223095,-0.0551209827103629,-1.02568365259976,0.459027178579757,-0.829000643443078,0.00325397948986096,-0.0411687227119434,-0.479261718381182,0.0430327427083242,-0.245381117650658,-1.04223039304832,-0.1069692564035,-0.0815534763710548,0.00223086131779246,0.047460993522405,-0.0112077668309212
29.275,-0.377765291560772,0.198335920854044,0.721618516765959,0.696890370529828,-1.7054008370074,0.183390713496959,-0.790535899590221,-0.193383000768285,-0.210966574104423,-0.0431831447479555,-1.0957554595751,0.476321970562183,-0.804605460031014,-0.0272901322620331,-0.018435768825043,-0.46335659352325,-0.0187445961620093,-0.319446093093771,-1.0270484202159,-0.118106377977542,-0.07418784396915,-0.0164861987099401,0.026614464342088,-0.000111892073245454
29.28,-0.385297767304792,0.21702450384467,0.622784024051871,0.710010027374899,-1.70319804383202,0.25822818605305,-0.783963836069786,-0.209504411043592,-0.230922666670909,-0.0344587299994707,-1.13151708189829,0.467722857660314,-0.806974794398778,-0.0598079578013088,0.0443200823588453,-0.581741294780388,-0.0752230164055622,-0.373770080606098,-1.00677498035821,-0.117513108939808,-0.0705909252205323,-0.0360589555426885,0.00133492875193903,0.00504306211939723
29.285,-0.399794185364313,0.303669733802392,0.555825974359827,0.736910341148766,-1.65883557118568,0.341204614727017,-0.782797851574081,-0.204345359797771,-0.264141534850624,0.0348786134387889,-1.17226443018563,0.461351989744883,-0.799941537623038,-0.0637230953590304,0.0651780361592877,-0.652585787152251,-0.128960563014561,-0.450171785123366,-1.00358762617277,-0.112007143350185,-0.0586603688151376,-0.0617458504584071,-0.00662712102304375,0.0159660934438538
29.29,-0.427988608285527,0.358364222087387,0.49985270112482,0.7398296388842,-1.57258954987504,0.445473373727007,-0.788832550043497,-0.184561416800913,-0.29288417600253,0.0676962244875778,-1.18933747688599,0.466757864591549,-0.784628074664612,-0.0648153056527757,0.0722131529884183,-0.589172048465589,-0.194796747236663,-0.542155840510833,-0.994342854366333,-0.11124178903499,-0.0533512441560488,-0.0902904222736014,-0.012419883069908,0.0310546179608164
29.295,-0.44914303561105,0.328637056456604,0.441973984759768,0.716058403141921,-1.45844294939897,0.557282414816762,-0.80016140859035,-0.126269556544339,-0.303772784585009,0.0866340386683915,-1.21306429862255,0.491524060000686,-0.772826068016928,-0.0663571016157445,0.0626857813075072,-0.513041676332156,-0.250628521898818,-0.61241365360224,-0.99006718768163,-0.115561500332048,-0.0454551399454192,-0.108695917725267,-0.00499338909849322,0.0444629986597618
29.3,-0.453407035328931,0.273997297160601,0.36219529414184,0.74416115406316,-1.33535738918896,0.657188573737514,-0.809310844478007,-0.0804855720096331,-0.30698273874013,0.0896702137784118,-1.22019410133362,0.517294233390874,-0.765740861692746,-0.0654579704633079,0.0618457800964976,-0.522635300328234,-0.320592684649877,-0.671783372195776,-0.986940796329005,-0.118861748695748,-0.0393198512530282,-0.111586572607493,0.00236624366820821,0.0534386146823835
29.305,-0.451032002502587,0.215041612525654,0.293547843048045,0.81793695337755,-1.16383057119884,0.740544408245235,-0.810138454376786,-0.0388691595799929,-0.320711018820197,0.0851284070218785,-1.21899134491333,0.556123256781365,-0.754358929778936,-0.0641469426430359,0.0653236208479116,-0.599446890953678,-0.374319579065297,-0.72822212017311,-0.979740223884583,-0.124403153175051,-0.0340579427608722,-0.104219884928412,0.0101941227912903,0.0505450007879203
29.31,-0.469447396962527,0.18955166203482,0.273452228529182,0.889202719643381,-0.999979061448771,0.789591592194615,-0.810410399580126,-0.0355454819254553,-0.346513805429859,0.0219237427633576,-1.20124787542025,0.581000117198629,-0.746996569105097,-0.0649135622670585,0.0679450181605873,-0.667561891975935,-0.414898032340727,-0.802845247560715,-0.972354131720843,-0.132679981293446,-0.0236557347813942,-0.09061658522258,0.0101941227912903,0.0382660112042096
29.315,-0.490502599545618,0.186203190028089,0.228265094921774,0.935931247535538,-0.787575148735745,0.85176684006953,-0.821095533194712,-0.0365156634066657,-0.381130955335147,-0.109123845431346,-1.13835584700803,0.604594715886681,-0.73944829317135,-0.0701346096040031,0.0644794153767557,-0.719441495626251,-0.450007263771369,-0.916928387006176,-0.96675097627534,-0.130656866493488,-0.0180978034997075,-0.0797378132633503,-0.00503199675231148,0.029521391450838
29.32,-0.46769224891874,0.169893786861046,0.126493276787172,0.912097592847053,-0.595176979865715,0.89288175497383,-0.822411615207828,-0.0334615826132868,-0.392350260757858,-0.218850202127401,-1.11599491252579,0.610936451501047,-0.735297311840599,-0.0705947120115006,0.0555387511939256,-0.72131921615196,-0.462672919034958,-0.996316606369966,-0.966057271704134,-0.136874342697608,-0.0168932483668268,-0.0788847270770708,-0.0231247724727403,0.0158028162725033
29.325,-0.456722621130264,0.126765311656139,-0.0385552504754692,0.834598989681596,-0.311666682010959,0.869763277633149,-0.797894926962631,-0.035097146447644,-0.370791443760329,-0.325401486440564,-1.08628543109469,0.602304624605505,-0.741438696100754,-0.0648507391085975,0.0437125931770932,-0.684885324445899,-0.460380978492768,-1.05729524853979,-0.964711792041434,-0.134618173953089,-0.00894875090481224,-0.0747276575241923,-0.0572445311850767,-0.00782718862877885
29.33,-0.454299337888662,0.10427390446348,-0.153977856396077,0.726997649383027,0.0793331084233634,0.820753763140837,-0.780805390144976,-0.0554669709994774,-0.3641001688686,-0.419992013227298,-1.0442181885052,0.582128813527662,-0.753263546084331,-0.0489672876547484,0.0289386504176426,-0.629715663139759,-0.446079216833888,-1.0837844222543,-0.966068691068818,-0.134329245168151,-0.0101891174295984,-0.0757644674545209,-0.0969625423777531,-0.036199305340154
29.335,-0.652910682548791,0.124581199007708,-0.0589476055792223,0.549137908423663,0.490321336940491,0.795495746046857,-0.763804492198726,-0.102688427815861,-0.428737836308569,-0.579932924811819,-0.952306293569656,0.548875444359569,-0.768272959125066,-0.0335233696055144,0.0136799289189146,-0.574378654255142,-0.415124708917626,-1.07517178658253,-0.954549351221226,-0.138703785261288,-0.00840518316593733,-0.0688649381133877,-0.130168596433168,-0.0602491924622458
29.34,-1.06561921693394,0.0534110304009812,0.153935821919306,-0.0112297837087741,0.778835984328041,0.573786681600081,-0.744199061670402,-0.152738473741324,-0.53547184063427,-0.753189710318041,-0.874335760117778,0.523042563548825,-0.789468875760536,-0.0114369474029617,-0.00163009021641674,-0.504779874225608,-0.362091896730345,-1.04561933813184,-0.956509428093106,-0.126883592829274,-0.00120017740886866,-0.0823193931474106,-0.154944418200061,-0.0754005033697403
29.345,-1.45184947136404,-0.281195019805813,0.419851192397478,-1.22885447880805,0.978370361540644,-0.00172502443908559,-0.710395627221436,-0.203317199713973,-0.684122116371594,-0.964788344827096,-0.807723228272093,0.477295101774868,-0.798131210553285,0.00389005416491385,-0.0155299675414096,-0.454587999242999,-0.320396215212348,-1.03565498417769,-0.95868884411935,-0.123959414310945,-0.00895035463124547,-0.0945604304463421,-0.20365417082255,-0.132940976013688
29.35,-1.68135840998727,-1.20588308650595,0.932691431211933,-3.22262387621164,0.974322636129147,-0.738018057010615,-0.697704584004079,-0.291387849567149,-0.885633599380563,-1.2128970602265,-0.674960043138493,0.412517309373702,-0.821325863933572,0.0317776899593519,-0.0412154695606613,-0.392779093985082,-0.242041656513837,-1.02436931444325,-0.891532681987529,-0.151688151138195,0.00864124962423904,-0.123142852955747,-0.238222215398838,-0.0859394315863538
29.355,-1.59437221039298,-1.91378425132627,1.56140596940974,-4.67884680765322,0.596726592702914,-1.01863573316713,-0.732506320726206,-0.361297160568005,-0.954366347479004,-1.35414369366728,-0.530465413436882,0.349514174106085,-0.838307522127618,0.0695723255832432,-0.0576979211190072,-0.379236055547755,-0.189052330484806,-1.01635823958592,-0.916797271076327,-0.157542907883692,0.00803072435329984,-0.00727825304019357,-0.326412917868868,-0.0752850907549376
29.36,-1.35745228833694,-1.15249522913578,2.21062001257229,-4.32856099625924,-0.457784075744237,-0.791668631951324,-0.847336319421813,-0.479772495782537,-0.772872498337691,-1.21511617634929,-0.349541262587914,0.15580885393945,-0.863114223119854,0.123966238966274,-0.0961217995762583,-0.374407585795732,-0.134044586983758,-0.995280810495729,-0.933129124197761,-0.141395178844842,0.00374915036525188,0.0279517642936339,-0.436353547485598,-0.0407381618040351
29.365,-1.18951056200733,-0.696879499124926,2.23487546842001,-2.32296164901761,-0.933424496511696,-0.621950553372709,-1.00294799376066,-0.459351958286476,-0.452711225466159,-0.868113336377995,-0.1617882294148,-0.0583642405353227,-0.910613170348443,0.18059260782691,-0.0934086247403669,-0.378582165735484,-0.0946457590958344,-0.96736684629003,-0.926993430299288,-0.139381378901514,0.00873475608997657,0.0643815736672166,-0.503298705857142,-0.0738953441094858
29.37,-0.563699206993559,-0.15468324089034,1.44374997324889,-0.475185364445284,-1.10187506477093,-0.313267513408427,-1.26469096665315,-0.352445055074289,0.00621936164261323,-0.526801284065426,-0.0701851581105606,-0.254228566176454,-0.960924904151904,0.216193197996057,-0.122215235075012,-0.4527383086273,-0.107253275345057,-0.893402454251746,-0.932770583944923,-0.143961045694067,0.0236303099785589,0.0864841742427183,-0.545819972945256,-0.121172309062439
29.375,0.0724896509150318,0.575612098783968,0.938282882793354,0.0829635319014634,-0.86001408691986,-0.138391692675993,-1.47260215070404,-0.262602341024501,0.374556191972485,-0.154876662980361,-0.202179582792095,-0.365673759540821,-1.03303100126096,0.246631780281619,-0.140799994639739,-0.679363925360273,-0.152193644406645,-0.827018415843865,-0.954924888425806,-0.151138596706227,0.0396240587548552,0.0660624260030499,-0.563138284806396,-0.109174082559548
29.38,0.198131571511579,1.12855941858807,0.874058987749718,-0.320846207132823,-0.611201526834053,-0.173693321464582,-1.6486926921466,-0.0862431313884036,0.591004251510372,0.14787859026955,-0.43703869514242,-0.349721019299867,-1.12656974820725,0.282818855671103,-0.11622331935421,-0.876111613295527,-0.158037905818707,-0.767054250972685,-0.997690810604646,-0.164618730860206,0.0472974406319433,0.0499725933656962,-0.588190944071634,-0.049815965461372
29.385,-0.147946218124892,1.13918627628309,1.1166580692801,-0.516780444941696,-0.212587170836556,-0.271989572303375,-1.67944285097726,0.000573567170768612,0.434487434309907,0.0119975089077812,-0.550714088965582,-0.0928602912500065,-1.27976255237726,0.307225974442832,-0.105817380606039,-0.82164887238085,-0.129791562133365,-0.749600862613181,-1.03143070280577,-0.121399383887185,0.0520158433128906,0.0997642602946558,-0.601874828338623,-0.00610392507878197
29.39,-0.413463248266447,0.767706419101528,1.01487290735765,-0.477580313696463,-0.034222760810652,-0.267672461859645,-1.61927128507591,-0.0966238295589778,0.209350021205638,-0.28530039502558,-0.552879067293677,0.221994821796906,-1.48290309895482,0.308559728706418,-0.145856864480041,-0.718090413457322,-0.0753916351082628,-0.780312331366216,-1.05782978442797,-0.0833337634384317,0.0573562870639649,0.150879906403508,-0.595234205498541,0.0143968764940746
29.395,-0.626323492681878,0.281428774122335,1.02427209256142,-0.562609355903392,0.0979701313926851,-0.183654497280054,-1.49945347985508,-0.243452522392302,0.0122905540614176,-0.422476267252642,-0.519871385706684,0.377220494912792,-1.7255452451024,0.299923994429929,-0.200800966556491,-0.728789504672173,-0.00431759913136976,-0.813084257763041,-1.09614136053397,-0.0512464063632485,0.0485590147809284,0.152214637641008,-0.549436763420032,0.0226426512693905
29.4,-0.801909239248441,-0.237113642514637,1.12065387054463,-0.448464871011075,0.0609192287979679,-0.0727212609447872,-1.29603504268231,-0.399905553603753,-0.182340609201738,-0.437768614027671,-0.400651809536354,0.463167589247497,-1.92932044095049,0.287657169890829,-0.233117037588113,-0.862374544873018,0.0638385704940002,-0.8333766957483,-1.15465404969465,-0.00535577374817253,0.0303365869402796,0.14497002020531,-0.501323963859413,0.0155991295063985
