Header,foot_Accel_X,foot_Accel_Y,foot_Accel_Z,foot_Gyro_X,foot_Gyro_Y,foot_Gyro_Z,shank_Accel_X,shank_Accel_Y,shank_Accel_Z,shank_Gyro_X,shank_Gyro_Y,shank_Gyro_Z,thigh_Accel_X,thigh_Accel_Y,thigh_Accel_Z,thigh_Gyro_X,thigh_Gyro_Y,thigh_Gyro_Z,trunk_Accel_X,trunk_Accel_Y,trunk_Accel_Z,trunk_Gyro_X,trunk_Gyro_Y,trunk_Gyro_Z
0,1.67498949972662,-1.87860521422482,6.38137194509204,-0.233867939025355,-0.0584004102583902,-0.0739391052775025,7.89542394209525,2.33668118841336,-4.03431989568323,-4.23143313539798,5.64138869470829,-4.27809366976078,0.219836098399128,-0.63478083308479,2.60046916105995,-0.273319329050527,-0.00997813759984945,0.0194056962627477,2.46768104159935,0.185417841823238,-3.36603055526217,-11.2680201627982,-4.99006986062476,-1.26921477868097
0.005,1.67376089504671,-1.87738642218648,6.37815561119237,-0.22871211904282,-0.0558102462212023,-0.0709357774867961,7.890229888862,2.33530342711176,-4.03198872068404,-4.22895009928709,5.63807798157632,-4.2756106349118,0.219135677410122,-0.634483396609085,2.59887464519764,-0.268215354825576,-0.00936365110489867,0.0193170900982676,2.46565690583373,0.185274517874447,-3.36398328819871,-11.2614377897751,-4.98714436249453,-1.26848340414842
0.01,1.6725322903668,-1.87616763014802,6.3749392772927,-0.214719366107319,-0.0492436783600534,-0.0631906455094143,7.88503583562874,2.33392566581015,-4.02965754568484,-4.2264670631762,5.63476726844436,-4.27312760006283,0.218435256420662,-0.634185960133351,2.59728012933536,-0.253989079255732,-0.00782153478705896,0.0188338623653662,2.46363277006833,0.185131193925656,-3.36193602113525,-11.2548554167519,-4.98421886436431,-1.26775202961586
0.015,1.67130368568667,-1.87494883810967,6.3717229433928,-0.194540108046884,-0.0404364432189092,-0.0528875969995231,7.87984178239526,2.33254790450855,-4.02732637068565,-4.22398402706532,5.63145655531239,-4.27064456521386,0.217734835431429,-0.633888523657617,2.59568561347308,-0.232919632287857,-0.00587649316628949,0.0179369435322579,2.46160863430282,0.184987869976872,-3.35988875407179,-11.2482730437287,-4.98129336623408,-1.2670206550833
0.02,1.67007508100676,-1.87373004607127,6.36850660949312,-0.170403991096475,-0.0304048137994378,-0.0412258799010655,7.87464772916178,2.33117014320695,-4.02499519568646,-4.22150099095443,5.62814584218042,-4.26816153036488,0.217034414441969,-0.633591087181941,2.5940910976108,-0.207307920904056,-0.00373147779978786,0.0167562433652981,2.45958449853742,0.184844546028089,-3.35784148700833,-11.2416906707055,-4.97836786810385,-1.26628928055074
0.025,1.66884647632685,-1.87251125403293,6.36529027559345,-0.144161455589436,-0.0199394055054697,-0.029109751244125,7.8694536759283,2.32979238190535,-4.02266402068727,-4.21901795484354,5.62483512904846,-4.26567849551591,0.216333993452736,-0.633293650706207,2.59249658174855,-0.179110277241111,-0.00154519432843246,0.0154191974376964,2.45756036277191,0.184701222079291,-3.35579421994487,-11.2351082976823,-4.97544236997362,-1.26555790601819
0.03,1.66761787164683,-1.87129246199459,6.36207394169355,-0.117336114188054,-0.00964374104222329,-0.0172034606751717,7.86425962269504,2.32841462060374,-4.02033284568807,-4.21653491873266,5.62152441591649,-4.26319546066694,0.215633572463275,-0.632996214230474,2.59090206588627,-0.149970576714626,0.000552434440407343,0.014038002516864,2.45553622700652,0.184557898130507,-3.35374695288141,-11.2285259246592,-4.9725168718434,-1.26482653148563
0.035,1.6663892669668,-1.87007366995618,6.35885760779388,-0.0911862508566313,-6.65944960624026e-06,-0.00601023130536469,7.85906556946156,2.32703685930214,-4.01800167068888,-4.21405188262177,5.61821370278453,-4.26071242581796,0.214933151474042,-0.63269877775474,2.58930755002399,-0.121268048777541,0.00245527511283413,0.0127036734660739,2.45351209124101,0.184414574181716,-3.35169968581795,-11.221943551636,-4.96959137371317,-1.26409515695308
0.04,1.66516066228689,-1.86885487791784,6.35564127389421,-0.0666598958526452,0.00860574627842269,0.00412261492682366,7.85387151622808,2.32565909800054,-4.01567049568969,-4.21156884651088,5.61490298965256,-4.25822939096899,0.21423273048481,-0.632401341279063,2.58771303416171,-0.0940675018722664,0.00409358896041904,0.0114885468456138,2.4514879554755,0.184271250232932,-3.34965241875452,-11.2153611786128,-4.96666587558294,-1.26336378242052
0.045,1.66393205760687,-1.86763608587944,6.35242493999453,-0.0443859987180011,0.015981586306269,0.0130067535908387,7.8486774629946,2.32428133669894,-4.0133393206905,-4.20908581039999,5.6115922765206,-4.25574635612001,0.213532309495349,-0.63210390480333,2.58611851829943,-0.0691085936672062,0.00543746075275085,0.0104537909815924,2.4494638197101,0.184127926284148,-3.34760515169106,-11.2087788055896,-4.96374037745271,-1.26263240788796
0.05,1.66270345292696,-1.8664172938411,6.34920860609463,-0.024731532395804,0.0220573179865554,0.0205871580653607,7.84348340976135,2.32290357539734,-4.01100814569131,-4.20660277428911,5.60828156338863,-4.25326332127104,0.212831888506116,-0.631806468327596,2.58452400243718,-0.0468613887433634,0.00648853125103654,0.00965317721147334,2.44743968394459,0.18398460233535,-3.34555788462757,-11.2021964325664,-4.96081487932248,-1.2619010333554
0.055,1.66147484824694,-1.86519850180264,6.34599227219496,-0.00786047376997776,0.0268825561555769,0.0269053673477898,7.83828935652787,2.32152581409573,-4.00867697069211,-4.20411973817822,5.60497085025666,-4.25078028642206,0.212131467516656,-0.631509031851891,2.5829294865749,-0.0275823828648162,0.00727102595960865,0.00912963648383844,2.44541554817908,0.183841278386566,-3.34351061756414,-11.1956140595433,-4.95788938119226,-1.26116965882285
0.06,1.66024624356692,-1.86397970976429,6.34277593829529,0.00624184616189674,0.0305826192911178,0.0320733782624564,7.83309530329439,2.32014805279413,-4.00634579569292,-4.20163670206734,5.6016601371247,-4.24829725157309,0.211431046527423,-0.631211595376158,2.58133497071262,-0.0113321177978507,0.00782446021307592,0.0089044022196234,2.44339141241358,0.183697954437775,-3.34146335050067,-11.1890316865201,-4.95496388306203,-1.26043828429029
0.065,1.65901763888701,-1.86276091772595,6.33955960439539,0.0177591910221064,0.0333276027809942,0.0362545314196882,7.82790125006113,2.31877029149253,-4.00401462069373,-4.19915366595645,5.59834942399273,-4.24581421672411,0.210730625537963,-0.630914158900453,2.57974045485031,0.00202384294591958,0.00819691619947673,0.00896584059943846,2.44136727664818,0.183554630488992,-3.33941608343721,-11.1824493134969,-4.9520383849318,-1.25970690975773
0.07,1.6577890342071,-1.86154212568755,6.33634327049572,0.0269991443461698,0.0353060389454503,0.0396305610272283,7.82270719682765,2.31739253019093,-4.00168344569453,-4.19667062984556,5.59503871086077,-4.24333118187514,0.210030204548957,-0.630616722424747,2.57814593898806,0.0127740791389313,0.00843921592171048,0.00927077292602478,2.43934314088267,0.183411306540201,-3.33736881637375,-11.1758669404737,-4.94911288680157,-1.25897553522518
0.075,1.65656042952696,-1.86032333364921,6.33312693659605,0.0343162359052993,0.0366934912451807,0.0423490838824739,7.8175131435944,2.31601476888932,-3.99935227069534,-4.19418759373468,5.5917279977288,-4.24084814702616,0.209329783559497,-0.630319285949014,2.57655142312578,0.0212852648789375,0.00860208858159691,0.00975364272036804,2.43731900511716,0.18326798259141,-3.33532154931029,-11.1692845674505,-4.94618738867135,-1.25824416069262
0.08,1.65533182484705,-1.8591045416108,6.32991060269615,0.0400558154342012,0.0376154979654252,0.0444776863508771,7.81231909036069,2.31463700758772,-3.99702109569616,-4.19170455762379,5.58841728459683,-4.23836511217718,0.208629362570264,-0.63002184947328,2.5749569072635,0.0279456031866718,0.00873667747080439,0.0103278779570139,2.43529486935176,0.183124658642626,-3.33327428224683,-11.1627021944274,-4.94326189054112,-1.25751278616006
0.085,1.65410322016714,-1.85788574957246,6.32669426879647,0.0445248670703785,0.0381328015418369,0.0460044998059713,7.80712503712743,2.31325924628612,-3.99468992069696,-4.1892215215129,5.58510657146487,-4.23588207732822,0.207928941580803,-0.629724412997604,2.57336239140122,0.0331256258186833,0.00889196492059564,0.010883837693189,2.43327073358626,0.182981334693835,-3.33122701518337,-11.1561198214042,-4.94033639241089,-1.25678141162751
0.09,1.65287461548712,-1.85666695753406,6.3234779348968,0.0479675181161529,0.0382596031476371,0.0468805071298983,7.80193098389395,2.31188148498452,-3.99235874569776,-4.18673848540201,5.5817958583329,-4.23339904247924,0.207228520591343,-0.62942697652187,2.57176787553894,0.037133914442418,0.00910666240425928,0.011294748840977,2.43124659782086,0.182838010745051,-3.32917974811991,-11.149537448381,-4.93741089428066,-1.25605003709495
0.095,1.6516460108071,-1.85544816549572,6.3202616009969,0.050551536722875,0.0379834039576471,0.0470543035445483,7.7967369306607,2.31050372368291,-3.99002757069857,-4.18425544929113,5.57848514520094,-4.23091600763026,0.20652809960211,-0.629129540046137,2.57017335967669,0.0401904991551848,0.00940287585001815,0.0114297057840072,2.42922246205535,0.18269468679626,-3.32713248105648,-11.1429550753578,-4.93448539615044,-1.25531866256239
0.1,1.65041740612719,-1.85422937345731,6.31704526709723,0.0523746214022378,0.0372714574214437,0.0464836868631007,7.79154287742699,2.30912596238132,-3.98769639569938,-4.18177241318024,5.57517443206897,-4.22843297278129,0.20582767861265,-0.628832103570431,2.56857884381441,0.0424327407846429,0.00978460711596687,0.0111723861026184,2.42719832628995,0.18255136284747,-3.32508521399299,-11.1363727023346,-4.93155989802021,-1.25458728802984
0.105,1.64918880144717,-1.85301058141897,6.31382893319756,0.0534784396492177,0.0360713138023644,0.0451301162650066,7.78634882419374,2.30774820107971,-3.98536522070019,-4.17928937706935,5.571863718937,-4.22594993793232,0.205127257623644,-0.628534667094726,2.56698432795213,0.0439357489323124,0.0102401209372949,0.0104364918776233,2.42517419052444,0.182408038898679,-3.32303794692953,-11.1297903293115,-4.92863439988998,-1.25385591349728
0.11,1.64796019676726,-1.85179178938057,6.31061259929766,0.0538616512662862,0.0343192106984591,0.0429508939904949,7.78115477096048,2.30637043977811,-3.983034045701,-4.17680634095847,5.56855300580504,-4.22346690308334,0.204426836634184,-0.628237230618993,2.56538981208985,0.0447303355302905,0.0107471285524614,0.00916994965414607,2.42315005475893,0.182264714949895,-3.3209906798661,-11.1232079562883,-4.92570890175976,-1.25312453896472
0.115,1.64673159208724,-1.85057299734217,6.30739626539798,0.0535039795100974,0.0319739571345571,0.0399261020806483,7.775960717727,2.30499267847651,-3.9807028707018,-4.17432330484758,5.56524229267308,-4.22098386823437,0.203726415644951,-0.627939794143259,2.56379529622757,0.0448228504655951,0.0112765754088565,0.00736185374890633,2.42112591899354,0.182121391001111,-3.31894341280264,-11.1166255832651,-4.92278340362953,-1.25239316443216
0.12,1.64550298740721,-1.84935420530383,6.30417993149831,0.0524049443189511,0.0290489146316995,0.0360977230390949,7.77076666449352,2.3036149171749,-3.97837169570261,-4.17184026873669,5.56193157954111,-4.2185008333854,0.203025994655491,-0.627642357667554,2.56220078036532,0.0442284637214207,0.0117958329066286,0.00504909201312938,2.41910178322803,0.18197806705232,-3.31689614573918,-11.1100432102419,-4.9198579054993,-1.25166178989961
0.125,1.6442743827273,-1.84813541326542,6.30096359759864,0.0506067331730853,0.0256043762942511,0.0315652986055321,7.76557261126004,2.3022371558733,-3.97604052070341,-4.16935723262581,5.55862086640914,-4.21601779853642,0.202325573666258,-0.627344921191821,2.56060626450301,0.0429971998840268,0.0122734977411955,0.00230150856729972,2.41707764746263,0.181834743103529,-3.31484887867572,-11.1034608372187,-4.91693240736907,-1.25093041536705
0.13,1.64304577804728,-1.84691662122708,6.29774726369874,0.0481845796478263,0.0217257617315653,0.0264576380691763,7.76037855802679,2.3008593945717,-3.97370934570423,-4.16687419651492,5.55531015327718,-4.21353476368745,0.201625152676797,-0.627047484716115,2.55901174864073,0.0412093610591929,0.0126815362614361,-0.00079780731808993,2.41505351169712,0.181691419154738,-3.31280161161226,-11.0968784641956,-4.91400690923884,-1.2501990408345
0.135,1.64181717336726,-1.84569782918868,6.29453092979907,0.0452275088497768,0.0175143320502223,0.0209203512743783,7.75518450479331,2.2994816332701,-3.97137817070503,-4.16439116040403,5.55199944014521,-4.21105172883847,0.200924731687337,-0.62675004824041,2.55741723277845,0.0389564380418622,0.0129936629634289,-0.00415548087754371,2.41302937593173,0.181548095205954,-3.3107543445488,-11.0902960911724,-4.91108141110862,-1.24946766630194
0.14,1.64058856868735,-1.84447903715034,6.29131459589939,0.0418264262402732,0.0130755374399831,0.0151103451123349,7.74999045155982,2.2981038719685,-3.96904699570584,-4.16190812429315,5.54868872701325,-4.2085686939895,0.200224310698331,-0.626452611764677,2.55582271691617,0.0363272833644516,0.0131843524522049,-0.00766942255376477,2.41100524016622,0.181404771257171,-3.30870707748534,-11.0837137181492,-4.90815591297839,-1.24873629176938
0.145,1.63935996400744,-1.84326024511194,6.28809826199949,0.0380723573075582,0.00851448000798665,0.00918848584776519,7.74479639832634,2.2967261106669,-3.96671582070665,-4.15942508818226,5.54537801388128,-4.20608565914053,0.199523889708871,-0.626155175288943,2.55422820105392,0.0334075990035596,0.0132302225672595,-0.0112307385138172,2.40898110440071,0.18126144730838,-3.30665981042188,-11.077131345126,-4.90523041484816,-1.24800491723682
0.15,1.6381313593273,-1.84204145307359,6.28488192809982,0.0340581435719262,0.00394994580233025,0.00331723383797154,7.73960234509309,2.29534834936529,-3.96438464570745,-4.15694205207137,5.54206730074931,-4.20360262429155,0.198823468719638,-0.625857738813266,2.55263368519164,0.0302863113579818,0.0131098552090774,-0.0147144114759092,2.40695696863531,0.181118123359589,-3.30461254335842,-11.0705489721029,-4.90230491671793,-1.24727354270427
0.155,1.63690275464739,-1.84082266103519,6.28166559420015,0.029866019396596,-0.000486092055939661,-0.00234442894391369,7.73440829185984,2.29397058806369,-3.96205347070826,-4.15445901596049,5.53875658761735,-4.20111958944257,0.198123047730178,-0.625560302337533,2.55103916932936,0.0270453785321601,0.0127995338661495,-0.0179769617684466,2.4049328328698,0.180974799410798,-3.30256527629496,-11.0639665990797,-4.89937941858771,-1.24654216817171
0.16,1.63567414996749,-1.83960386899685,6.27844926030025,0.0255526582561794,-0.00466885081917752,-0.00765121916121511,7.72921423862613,2.29259282676209,-3.95972229570907,-4.1519759798496,5.53544587448538,-4.1986365545936,0.197422626740945,-0.625262865861799,2.54944465346708,0.0237415758758496,0.0122721189486459,-0.0208729149409075,2.40290869710441,0.180831475462014,-3.3005180092315,-11.0573842260565,-4.89645392045748,-1.24581079363915
0.165,1.63444554528746,-1.83838507695845,6.27523292640058,0.0211554822820817,-0.00849204617157216,-0.012475484497176,7.72402018539287,2.29121506546048,-3.95739112070988,-4.14949294373871,5.53213516135342,-4.19615351974463,0.196722205751485,-0.624965429386094,2.5478501376048,0.020407627656645,0.0115035138722013,-0.0232733869531456,2.4008845613389,0.180688151513223,-3.29847074216806,-11.0508018530333,-4.89352842232725,-1.2450794191066
0.17,1.63321694060744,-1.83716628492004,6.2720165925009,0.0167076981532374,-0.0118712440627987,-0.0167087640865111,7.71882613215939,2.28983730415888,-3.95505994571069,-4.14700990762782,5.52882444822145,-4.19367048489565,0.196021784762252,-0.624667992910389,2.54625562174255,0.0170659667070734,0.0104788920163676,-0.025076504583736,2.3988604255735,0.180544827564439,-3.2964234751046,-11.0442194800101,-4.89060292419702,-1.24434804457404
0.175,1.63198833592753,-1.83594749288167,6.268800258601,0.0122462767733808,-0.01475027332775,-0.0202712142841081,7.71363207892614,2.28845954285728,-3.9527287707115,-4.14452687151694,5.52551373508948,-4.19118745004667,0.195321363773019,-0.624370556434656,2.54466110588027,0.0137410957122009,0.00919476523636657,-0.0262137674921249,2.39683628980799,0.180401503615649,-3.29437620804111,-11.037637106987,-4.88767742606679,-1.24361667004148
0.18,1.63075973124751,-1.83472870084333,6.26558392470133,0.00781487616520337,-0.0171016323877983,-0.0231209972252257,7.70843802569243,2.28708178155568,-3.9503975957123,-4.14204383540605,5.52220302195752,-4.18870441519771,0.194620942783558,-0.62407311995895,2.54306659001799,0.0104668650945684,0.00766015915527566,-0.026655506899604,2.39481215404248,0.180258179666858,-3.29232894097765,-11.0310547339638,-4.88475192793657,-1.24288529550893
0.185,1.6295311265676,-1.83350990880496,6.26236759080166,0.00345967928488489,-0.0189117154607775,-0.0252498470807022,7.70324397245918,2.28570402025408,-3.94806642071311,-4.13956079929516,5.51889230882556,-4.18622138034873,0.193920521794325,-0.623775683483217,2.54147207415568,0.00728117092329361,0.00589576070974712,-0.0264121683266344,2.39278801827697,0.180114855718074,-3.29028167391422,-11.0244723609406,-4.88182642980634,-1.24215392097637
0.19,1.62830252188758,-1.83229111676658,6.25915125690176,-0.000781581446392832,-0.0201609831114447,-0.0266637665394024,7.6980499192257,2.28432625895248,-3.94573524571391,-4.13707776318428,5.51558159569359,-4.18373834549975,0.193220100804865,-0.623478247007512,2.53987755829343,0.00420916657426879,0.00392860747099196,-0.0255276709630509,2.39076388251146,0.179971531769283,-3.28823440685073,-11.0178899879174,-4.87890093167612,-1.24142254644381
0.195,1.62707391720755,-1.83107232472821,6.25593492300209,-0.00488441450180986,-0.020822247534195,-0.027369563085949,7.69285586599244,2.28294849765087,-3.94340407071472,-4.13459472707339,5.51227088256162,-4.18125531065078,0.192519679815632,-0.623180810531807,2.53828304243115,0.00125465122395998,0.00178769092511666,-0.0240721052425943,2.38873974674607,0.179828207820499,-3.2861871397873,-11.0113076148942,-4.87597543354589,-1.24069117191125
0.2,1.62584531252764,-1.82985353268984,6.25271858910241,-0.00882756984128146,-0.0208825365318877,-0.0273841825153377,7.68766181275873,2.28157073634927,-3.94107289571554,-4.13211169096251,5.50896016942966,-4.1787722758018,0.191819258826172,-0.622883374056073,2.53668852656887,-0.00158682090740755,-0.000493691144831318,-0.0221442896740178,2.38671561098056,0.179684883871708,-3.28413987272384,-11.0047252418711,-4.87304993541566,-1.2399597973787
0.205,1.62461670784762,-1.82863474065147,6.24950225520274,-0.0125823104564128,-0.0203612013506204,-0.0267468021275087,7.68246775952548,2.28019297504767,-3.93874172071634,-4.12962865485162,5.50564945629769,-4.17628924095283,0.191118837837166,-0.62258593758034,2.53509401070659,-0.00431241182017969,-0.00287485558819606,-0.0198754209035464,2.38469147521516,0.179541559922917,-3.28209260566038,-10.9981428688479,-4.87012443728543,-1.23922842284614
0.21,1.6233881031676,-1.82741594861309,6.24628592130284,-0.0161155180489159,-0.019302381606273,-0.0255186784203893,7.67727370629223,2.27881521374606,-3.93641054571714,-4.12714561874073,5.50233874316573,-4.17380620610385,0.190418416847706,-0.622288501104606,2.53349949484431,-0.00691256239822231,-0.00530928472943277,-0.017418909841771,2.38266733944965,0.179398235974134,-3.28004533859695,-10.9915604958247,-4.8671989391552,-1.23849704831358
0.215,1.62215949848769,-1.82619715657466,6.24306958740317,-0.019399023526013,-0.017756428224056,-0.0237813392894917,7.67207965305874,2.27743745244446,-3.93407937071795,-4.12466258262985,5.49902803003376,-4.17132317125488,0.189717995858246,-0.621991064628929,2.53190497898206,-0.0093777637667916,-0.0077472031504565,-0.014931110262337,2.38064320368414,0.179254912025343,-3.27799807153346,-10.9849781228015,-4.86427344102498,-1.23776567378103
0.22,1.62093089380778,-1.82497836453632,6.2398532535035,-0.0224154363298768,-0.0157729797909884,-0.0216327872861913,7.66688559982526,2.27605969114286,-3.93174819571876,-4.12217954651896,5.49571731690179,-4.1688401364059,0.189017574869013,-0.621693628153196,2.53031046311978,-0.0117027879239422,-0.0101388572858381,-0.0125537091651324,2.37861906791875,0.179111588076559,-3.27595080447,-10.9783957497783,-4.86134794289475,-1.23703429924847
0.225,1.61970228912776,-1.82375957249795,6.2366369196036,-0.0251584238222617,-0.0134080404170258,-0.0191791291164273,7.66169154659178,2.27468192984126,-3.92941702071957,-4.11969651040807,5.49240660376983,-4.16635710155693,0.188317153879552,-0.621396191677462,2.5287159472575,-0.0138878687543511,-0.0124385130787971,-0.0104055176254461,2.37659493215324,0.178968264127768,-3.27390353740657,-10.9718133767552,-4.85842244476452,-1.23630292471591
0.23,1.61847368444774,-1.82254078045958,6.23342058570393,-0.027625649195157,-0.0107372877176673,-0.016528216216105,7.65649749335853,2.27330416853966,-3.92708584572038,-4.11721347429719,5.48909589063786,-4.16387406670796,0.187616732890319,-0.621098755201757,2.52712143139522,-0.0159337294717321,-0.0146056624639479,-0.00859129114576139,2.37457079638784,0.178824940178977,-3.27185627034308,-10.965231003732,-4.85549694663429,-1.23557155018336
0.235,1.61724507976771,-1.8213219884212,6.23020425180425,-0.029811738568003,-0.00786682882749607,-0.013791089861986,7.65130344012505,2.27192640723806,-3.92475467072119,-4.1147304381863,5.4857851775059,-4.16139103185898,0.186916311901086,-0.620801318726052,2.52552691553294,-0.0178329740387756,-0.0166052274999828,-0.00721104946324216,2.37254666062233,0.178681616230186,-3.26980900327962,-10.9586486307088,-4.85257144850407,-1.2348401756508
0.24,1.6160164750878,-1.82010319638283,6.22698791790435,-0.0317131299868957,-0.00492973006831107,-0.0110889250058339,7.64610938689157,2.27054864593645,-3.92242349572199,-4.11224740207541,5.48247446437393,-4.15890799701001,0.186215890911853,-0.620503882250318,2.52393239967068,-0.0195682367926816,-0.0184103498472188,-0.00634278530545157,2.37052252485694,0.178538292281402,-3.26776173621619,-10.9520662576856,-4.84964595037384,-1.23410880111824
0.245,1.61478787040778,-1.81888440434446,6.22377158400468,-0.0333395455819449,-0.00206926943590967,-0.00855228771417805,7.64091533365809,2.26917088463485,-3.9200923207228,-4.10976436596452,5.47916375124197,-4.15642496216103,0.185515469922393,-0.620206445774613,2.52233788380838,-0.0211215225168567,-0.0200049880155862,-0.00601549710542194,2.36849838909143,0.178394968332618,-3.26571446915273,-10.9454838846624,-4.84672045224361,-1.23337742658568
0.25,1.61355926572776,-1.81766561230606,6.22055525010501,-0.0347187168495359,0.000573591195094838,-0.00631093936053463,7.63572128042483,2.26779312333325,-3.91776114572361,-4.10728132985364,5.47585303811,-4.15394192731206,0.18481504893316,-0.61990900929888,2.5207433679461,-0.0224860804072248,-0.021382617402132,-0.00620886835594357,2.36647425332592,0.178251644383828,-3.26366720208927,-10.9389015116393,-4.84379495411338,-1.23264605205313
0.255,1.61233066104785,-1.81644682026769,6.21733891620511,-0.0358936645851496,0.00285822210083317,-0.00448550476303621,7.63052722719158,2.26641536203165,-3.91542997072441,-4.10479829374275,5.47254232497803,-4.15145889246309,0.1841146279437,-0.619611572823175,2.51914885208382,-0.0236736123782424,-0.0225421422972018,-0.00687749256517695,2.36445011756052,0.178108320435037,-3.26161993502581,-10.9323191386161,-4.84086945598315,-1.23191467752057
0.26,1.61110205636794,-1.81522802822934,6.21412258230544,-0.0369200913092996,0.00463692432475805,-0.00317931081160017,7.62533317395787,2.26503760073004,-3.91309879572523,-4.10231525763186,5.46923161184607,-4.14897585761411,0.183414206954467,-0.619314136347469,2.51755433622154,-0.0247224291714697,-0.0234838544700925,-0.0079780020623689,2.36242598179501,0.177964996486246,-3.25957266796235,-10.9257367655929,-4.83794395785293,-1.23118330298801
0.265,1.6098734516878,-1.81400923619097,6.21090624840576,-0.0378707297261666,0.00576265133737681,-0.0024654219447892,7.62013912072462,2.26365983942844,-3.91076762072603,-4.09983222152098,5.4659208987141,-4.14649282276513,0.18271378596512,-0.619016699871736,2.51595982035929,-0.0257120592655192,-0.0242080074098823,-0.00948419706881316,2.36040184602962,0.177821672537462,-3.25752540089888,-10.9191543925697,-4.8350184597227,-1.23045192845546
0.27,1.60864484700789,-1.8127904441526,6.20768991450586,-0.0388412243094213,0.00611353765789217,-0.00238406629885845,7.61494506749113,2.26228207812684,-3.90843644572684,-4.09734918541009,5.46261018558214,-4.14400978791617,0.182013364975774,-0.618719263396002,2.51436530449701,-0.0267675757357957,-0.024715878176502,-0.0113811840244901,2.35837771026411,0.177678348588671,-3.25547813383542,-10.9125720195465,-4.83209296159247,-1.2297205539229
0.275,1.60741624232799,-1.81157165211422,6.20447358060596,-0.0399420642206694,0.00561168319170041,-0.00295643919743807,7.60975101425788,2.26090431682524,-3.90610527072764,-4.0948661492992,5.45929947245017,-4.14152675306719,0.181312943986541,-0.618421826920326,2.51277078863473,-0.0280364591359191,-0.0250098429952787,-0.0136470440600145,2.35635357449871,0.177535024639887,-3.25343086677196,-10.9059896465234,-4.82916746346225,-1.22898917939034
0.28,1.60618763764796,-1.81035286007582,6.20125724670652,-0.0412830420939217,0.00423001735387428,-0.00418733678917168,7.60455696102417,2.25952655552364,-3.90377409572845,-4.09238311318832,5.45598875931821,-4.13904371821821,0.180612522997194,-0.618124390444592,2.51117627277245,-0.0296641267833079,-0.025093005143447,-0.0162426996069791,2.3543294387332,0.177391700691096,-3.25138359970853,-10.8994072735002,-4.82624196533202,-1.22825780485779
0.285,1.60495903296794,-1.80913406803745,6.19804091280685,-0.0429599149616895,0.00199608031991321,-0.00605120340930009,7.59936290779092,2.25814879422203,-3.90144292072926,-4.08990007707743,5.45267804618624,-4.13656068336925,0.179912102007734,-0.617826953968859,2.50958175691017,-0.0317821495533168,-0.0249700702718086,-0.0191169861827085,2.35230530296769,0.177248376742305,-3.24933633264504,-10.892824900477,-4.82331646720179,-1.22752643032523
0.29,1.60373042828803,-1.80791527599911,6.19482457890695,-0.0450195280148785,-0.00100358151924962,-0.00848536432541262,7.59416885455744,2.25677103292043,-3.89911174573007,-4.08741704096654,5.44936733305427,-4.13407764852027,0.179211681018387,-0.617529517493153,2.50798724104791,-0.0344674600633235,-0.0246443355932505,-0.0222142849430167,2.3502811672023,0.177105052793522,-3.24728906558161,-10.8862425274538,-4.82039096907157,-1.22679505579267
0.295,1.60250182360801,-1.80669648396074,6.19160824500727,-0.0474144245805581,-0.00461925607371621,-0.0113838180634823,7.58897480132396,2.25539327161883,-3.89678057073087,-4.08493400485566,5.44605661992231,-4.13159461367129,0.178511260029154,-0.61723208101742,2.50639272518563,-0.0376888734388209,-0.0241124480926297,-0.0254768234782185,2.34825703143679,0.176961728844731,-3.24524179851815,-10.8796601544306,-4.81746547094134,-1.22606368126012
0.3,1.60127321892799,-1.80547769192233,6.18839191110737,-0.0500097984419411,-0.00864990792140529,-0.0145893989335725,7.5837807480907,2.25401551031723,-3.89444939573168,-4.08245096874477,5.44274590679034,-4.12911157882232,0.177810839039807,-0.616934644541715,2.50479820932335,-0.0413185151562251,-0.0233686454434122,-0.0288498227724424,2.34623289567139,0.17681840489594,-3.24319453145469,-10.8730777814075,-4.81453997281111,-1.22533230672756
0.305,1.60004461424808,-1.80425889988396,6.1851755772077,-0.0526382897959045,-0.0128745133064039,-0.0179116935631687,7.57858669485722,2.25263774901563,-3.89211822073249,-4.07996793263388,5.43943519365838,-4.12662854397335,0.177110418050461,-0.616637208065981,2.50320369346105,-0.0451906444082019,-0.0224155639952579,-0.0322892127466198,2.34420875990588,0.176675080947156,-3.2411472643912,-10.8664954083843,-4.81161447468088,-1.224600932195
0.31,1.59881600956805,-1.80304010784559,6.18195924330803,-0.0551362641552521,-0.0170757566441404,-0.0211624472356958,7.57339264162397,2.25125998771402,-3.8897870457333,-4.077484896523,5.43612448052641,-4.12414550912437,0.176409997061228,-0.616339771590276,2.50160917759877,-0.0491320902840022,-0.0212674707952848,-0.0357616082698973,2.34218462414049,0.176531756998365,-3.23909999732777,-10.8599130353611,-4.80868897655065,-1.22386955766245
0.315,1.59758740488815,-1.80182131580722,6.17874290940836,-0.0573471756170235,-0.0210469207798477,-0.0241749075170487,7.56819858839049,2.24988222641242,-3.8874558707341,-4.07500186041211,5.43281376739444,-4.1216624742754,0.175709576071881,-0.616042335114543,2.50001466173651,-0.0529618232629175,-0.0199458114360257,-0.0392386078977008,2.34016048837498,0.176388433049581,-3.23705273026428,-10.8533306623379,-4.80576347842043,-1.22313818312989
0.32,1.59635880020824,-1.80060252376884,6.17552657550846,-0.0591196561128726,-0.0245984233057403,-0.0268060503282427,7.56300453515701,2.24850446511082,-3.88512469573491,-4.07251882430122,5.42950305426248,-4.11917943942642,0.175009155082535,-0.615744898638837,2.49842014587423,-0.0564917916593734,-0.0184756117821072,-0.0426927195600008,2.33813635260935,0.17624510910079,-3.23500546320085,-10.8467482893147,-4.8028379802902,-1.22240680859733
0.325,1.5951301955281,-1.79938373173044,6.17231024160878,-0.060310955511088,-0.027568705041671,-0.0289382500453861,7.55781048192353,2.24712670380922,-3.88279352073572,-4.07003578819034,5.42619234113051,-4.11669640457745,0.174308734093188,-0.615447462163132,2.49682563001195,-0.0595333160432452,-0.0168844944838654,-0.0460946951444762,2.33611221684396,0.176101785152007,-3.23295819613739,-10.8401659162916,-4.79991248215997,-1.22167543406477
0.33,1.59390159084819,-1.7981649396921,6.16909390770888,-0.060792511106224,-0.0298339036293688,-0.0304842700456753,7.55261642869027,2.24574894250761,-3.88046234573653,-4.06755275207945,5.42288162799855,-4.11421336972847,0.173608313103841,-0.615150025687399,2.49523111414968,-0.0619040608875702,-0.0152019958208579,-0.0494112928469254,2.33408808107845,0.175958461203209,-3.23091092907393,-10.8335835432684,-4.79698698402974,-1.22094405953222
0.335,1.59267298616828,-1.7969461476537,6.16587757380898,-0.0604564420082414,-0.0313150163071913,-0.0313914871212903,7.54742237545656,2.24437118120601,-3.87813117073733,-4.06506971596856,5.41957091486658,-4.1117303348795,0.172907892114495,-0.614852589211665,2.49363659828742,-0.0634363962049128,-0.0134588350957592,-0.0526044432357253,2.33206394531305,0.175815137254425,-3.22886366201047,-10.8270011702452,-4.79406148589951,-1.22021268499966
0.34,1.59144438148815,-1.79572735561536,6.16266123990954,-0.0592243370066009,-0.0319802376668381,-0.0316455184493179,7.54222832222331,2.24299341990441,-3.87579999573814,-4.06258667985768,5.41626020173461,-4.10924730003052,0.172207471125148,-0.614555152735988,2.49204208242514,-0.0639880096687303,-0.0116866246418193,-0.0556308657711029,2.33003980954754,0.175671813305641,-3.22681639494704,-10.820418797222,-4.79113598776929,-1.21948131046711
0.345,1.59021577680824,-1.79450856357695,6.15944490600964,-0.057058196355895,-0.0318400272421098,-0.0312754382253631,7.53703426898983,2.24161565860281,-3.87346882073895,-4.06010364374679,5.41294948860265,-4.10676426518155,0.171507050135915,-0.614257716260255,2.49044756656286,-0.063453678523237,-0.00991731644741897,-0.0584417868383403,2.32801567378215,0.17552848935685,-3.22476912788355,-10.8138364241989,-4.78821048963906,-1.21874993593455
0.35,1.58898717212833,-1.79328977153858,6.15622857210997,-0.0539705638439031,-0.030944019672305,-0.0303533680474513,7.53184021575657,2.24023789730121,-3.87113764573976,-4.0576206076359,5.40963877547069,-4.10428123033257,0.170806629146568,-0.613960279784521,2.48885305070058,-0.0617793030754838,-0.00818276359701422,-0.060985233552561,2.32599153801664,0.175385165408066,-3.22272186082012,-10.8072540511757,-4.78528499150883,-1.21801856140199
0.355,1.5877585674483,-1.79207097950024,6.15301223821007,-0.0500330745206131,-0.0293862093693748,-0.028983905512275,7.52664616252309,2.2388601359996,-3.86880647074057,-4.05513757152502,5.40632806233872,-4.1017981954836,0.170106208157222,-0.613662843308816,2.4872585348383,-0.058978990182168,-0.0065160902461746,-0.0632095061077406,2.32396740225113,0.175241841459268,-3.22067459375663,-10.8006716781525,-4.78235949337861,-1.21728718686943
0.36,1.5865299627684,-1.79085218746184,6.14979590431062,-0.0453853155722068,-0.0273070664304703,-0.0272968005494254,7.52145210928961,2.237482374698,-3.86647529574137,-4.05265453541413,5.40301734920675,-4.09931516063463,0.169405787167989,-0.613365406833111,2.48566401897605,-0.055149499056342,-0.00495384074523204,-0.0650641288308348,2.32194326648573,0.175098517510484,-3.21862732669317,-10.7940893051293,-4.77943399524838,-1.21655581233687
0.365,1.58530135808837,-1.78963339542346,6.14657957041049,-0.0402427176929226,-0.0248868599287249,-0.0254485176524244,7.51625805605636,2.2361046133964,-3.86414412074218,-4.05017149930324,5.39970663607479,-4.09683212578565,0.168705366178642,-0.613067970357378,2.48406950311374,-0.0504785069310015,-0.00353664384912879,-0.0665008255092954,2.31991913072022,0.174955193561694,-3.21658005962973,-10.7875069321061,-4.77650849711815,-1.21582443780432
0.37,1.58407275340835,-1.78841460338509,6.14336323651082,-0.0349017444753836,-0.0223372146233251,-0.0236214151946389,7.51106400282288,2.23472685209479,-3.86181294574298,-4.04768846319236,5.39639592294282,-4.09434909093667,0.168004945189182,-0.612770533881672,2.48247498725146,-0.0452508880592847,-0.0023091710775487,-0.0674760937052094,2.31789499495483,0.17481186961291,-3.21453279256627,-10.780924559083,-4.77358299898792,-1.21509306327176
0.375,1.58284414872844,-1.78719581134675,6.14014690261138,-0.0297229334619791,-0.0198784834000468,-0.0220065217295257,7.5058699495894,2.23334909079319,-3.8594817707438,-4.04520542708147,5.39308520981086,-4.09186605608771,0.167304524199949,-0.612473097405939,2.48088047138918,-0.0398346384497388,-0.00131760662331599,-0.0679554717453497,2.31587085918932,0.174668545664126,-3.21248552550281,-10.7743421860598,-4.77065750085769,-1.21436168873921
0.38,1.58161554404842,-1.78597701930835,6.13693056871148,-0.0250508365071,-0.0176787324583139,-0.0207498339481256,7.50067589635592,2.23197132949159,-3.8571505957446,-4.04272239097058,5.38977449667889,-4.08938302123873,0.166604103210602,-0.612175660930205,2.4792859555269,-0.0346053628266256,-0.000598245939795346,-0.0679261030212283,2.31384672342392,0.174525221715328,-3.21043825843932,-10.7677598130366,-4.76773200272747,-1.21363031420665
0.385,1.5803869393684,-1.78475822726998,6.13371423481158,-0.0211135270283159,-0.015797675987972,-0.0198895150992187,7.49548184312266,2.23059356818999,-3.85481942074541,-4.0402393548597,5.38646378354692,-4.08689998638975,0.165903682221256,-0.6118782244545,2.47769143966465,-0.029850503939149,-0.000164414866946579,-0.067410218358107,2.31182258765841,0.174381897766544,-3.20839099137589,-10.7611774400134,-4.76480650459724,-1.21289893967409
0.39,1.57915833468849,-1.7835394352316,6.13049790091191,-0.0180291394945511,-0.0142188092842781,-0.0193690701619891,7.49028778988918,2.22921580688839,-3.85248824574622,-4.03775631874881,5.38315307041496,-4.08441695154078,0.165203261232023,-0.611580787978795,2.47609692380237,-0.0257705697444934,-1.08149657477487e-05,-0.0664557873962322,2.30979845189302,0.174238573817753,-3.20634372431243,-10.7545950669902,-4.76188100646701,-1.21216756514153
0.395,1.57792973000858,-1.78232064319323,6.12728156701223,-0.0159160888198116,-0.0129430654223729,-0.0191299106098955,7.4850937366557,2.22783804558679,-3.85015707074702,-4.03527328263792,5.37984235728299,-4.08193391669181,0.164502840242676,-0.611283351503062,2.47450240794009,-0.0225708938117061,-0.000131898020674122,-0.0651098067096671,2.30777431612751,0.174095249868969,-3.20429645724897,-10.7480126939671,-4.75895550833679,-1.21143619060898
0.4,1.57670112532844,-1.78110185115486,6.12406523311233,-0.0149431257397943,-0.0120262263674824,-0.019171980703385,7.47989968342245,2.22646028428519,-3.84782589574783,-4.03279024652703,5.37653164415102,-4.07945088184283,0.163802419253329,-0.610985915027328,2.47290789207781,-0.0204943602409303,-0.000528094159097563,-0.0634057016354297,2.305750180362,0.173951925920178,-3.20224919018551,-10.7414303209439,-4.75603001020656,-1.21070481607642
0.405,1.57547252064853,-1.77988305911646,6.12084889921289,-0.0152170365123949,-0.0115043661249673,-0.0195003323579792,7.47470563018896,2.22508252298358,-3.84549472074864,-4.03030721041615,5.37322093101906,-4.07696784699386,0.163101998263983,-0.610688478551651,2.47131337621553,-0.0197067549250109,-0.00118728365641172,-0.0613717015103846,2.3037260445966,0.173808601971388,-3.20020192312205,-10.7348479479207,-4.75310451207633,-1.20997344154387
0.41,1.57424391596862,-1.77866426707809,6.11763256531299,-0.0166234075714866,-0.0112959254581611,-0.020022221908252,7.46951157695571,2.22370476168198,-3.84316354574945,-4.02782417430526,5.3699102178871,-4.07448481214488,0.16240157727475,-0.610391042075918,2.46971886035328,-0.0201465336116505,-0.0020622806834262,-0.0590439545794195,2.30170190883109,0.173665278022604,-3.19815465605862,-10.7282655748975,-4.7501790139461,-1.20924206701131
0.415,1.5730153112886,-1.77744547503974,6.11441623141332,-0.018833098383572,-0.0112238296850632,-0.0205441973443987,7.464317523722,2.22232700038038,-3.84083237075026,-4.02534113819437,5.36659950475513,-4.07200177729591,0.161701156285289,-0.610093605600184,2.468124344491,-0.0215336798504994,-0.00307562274019096,-0.0564718413348352,2.2996777730657,0.173521954073813,-3.19610738899513,-10.7216832018743,-4.74725351581588,-1.20851069247875
0.42,1.57178670660858,-1.77622668300137,6.11119989751342,-0.0214628352087693,-0.0111301502636755,-0.0208770714067302,7.45912347048875,2.22094923907877,-3.83850119575106,-4.02285810208349,5.36328879162317,-4.06951874244693,0.161000735295943,-0.609796169124479,2.46652982862872,-0.0235200537121063,-0.00414532438248545,-0.0537141545491267,2.29765363730019,0.173378630125029,-3.1940601219317,-10.7151008288512,-4.74432801768565,-1.20777931794619
0.425,1.57055810192867,-1.77500789096297,6.10798356361374,-0.0241879278599448,-0.0109285514415123,-0.0209100077245224,7.45392941725527,2.21957147777717,-3.83617002075187,-4.0203750659726,5.3599780784912,-4.06703570759796,0.16030031430671,-0.609498732648774,2.46493531276641,-0.0257950839248778,-0.00519838757191853,-0.0508345030097194,2.29562950153479,0.173235306176238,-3.19201285486824,-10.708518455828,-4.74140251955542,-1.20704794341364
0.43,1.56932949724865,-1.7737890989246,6.10476722971384,-0.0267511989467097,-0.0105775353196902,-0.0206076039850837,7.44873536402201,2.21819371647557,-3.83383884575268,-4.01789202986171,5.35666736535923,-4.06455267274899,0.159599893317363,-0.60920129617304,2.46334079690413,-0.0280984300788064,-0.00616784536506285,-0.0479000033992905,2.29360536576928,0.173091982227447,-3.18996558780475,-10.7019360828048,-4.73847702142519,-1.20631656888108
0.435,1.56810089256862,-1.77257030688622,6.10155089581417,-0.028952985084249,-0.0100591185021564,-0.0199858538937917,7.44354131078831,2.21681595517397,-3.83150767075348,-4.01540899375083,5.35335665222727,-4.06206963790001,0.158899472327903,-0.608903859697335,2.46174628104185,-0.0302158115512671,-0.00699320694066405,-0.0449772429503337,2.29158123000377,0.172948658278663,-3.18791832074129,-10.6953537097816,-4.73555152329497,-1.20558519434853
0.44,1.56687228788871,-1.77135151484785,6.0983345619145,-0.0306565316074791,-0.00937289986575965,-0.0190870225131285,7.43834725755505,2.21543819387237,-3.8291764957543,-4.01292595763994,5.3500459390953,-4.05958660305104,0.158199051338784,-0.608606423221602,2.4601517651796,-0.0319899578878296,-0.00762879887129011,-0.0421229870304563,2.28955709423838,0.172805334329873,-3.18587105367786,-10.6887713367584,-4.73262602516474,-1.20485381981597
0.445,1.56564368320869,-1.77013272280948,6.0951182280146,-0.0317890426077177,-0.00852804322463691,-0.0179589232488303,7.43315320432157,2.21406043257076,-3.8268453207551,-4.01044292152906,5.34673522596334,-4.05710356820206,0.157498630349437,-0.608308986745897,2.45855724931735,-0.0333263917683226,-0.00804889492330423,-0.0393778928601307,2.28753295847287,0.172662010381089,-3.1838237866144,-10.6821889637353,-4.72970052703451,-1.20412244528341
0.45,1.56441507852878,-1.76891393077111,6.09190189411493,-0.0323295468107429,-0.00754691809141916,-0.0166559816823465,7.42795915108832,2.21268267126916,-3.82451414575591,-4.00795988541817,5.34342451283137,-4.05462053335309,0.15679820936009,-0.608011550270163,2.45696273345507,-0.0341801999438589,-0.00824489292081907,-0.0367693478215604,2.28550882270736,0.172518686432298,-3.18177651955094,-10.6756065907121,-4.72677502890428,-1.20339107075085
0.455,1.56318647384882,-1.76769513873273,6.08868556021525,-0.032293528973023,-0.00647119114853401,-0.0152473148747618,7.42276509785484,2.21130490996756,-3.82218297075671,-4.00547684930728,5.3401137996994,-4.05213749850412,0.156097788370744,-0.60771411379443,2.45536821759276,-0.034537460180175,-0.00822023732912017,-0.0343170177734283,2.28348468694185,0.172375362483507,-3.17972925248748,-10.6690242176889,-4.72384953077405,-1.2026596962183
0.46,1.56195786916874,-1.76647634669433,6.08546922631558,-0.031721214526903,-0.0053543158054509,-0.0138113959269497,7.41757104462135,2.20992714866596,-3.81985179575752,-4.00299381319639,5.33680308656744,-4.04965446365514,0.155397367381397,-0.607416677318753,2.45377370173048,-0.034404417656443,-0.00798730819153218,-0.0320351230684402,2.28146055117645,0.172232038534716,-3.17768198542402,-10.6624418446657,-4.72092403264383,-1.20192832168574
0.465,1.56072926448883,-1.76525755465599,6.08225289241568,-0.0306682635725294,-0.00425117728985859,-0.0124231825094351,7.4123769913881,2.20854938736435,-3.81752062075833,-4.00051077708551,5.33349237343547,-4.04717142880617,0.15469694639205,-0.607119240843019,2.4521791858682,-0.0338020661210659,-0.00756561694327175,-0.0299335852823746,2.27943641541094,0.172088714585932,-3.17563471836058,-10.6558594716425,-4.7179985345136,-1.20119694715319
0.47,1.55950065980886,-1.76403876261759,6.07903655851601,-0.0291994652211666,-0.00321121019380398,-0.0111428171282716,7.40718293815462,2.20717162606275,-3.81518944575914,-3.99802774097462,5.33018166030351,-4.04468839395719,0.153996525402704,-0.606821804367286,2.45058467000595,-0.0327637151461322,-0.00698080411881778,-0.0280181557084757,2.27741227964543,0.171945390637148,-3.1735874512971,-10.6492770986194,-4.71507303638337,-1.20046557262063
0.475,1.55827205512884,-1.76281997057924,6.07582022461634,-0.0273863738020908,-0.00227245264731829,-0.0100112180500668,7.40198888492114,2.20579386476115,-3.81285827075994,-3.99554470486373,5.32687094717154,-4.04220535910822,0.153296104413471,-0.606524367891581,2.44899015414367,-0.0313340459954554,-0.00626403309831679,-0.0262874029497929,2.27538814388004,0.171802066688358,-3.17154018423366,-10.6426947255962,-4.71214753825315,-1.19973419808807
0.48,1.55704345044887,-1.76160117854087,6.07260389071644,-0.0253050930402729,-0.00145897632968827,-0.00905306047547293,7.39679483168766,2.20441610345955,-3.81052709576075,-3.99306166875284,5.32356023403957,-4.03972232425924,0.152595683424124,-0.606226931415875,2.44739563828139,-0.0295660908145684,-0.00545036548045736,-0.0247297421300419,2.27336400811453,0.171658742739567,-3.1694929171702,-10.636112352573,-4.70922204012292,-1.19900282355551
0.485,1.55581484576891,-1.76038238650247,6.06938755681676,-0.0230312367374525,-0.000781855772580818,-0.00827992165397914,7.3916007784544,2.20303834215795,-3.80819592076156,-3.99057863264196,5.32024952090761,-4.03723928941027,0.151895262434778,-0.605929494940156,2.44580112241911,-0.027516254673388,-0.00457583565133114,-0.0233247676153075,2.27133987234913,0.171515418790776,-3.16744565010671,-10.6295299795498,-4.70629654199269,-1.19827144902295
0.49,1.55458624108888,-1.7591635944641,6.06617122291709,-0.0206339949350393,-0.00023962880286164,-0.00768973665588711,7.38640672522092,2.20166058085634,-3.80586474576237,-3.98809559653107,5.31693880777564,-4.03475625456129,0.151194841445545,-0.605632058464423,2.44420660655683,-0.0252402616608782,-0.0036743184302629,-0.0220469857699284,2.26931573658362,0.171372094841992,-3.16539838304328,-10.6229476065266,-4.70337104386246,-1.1975400744904
0.495,1.55335763640898,-1.75794480242573,6.06295488901719,-0.0181712379372656,0.000183207329333834,-0.00726516968303098,7.38121267198744,2.20028281955474,-3.80353357076317,-3.98561256042019,5.31362809464368,-4.03227321971232,0.150494420456198,-0.605334621988703,2.44261209069458,-0.0227902507303865,-0.00277489967184833,-0.0208680042475599,2.26729160081823,0.171228770893201,-3.16335111597982,-10.6163652335035,-4.70044554573223,-1.19680869995784
0.5,1.55212903172895,-1.75672601038735,6.05973855511752,-0.0156854751559631,0.000515753092735369,-0.00697379352183258,7.37601861875419,2.19890505825314,-3.80120239576398,-3.9831295243093,5.31031738151171,-4.02979018486334,0.149793999466851,-0.605037185512998,2.44101757483229,-0.0202116286769175,-0.0018998741756615,-0.0197585456725815,2.26526746505272,0.171085446944417,-3.16130384891636,-10.6097828604803,-4.69752004760201,-1.19607732542528
0.505,1.55090042704893,-1.75550721834898,6.05652222121785,-0.0132016337560926,0.000794753858588655,-0.00677065723795269,7.37082456552071,2.19752729695154,-3.79887122076479,-3.98064648819841,5.30700666837975,-4.02730715001437,0.149093578477505,-0.604739749037279,2.43942305897001,-0.0175406406225394,-0.00106383993828589,-0.0186937289498451,2.26324332928721,0.170942122995626,-3.1592565818529,-10.6032004874571,-4.69459454947178,-1.19534595089273
0.51,1.54967182236902,-1.75428842631064,6.05330588731795,-0.0107284433488187,0.00105622064112134,-0.00660217010068856,7.36563051228745,2.19614953564994,-3.7965400457656,-3.97816345208753,5.30369595524778,-4.0248241151654,0.148393157488158,-0.604442312561559,2.43782854310773,-0.0148047762293827,-0.000274310694811911,-0.0176588505781178,2.26121919352181,0.170798799046835,-3.15720931478944,-10.5966181144339,-4.69166905134155,-1.19461457636017
0.515,1.54844321768906,-1.75306963427224,6.05008955341827,-0.00826211859920116,0.00132789887379009,-0.00641114450978462,7.36043645905374,2.19477177434833,-3.7942088707664,-3.97568041597664,5.30038524211582,-4.02234108031642,0.147692736498811,-0.604144876085826,2.43623402724548,-0.0120251061326999,0.000467185104615644,-0.0166504357531237,2.2591950577563,0.170655475098052,-3.15516204772598,-10.5900357414107,-4.68874355321132,-1.19388320182761
0.52,1.54721461300903,-1.75185084223386,6.0468732195186,-0.0057901902402495,0.00162377362893093,-0.00614236885845272,7.35524240582049,2.19339401304673,-3.79187769576721,-3.97319737986575,5.29707452898385,-4.01985804546745,0.146992315509465,-0.603847439610121,2.4346395113832,-0.00921859110632838,0.00116431929795383,-0.0156718944595538,2.25717092199091,0.170512151149261,-3.15311478066252,-10.5834533683876,-4.6858180550811,-1.19315182729506
0.525,1.54598600832907,-1.75063205019549,6.0436568856187,-0.00329535490603693,0.00194331370733557,-0.00574662233073228,7.35004835258701,2.19201625174513,-3.78954652076802,-3.97071434375487,5.29376381585188,-4.01737501061848,0.146291894520232,-0.603550003134401,2.43304499552092,-0.00639973785574809,0.00182471003713529,-0.0147251157054357,2.2551467862254,0.170368827200477,-3.15106751359906,-10.5768709953644,-4.68289255695087,-1.1924204527625
0.53,1.5447574036491,-1.74941325815709,6.04044055171903,-0.000756995294119387,0.00227261138194481,-0.00518487647104107,7.34485429935376,2.19063849044353,-3.78721534576883,-3.96823130764398,5.29045310271992,-4.0148919757695,0.145591473530885,-0.603252566658682,2.43145047965862,-0.00357861935907192,0.00245887851192172,-0.013805275363508,2.25312265046,0.170225503251679,-3.1490202465356,-10.5702886223412,-4.67996705882064,-1.19168907822994
0.535,1.54352879896908,-1.74819446611875,6.03722421781936,0.00185003940333377,0.0025863251610104,-0.00443461844153681,7.33966024612005,2.18926072914192,-3.78488417076964,-3.96574827153309,5.28714238958795,-4.01240894092052,0.144891052541539,-0.602955130182963,2.42985596379634,-0.000755025721756066,0.00308021968094017,-0.0129088316187747,2.25109851469449,0.170082179302895,-3.14697297947217,-10.563706249318,-4.67704156069041,-1.19095770369739
0.54,1.54230019428917,-1.74697567408035,6.03400788391946,0.00455193709868405,0.00285915712768059,-0.00349432974280003,7.33446619288679,2.18788296784032,-3.78255299577044,-3.96326523542221,5.28383167645599,-4.00992590607155,0.144190631552306,-0.602657693707258,2.42826144793409,0.00208256424263181,0.00370368676981876,-0.012047868955343,2.24907437892898,0.169938855354111,-3.14492571240868,-10.5571238762949,-4.67411606256019,-1.19022632916483
0.545,1.54107158960915,-1.745756882042,6.03079155001979,0.00736599178666224,0.00308230754547906,-0.00238415998477251,7.32927213965331,2.18650520653872,-3.78022182077125,-3.96078219931132,5.28052096332402,-4.00744287122258,0.143490210562959,-0.602360257231524,2.42666693207181,0.00494956877725217,0.00434268746906021,-0.0112571412797546,2.24705024316359,0.16979553140532,-3.14287844534525,-10.5505415032717,-4.67119056442996,-1.18949495463227
0.55,1.53984298492918,-1.74453809000363,6.02757521612011,0.0102957668334977,0.00326252504021195,-0.0011480051851024,7.32407808642006,2.18512744523712,-3.77789064577205,-3.95829916320043,5.27721025019205,-4.0049598363736,0.142789789573499,-0.602062820755819,2.42507241620952,0.00786030103905257,0.00500816850025635,-0.0105962952726347,2.24502610739808,0.169652207456537,-3.14083117828179,-10.5439591302485,-4.66826506629973,-1.18876358009972
0.555,1.53861438024921,-1.74331929796526,6.02435888222044,0.0133337245701191,0.00340713836281191,0.000147960573455622,7.31888403318658,2.18374968393552,-3.77555947077287,-3.95581612708954,5.27389953706009,-4.00247680152463,0.142089368584266,-0.601765384280085,2.42347790034724,0.0108268617425948,0.00570994690180601,-0.010145887362301,2.24300197163268,0.169508883507739,-3.13878391121833,-10.5373767572253,-4.66533956816951,-1.18803220556716
0.56,1.53738577556925,-1.74210050592689,6.02114254832054,0.0164583436220512,0.00352698176993032,0.00143773499191669,7.3136899799531,2.18237192263392,-3.77322829577367,-3.95333309097866,5.27058882392812,-3.99999376667565,0.141388947594919,-0.60146794780438,2.42188338448496,0.0138469496682215,0.00645441627992051,-0.00997773307525715,2.24097783586717,0.169365559558955,-3.13673664415484,-10.5307943842021,-4.66241407003928,-1.1873008310346
0.565,1.53615717088923,-1.74088171388848,6.01792621442087,0.0196262392878221,0.00364985732979695,0.00267997485370602,7.30849592671984,2.18099416133231,-3.77089712077449,-3.95085005486777,5.26727811079616,-3.99751073182668,0.140688526605572,-0.601170511328661,2.42028886862271,0.0168896583260878,0.00723926765058599,-0.0101097865103853,2.23895370010177,0.169222235610164,-3.13468937709141,-10.524212011179,-4.65948857190905,-1.18656945650205
0.57,1.53492856620932,-1.73966292185011,6.0147098805212,0.0227724149452367,0.00380777552469545,0.0038419902768765,7.30330187348636,2.17961640003071,-3.76856594577529,-3.94836701875688,5.26396739766419,-3.9950276969777,0.139988105616226,-0.600873074852942,2.41869435276043,0.0199038728107296,0.00805311213618503,-0.0104970350285469,2.23692956433626,0.16907891166138,-3.13264211002794,-10.5176296381558,-4.65656307377882,-1.18583808196949
0.575,1.53369996152929,-1.73844412981174,6.0114935466213,0.0258175362730139,0.00401124688644956,0.00486887602228546,7.29810782025288,2.17823863872911,-3.7662347707761,-3.945883982646,5.26065668453223,-3.99254466212873,0.139287684626993,-0.600575638377222,2.41709983689816,0.0228339692813112,0.00888049858376698,-0.0110688068444778,2.23490542857076,0.168935587712596,-3.13059484296448,-10.5110472651326,-4.6536375756486,-1.18510670743693
0.58,1.53247135684933,-1.73722533777337,6.00827721272162,0.0286725497997282,0.0042459892349906,0.0056894054119673,7.2929137670194,2.1768608774275,-3.76390359577691,-3.94340094653511,5.25734597140026,-3.99006162727976,0.138587263637646,-0.600278201901517,2.41550532103587,0.0256167426091361,0.00970514685407884,-0.0117625717712117,2.23288129280536,0.168792263763798,-3.12854757590102,-10.5044648921094,-4.65071207751837,-1.18437533290438
0.585,1.53124275216936,-1.73600654573499,6.00506087882195,0.0312391105731936,0.00448546287358574,0.00623597250003316,7.28771971378615,2.1754831161259,-3.76157242077771,-3.94091791042423,5.2540352582683,-3.98757859243078,0.1378868426483,-0.599980765425784,2.41391080517359,0.0281734498922701,0.0105091031944098,-0.0125269345618611,2.23085715703974,0.168648939815014,-3.12650030883756,-10.4978825190862,-4.64778657938814,-1.18364395837182
0.59,1.5300141474894,-1.73478775369662,6.00184454492205,0.0334101334218641,0.00469931115476849,0.00644541137902872,7.28252566055266,2.1741053548243,-3.75924124577852,-3.93843487431334,5.25072454513633,-3.9850955575818,0.137186421658953,-0.599683328950078,2.41231628931132,0.0304132911485468,0.0112715191881072,-0.0133112920733432,2.22883302127434,0.168505615866223,-3.12445304177413,-10.4913001460631,-4.64486108125791,-1.18291258383926
0.595,1.52878554280937,-1.73356896165825,5.99862821102238,0.0350735832703961,0.00485256033450377,0.00625395274799188,7.27733160731918,2.1727275935227,-3.75691007077933,-3.93595183820245,5.24741383200436,-3.98261252273284,0.136486000669606,-0.599385892474345,2.41072177344903,0.0322403826685029,0.0119696026361784,-0.0140615148174046,2.22680888550883,0.16836229191744,-3.12240577471064,-10.4847177730399,-4.64193558312768,-1.18218120930671
0.6,1.52755693812941,-1.73235016961988,5.99541187712271,0.0361189298654474,0.00489275456608154,0.00559211214610516,7.27213755408593,2.1713498322211,-3.75457889578013,-3.93346880209157,5.2441031188724,-3.98012948788386,0.13578557968026,-0.59908845599864,2.40912725758676,0.033559797616067,0.0125814868668364,-0.0147273531843072,2.22478474974343,0.168218967968656,-3.12035850764718,-10.4781354000167,-4.63901008499746,-1.18144983477415
0.605,1.52632833344944,-1.73113137758151,5.99219554322281,0.0364433448985468,0.00473655779997203,0.00437844480009341,7.26694350085245,2.1699720709195,-3.75224772078094,-3.93098576598068,5.24079240574043,-3.97764645303488,0.135085158691027,-0.59879101952292,2.40753274172448,0.0342839287020578,0.0130889588750778,-0.0152733053216178,2.22276061397793,0.168075644019858,-3.11831124058375,-10.4715530269935,-4.63608458686723,-1.18071846024159
0.61,1.52509972876948,-1.72991258554313,5.98897920932313,0.0359558814703805,0.0042784950170882,0.0025275568128032,7.2617494476192,2.16859430961789,-3.74991654578175,-3.92850272986979,5.23748169260846,-3.97516341818591,0.13438473770168,-0.598493583047187,2.40593822586222,0.0343347747428435,0.0134779339081864,-0.0156797662243923,2.22073647821242,0.167932320071074,-3.11626397352029,-10.4649706539703,-4.633159088737,-1.17998708570903
0.615,1.52387112408945,-1.72869379350473,5.98576287542346,0.0345810858438786,0.00341578349538019,-2.91579713422273e-05,7.25655539438549,2.16721654831629,-3.74758537078255,-3.9260196937589,5.2341709794765,-3.97268038333694,0.133684316712333,-0.598196146571482,2.40434370999994,0.0336427398058382,0.0137375767656501,-0.0159365000857355,2.21871234244702,0.167788996122283,-3.1142167064568,-10.4583882809472,-4.63023359060677,-1.17925571117647
0.62,1.52264251940954,-1.72747500146636,5.98254654152356,0.032264113022108,0.0020683555204322,-0.00332436934033084,7.25136134115223,2.16583878701469,-3.74525419578337,-3.92353665764802,5.23086026634453,-3.97019734848796,0.1329838957231,-0.597898710095762,2.40274919413764,0.0321469783672033,0.013859762287227,-0.0160382566669606,2.21668820668151,0.167645672173499,-3.11216943939337,-10.451805907924,-4.62730809247655,-1.17852433664392
0.625,1.52141391472952,-1.72625620942799,5.97933020762389,0.0289761145707337,0.00019825705622894,-0.00733161476535552,7.24616728791875,2.16446102571309,-3.74292302078418,-3.92105362153713,5.22754955321257,-3.96771431363899,0.132283474733754,-0.597601273620043,2.40115467827538,0.0297946546332883,0.0138376751917571,-0.0159807611358138,2.21466407091611,0.167502348224708,-3.11012217232991,-10.4452235349008,-4.62438259434632,-1.17779296211136
0.63,1.52018531004956,-1.72503741738964,5.97611387372422,0.0247180841899702,-0.00217202817827461,-0.011944607053345,7.2409732346855,2.16308326441148,-3.74059184578498,-3.91857058542624,5.2242388400806,-3.96523127879002,0.131583053744407,-0.597303837144324,2.39956016241311,0.0265403297417102,0.0136635161646049,-0.01575409124549,2.21263993515061,0.167359024275918,-3.10807490526645,-10.4386411618776,-4.62145709621609,-1.17706158757881
0.635,1.51895670536959,-1.72381862535127,5.97289753982454,0.0195270921088186,-0.00496443260416088,-0.0169854490446265,7.23577918145179,2.16170550310988,-3.73826067078578,-3.91608754931536,5.22092812694864,-3.96274824394104,0.130882632754947,-0.597006400668604,2.39796564655084,0.0223570223462433,0.0133293994500037,-0.0153432597252951,2.21061579938521,0.167215700327134,-3.106027638203,-10.4320587888544,-4.61853159808587,-1.17633021304625
0.64,1.51772810068957,-1.72259983331287,5.96968120592464,0.013490665696638,-0.00806956050089601,-0.0222335897572584,7.23058512821854,2.16032774180828,-3.73592949578659,-3.91360451320447,5.21761741381667,-3.96026520909206,0.130182211765714,-0.596708964192885,2.39637113068855,0.0172608747580139,0.0128333220726709,-0.0147417615648372,2.2085916636197,0.167072376378343,-3.10398037113954,-10.4254764158313,-4.61560609995564,-1.17559883851369
0.645,1.5164994960096,-1.7213810412745,5.96646487202497,0.00676742997347583,-0.0113592022833437,-0.0274458668903705,7.22539107498528,2.15894998050668,-3.7335983207874,-3.91112147709358,5.2143067006847,-3.9577821742431,0.129481790776367,-0.59641152771718,2.39477661482627,0.0113401991123005,0.0121863844533357,-0.0139646719118359,2.20656752785419,0.166929052429559,-3.10193310407608,-10.4188940428081,-4.61268060182541,-1.17486746398114
0.65,1.51527089132964,-1.72016224923613,5.9632485381253,-0.000392797481577327,-0.0146759027056425,-0.0323613895668319,7.2201970217518,2.15757221920508,-3.73126714578821,-3.9086384409827,5.21099598755274,-3.95529913939412,0.128781369787021,-0.596114091241446,2.39318209896399,0.00478258395964109,0.0114171871900119,-0.0130478323127853,2.20454339208879,0.166785728480768,-3.09988583701262,-10.4123116697849,-4.60975510369518,-1.17413608944858
0.655,1.51404228664967,-1.71894345719775,5.9600322042254,-0.00763269231521269,-0.0178122449764816,-0.0366943206515965,7.21500296851832,2.15619445790347,-3.72893597078902,-3.90615540487181,5.20768527442077,-3.95281610454514,0.128080948797788,-0.595816654765741,2.39158758310172,-0.00210430943936129,0.0105728300267151,-0.0120381579709031,2.20251925632328,0.166642404531977,-3.09783856994916,-10.4057292967617,-4.60682960556496,-1.17340471491602
0.66,1.51281368196965,-1.71772466515938,5.95681587032573,-0.0144732734265387,-0.0204931363411681,-0.0401172691062843,7.20980891528484,2.15481669660187,-3.72660479578983,-3.90367236876092,5.20437456128881,-3.95033306969616,0.127380527808441,-0.595519218290022,2.38999306723944,-0.00887854783630848,0.00971806657424884,-0.0109870689222049,2.20049512055789,0.166499080583186,-3.09579130288569,-10.3991469237385,-4.60390410743473,-1.17267334038347
0.665,1.51158507728974,-1.71650587312101,5.95359953642605,-0.0203056354263861,-0.0223654539365059,-0.0422440974536754,7.20461486205159,2.15343893530027,-3.72427362079063,-3.90118933265004,5.20106384815684,-3.9478500348472,0.126680106819094,-0.595221781814303,2.38839855137718,-0.0149576788108448,0.00893305401793689,-0.00994789045388324,2.19847098479238,0.166355756634402,-3.09374403582224,-10.3925645507154,-4.6009786093045,-1.17194196585091
0.67,1.51035647260971,-1.71528708108264,5.95038320252615,-0.0243959285839247,-0.022996189064148,-0.0426196928120071,7.1994208088181,2.15206117399867,-3.72194244579144,-3.89870629653915,5.19775313502488,-3.94536699999822,0.125979685829861,-0.594924345338583,2.3868040355149,-0.0196261131533389,0.00830933627788078,-0.00897122366889641,2.19644684902698,0.166212432685619,-3.09169676875877,-10.3859821776922,-4.59805311117427,-1.17121059131835
0.675,1.50912786792975,-1.71406828904426,5.94716686862648,-0.0259702076140049,-0.0219324330492744,-0.0407766505150513,7.19422675558462,2.15068341269706,-3.71961127079225,-3.89622326042826,5.19444242189291,-3.94288396514924,0.125279264840515,-0.594626908862878,2.38520951965261,-0.0221171465558925,0.00793890947193508,-0.00809910135002331,2.19442271326147,0.166069108736828,-3.08964950169532,-10.379399804669,-4.59512761304404,-1.17047921678579
0.68,1.50789926324978,-1.71284949700589,5.94395053472681,-0.0245232226905651,-0.0189013869325448,-0.0364505837713672,7.18903270235114,2.14930565139546,-3.71728009579306,-3.89374022431738,5.19113170876095,-3.94040093030027,0.124578843851054,-0.594329472387145,2.38361500379034,-0.021910781742752,0.00788087926757652,-0.00735692389770365,2.19239857749596,0.165925784788037,-3.08760223463186,-10.3728174316458,-4.59220211491382,-1.16974784225324
0.685,1.50667065856982,-1.71163070496752,5.94073420082691,-0.0201991475491493,-0.0140317863089884,-0.0298268513637243,7.18383864911789,2.14792789009386,-3.71494892079387,-3.89125718820649,5.18782099562898,-3.9379178954513,0.123878422861708,-0.594032035911425,2.38202048792806,-0.0191065955348709,0.00812033580925407,-0.0067431284268854,2.19037444173057,0.165782460839246,-3.0855549675684,-10.3662350586226,-4.58927661678359,-1.16901646772068
0.69,1.50544205388979,-1.71041191292912,5.93751786692724,-0.0137679977201402,-0.00783561237829124,-0.0215244290914887,7.17864459588441,2.14655012879226,-3.71261774579467,-3.8887741520956,5.18451028249701,-3.93543486060232,0.123178001872475,-0.593734599435706,2.38042597206579,-0.0144025146952126,0.00857350393735388,-0.00623223978938059,2.18835030596506,0.165639136890462,-3.08350770050497,-10.3596526855995,-4.58635111865336,-1.16828509318812
0.695,1.50421344920983,-1.70919312089077,5.93430153302756,-0.00619389510002258,-0.000968737978347069,-0.0123286569204068,7.17345054265093,2.14517236749066,-3.71028657079548,-3.88629111598472,5.18119956936505,-3.93295182575335,0.122477580883128,-0.593437162959987,2.37883145620351,-0.00867057259093313,0.00913826765535469,-0.00579116954570025,2.18632617019966,0.165495812941678,-3.08146043344149,-10.3530703125763,-4.58342562052314,-1.16755371865557
0.7,1.50298484452986,-1.70797432885237,5.93108519912789,0.00172080024792666,0.00596996665927975,-0.0029502066521137,7.16825648941767,2.14379460618905,-3.70795539579628,-3.88380807987383,5.17788885623308,-3.93046879090438,0.121777159893782,-0.593139726484281,2.37723694034123,-0.00261075955401677,0.00972862920758654,-0.00538390522682286,2.18430203443415,0.165352488992887,-3.07941316637805,-10.3464879395531,-4.58050012239291,-1.16682234412301
0.705,1.50175623984984,-1.706755536814,5.92786886522799,0.00943400644868879,0.0125066074200552,0.00607366748602272,7.16306243618419,2.14241684488745,-3.7056242207971,-3.88132504376294,5.17457814310112,-3.9279857560554,0.121076738904549,-0.592842290008548,2.37564242447895,0.00333755990116299,0.0102761186964261,-0.00496343610588077,2.18227789866876,0.165209165044097,-3.07736589931459,-10.3399055665299,-4.57757462426268,-1.16609096959045
0.71,1.50052763516993,-1.70553674477566,5.92465253132832,0.016626726966454,0.0182991586512975,0.0143778725670814,7.15786838295094,2.14103908358585,-3.7032930457979,-3.87884200765205,5.17126742996915,-3.92550272120642,0.120376317915202,-0.592544853532843,2.37404790861667,0.00895128986139339,0.0107256759249399,-0.00447090488547095,2.18025376290325,0.165065841095306,-3.07531863225113,-10.3333231935068,-4.57464912613245,-1.1653595950579
0.715,1.49929903048996,-1.70431795273728,5.92143619742842,0.0231198021788938,0.0231337941370461,0.0217259971171568,7.15267432971723,2.13966132228425,-3.70096187079871,-3.87635897154117,5.16795671683718,-3.92301968635745,0.119675896925855,-0.592247417057123,2.37245339275441,0.0141338726544162,0.0110359919330821,-0.00384138099103627,2.17822962713774,0.164922517146522,-3.07327136518765,-10.3267408204836,-4.57172362800223,-1.16462822052534
0.72,1.49807042580994,-1.70309916069888,5.91821986352875,0.0288056974527327,0.0269045298547954,0.0279683106538746,7.14748027648398,2.13828356098265,-3.69863069579952,-3.87387593543028,5.16464600370522,-3.92053665150848,0.118975475936622,-0.591949980581404,2.37085887689213,0.0188423371677468,0.0111794958422839,-0.00300553964119797,2.17620549137223,0.164779193197731,-3.07122409812419,-10.3201584474604,-4.568798129872,-1.16389684599278
0.725,1.49684182112998,-1.70188036866051,5.91500352962908,0.03361552355125,0.0295694713362437,0.0330117845242596,7.14228622325049,2.13690579968104,-3.69629952080032,-3.87139289931939,5.16133529057326,-3.9180536166595,0.118275054947162,-0.591652544105685,2.36926436102986,0.0230522199931898,0.0111410444349884,-0.00189138802983287,2.17418135560672,0.164635869248947,-3.06917683106074,-10.3135760744372,-4.56587263174177,-1.16316547146023
0.73,1.49561321645001,-1.70066157662214,5.9117871957294,0.0374969828676027,0.0311198883709403,0.0368088387344719,7.13709217001724,2.13552803837944,-3.69396834580113,-3.86890986320851,5.15802457744129,-3.91557058181053,0.117574633957815,-0.591355107629965,2.36766984516758,0.0267305573281178,0.0109152422457779,-0.000429944294016861,2.17215721984132,0.164492545300156,-3.06712956399728,-10.306993701414,-4.56294713361154,-1.16243409692767
0.735,1.49438461176999,-1.69944278458377,5.9085708618295,0.0403924426816106,0.0315794453877036,0.039358032294739,7.13189811678353,2.13415027707784,-3.69163717080194,-3.86642682709762,5.15471386430932,-3.91308754696155,0.116874212968582,-0.591057671154246,2.36607532930529,0.0298091864501066,0.0105026587125677,0.00144080469093575,2.17013308407581,0.164349221351365,-3.06508229693381,-10.3004113283909,-4.56002163548131,-1.16170272239511
0.74,1.49315600709008,-1.69822399254539,5.90535452792983,0.0422209981852149,0.0310063992634053,0.0406968510495759,7.12670406355028,2.13277251577624,-3.68930599580274,-3.86394379098673,5.15140315117736,-3.91060451211258,0.116173791979236,-0.590760234678541,2.36448081344302,0.0321676758663942,0.00990684182925875,0.00377405684205408,2.16810894831042,0.164205897402582,-3.06303502987036,-10.2938289553677,-4.55709613735108,-1.16097134786255
0.745,1.49192740241006,-1.69700520050702,5.90213819403004,0.0428869574867194,0.0294954822631254,0.0408994940038375,7.12151001031702,2.13139475447463,-3.68697482080355,-3.86146075487585,5.14809243804539,-3.90812147726361,0.115473370989889,-0.590462798202807,2.36288629758074,0.0336451861281354,0.00913500346852866,0.00660638947295048,2.16608481254491,0.164062573453791,-3.0609877628069,-10.2872465823445,-4.55417063922086,-1.16023997333
0.75,1.49069879773009,-1.69578640846862,5.89892186013037,0.0423560879947831,0.0272070329315411,0.0401058035622497,7.11631595708354,2.13001699317303,-3.68464364580436,-3.85897771876496,5.14478172491343,-3.90563844241463,0.114772950000543,-0.590165361727102,2.36129178171848,0.0341237515281497,0.0082058126345875,0.00993836857799029,2.16406067677951,0.163919249505007,-3.05894049574346,-10.2806642093213,-4.55124514109063,-1.15950859879744
0.755,1.48947019305012,-1.69456761643028,5.89570552623059,0.0407550392194865,0.0243952164747442,0.0385479085331353,7.11112190385006,2.12863923187143,-3.68231247080517,-3.85649468265408,5.14147101178146,-3.90315540756566,0.11407252901131,-0.589867925251383,2.3596972658562,0.0336425815339622,0.00715880255401088,0.0137161712635839,2.162036541014,0.163775925556209,-3.05689322868001,-10.2740818362981,-4.5483196429604,-1.15877722426488
0.76,1.48824158837016,-1.6933488243919,5.8924891923308,0.0383632242442521,0.0213717678251499,0.036517673913631,7.10592785061658,2.12726147056983,-3.67998129580598,-3.85401164654319,5.13816029864949,-3.90067237271668,0.113372108021963,-0.589570488775664,2.35810274999392,0.0324024023657766,0.00605147432081867,0.0178367748505566,2.16001240524849,0.163632601607425,-3.05484596161652,-10.267499463275,-4.54539414483018,-1.15804584973232
0.765,1.48701298369014,-1.69213003235353,5.88927285843113,0.0354975403723244,0.0184329110793671,0.0343018096943155,7.10073379738333,2.12588370926823,-3.67765012080678,-3.8515286104323,5.13484958551753,-3.89818933786771,0.112671687032616,-0.589273052299944,2.35650823413164,0.0306493665914982,0.00494464295489072,0.0221719334891981,2.1579882694831,0.163489277658641,-3.05279869455309,-10.2609170902518,-4.54246864669995,-1.15731447519977
0.77,1.48578437901017,-1.69091124031513,5.88605652453134,0.0324238687949976,0.0158159989130173,0.032138070138683,7.09553974414985,2.12450594796663,-3.67531894580759,-3.84904557432142,5.13153887238556,-3.89570630301873,0.11197126604327,-0.588975615824225,2.35491371826936,0.0285843176193319,0.00389166763926234,0.0265842385045761,2.15596413371759,0.16334595370985,-3.0507514274896,-10.2543347172286,-4.53954314856972,-1.15658310066721
0.775,1.4845557743302,-1.68969244827676,5.88284019063167,0.0293393892767499,0.0136893786502746,0.0301960613632463,7.09034569091637,2.12312818666502,-3.6729877708084,-3.84656253821053,5.12822815925359,-3.89322326816976,0.111270845053923,-0.588678179348506,2.35331920240709,0.0263506531006912,0.00293627780426019,0.0309311975656271,2.15393999795219,0.163202629761066,-3.04870416042617,-10.2477523442054,-4.53661765043949,-1.15585172613466
0.78,1.48332716965024,-1.68847365623839,5.87962385673188,0.0263776197209444,0.0121569593504127,0.0285769923554066,7.08515163768288,2.12175042536342,-3.67065659580921,-3.84407950209964,5.12491744612163,-3.89074023332078,0.110570424064576,-0.588380742872786,2.35172468654481,0.0240435029521723,0.00211199051270096,0.0350718893369263,2.15191586218668,0.163059305812268,-3.04665689336269,-10.2411699711822,-4.53369215230927,-1.1551203516021
0.785,1.48209856497022,-1.68725486420001,5.8764075228321,0.0236154666048479,0.011259481330319,0.0273200199554389,7.07995758444963,2.12037266406182,-3.66832542081001,-3.84159646598875,5.12160673298967,-3.88825719847181,0.109870003075343,-0.588083306397067,2.35013017068253,0.0217164102113114,0.00144228557278833,0.0388706713141105,2.14989172642129,0.162915981863485,-3.04460962629923,-10.2345875981591,-4.53076665417904,-1.15438897706954
0.79,1.48086996029031,-1.68603607216167,5.87319118893242,0.021084333158281,0.0109654322057775,0.0264023215675197,7.07476353121615,2.11899490276021,-3.66599424581082,-3.83911342987787,5.1182960198577,-3.88577416362283,0.109169582085997,-0.587785869921348,2.34853565482027,0.0193916753299411,0.000943494300549014,0.0421896344713252,2.14786759065578,0.162772657914694,-3.04256235923579,-10.2280052251359,-4.52784115604881,-1.15365760253699
0.795,1.47964135561028,-1.68481728012327,5.86997485503264,0.0187796994971054,0.0111774241923193,0.0257479542529681,7.06956947798267,2.11761714145861,-3.66366307081162,-3.83663039376698,5.11498530672573,-3.88329112877386,0.10846916109665,-0.587488433445642,2.34694113895797,0.0170695515102478,0.000625322749348975,0.0448938788089665,2.14584345489027,0.16262933396591,-3.04051509217233,-10.2214228521127,-4.52491565791858,-1.15292622800443
0.8,1.47841275093032,-1.6835984880849,5.86675852113285,0.0166676242244835,0.0117611242768659,0.0252518665361377,7.06437542474941,2.11623938015701,-3.66133189581244,-3.83414735765609,5.11167459359377,-3.88080809392489,0.107768740107304,-0.587190996969909,2.34534662309571,0.014734484654868,0.000487154261246594,0.0468813085214837,2.14381931912487,0.162486010017126,-3.03846782510887,-10.2148404790895,-4.52199015978836,-1.15219485347187
0.805,1.47718414625035,-1.68237969604652,5.86354218723318,0.0146939276771051,0.0125669662348503,0.0248005439046611,7.05918137151593,2.11486161885541,-3.65900072081325,-3.83166432154521,5.1083638804618,-3.87832505907591,0.107068319118071,-0.586893560494204,2.34375210723343,0.0123621212512887,0.000517103689068158,0.048107693999838,2.14179518335936,0.162342686068335,-3.03642055804542,-10.2082581060663,-4.51906466165813,-1.15146347893932
0.81,1.47595554157039,-1.68116090400815,5.86032585333339,0.0127936423995431,0.013434137303587,0.0242806687091333,7.05398731828268,2.11348385755381,-3.65666954581405,-3.82918128543432,5.10505316732984,-3.87584202422694,0.10636789812861,-0.586596124018484,2.34215759137116,0.00992344286416951,0.00069584592660307,0.0485864750845891,2.13977104759397,0.162199362119544,-3.03437329098195,-10.2016757330432,-4.5161391635279,-1.15073210440676
0.815,1.47472693689036,-1.67994211196978,5.85710951943361,0.010890299587737,0.0141909333926913,0.0235806836226455,7.04879326504897,2.11210609625221,-3.65433837081486,-3.82669824932343,5.10174245419787,-3.87335898937797,0.105667477139264,-0.586298687542765,2.34056307550888,0.00737753396918875,0.00100006620886754,0.0483654015720477,2.13774691182846,0.162056038170753,-3.03232602391849,-10.19509336002,-4.51321366539768,-1.1500007298742
0.82,1.4734983322104,-1.67872331993141,5.85389318553393,0.00889110169099882,0.0146615131686068,0.0225916003660016,7.04359921181572,2.1107283349506,-3.65200719581566,-3.82421521321255,5.0984317410659,-3.87087595452899,0.104967056150031,-0.586001251067046,2.3389685596466,0.00466245131720291,0.00140396232082004,0.0474984632549212,2.13572277606306,0.16191271422197,-3.03027875685504,-10.1885109869968,-4.51028816726745,-1.14926935534164
0.825,1.47226972753043,-1.67750452789301,5.85067685163415,0.0066984100451522,0.014688367371272,0.021216460595096,7.03840515858224,2.109350573649,-3.64967602081647,-3.82173217710166,5.09512102793394,-3.86839291968001,0.104266635160684,-0.585703814591326,2.33737404378432,0.00170837505346371,0.00188050984563507,0.0460461656139446,2.13369864029755,0.161769390273186,-3.02823148979158,-10.1819286139736,-4.50736266913722,-1.14853798080908
0.83,1.47104112285041,-1.67628573585463,5.84746051773448,0.00423225150165166,0.0141649414742407,0.0193887712012872,7.03321110534898,2.10797281234739,-3.64734484581728,-3.81924914099077,5.09181031480197,-3.86590988483104,0.103566214171337,-0.585406378115607,2.33577952792204,-0.00153573297297964,0.00240222701716544,0.0441010382142388,2.13167450453204,0.161626066324388,-3.02618422272812,-10.1753462409504,-4.50443717100699,-1.14780660627653
0.835,1.4698125181705,-1.67506694381629,5.84424418383469,0.00143736438180878,0.0130443539442453,0.0170837305366004,7.02801705211527,2.10659505104579,-3.64501367081809,-3.81676610487989,5.08849960167001,-3.86342684998207,0.102865793182104,-0.585108941639902,2.33418501205978,-0.00509726260666459,0.00294099774459017,0.0417933679794637,2.12965036876665,0.161482742375604,-3.02413695566466,-10.1687638679273,-4.50151167287676,-1.14707523174397
0.84,1.46858391349048,-1.67384815177792,5.8410278499349,-0.00172480222027729,0.0113154000404832,0.0143134836029427,7.02282299888202,2.1052172897442,-3.6426824958189,-3.814283068769,5.08518888853804,-3.86094381513309,0.102165372192758,-0.584811505164168,2.3325904961975,-0.00899466200877086,0.00346840404660698,0.0392652990472088,2.12762623300114,0.161339418426813,-3.02208968860121,-10.1621814949041,-4.49858617474654,-1.14634385721142
0.845,1.46735530881051,-1.67262935973952,5.83781151603523,-0.00527606041926366,0.00898220671285604,0.0111151954183739,7.01762894564877,2.10383952844259,-3.6403513208197,-3.81180003265811,5.08187817540607,-3.85846078028412,0.101464951203411,-0.584514068688449,2.33099598033523,-0.0132383554382982,0.00395806249621238,0.0366451567829356,2.12560209723563,0.161196094478029,-3.02004242153775,-10.1555991218809,-4.49566067661631,-1.14561248267886
0.85,1.4661267041306,-1.67141056770114,5.83459518213544,-0.0092108909991016,0.00606711181854031,0.00754385701836582,7.01243489241529,2.10246176714099,-3.63802014582051,-3.80931699654723,5.07856746227411,-3.85597774543514,0.100764530214065,-0.584216632212744,2.32940146447295,-0.0178152135752348,0.00438835806535184,0.0340403537326886,2.12357796147012,0.161052770529238,-3.01799515447429,-10.1490167488577,-4.49273517848608,-1.1448811081463
0.855,1.46489809945058,-1.67019177566277,5.83137884823566,-0.0134934304145247,0.00262405323127018,0.00367875772774344,7.0072408391818,2.10108400583939,-3.63568897082132,-3.80683396043634,5.07525674914214,-3.85349471058617,0.100064109224718,-0.58391919573701,2.32780694861066,-0.0226842547776672,0.00474115619267321,0.0315440771288677,2.12155382570472,0.160909446580455,-3.01594788741083,-10.1424343758345,-4.48980968035585,-1.14414973361375
0.86,1.46366949477056,-1.6689729836244,5.82816251433599,-0.0180635139620379,-0.00125399868023277,-0.000365011205422773,7.00204678594832,2.09970624453778,-3.63335779582213,-3.80435092432545,5.07194603601018,-3.85101167573719,0.0993636882353712,-0.583621759261305,2.32621243274839,-0.0277858341227835,0.00499801192053419,0.0292427874623254,2.11952968993921,0.160766122631664,-3.01390062034737,-10.1358520028114,-4.48688418222563,-1.14341835908119
0.865,1.46244089009065,-1.66775419158603,5.8249461804362,-0.0228335896094602,-0.00544453561601387,-0.00444469891911767,6.99685273271507,2.09832848323618,-3.63102662082294,-3.80186788821456,5.06863532287821,-3.84852864088822,0.0986632672460246,-0.583324322785572,2.32461791688611,-0.0330367271197568,0.00514181885257922,0.0272095180475943,2.1175055541737,0.160622798682873,-3.01185335328391,-10.1292696297882,-4.4839586840954,-1.14268698454863
0.87,1.46121228541062,-1.66653539954766,5.82172984653653,-0.0276734722083413,-0.00981179475688154,-0.00841307214077951,6.99165867948159,2.09695072193458,-3.62869544582374,-3.79938485210368,5.06532460974624,-3.84604560603925,0.0979628462567916,-0.583026886309867,2.32302340102385,-0.0383071572546845,0.00516353241278742,0.0254876240146064,2.11548141840831,0.160479474734089,-3.00980608622046,-10.122687256765,-4.48103318596517,-1.14195561001608
0.875,1.45998368073066,-1.66531660750928,5.81851351263674,-0.0323973185235505,-0.0142067481461611,-0.0121258399741472,6.98646462624811,2.09557296063298,-3.62636427082455,-3.79690181599279,5.06201389661428,-3.84356257119027,0.097262425267445,-0.582729449834147,2.32142888516157,-0.0434032901927499,0.00506604669551193,0.0240846532197691,2.1134572826428,0.160336150785298,-3.00775881915699,-10.1161048837418,-4.47810768783495,-1.14122423548352
0.88,1.45875507605069,-1.66409781547091,5.81529717873696,-0.0367577283688313,-0.0184521920052951,-0.0154318159222735,6.98127057301463,2.09419519933138,-3.62403309582535,-3.79441877988191,5.05870318348232,-3.84107953634129,0.0965620042780984,-0.582432013358428,2.31983436929929,-0.0480617706929585,0.00486415881992771,0.0229786699545,2.1114331468774,0.160192826836514,-3.00571155209354,-10.1095225107186,-4.47518218970472,-1.14049286095096
0.885,1.45752647137073,-1.66287902343254,5.81208084483728,-0.0404426603631163,-0.0223327074117773,-0.0181602807220877,6.97607651978137,2.09281743802978,-3.62170192082617,-3.79193574377102,5.05539247035035,-3.83859650149233,0.0958615832888654,-0.582134576882709,2.31823985343701,-0.0519491575687797,0.00458341788128636,0.0221253713407544,2.10940901111189,0.160049502887716,-3.00366428503008,-10.1029401376955,-4.47225669157449,-1.13976148641841
0.89,1.4562978666907,-1.66166023139417,5.8088645109375,-0.0431048554612752,-0.0256096428524658,-0.0201240413008674,6.97088246654801,2.09143967672817,-3.61937074582697,-3.78945270766013,5.05208175721838,-3.83611346664335,0.0951611622995188,-0.581837140407004,2.31664533757473,-0.0546964279388426,0.00425497436604154,0.021466871189356,2.1073848753465,0.159906178938932,-3.00161701796662,-10.0963577646723,-4.46933119344426,-1.13903011188585
0.895,1.45506926201074,-1.66044143935576,5.80564817703771,-0.0444840926491153,-0.0280874505559954,-0.0211892116739581,6.96568841331452,2.09006191542657,-3.61703957082778,-3.78696967154925,5.04877104408642,-3.83363043179437,0.0944607413101721,-0.58153970393127,2.31505082171246,-0.0560226867299067,0.00390332021328005,0.0209511109453623,2.10536073958099,0.159762854990149,-2.99956975090318,-10.0897753916491,-4.46640569531404,-1.13829873735329
0.9,1.45384065733077,-1.65922264731742,5.80243184313804,-0.0445582235607061,-0.0297013569921134,-0.021378166340774,6.96049436008116,2.08868415412497,-3.61470839582859,-3.78448663543836,5.04546033095445,-3.8311473969454,0.0937603203208255,-0.581242267455565,2.31345630585018,-0.0558831966712969,0.00353403936260976,0.0205493912840724,2.10333660381548,0.159619531041358,-2.9975224838397,-10.0831930186259,-4.46348019718381,-1.13756736282074
0.905,1.45261205265081,-1.65800385527902,5.79921550923825,-0.0435392844392968,-0.0305232957376394,-0.0208569166666632,6.95530030684768,2.08730639282336,-3.61237722082939,-3.78200359932747,5.04214961782248,-3.82866436209643,0.0930598993314788,-0.580944830979846,2.3118617899879,-0.0544712590838826,0.0031327418301457,0.0202527712852776,2.10131246805008,0.159476207092574,-2.99547521677626,-10.0766106456028,-4.46055469905358,-1.13683598828818
0.91,1.45138344797084,-1.65678506324065,5.79599917533858,-0.0417166233162543,-0.0306821094314736,-0.0198179920189167,6.95010625361431,2.08592863152176,-3.6100460458302,-3.77952056321659,5.03883890469052,-3.82618132724745,0.0923594783421322,-0.580647394504126,2.31026727412564,-0.0520700903774772,0.00267591758932695,0.02005742874285,2.09928833228457,0.159332883143776,-2.9934279497128,-10.0700282725796,-4.45762920092335,-1.13610461375562
0.915,1.45015484329087,-1.6555662712023,5.79278284143879,-0.0393341507175466,-0.0303114951080354,-0.018427210218504,6.94491220038083,2.08455087022016,-3.60771487083101,-3.7770375271057,5.03552819155855,-3.82369829239848,0.0916590573527856,-0.580349958028407,2.30867275826334,-0.0489239531639955,0.00214564433171102,0.0199540005121204,2.09726419651918,0.159189559194992,-2.99138068264934,-10.0634458995564,-4.45470370279313,-1.13537323922306
0.92,1.44892623861085,-1.6543474791639,5.78956650753901,-0.0365679030188171,-0.0295468624902763,-0.0168409755792735,6.93971814714746,2.08317310891856,-3.60538369583181,-3.77455449099481,5.03221747842658,-3.8212152575495,0.0909586363635526,-0.580052521552687,2.30707824240108,-0.045207636126784,0.00153869358071554,0.0199220387774253,2.09524006075367,0.159046235246201,-2.98933341558589,-10.0568635265332,-4.4517782046629,-1.13464186469051
0.925,1.44769763393089,-1.65312868712556,5.78635017363933,-0.0335424750757218,-0.0285107893282838,-0.0151963597951102,6.93452409391398,2.08179534761696,-3.60305252083263,-3.77207145488392,5.02890676529462,-3.81873222270053,0.090258215374206,-0.579755085076968,2.3054837265388,-0.0410500629770174,0.000865243037474106,0.0199326471922671,2.09321592498827,0.158902911297417,-2.98728614852241,-10.05028115351,-4.44885270653267,-1.13391049015795
0.93,1.44646902925092,-1.65190989508716,5.78313383973955,-0.0303517023191855,-0.027294886966556,-0.0135950799215873,6.92933004068061,2.08041758631536,-3.60072134583343,-3.76958841877304,5.02559605216265,-3.81624918785155,0.0895577943848593,-0.579457648601249,2.30388921067653,-0.0365620373387624,0.000143695007282943,0.0199536362229864,2.09119178922276,0.158759587348634,-2.98523888145897,-10.0436987804869,-4.44592720840244,-1.13317911562539
0.935,1.4452404245709,-1.65069110304879,5.77991750583976,-0.0270772795688373,-0.0259674742774312,-0.012120051671708,6.92413598744713,2.07903982501375,-3.59839017083424,-3.76710538266215,5.02228533903069,-3.81376615300258,0.0888573733956264,-0.579160212125529,2.30229469481425,-0.0318516116929523,-0.000600902812826414,0.0199484075231927,2.08916765345725,0.158616263399836,-2.98319161439551,-10.0371164074637,-4.44300171027221,-1.13244774109284
0.94,1.44401181989093,-1.64947231101041,5.77670117194009,-0.0237937589098221,-0.0245824996178781,-0.0108349230890589,6.91894193421376,2.07766206371215,-3.59605899583505,-3.76462234655126,5.01897462589872,-3.81128311815361,0.0881569524062797,-0.57886277564981,2.30070017895197,-0.0270314512655764,-0.00133790437839522,0.0198769487144544,2.08714351769186,0.158472939451052,-2.98114434733205,-10.0305340344405,-4.44007621214199,-1.13171636656028
0.945,1.44278321521097,-1.64825351897204,5.7734848380403,-0.0205601544686513,-0.0231708997449715,-0.00975319781926389,6.9137478809804,2.07628430241055,-3.59372782083585,-3.76213931044038,5.01566391276676,-3.80880008330463,0.0874565314168194,-0.578565339174105,2.29910566308969,-0.0222189908078921,-0.00203474726375427,0.0197037929079577,2.08511938192635,0.158329615502261,-2.97909708026859,-10.0239516614173,-4.43715071401176,-1.13098499202772
0.95,1.441554610531,-1.64703472693367,5.77026850414063,-0.0174133193173296,-0.0217336934141954,-0.00882911894895521,6.90855382774691,2.07490654110894,-3.59139664583666,-3.75965627432949,5.01235319963479,-3.80631704845565,0.0867561104275865,-0.578267902698371,2.29751114722741,-0.0175279052520998,-0.00265983837302307,0.0194030711610729,2.08309524616095,0.158186291553477,-2.97704981320513,-10.0173692883941,-4.43422521588153,-1.13025361749517
0.955,1.44032600585103,-1.64581593489527,5.76705217024085,-0.0143693496306686,-0.0202457223836924,-0.00797707661023595,6.90335977451355,2.07352877980734,-3.58906547083747,-3.7571732382186,5.00904248650283,-3.80383401360669,0.0860556894382398,-0.577970466222666,2.29591663136515,-0.0130585593222698,-0.00318347697228998,0.0189573479810622,2.08107111039544,0.158042967604693,-2.97500254614167,-10.010786915371,-4.4312997177513,-1.12952224296261
0.96,1.43909740117107,-1.64459714285692,5.76383583634106,-0.0114284177951911,-0.0186615159125876,-0.00709112939174021,6.89816572128007,2.07215101850574,-3.58673429583828,-3.75469020210772,5.00573177337087,-3.80135097875771,0.0853552684488932,-0.577673029746933,2.29432211550287,-0.00889291393136781,-0.00357925699471482,0.0183559135057577,2.07904697463005,0.157899643655895,-2.97295527907822,-10.0042045423478,-4.42837421962108,-1.12879086843005
0.965,1.43786879649105,-1.64337835081855,5.76061950244139,-0.00857870459672237,-0.0169234750002196,-0.00606366451991728,6.89297166804681,2.07077325720414,-3.58440312083908,-3.75220716599683,5.0024210602389,-3.79886794390873,0.0846548474595465,-0.577375593271228,2.29272759964059,-0.00508836131000281,-0.0038261331432051,0.0175943816958382,2.07702283886454,0.157756319707111,-2.97090801201475,-9.9976221693246,-4.42544872149085,-1.12805949389749
0.97,1.43664019181108,-1.64215955878018,5.7574031685416,-0.00579933374935641,-0.0149741753277745,-0.00480610631685881,6.88777761481333,2.06939549590254,-3.58207194583989,-3.74972412988594,4.99911034710693,-3.79638490905976,0.0839544264703136,-0.577078156795508,2.29113308377832,-0.00167025366105834,-0.00391019692294415,0.0166739504642006,2.07499870309903,0.157612995758321,-2.9688607449513,-9.99103979630142,-4.42252322336062,-1.12732811936494
0.975,1.43541158713111,-1.64094076674181,5.7541868346417,-0.0030665340379789,-0.0127643789201461,-0.0032536322062793,6.88258356157996,2.06801773460094,-3.57974077084069,-3.74724109377506,4.99579963397496,-3.79390187421079,0.083254005480967,-0.576780720319789,2.28953856791603,0.00136255250864019,-0.00382632925098372,0.0156013526533219,2.07297456733363,0.157469671809537,-2.96681347788784,-9.98445742327824,-4.41959772523039,-1.12659674483238
0.98,1.43418298245115,-1.63972197470341,5.75097050074214,-0.000359521341709752,-0.0102562422066219,-0.00135842045777047,6.87738950834648,2.06663997329933,-3.57740959584151,-3.74475805766417,4.992488920843,-3.79141883936181,0.0825535844916203,-0.57648328384407,2.28794405205376,0.00402520996242973,-0.00357830650587527,0.0143906110463141,2.07095043156801,0.157326347860746,-2.96476621082438,-9.97787505025506,-4.41667222710017,-1.12586537029983
0.985,1.43295437777113,-1.63850318266503,5.74775416684236,0.0023414151025786,-0.00743370073077126,0.000898476196324021,6.87219545511311,2.06526221199773,-3.57507842084232,-3.74227502155328,4.98917820771103,-3.78893580451284,0.0818531635023874,-0.576185847368365,2.28634953619148,0.00635148288785754,-0.0031763448448597,0.013063257221854,2.06892629580261,0.157183023911955,-2.96271894376093,-9.97129267723188,-4.41374672896994,-1.12513399576727
0.99,1.43172577309116,-1.63728439062666,5.74453783294257,0.0050558194495488,-0.00431433530010769,0.00349161275499221,6.86700140187963,2.06388445069613,-3.57274724584313,-3.7397919854424,4.98586749457907,-3.78645276966387,0.081152742512927,-0.575888410892631,2.28475502032921,0.0083995080571231,-0.00263544478355365,0.0116461270452741,2.0669021600371,0.157039699963171,-2.96067167669746,-9.9647103042087,-4.41082123083971,-1.12440262123471
0.995,1.43049716841119,-1.63606559858829,5.74132149904278,0.00779226528858298,-0.000947730625009921,0.006362890948122,6.86180734864615,2.06250668939452,-3.57041607084393,-3.73730894933151,4.9825567814471,-3.78396973481489,0.0804523215235804,-0.575590974416926,2.28316050446693,0.0102313640208808,-0.00197620518398327,0.0101712733796709,2.06487802427171,0.15689637601438,-2.95862440963401,-9.95812793118552,-4.40789573270948,-1.12367124670215
1,1.42926856373117,-1.63484680654992,5.738105165143,0.010534801739069,0.00259041701833485,0.00943575377400688,6.85661329541279,2.06112892809292,-3.56808489584473,-3.73482591322062,4.97924606831513,-3.78148669996592,0.0797519005343474,-0.575293537941192,2.28156598860465,0.0118875257295278,-0.00122465014671898,0.00867835903810706,2.0628538885062,0.156753052065596,-2.95657714257055,-9.95154555816234,-4.40497023457926,-1.1229398721696
1.005,1.42803995905126,-1.63362801451154,5.73488883124332,0.0132358055941402,0.00619524928996015,0.0126058276837318,6.85141924217942,2.05975116679132,-3.56575372084555,-3.73234287710974,4.97593535518317,-3.77900366511694,0.0790514795450008,-0.574996101465473,2.27997147274237,0.0133799977292961,-0.000410284578178564,0.0072158370776749,2.06082975274069,0.156609728116806,-2.95452987550709,-9.94496318513916,-4.40204473644903,-1.12220849763704
1.01,1.4268113543713,-1.63240922247317,5.73167249734365,0.0158097629851042,0.00972765057900108,0.0157273920638511,6.84622518894594,2.05837340548972,-3.56342254584635,-3.72985984099885,4.9726246420512,-3.77652063026796,0.0783510585556542,-0.574698664989768,2.27837695688009,0.0146901617647817,0.000434432201500992,0.00584068714666799,2.05880561697529,0.156466404168015,-2.95248260844363,-9.93838081211598,-4.3991192383188,-1.12147712310449
1.015,1.42558274969127,-1.6311904304348,5.72845616344387,0.0181266083112538,0.0130178479010913,0.0186159890244143,6.84103113571268,2.05699564418812,-3.56109137084717,-3.72737680488796,4.96931392891924,-3.77403759541899,0.0776506375664212,-0.574401228514034,2.27678244101783,0.015759827887141,0.00127301660389175,0.00461425776402207,2.05678148120978,0.156323080219224,-2.95043534138017,-9.9317984390928,-4.39619374018858,-1.12074574857193
1.02,1.42435414501136,-1.62997163839643,5.72523982954419,0.0200347548473863,0.015894667672479,0.0210752615928841,6.8358370824792,2.05561788288651,-3.55876019584797,-3.72489376877708,4.96600321578727,-3.77155456057002,0.0769502165770746,-0.574103792038329,2.27518792515555,0.016508518628534,0.0020678200921444,0.00358647871348756,2.05475734544439,0.15617975627044,-2.94838807431671,-9.92521606606963,-4.39326824205835,-1.12001437403937
1.025,1.42312554033134,-1.62875284635805,5.72202349564429,0.0214531267968879,0.0182516611848596,0.0229539259172249,6.83064302924583,2.05424012158491,-3.55642902084877,-3.72241073266619,4.9626925026553,-3.76907152572104,0.0762497955877279,-0.57380635556261,2.27359340929327,0.0169232106684839,0.00279265931183795,0.00277540307150822,2.05273320967888,0.156036432321656,-2.94634080725326,-9.91863369304644,-4.39034274392812,-1.11928299950681
1.03,1.42189693565132,-1.62753405431965,5.71880716174451,0.0224709004556942,0.0200963960276299,0.0242074558692576,6.82544897601235,2.05286236028331,-3.55409784584958,-3.7199276965553,4.95938178952334,-3.76658849087207,0.0755493745983813,-0.573508919086891,2.271998893431,0.0171530839785055,0.00344610318076966,0.00216500377964301,2.05070907391348,0.155893108372865,-2.9442935401898,-9.91205132002326,-4.38741724579789,-1.11855162497425
1.035,1.42066833097141,-1.62631526228128,5.71559082784484,0.0233241929316911,0.0215199724372572,0.0249097021866996,6.82025492277899,2.05148459898171,-3.55176667085039,-3.71744466044442,4.95607107639137,-3.7641054560231,0.0748489536090347,-0.573211482611171,2.27040437756871,0.0174715385892275,0.00404689191828259,0.00172446809252929,2.04868493814797,0.155749784424074,-2.94224627312634,-9.90546894700008,-4.38449174766766,-1.1178202504417
1.04,1.41943972629139,-1.62509647024294,5.71237449394516,0.0242689692013262,0.0226320010365629,0.0252006233051193,6.8150608695455,2.05010683768011,-3.5494354958512,-3.71496162433353,4.95276036325941,-3.76162242117412,0.074148532619688,-0.572914046135466,2.26880986170644,0.0181417123260453,0.00461616832004814,0.00142748709885763,2.04666080238258,0.155606460475283,-2.94019900606288,-9.8988865739769,-4.38156624953744,-1.11708887590914
1.045,1.41821112161142,-1.62387767820456,5.70915816004538,0.0254896281628866,0.0235325255428263,0.0252228374355319,6.80986681631214,2.0487290763785,-3.54710432085201,-3.71247858822264,4.94944965012744,-3.75913938632515,0.0734481116303414,-0.572616609659732,2.26721534584416,0.0193347417189828,0.00516736863393708,0.00125718404774662,2.04463666661707,0.1554631365265,-2.93815173899942,-9.89230420095373,-4.37864075140721,-1.11635750137658
1.05,1.41698251693145,-1.62265888616619,5.70594182614559,0.0270802315472636,0.0243050654718186,0.0250920130802569,6.80467276307866,2.0473513150769,-3.54477314585282,-3.70999555211175,4.94613893699548,-3.75665635147617,0.0727476906411084,-0.572319173184027,2.2656208299819,0.021120429095359,0.00570586175616596,0.00120355456002497,2.04261253085156,0.155319812577709,-2.93610447193598,-9.88572182793055,-4.37571525327698,-1.11562612684403
1.055,1.41575391225149,-1.62144009412782,5.7027254922458,0.0290480627305187,0.0249989302543374,0.0248905017007498,6.79947870984529,2.0459735537753,-3.54244197085362,-3.70751251600087,4.94282822386351,-3.7541733166272,0.0720472696517618,-0.572021736708294,2.26402631411962,0.0234726603678474,0.00622911688281569,0.00126362878568751,2.04058839508616,0.155176488628925,-2.9340572048725,-9.87913945490737,-4.37278975514675,-1.11489475231147
1.06,1.41452530757152,-1.62022130208945,5.69950915834613,0.0313163491969479,0.0256136807475095,0.0246572017643524,6.79428465661192,2.0445957924737,-3.54011079585442,-3.70502947988998,4.93951751073154,-3.75169028177822,0.0713468486624151,-0.571724300232589,2.26243179825734,0.026275341354742,0.00672731612936048,0.00143678292526218,2.03856425932065,0.155033164680134,-2.93200993780906,-9.87255708188419,-4.36986425701653,-1.11416337777892
1.065,1.4132967028915,-1.61900251005105,5.69629282444635,0.0337232854857538,0.02609991917826,0.024373919969138,6.78909060337855,2.0432180311721,-3.53777962085524,-3.7025464437791,4.93620679759958,-3.74920724692925,0.0706464276731822,-0.571426863756869,2.26083728239506,0.0293266592604425,0.00718480138329719,0.00171394674811085,2.03654012355526,0.154889840731343,-2.9299626707456,-9.86597470886101,-4.3669387588863,-1.11343200324636
1.07,1.41206809821153,-1.61778371801267,5.69307649054667,0.0360115153353504,0.0263681443944573,0.0239664989693157,6.78389655014507,2.04184026987049,-3.53544844585605,-3.70006340766821,4.93289608446761,-3.74672421208027,0.0699460066838355,-0.57112942728115,2.25924276653278,0.0323292758927198,0.00757675917160238,0.00208340637107004,2.03451598778975,0.154746516782559,-2.92791540368214,-9.85939233583783,-4.36401326075607,-1.1127006287138
1.075,1.41083949353157,-1.6165649259743,5.68986015664689,0.0378132966984032,0.0262905860326478,0.0233178180759372,6.77870249691171,2.04046250856889,-3.53311727085685,-3.69758037155732,4.92958537133565,-3.7442411772313,0.0692455856943752,-0.570831990805431,2.25764825067051,0.034872154441745,0.00786189815166011,0.00255402167448706,2.03249185202435,0.154603192833768,-2.92586813661869,-9.85280996281465,-4.36108776262584,-1.11196925418125
1.08,1.4096108888516,-1.61534613393596,5.6866438227471,0.0386893053387422,0.0257108568466088,0.0222900864451174,6.77350844367822,2.03908474726729,-3.53078609585766,-3.69509733544643,4.92627465820368,-3.74175814238233,0.0685451647051423,-0.570534554329711,2.25605373480823,0.0364695889619791,0.00798548642112765,0.00316107135108237,2.03046771625884,0.154459868884985,-2.92382086955521,-9.84622758979147,-4.35816226449562,-1.11123787964869
1.085,1.40838228417164,-1.61412734189756,5.68342748884743,0.0383086863063675,0.0245193660377057,0.020793149534659,6.76831439044486,2.03770698596569,-3.52845492085847,-3.69261429933555,4.92296394507172,-3.73927510753335,0.0678447437157956,-0.570237117853992,2.25445921894595,0.0367488550539437,0.00790693233564143,0.00393553414244743,2.02844358049333,0.154316544936194,-2.92177360249177,-9.83964521676829,-4.35523676636539,-1.11050650511613
1.09,1.40715367949161,-1.61290854985918,5.68021115494764,0.0366720287000867,0.0227639644762646,0.0188759966418059,6.76312033721138,2.03632922466408,-3.52612374585928,-3.69013126322466,4.91965323193975,-3.73679207268438,0.067144322726449,-0.569939681378273,2.25286470308369,0.0356812202825675,0.00763387727522742,0.00486518323549974,2.02641944472794,0.154173220987403,-2.91972633542829,-9.83306284374511,-4.35231126823516,-1.10977513058358
1.095,1.40592507481165,-1.61168975782081,5.67699482104786,0.0341120114806482,0.020651730728055,0.0167300249339295,6.75792628397801,2.03495146336248,-3.52379257086008,-3.68764822711377,4.91634251880779,-3.7343090378354,0.0664439017371024,-0.569642244902553,2.25127018722139,0.0335813922831449,0.00722187887145309,0.00589207999981617,2.02439530896243,0.154029897038619,-2.91767906836485,-9.82648047072193,-4.34938577010493,-1.10904375605102
1.1,1.40469647013168,-1.61047096578244,5.67377848714818,0.0310732898347643,0.0184388960932045,0.0145978381169332,6.75273223074453,2.03357370206088,-3.52146139586089,-3.68516519100289,4.91303180567582,-3.73182600298643,0.0657434807478694,-0.569344808426834,2.24967567135913,0.0308797340198084,0.00674051807007388,0.00694549834162315,2.02237117319703,0.153886573089828,-2.91563180130139,-9.81989809769875,-4.34646027197471,-1.10831238151846
1.105,1.40346786545172,-1.60925217374407,5.6705621532484,0.0279379579236785,0.0163498483750702,0.0127002006707477,6.74753817751105,2.03219594075928,-3.5191302208617,-3.682682154892,4.90972109254385,-3.72934296813746,0.0650430597585228,-0.569047371951129,2.24808115549685,0.0279430240580021,0.00624656970421009,0.00796919995972029,2.02034703743152,0.153743249141044,-2.91358453423793,-9.81331572467557,-4.34353477384448,-1.1075810069859
1.11,1.40223926077175,-1.6080333817057,5.66734581934872,0.0249922097990624,0.0145571865206623,0.0112207650344724,6.74234412427779,2.03081817945768,-3.51679904586251,-3.68019911878111,4.90641037941189,-3.72685993328848,0.0643426387691761,-0.568749935475395,2.24648663963458,0.0250395842808004,0.0057794240837975,0.00892418905132426,2.01832290166601,0.153599925192246,-2.91153726717447,-9.80673335165239,-4.34060927571425,-1.10684963245334
1.115,1.40101065609173,-1.60681458966729,5.66412948544894,0.022445693316173,0.013174792863224,0.010304421064648,6.73715007104431,2.02944041815607,-3.51446787086331,-3.67771608267023,4.90309966627992,-3.7243768984395,0.0636422177799432,-0.56845249899969,2.2448921237723,0.0223602202210722,0.0053657401136927,0.00978062651795451,2.0162987659005,0.153456601243462,-2.90949000011102,-9.80015097862921,-4.33768377758403,-1.10611825792079
1.12,1.39978205141176,-1.60559579762892,5.66091315154915,0.0204505747150396,0.0122609148867159,0.0100360617778429,6.73195601781094,2.02806265685447,-3.51213669586412,-3.67523304655934,4.89978895314796,-3.72189386359053,0.0629417967904828,-0.568155062523971,2.24329760791002,0.020050117744867,0.00502532470404521,0.0105134015260699,2.01427463013499,0.153313277294679,-2.90744273304755,-9.79356860560604,-4.3347582794538,-1.10538688338823
1.125,1.3985534467318,-1.60437700559058,5.65769681764948,0.0191144013614841,0.0118331227919638,0.0104136805129646,6.72676196457746,2.02668489555287,-3.50980552086492,-3.67275001044845,4.89647824001599,-3.71941082874155,0.0622413758011362,-0.567857626048252,2.24170309204774,0.0182383460535726,0.00477612656469297,0.011102142840451,2.0122504943696,0.153169953345888,-2.9053954659841,-9.78698623258285,-4.33183278132357,-1.10465550885568
1.13,1.39732484205183,-1.60315821355221,5.65448048374969,0.0185027478025118,0.0118782630348279,0.0113579775393828,6.7215679113441,2.02530713425126,-3.50747434586574,-3.67026697433757,4.89316752688402,-3.71692779389258,0.0615409548119032,-0.567560189572532,2.24010857618546,0.0170366281186025,0.00463493515279239,0.0115296131891028,2.01022635860409,0.153026629397104,-2.90334819892064,-9.78040385955967,-4.32890728319334,-1.10392413432312
1.135,1.39609623737181,-1.6019394215138,5.65126414984991,0.0186347987559749,0.0123513683584475,0.0127540729523967,6.71637385811061,2.02392937294967,-3.50514317086654,-3.66778393822668,4.88985681375206,-3.71444475904361,0.0608405338225566,-0.567262753096813,2.2385140603232,0.0165124051390591,0.00461459145052749,0.0117771889796404,2.00820222283869,0.152883305448306,-2.90130093185718,-9.77382148653649,-4.32598178506311,-1.10319275979056
1.14,1.39486763269184,-1.60072062947543,5.64804781595024,0.0194820118032253,0.013171753104306,0.0144771988685147,6.71117980487725,2.02255161164806,-3.50281199586735,-3.66530090211579,4.88654610062009,-3.71196172419463,0.06014011283321,-0.566965316621094,2.23691954446092,0.0166733132343862,0.00472270170984144,0.0118217857914181,2.00617808707318,0.152739981499522,-2.89925366479373,-9.76723911351332,-4.32305628693289,-1.10246138525801
1.145,1.39363902801193,-1.59950183743706,5.64483148205045,0.0209699976494632,0.0142289171895931,0.0163926410852543,6.70598575164377,2.02117385034646,-3.50048082086816,-3.66281786600491,4.88323538748813,-3.70947868934566,0.0594396918438633,-0.566667880145388,2.23532502859864,0.0174706628954914,0.00496206773661629,0.0116381686028724,2.00415395130779,0.152596657550731,-2.89720639773026,-9.76065674049014,-4.32013078880266,-1.10173001072545
1.15,1.39241042333191,-1.59828304539869,5.64161514815066,0.022976630004062,0.0153991932720126,0.0183545020870912,6.7007916984104,2.01979608904486,-3.49814964586896,-3.66033482989402,4.87992467435616,-3.70699565449669,0.0587392708546304,-0.566370443669655,2.23373051273637,0.0188020944458664,0.00532951842483376,0.0112054525253402,2.00212981554228,0.152453333601947,-2.89515913066681,-9.75407436746696,-4.31720529067243,-1.10099863619289
1.155,1.39118181865189,-1.59706425336032,5.63839881425099,0.0253285700201645,0.0165598594253862,0.0202142891744547,6.69559764517692,2.01841832774326,-3.49581847086977,-3.65785179378313,4.87661396122419,-3.70451261964771,0.0580388498652837,-0.56607300719395,2.23213599687408,0.0205079459440461,0.00581305544047929,0.010514151342368,2.00010567977677,0.152310009653164,-2.89311186360334,-9.74749199444378,-4.3142797925422,-1.10026726166033
1.16,1.38995321397198,-1.59584546132194,5.6351824803512,0.0278039895158562,0.0175921418227073,0.021830109238697,6.69040359194366,2.01704056644165,-3.49348729587058,-3.65536875767225,4.87330324809223,-3.70202958479873,0.0573384288759371,-0.56577557071823,2.23054148101181,0.0223727093515612,0.00639006937889826,0.00957247543060411,1.99808154401137,0.152166685704366,-2.89106459653989,-9.7409096214206,-4.31135429441198,-1.09953588712778
1.165,1.38872460929196,-1.59462666928354,5.63196614645153,0.030140745861572,0.0183692619830505,0.0230611753609963,6.68520953871018,2.01566280514005,-3.49115612087139,-3.65288572156136,4.86999253496026,-3.69954654994976,0.0566380078865905,-0.565478134242497,2.22894696514953,0.0241356901242367,0.00702895217053115,0.00840822798908086,1.99605740824586,0.152023361755582,-2.88901732947643,-9.73432724839742,-4.30842879628175,-1.09880451259522
1.17,1.38749600461205,-1.5934078772452,5.62874981255175,0.0320406012858951,0.0187372807367202,0.0237549238177459,6.68001548547682,2.01428504383845,-3.4888249458722,-3.65040268545047,4.8666818218283,-3.69706351510079,0.0559375868972438,-0.565180697766792,2.22735244928725,0.0254971299717463,0.00769216258453195,0.00706573574489384,1.99403327248046,0.151880037806791,-2.88697006241297,-9.72774487537424,-4.30550329815152,-1.09807313806266
1.175,1.38626739993202,-1.59218908520683,5.62553347865196,0.0331636585824584,0.0185142166787018,0.0237482078407065,6.67482143224333,2.01290728253685,-3.486493770873,-3.64791964933958,4.86337110869633,-3.69458048025182,0.0552371659078972,-0.564883261291072,2.22575793342499,0.0261096511684172,0.00833601843798246,0.00560812464600772,1.99200913671496,0.151736713858007,-2.88492279534952,-9.72116250235106,-4.30257780002129,-1.09734176353011
1.18,1.38503879525206,-1.59097029316845,5.62231714475229,0.0331500904564839,0.0175290537723162,0.0228948473510451,6.66962737900997,2.01152952123525,-3.48416259587381,-3.6454366132287,4.86006039556437,-3.69209744540284,0.0545367449186642,-0.564585824815353,2.22416341756271,0.0255983514001385,0.00891089885810149,0.00411993020476279,1.98998500094956,0.151593389909223,-2.88287552828605,-9.71458012932788,-4.29965230189107,-1.09661038899755
1.185,1.38381019057209,-1.58975150113008,5.6191008108525,0.031745399375294,0.015710461007139,0.0211346070005215,6.66443332577649,2.01015175993364,-3.48183142087462,-3.64295357711781,4.8567496824324,-3.68961441055386,0.0538363239293176,-0.564288388339634,2.22256890170043,0.0236930962554003,0.00937347770578606,0.00268306111897865,1.98796086518405,0.151450065960425,-2.8808282612226,-9.7079977563047,-4.29672680376084,-1.09587901446499
1.19,1.38258158589213,-1.58853270909168,5.61588447695271,0.0289655589645268,0.0131683386939963,0.0185651884186954,6.65923927254312,2.00877399863204,-3.47950024587543,-3.64047054100693,4.85343896930044,-3.68713137570489,0.0531359029399709,-0.563990951863914,2.22097438583815,0.0204052851677274,0.00970498443136986,0.00133790932148637,1.98593672941854,0.151306742011641,-2.87878099415914,-9.70141538328152,-4.29380130563061,-1.09514763993243
1.195,1.3813529812121,-1.58731391705331,5.61266814305304,0.0250932173562508,0.0101533238665605,0.0154211466724901,6.65404521930964,2.00739623733044,-3.47716907087624,-3.63798750489604,4.85012825616847,-3.68464834085592,0.052435481950738,-0.563693515388195,2.21937986997588,0.0160267578145269,0.00991197347111541,8.45960599348329e-05,1.98391259365314,0.15116341806285,-2.87673372709568,-9.69483301025834,-4.29087580750038,-1.09441626539988
1.2,1.38012437653214,-1.58609512501494,5.60945180915326,0.0205021734197172,0.00691776992934802,0.0119680307462912,6.64885116607627,2.00601847602884,-3.47483789587704,-3.63550446878515,4.8468175430365,-3.68216530600694,0.0517350609613914,-0.56339607891249,2.2177853541136,0.0109464387967403,0.0100094435435175,-0.00107527248843905,1.98188845788764,0.151020094114067,-2.87468646003222,-9.68825063723516,-4.28795030937016,-1.09368489086732
1.205,1.37889577185217,-1.58487633297659,5.60623547525347,0.0155206751928376,0.00363842814677267,0.00842583746716884,6.64365711284279,2.00464071472723,-3.47250672087785,-3.63302143267427,4.84350682990454,-3.67968227115797,0.0510346399720447,-0.563098642436756,2.21619083825132,0.00550927177117464,0.0100078767315345,-0.00211173680769383,1.97986432212224,0.150876770165276,-2.87263919296876,-9.68166826421198,-4.28502481123993,-1.09295351633477
1.21,1.37766716717221,-1.58365754093819,5.6030191413538,0.0104051519849184,0.000445049074239322,0.00496498588549222,6.63846305960953,2.00326295342563,-3.47017554587865,-3.63053839656338,4.84019611677257,-3.67719923630899,0.0503342189825844,-0.562801205961051,2.21459632238906,-9.3417200400076e-06,0.00991051406279585,-0.00296840332900329,1.97784018635673,0.150733446216485,-2.8705919259053,-9.6750858911888,-4.2820993131097,-1.09222214180221
1.215,1.37643856249218,-1.58243874889982,5.59980280745401,0.00535329799308955,-0.00254004098605417,0.00172776113225496,6.63326900637605,2.00188519212403,-3.46784437087946,-3.62805536045249,4.83688540364061,-3.67471620146002,0.0496337979933514,-0.562503769485332,2.21300180652676,-0.00539466541605875,0.00971597365964121,-0.00357414632460197,1.97581605059133,0.150590122267701,-2.86854465884186,-9.66850351816563,-4.27917381497947,-1.09149076726965
1.22,1.37520995781222,-1.58121995686145,5.59658647355434,0.000521757272671033,-0.00520727305895355,-0.0011652695296157,6.62807495314269,2.00050743082243,-3.46551319588027,-3.6255723243416,4.83357469050864,-3.67223316661105,0.0489333770040048,-0.562206333009613,2.2114072906645,-0.0104812403809828,0.00942472594875766,-0.00386344832681786,1.97379191482582,0.15044679831891,-2.8664973917784,-9.66192114514244,-4.27624831684925,-1.09075939273709
1.225,1.37398135313225,-1.58000116482307,5.59337013965455,-0.003955755882835,-0.00747974870905694,-0.00362439683996765,6.62288089990921,1.99912966952083,-3.46318202088108,-3.62308928823072,4.83026397737668,-3.66975013176207,0.0482329560146582,-0.561908896533893,2.20981277480222,-0.0151352116328819,0.0090464097678578,-0.0038032790876881,1.97176777906031,0.150303474370126,-2.86445012471493,-9.65533877211926,-4.27332281871902,-1.09002801820454
1.23,1.37275274845223,-1.5787823727847,5.59015380575477,-0.00795486559106445,-0.00931128720095325,-0.00559562922918589,6.61768684667584,1.99775190821922,-3.46085084588188,-3.62060625211983,4.82695326424471,-3.6672670969131,0.0475325350254252,-0.561611460058174,2.20821825893994,-0.0192365085900571,0.00860312610810933,-0.00340861106937821,1.96974364329492,0.150160150421335,-2.86240285765149,-9.64875639909608,-4.27039732058879,-1.08929664367198
1.235,1.37152414377232,-1.57756358074633,5.58693747185509,-0.0113463530871301,-0.0106666028679354,-0.00704454010277941,6.61249279344236,1.99637414691762,-3.45851967088269,-3.61812321600894,4.82364255111274,-3.66478406206413,0.0468321140360786,-0.561314023582455,2.20662374307767,-0.0226614358646738,0.0081266484000578,-0.00273129602265526,1.96771950752941,0.150016826472545,-2.86035559058801,-9.6421740260729,-4.26747182245856,-1.08856526913942
1.24,1.3702955390923,-1.57634478870796,5.58372113795531,-0.0139830601371182,-0.0115076988553663,-0.00792438180355082,6.60729874020899,1.99499638561602,-3.4561884958835,-3.61564017989806,4.82033183798078,-3.66230102721514,0.0461316930467319,-0.561016587106735,2.20502922721539,-0.0252747650991943,0.00765408142292369,-0.00183325495099888,1.96569537176401,0.149873502523754,-2.85830832352457,-9.63559165304973,-4.26454632432834,-1.08783389460686
1.245,1.36906693441233,-1.57512599666956,5.58050480405564,-0.0156933310900232,-0.0117940557443144,-0.0081511767143785,6.60210468697551,1.99361862431442,-3.45385732088431,-3.61315714378717,4.81702112484881,-3.65981799236618,0.045431272057499,-0.560719150631016,2.20343471135311,-0.0269340008181565,0.00722717774753206,-0.000769404404950013,1.96367123599839,0.14973017857497,-2.85626105646109,-9.62900928002655,-4.26162082619811,-1.08710252007431
1.25,1.36783832973236,-1.57390720463121,5.57728847015585,-0.0162962650220919,-0.011490929682116,-0.00761632590801732,6.59691063374214,1.99224086301282,-3.45152614588512,-3.61067410767629,4.81371041171685,-3.6573349575172,0.0447308510681523,-0.560421714155297,2.20184019549083,-0.0275010304002078,0.00688934458145015,0.000414092091097868,1.96164710023299,0.149586854626186,-2.85421378939765,-9.62242690700337,-4.25869532806788,-1.08637114554175
1.255,1.3666097250524,-1.57268841259284,5.57407213625606,-0.0156870777093054,-0.0106035544726352,-0.00626826314691656,6.59171658050866,1.99086310171121,-3.44919497088593,-3.6081910715654,4.81039969858488,-3.65485192266822,0.044030430078692,-0.560124277679591,2.20024567962857,-0.0269019392678671,0.00667135091401221,0.0016720286434418,1.95962296446748,0.149443530677395,-2.85216652233419,-9.61584453398019,-4.25576982993765,-1.0856397710092
1.26,1.36538112037238,-1.57146962055447,5.57085580235639,-0.0139540064810104,-0.00922501743381866,-0.00420936752524201,6.58652252727541,1.98948534040961,-3.44686379588673,-3.60570803545451,4.80708898545291,-3.65236888781925,0.0433300090893454,-0.559826841203858,2.19865116376629,-0.0252214319571312,0.00657477494096254,0.0029516517768285,1.95759882870198,0.149300206728604,-2.85011925527073,-9.60926216095701,-4.25284433180743,-1.08490839647664
1.265,1.36415251569241,-1.57025082851607,5.5676394684566,-0.0113749365669199,-0.00752314554092114,-0.00167828218125499,6.58132847404192,1.98810757910801,-3.44453262088754,-3.60322499934362,4.80377827232095,-3.64988585297028,0.0426295881001124,-0.559529404728153,2.19705664790401,-0.0227066759369296,0.00657287224171996,0.00420185619859983,1.95557469293658,0.149156882779813,-2.84807198820728,-9.60267978793383,-4.2499188336772,-1.08417702194408
1.27,1.36292391101244,-1.56903203647769,5.56442313455682,-0.0082870617990546,-0.00566711217447589,0.00107079468138366,6.57613442080856,1.98672981780641,-3.44220144588835,-3.60074196323274,4.80046755918898,-3.6474028181213,0.0419291671107658,-0.559231968252419,2.19546213204174,-0.0196630878054623,0.00662744802938379,0.00539585310775965,1.95355055717107,0.14901355883103,-2.84602472114381,-9.59609741491065,-4.24699333554697,-1.08344564741152
1.275,1.36169530633248,-1.56781324443932,5.56120680065715,-0.00498272253700642,-0.0037836026052869,0.00384719117534385,6.57094036757508,1.98535205650481,-3.43987027088915,-3.59825892712185,4.79715684605702,-3.64491978327233,0.0412287461214191,-0.558934531776714,2.19386761617945,-0.0163646303779537,0.00670290024943144,0.00653841139424579,1.95152642140567,0.148870234882239,-2.84397745408036,-9.58951504188747,-4.24406783741674,-1.08271427287897
1.28,1.36046670165246,-1.56659445240095,5.55799046675736,-0.0016857477165294,-0.00196537795370984,0.00652014756275435,6.56574631434171,1.9839742952032,-3.43753909588996,-3.59577589101096,4.79384613292505,-3.64243674842336,0.0405283251321862,-0.558637095300995,2.19227310031718,-0.0130265709738577,0.00677099267425479,0.00765327670028536,1.94950228564016,0.148726910933455,-2.8419301870169,-9.58293266886429,-4.24114233928652,-1.08198289834641
1.285,1.35923809697249,-1.56537566036258,5.55477413285769,0.00144202834164966,-0.000290389249651518,0.00898738320087589,6.56055226110823,1.9825965339016,-3.43520792089077,-3.59329285490007,4.79053541979309,-3.63995371357437,0.0398279041428395,-0.558339658825275,2.1906785844549,-0.00980100231316954,0.00681150645370348,0.00876906485430043,1.94747814987477,0.148583586984664,-2.83988291995344,-9.57635029584111,-4.23821684115629,-1.08125152381385
1.29,1.35800949229252,-1.5641568683242,5.5515577989579,0.00429148652750553,0.00117004923038975,0.0111529658662531,6.55535820787486,1.9812187726,-3.43287674589158,-3.59080981878919,4.78722470666112,-3.6374706787254,0.0391274831534929,-0.558042222349556,2.18908406859262,-0.00677794382554671,0.00681154573709367,0.00991112476154533,1.94545401410926,0.148440263035873,-2.83783565288998,-9.56976792281793,-4.23529134302606,-1.0805201492813
1.295,1.35678088761256,-1.56293807628583,5.54834146505812,0.0067961136820634,0.00235985826810781,0.0129382194523555,6.55016415464138,1.97984101129839,-3.43054557089238,-3.5883267826783,4.78391399352916,-3.63498764387643,0.03842706216426,-0.557744785873851,2.18748955273036,-0.00400266879823473,0.00676404638998048,0.0110983195208413,1.94342987834375,0.148296939087089,-2.83578838582652,-9.56318554979475,-4.23236584489583,-1.07978877474874
1.3,1.35555228293259,-1.56171928424746,5.54512513115844,0.00892318147374743,0.00325491155774741,0.014310487373996,6.54497010140801,1.9784632499968,-3.42821439589319,-3.58584374656742,4.78060328039719,-3.63250460902746,0.0377266411747996,-0.557447349398117,2.18589503686808,-0.00150019100072651,0.00666642008840919,0.0123427648600932,1.94140574257835,0.148153615138298,-2.83374111876306,-9.55660317677157,-4.22944034676561,-1.07905740021618
1.305,1.35432367825263,-1.56050049220909,5.54190879725866,0.0106665102170522,0.00386391712189478,0.0152781128814721,6.53977604817464,1.97708548869519,-3.42588322089399,-3.58336071045653,4.77729256726522,-3.63002157417848,0.037026220185453,-0.557149912922412,2.1843005210058,0.000718043967575527,0.00652012512488827,0.0136486916973867,1.93938160681284,0.148010291189514,-2.83169385169961,-9.55002080374839,-4.22651484863538,-1.07832602568363
1.31,1.35309507357266,-1.55928170017071,5.53869246335887,0.0120375864465078,0.00421500060099844,0.0158565452848903,6.53458199494128,1.97570772739359,-3.42355204589481,-3.58087767434564,4.77398185413326,-3.6275385393295,0.03632579919622,-0.556852476446693,2.18270600514352,0.00265894868159584,0.00633054301107601,0.015010810966057,1.93735747104745,0.147866967240724,-2.82964658463614,-9.54343843072521,-4.22358935050515,-1.07759465115107
1.315,1.35186646889269,-1.55806290813231,5.5354761294592,0.0130557000985339,0.00435230158049324,0.0160573398776582,6.5293879417078,1.97432996609199,-3.42122087089561,-3.57839463823476,4.77067114100129,-3.62505550448053,0.0356253782068734,-0.556555039970974,2.18111148928125,0.00434076464302825,0.00610611470675545,0.0164162977834497,1.93533333528194,0.147723643291933,-2.82759931757269,-9.53685605770204,-4.22066385237492,-1.07686327661851
1.32,1.35063786421267,-1.55684411609394,5.53225979555941,0.013744284867881,0.0043395296779423,0.0159022845917412,6.52419388847443,1.97295220479038,-3.41888969589642,-3.57591160212387,4.76736042786933,-3.62257246963156,0.0349249572175268,-0.556257603495254,2.17951697341897,0.00578139236564359,0.00585754469234028,0.017847466876379,1.93330919951654,0.147580319343149,-2.82555205050924,-9.53027368467885,-4.2177383542447,-1.07613190208596
1.325,1.34940925953265,-1.55562532405557,5.52904346165963,0.0141351658586168,0.00424812242837411,0.0154300392925264,6.51899983524095,1.97157444348878,-3.41655852089723,-3.57342856601298,4.76404971473736,-3.62008943478258,0.0342245362281801,-0.555960167019521,2.17792245755669,0.00699813894248989,0.00559796999507396,0.0192781741468628,1.93128506375103,0.147436995394358,-2.82350478344577,-9.52369131165567,-4.21481285611447,-1.0754005275534
1.33,1.34818065485274,-1.55440653201723,5.52582712775995,0.0142713174275765,0.00413740333931814,0.0146898241955734,6.51380578200758,1.97019668218718,-3.41422734589803,-3.57094552990209,4.7607390016054,-3.61760639993361,0.0335241152389472,-0.555662730543816,2.17632794169442,0.00801177036733533,0.00534286530287119,0.0206680240834761,1.92926092798552,0.147293671445574,-2.82145751638232,-9.51710893863249,-4.21188735798424,-1.07466915302084
1.335,1.34695205017272,-1.55318773997885,5.52261079386017,0.0142009896719234,0.00405109009838453,0.0137313746695821,6.5086117287741,1.96881892088558,-3.41189617089884,-3.56846249379121,4.75742828847343,-3.61512336508464,0.0328236942496005,-0.555365294068096,2.17473342583213,0.00884535422277791,0.00510860200336151,0.0219644401870006,1.92723679222013,0.147150347496776,-2.81941024931885,-9.51052656560932,-4.20896185985401,-1.07393777848829
1.34,1.34572344549281,-1.55196894794048,5.51939445996049,0.0139688327809375,0.00402669923174704,0.0125968944728206,6.50341767554073,1.96744115958397,-3.40956499589965,-3.56597945768032,4.75411757534146,-3.61264033023566,0.0321232732601402,-0.555067857592377,2.17313890996986,0.00952075567197164,0.00491055425845649,0.0231110089386937,1.92521265645462,0.147007023547992,-2.8173629822554,-9.50394419258614,-4.20603636172379,-1.07320640395573
1.345,1.34449484081279,-1.55075015590208,5.51617812606071,0.0136134363658197,0.00409634505745828,0.0113195183781362,6.49822362230725,1.96606339828237,-3.40723382090046,-3.56349642156944,4.7508068622095,-3.61015729538668,0.0314228522709072,-0.554770421116658,2.17154439410758,0.0100576498778156,0.00476223495135225,0.0240521895564117,1.92318852068922,0.146863699599209,-2.81531571519194,-9.49736181956296,-4.20311086359356,-1.07247502942317
1.35,1.34326623613282,-1.54953136386371,5.51296179216092,0.0131694768873066,0.00427926970267889,0.00992984734320404,6.49302956907388,1.96468563698077,-3.40490264590127,-3.56101338545855,4.74749614907753,-3.60767426053771,0.0307224312815606,-0.554472984640952,2.1699498782453,0.0104725237053871,0.00467476224322875,0.0247348637362816,1.92116438492371,0.146720375650418,-2.81326844812848,-9.49077944653978,-4.20018536546333,-1.07174365489062
