Header,foot_Accel_X,foot_Accel_Y,foot_Accel_Z,foot_Gyro_X,foot_Gyro_Y,foot_Gyro_Z,shank_Accel_X,shank_Accel_Y,shank_Accel_Z,shank_Gyro_X,shank_Gyro_Y,shank_Gyro_Z,thigh_Accel_X,thigh_Accel_Y,thigh_Accel_Z,thigh_Gyro_X,thigh_Gyro_Y,thigh_Gyro_Z,trunk_Accel_X,trunk_Accel_Y,trunk_Accel_Z,trunk_Gyro_X,trunk_Gyro_Y,trunk_Gyro_Z
65.975,-0.447055565876099,0.171870470396427,0.924367451796933,-0.122582832202047,0.33668591431944,-0.23010397420319,-1.1410072782372,0.116821980365143,-0.350429904350009,0.26317295271998,1.12967949398626,-0.611423727959774,-1.16256512989569,-0.0990518919300099,0.115176013458587,-0.137875999460705,0.145307105256565,-0.307390903533097,-1.08822290335723,0.01971840581247,0.142384038634855,0.436964320753529,-0.610467282542541,-0.369958372165274
65.98,-0.442361307191571,0.15799370802966,0.923382647201413,-0.103301029981416,0.426122863351167,-0.259753697058445,-1.14055656545095,0.0734361949588062,-0.340046658677193,0.332527385730575,1.14411357300914,-0.630093307026339,-1.16399122153225,-0.132391974407737,0.0325058497850369,-0.163766271505303,0.0920437061932703,-0.228048309657777,-1.10428865893703,-0.0796316421431362,0.197454031824576,0.51670520352848,-0.517819221356251,-0.302795479545392
65.985,-0.440109811784195,0.168095108783349,0.930179802090646,-0.112204861896513,0.544946480894852,-0.285206034887778,-1.13732761877183,0.0293032137752493,-0.326040348630182,0.438787730576713,1.1729909575288,-0.656778021137118,-1.15037549286029,-0.165488183818622,-0.056421016097349,-0.163670381213893,0.0463385210833888,-0.156849804467335,-1.15424835528245,-0.0773924070073174,0.2248409991457,0.56934406978961,-0.493401799370088,-0.320451153816761
65.99,-0.455755801135539,0.149058300745713,0.943762843497973,-0.123388187075062,0.641088955889104,-0.297473849494608,-1.12372879963841,0.00816697126210363,-0.306785382313806,0.495595796524767,1.20152118984759,-0.684017435705296,-1.1357197476266,-0.171901555975321,-0.141828823456405,-0.165978163480759,0.0144737467973555,-0.0711916345237059,-1.16017169398101,-0.0832297259380082,0.234316579133808,0.681159016235767,-0.43392255163092,-0.297812567245791
65.995,-0.462583658457482,0.166414196090139,0.95397773670854,-0.13119203388983,0.751357980914205,-0.31881324237737,-1.12323048995593,-0.00121582203553985,-0.289412501653844,0.532333866468489,1.24026784294686,-0.715689985807626,-1.13922820238847,-0.138311797022776,-0.242321046501008,-0.167618582069237,-0.018976101690061,0.00808015497325933,-1.16624448168364,-0.0896278240376966,0.246659180762083,0.758060066014,-0.405219065353891,-0.319783479601321
66,-0.497988685893864,0.154904534125981,0.957228923434106,-0.178959584746428,0.89277547455936,-0.318891779838216,-1.14276103556947,-0.00828931181766252,-0.328460158235071,0.506727703906349,1.27517846829291,-0.747075760814826,-1.16573603231032,-0.0880572236921323,-0.330071990766188,-0.170513387360593,-0.0364509536700516,0.042444140995902,-1.20840881338334,-0.0738018146058127,0.254138870626418,0.771484182222424,-0.3587362187874,-0.300738673616739
66.005,-0.530982665154612,0.141114957848091,0.980643367117628,-0.190329413475938,1.03585907893699,-0.340150260095049,-1.18891691579537,-0.0136417770328593,-0.360968887662967,0.477315274955307,1.31078696495681,-0.770288568426833,-1.20183044757777,-0.0206533889889532,-0.425688638151475,-0.187434039679556,-0.051801673599068,0.0425032119981711,-1.19098911052901,-0.0673120216574412,0.259395042801659,0.662082010620401,-0.285566306381158,-0.300503807388128
66.01,-0.488042441508518,0.147734107170726,0.985199763134852,-0.191765202301097,1.20878601569764,-0.356415032793778,-1.25673211488387,-0.00386877459032461,-0.332508526178696,0.43882177066504,1.37648036617187,-0.798733261147077,-1.21982242691869,0.0249017796370881,-0.47696457056921,-0.303340120203373,-0.0683352163171301,0.0229250236238369,-1.20878169061253,-0.0608212997065115,0.259984414881507,0.621821289428535,-0.260475541076418,-0.27707091918169
66.015,-0.432260012781297,0.196645076197442,0.984362583451738,-0.176299288972187,1.35050743909138,-0.399449277100039,-1.33100636136757,0.0444206371611108,-0.304812466996478,0.37872476064486,1.43958224827582,-0.805457261515478,-1.21498377502203,0.0733189966609031,-0.52086428446006,-0.426592689692354,-0.0561335508852404,0.0179829338188323,-1.22099076759993,-0.0367975049212303,0.250683066563379,0.639358929574369,-0.278200281729542,-0.213366982770422
66.02,-0.413162332972988,0.194351362364593,0.981058745792831,-0.195945752126828,1.49762556396601,-0.444801708469827,-1.36294774672154,0.0823978322554895,-0.28431453416877,0.300646201261119,1.4812273487748,-0.790413565056796,-1.20546167710713,0.131095925811843,-0.556401778720869,-0.53999167492572,-0.0168215345888886,0.0499567787059625,-1.2248720300071,-0.0178567881542792,0.261112197394938,0.664199218844543,-0.295149248903913,-0.1757025510291
66.025,-0.459012354229069,0.181623729690365,0.981492146793171,-0.214744215538581,1.64647030524553,-0.483065885582676,-1.36050237744442,0.0699200572849605,-0.312252424045874,0.209147718194803,1.51488647576164,-0.788800452157154,-1.20707983513891,0.185091817715857,-0.564845132973563,-0.707163914694831,0.0461793209658733,0.107854497772835,-1.21372830998967,0.0125694329526238,0.271270079237785,0.694841757362267,-0.315295604833193,-0.171520020678653
66.03,-0.510436780848836,0.137697438457882,0.970764059310562,-0.250487616704358,1.83530393446307,-0.516068493832401,-1.31419274278118,0.00514141510926009,-0.382026022149673,0.151415073993625,1.52793652896313,-0.820530659399569,-1.21563934204743,0.23618444387861,-0.545808814355242,-0.970552139683581,0.11923051823884,0.199332450662664,-1.20456964728382,0.0317053105615726,0.26285426275092,0.65830168150995,-0.307938343446291,-0.139491750601975
66.035,-0.513826651966008,0.132458937546744,0.962100845002421,-0.264245948235613,1.97221182609359,-0.535015381647869,-1.27034072798954,-0.0260440738034124,-0.402504143963544,0.150034573665395,1.56414987760944,-0.877324306655588,-1.21158382029026,0.276861168963208,-0.494456937469134,-1.29399565713858,0.195669824531042,0.291554223418614,-1.1855655320811,0.0548056277860225,0.275194078284896,0.6448871688439,-0.287785820536491,-0.126506785909975
66.04,-0.489668756322651,0.162880898371121,0.952912227845353,-0.299764722989187,2.13926803018073,-0.561130253939432,-1.24161196056325,-0.0289007372281412,-0.392081326327779,0.17372768581785,1.61037782556896,-0.935808707157161,-1.20202492165855,0.292799248238801,-0.424800411677492,-1.553106576875,0.254317658695767,0.36084218783885,-1.17482580998324,0.0710309171644222,0.289033108958151,0.657514750466033,-0.256049257414841,-0.131068902153773
66.045,-0.498747610321137,0.171476651927902,0.95870085184697,-0.343127793062705,2.28818659409,-0.588252605092665,-1.22885333469148,0.00764834551799,-0.368090989320945,0.201946535303268,1.64803449701249,-0.977855341203667,-1.16197375692688,0.282084422885935,-0.31990483399123,-1.83749413123342,0.329554380327059,0.456447992614485,-1.16309678340992,0.102221481427167,0.298978376423238,0.649573935912597,-0.199460827373287,-0.135680120153601
66.05,-0.525312888523137,0.143918700292518,0.946817603216366,-0.392025536106809,2.43106229491228,-0.641116522079117,-1.21034394368324,0.0167532153290969,-0.366592666814525,0.213997383164837,1.68204486640973,-0.992515487479372,-1.11976758502344,0.280047989095755,-0.213816429295919,-1.98079782709249,0.379636144470454,0.48836281115242,-1.1481802469381,0.124838447396161,0.306189794494399,0.66734701439966,-0.151928381934714,-0.122281593941475
66.055,-0.529892183200883,0.164129796058772,0.943058494467561,-0.427374894554705,2.58198349601433,-0.689040826164482,-1.19935870538178,0.00818090535986987,-0.358911742258174,0.224193230271339,1.70804287500046,-0.994098043775711,-1.09445629823969,0.296166029735843,-0.105470475201236,-2.10767287923343,0.400928680910397,0.448807590510386,-1.11865569103343,0.14250791732077,0.315699901241646,0.689734048469559,-0.116507663833947,-0.0939787407210882
66.06,-0.547304092593789,0.155243804995593,0.934621235501182,-0.470796432332514,2.71500348361008,-0.744922046136269,-1.18377148159606,-0.0110196044936885,-0.375552981283949,0.235821236156042,1.7310709476367,-0.987486026705994,-1.09630961534579,0.295800970542978,-0.0102894222100713,-2.30575970598373,0.391335555542774,0.355781377140835,-1.10277710676902,0.152922815377271,0.318362839964158,0.69946790585703,-0.0836313897833701,-0.0743690237106621
66.065,-0.565772304181978,0.1647806043084,0.925813221371209,-0.509400915796597,2.8896000572995,-0.805828046495755,-1.16535009390257,-0.033718410632325,-0.383372311900232,0.272777898033194,1.7484187268877,-0.989156257517053,-1.11332778983925,0.251018156880448,0.0525332736077028,-2.55924737247691,0.358111120732912,0.250595235884558,-1.09461603338942,0.159677144165731,0.30617887830835,0.665265912359405,-0.075434404435784,-0.0582366446978892
66.07,-0.561440824544916,0.150493066861228,0.946633888632023,-0.5660767711023,3.05147266455239,-0.864659921523376,-1.2209220050394,-0.0534410925124278,-0.408025341708821,0.311240620625891,1.77797487200878,-0.983955176467035,-1.07615736813619,0.186982663158121,0.163879147484639,-2.7965960306834,0.334410393895625,0.113436376764142,-1.0975992599485,0.150329925520058,0.290968789532033,0.602721969151073,-0.114130992243521,-0.0375319118481125
66.075,-0.579467273038223,0.171668053905249,0.983230932443169,-0.667316142229134,3.25845182540952,-0.916766225205674,-1.28344475587606,-0.0623033308158914,-0.445598521553687,0.438548273699719,1.79124804564885,-1.00573298931125,-1.09029270429511,0.0848321666754004,0.213687586357564,-2.7108959390054,0.340303494242611,0.0450902564445283,-1.1636059841733,0.126651018831842,0.284722757281949,0.564532595686776,-0.188407426160592,-0.0126846601953822
66.08,-0.599362906948104,0.196596641740103,1.00091348234701,-0.83818312785675,3.48031121786286,-0.925957566355918,-1.36071219137174,-0.00686125835967302,-0.434841978745995,0.591758566340573,1.81676308996808,-1.06626937484344,-1.17122009893193,-0.00201041534130897,0.27599851968292,-2.43345711113494,0.357126478543328,0.0195873380017461,-1.27159080425932,0.0984484530228286,0.273461490617801,0.55939100646841,-0.209788062325818,-0.00265590474009514
66.085,-0.632755221960601,0.227567742774909,1.01285701308274,-1.03792708092449,3.70429102537012,-0.951367330327354,-1.42158132673782,0.0295197084948636,-0.414699195084606,0.685579036655368,1.85237194712108,-1.14626566524439,-1.2367494761057,-0.0626327904286813,0.32668742279167,-2.20277714353394,0.371142476053076,0.00626341889420362,-1.349639504068,0.054849115655598,0.219855148072204,0.549768941104968,-0.116338683302333,0.00189053401234458
66.09,-0.643654324606057,0.189173723001507,0.940638518084065,-1.17150064454775,3.87182733866859,-0.996642535604229,-1.46664800936768,0.0289095326190311,-0.399130180341369,0.656811865487259,1.8863019812084,-1.1989099264116,-1.34893967195798,-0.14581031513268,0.433906256576159,-1.86975768864281,0.352100459488203,0.00430519346642577,-1.35752430939457,-0.00762262117541055,0.0977129811794699,0.584458630891873,-0.0159771191579577,0.00175610756502818
66.095,-0.651636289329775,0.169292844487876,0.900740198648053,-1.27557297792242,4.07798817239057,-1.10164763827567,-1.48675781575225,0.0159150339871201,-0.363545029297216,0.60697068771629,1.9258361573115,-1.21347117185792,-1.3997887017614,-0.175192453255001,0.51880146717656,-1.70635296359122,0.307319518379165,0.0598969308477944,-1.30561515708567,-0.0305391986367292,0.0069892467384003,0.669387120406376,0.012787892519721,0.0043160379338057
66.1,-0.611635826068928,0.202783290307806,0.929854539392087,-1.36036551685137,4.28043029965972,-1.20841445988593,-1.48699450852646,0.00497955724576362,-0.284722412170898,0.572325707540155,1.98337631218525,-1.18898630290363,-1.39714980898108,-0.146532109138807,0.576283786633619,-1.60807424324813,0.249557264021,0.188536179414426,-1.24556234094332,-0.0368686533455708,-0.0654213063724237,0.698455792967607,-0.0600314031684804,-0.00585738000311928
66.105,-0.592455274333783,0.252435008527231,0.911487384431083,-1.50069143933368,4.45834643655853,-1.27522477228348,-1.46506055700189,0.0244626811514517,-0.261549490425873,0.557796304000081,2.01832709023372,-1.13374998505644,-1.36423032783878,-0.070625372676776,0.588656522674257,-1.47241360900556,0.196837559343814,0.388542016293992,-1.20226723641145,-0.0391973290944761,-0.0849652343534602,0.600955507310626,-0.167622303644851,-0.0395303177159516
66.11,-0.655841259551933,0.247443518723347,0.885568289037797,-1.74102889407023,4.69259734830898,-1.42206636653199,-1.40561493849236,0.0637085350426791,-0.280387972706484,0.556384468637432,2.00792436935537,-1.06863510511629,-1.34410754361735,0.0219204372469752,0.566610417956555,-1.25230444345026,0.16720240988729,0.665839330871293,-1.20499977163313,-0.0328453631023574,-0.109270463607309,0.260262895754052,-0.224486018488479,-0.0850383489566146
66.115,-0.675910073470582,0.20217781436197,0.891281243483624,-1.93049750119294,4.93132309021984,-1.49122120609908,-1.33782700414645,0.0667192767207222,-0.284053304024921,0.57160583329941,2.00261165657877,-1.05436434559267,-1.32122122690123,0.0883298276079238,0.515322798351524,-0.920186978875626,0.154997897324184,0.952914287188689,-1.17308015108368,-0.0285305461469656,-0.104298931175188,0.0508027524500887,-0.253244307866742,-0.158972287920622
66.12,-0.686140683952446,0.159827363438528,0.891951731634128,-2.16020391502983,5.18756961475454,-1.55625599563614,-1.29251062196611,0.0576240991944645,-0.273263505901001,0.59048063795891,2.00475568106948,-1.10591037325528,-1.30798617151104,0.0928086325313632,0.454164126856085,-0.599213671822699,0.160064706619998,1.12922287540051,-1.14203224215455,-0.012382370863471,-0.072957144316032,-0.017120265166628,-0.242490806412294,-0.204290939063943
66.125,-0.693172897827255,0.172367317606595,0.904183136244021,-2.38356528923126,5.43243371145188,-1.60858076041641,-1.30313771245974,0.0664158411933276,-0.256060718180295,0.617367033312575,2.00871126853309,-1.17197358293332,-1.29891736271517,0.0647559948444481,0.369483389411261,-0.122354088297452,0.191342056736951,1.27911291144767,-1.12640653494799,-0.00268147425942112,-0.0466700345599857,0.00752597694666779,-0.205922485886573,-0.25305083460612
66.13,-0.721533552155349,0.191173923900486,0.930528383854485,-2.7952437079913,5.73878101838168,-1.69494615617986,-1.35564004728931,0.101893241343971,-0.194279935528846,0.653082181106492,2.00567183581234,-1.20024470733843,-1.29927603717776,0.0358297423819278,0.314666090953805,0.256634866995328,0.224006208751628,1.34071097465299,-1.09787077072387,0.0136235631911543,-0.0435692761620888,0.0880730217015321,-0.17979229641776,-0.273525257520938
66.135,-0.744930351675802,0.239062807466583,0.926999774117751,-3.09176920155489,6.00232612302374,-1.7696888690814,-1.41664135272538,0.130348040127605,-0.133046001783093,0.695413354438412,1.99612688699166,-1.19572046044928,-1.30465357859472,-0.00798329060511297,0.258511730499042,0.644724126502336,0.249775008704337,1.39182743871347,-1.07308681388937,0.0012940447945307,-0.0221627930313226,0.0890700890961393,-0.120346908617684,-0.265517018428107
66.14,-0.757416477752704,0.270556202793961,0.988734131435712,-3.45973859083,6.28684338025789,-1.86475409097569,-1.48621037387782,0.165443042557597,-0.0842280425096623,0.764243637481467,1.96918709480037,-1.18309277690182,-1.31732826755828,-0.0454968032856008,0.207387802217688,0.951990567708579,0.254151425209217,1.46176043163827,-1.06186546076155,-0.0337959998005376,0.0190442080181644,-0.0207547249846044,-0.0232554557929128,-0.251755286185689
66.145,-0.747571326319767,0.270163667874609,0.861837591583706,-3.79597444535302,6.54362186483918,-1.94801148894874,-1.54955036869238,0.202423069276351,-0.0338266156129805,0.863411101913889,1.95991931604986,-1.17131944363061,-1.32262908943942,-0.0587632919412105,0.1538738463718,1.14780112338118,0.248432824034204,1.56869059987653,-1.06435470081784,-0.0603685216081405,0.0449767806082397,-0.136433902115567,0.0740182737754379,-0.234184309562166
66.15,-0.731059739795598,0.303052195225015,0.795566640583369,-3.99282642518579,6.85652328827673,-2.01326312521908,-1.60653245215833,0.247802187936334,0.0563166063200866,1.021484603524,1.96512186573529,-1.19106113633017,-1.34404122242089,-0.035031860288961,0.0574073138302327,1.33075926136814,0.22273876561486,1.73995388355682,-1.07387137388727,-0.0800645081647669,0.0574198257033724,-0.277661353631263,0.168205988810529,-0.219641419191826
66.155,-0.667111490985555,0.366428581002825,0.775792838389426,-4.04361495571545,7.16015563332694,-2.03524136512459,-1.61997934178994,0.264431824618188,0.123913335730251,1.1017818299525,1.9510577945823,-1.2161696759093,-1.28361249985912,0.0031534650321455,-0.0497642275306995,1.47286654854623,0.215919953215326,1.89371279163884,-1.06268945244468,-0.0874185161375297,0.0553598413005888,-0.351289873547737,0.225624950455189,-0.20626951056413
66.16,-0.683280877391806,0.39290147131471,0.794827433356526,-4.32625918918813,7.54924705541771,-1.99360886189718,-1.61830112718435,0.27216792296101,0.12852093974484,1.08117051203532,1.92845136647022,-1.20454956793813,-1.25078132209104,0.0191351231310959,-0.173335870330427,1.45183030396716,0.267741725485097,1.99644722293652,-1.04610641467991,-0.101416625387045,0.043507406259394,-0.342530097326092,0.254493885266037,-0.177696497606554
66.165,-0.720469450287382,0.273097721976779,0.867707223595489,-4.50527769723165,7.90389369889397,-1.91860725265449,-1.57399204573223,0.253111077819577,0.13743946065026,1.10333250114295,1.87990378501438,-1.15594360832359,-1.25827150890775,0.0546697431767069,-0.206620048765272,1.47635706812384,0.185414231112136,2.03994965686421,-1.02637767370393,-0.121988183548847,0.0239385586293414,-0.310874186862353,0.248852547461213,-0.141937853281587
66.17,-0.754978428393849,0.0798945548542204,0.936600175143933,-4.38260578080779,8.13026438385148,-1.91127338699851,-1.48952051511702,0.209918883511534,0.113256068154987,1.10861149643821,1.81329408125088,-1.07509781027838,-1.26812540296018,0.0982582121399758,-0.323162918007955,1.42106973753611,0.109624957596728,2.2046113200972,-1.00547206398558,-0.140446635341816,0.00301967920045706,-0.256541590478418,0.227916006822034,-0.091650100982018
66.175,-0.882564612104466,-0.168482834205122,0.833161495466015,-4.24808581649923,8.2350006501385,-2.02619764411149,-1.37693793701257,0.179177381542016,0.0435710825637206,0.958401803663236,1.74012454794927,-1.02960181767229,-1.22294098418412,0.0601575245814162,-0.372531329532827,1.27691974509072,0.04407283785911,2.40386091085865,-0.981365446405634,-0.172926099050908,-0.0290816195237485,-0.212793782393094,0.208718117896922,-0.0323264509706237
66.18,-1.09909618931513,-0.281516956059362,0.852826454743985,-4.14515271579945,8.20054841292319,-2.20173775626481,-1.25971630955123,0.160960130416959,-0.0760699699311952,0.733839224491531,1.6624482773246,-1.02616467352942,-1.16595889988506,-0.00717814781465614,-0.42643685814084,1.21742974388132,0.00623497719395257,2.45065808161976,-0.943211181139356,-0.22595077072532,-0.0633117297023093,-0.157667302893203,0.199330697233027,0.0326840583852132
66.185,-1.54612977686476,-0.465140178540506,1.2764099379126,-3.70323912521018,7.79515158018986,-2.34249901771545,-1.142378720564,0.106113788105889,-0.22898564204688,0.486880112836909,1.62405066925184,-0.967550632142751,-1.11431156980679,-0.065733612086147,-0.47402687277925,1.14640639855836,0.00512021161114645,2.45158065262981,-0.909766700788341,-0.268297274814982,-0.0894780520841678,-0.0704066291266825,0.197272741502195,0.0484959174765838
66.19,-1.64876735267805,-0.332332189916273,1.23161700148591,-3.55519509249938,7.31461758605545,-2.34192885733229,-0.994384136973672,0.0170516714267872,-0.386126281486721,0.260358756908939,1.67347815212417,-0.885209171203701,-1.06495779656201,-0.146883803626403,-0.490044091865059,0.993005438356206,0.00208057913604553,2.39992924025146,-0.873874862681442,-0.32931384637363,-0.126649007504754,0.0203275710458687,0.201107838591135,0.0981922964258408
66.195,-1.83924038342511,0.0124121641999411,1.25184673485815,-3.61758080551251,6.77388158433233,-2.1946007602362,-0.826805854579003,-0.0498408197717598,-0.546757359136184,0.0829011634776061,1.80140684433096,-0.813531812435952,-1.04640997767351,-0.203233617617863,-0.499450853797866,0.827633749280686,-0.0320039076286867,2.31877490262161,-0.858329097104711,-0.366852730837742,-0.14260694499012,0.0784702126032826,0.201552127553589,0.103407489634338
66.2,-1.89234250230618,0.0487783292096485,1.24065257673429,-3.23224096707851,6.14505771109111,-1.71020806277657,-0.742849232109463,-0.0597583785382331,-0.64895670487909,0.00260386797757754,1.89849052644794,-0.801301484757565,-1.0516253472334,-0.243836844399201,-0.497598138109775,0.657244247603264,-0.0916105126238023,2.24052124456845,-0.839859101456369,-0.412722462719584,-0.14951209765601,0.0931409746408463,0.223254652082033,0.104351983679951
66.205,-1.80802752946377,-0.127021578319945,1.21241606530446,-2.65744206960973,5.52607523488969,-1.24792006677627,-0.680640135787773,-0.0307132783396435,-0.701035214635767,-0.148538588351426,1.94133613756767,-0.837400456613028,-1.06837546903461,-0.27243202529031,-0.487019095135791,0.472403531689754,-0.162958612289666,2.21358744499588,-0.843385260303276,-0.447335793425602,-0.143114500291961,0.0802081290316552,0.280654789938667,0.0848201099647407
66.21,-1.63925570158959,-0.0941758882241328,1.07777969076115,-2.27967882265588,4.84430998509302,-0.998199211150343,-0.660805001793795,0.0607933226613002,-0.791529959653908,-0.4164156987645,1.95684333547423,-0.92818978714198,-1.08305291847265,-0.296642488758922,-0.467268425353869,0.274640919109252,-0.250578641797125,2.2000015374546,-0.848743171869265,-0.44457748752446,-0.137851346651154,0.0140030979141235,0.329145376634403,0.0681043438806986
66.215,-2.04262048621779,-0.146475049941704,2.06859256219395,-1.61376290696717,4.25505896459235,-0.801616090864891,-0.685238140556292,0.108186565662685,-0.740735074155129,-0.688349709937671,1.87120839075224,-0.93867352000208,-1.10135026620768,-0.335272760502309,-0.455404589111066,0.0526842176095056,-0.351167166235935,2.17797019581376,-0.872579894498838,-0.426000367448077,-0.131845811871877,-0.0669369692553918,0.397507262672909,0.0440211213689109
66.22,-2.04476830555571,-0.193372399203938,3.22629345334524,2.10131597510925,2.56985021911686,0.138119529157577,-0.68692920517611,0.0828762880892857,-0.776320150274561,-0.962211950636955,1.69427705700377,-0.927531183907418,-1.12108016865555,-0.362357694003552,-0.449991217119073,-0.113670965011869,-0.422405158914377,2.13196834246546,-0.905658683019418,-0.408390520142169,-0.134979507683631,-0.133566468159348,0.464990559719754,0.0138578944147014
66.225,-1.73529443759098,0.94664029615134,2.5734058406149,1.20357213638995,1.24840191544603,0.279077094491759,-0.72998115775128,0.060706812046188,-0.843458362969516,-1.27192431686554,1.5482305865554,-0.861648909464272,-1.14615356359916,-0.388093237546365,-0.434537008872265,-0.263677193391896,-0.482470192764904,2.04745082337407,-0.93829179884008,-0.363636706854763,-0.147623599182495,-0.188178392838095,0.501313250917042,-0.00215527471798422
66.23,-1.40404641716667,1.36957460145275,2.41061389207968,0.563286404199211,0.216295334827936,0.680977703652042,-0.788723288105098,-0.0214032883109787,-0.589004882890836,-0.947065936212591,1.25473002787854,-0.838965919985223,-1.16563978237551,-0.402019333679071,-0.435805009573118,-0.34374494802022,-0.5008289565988,1.94019360353519,-0.943330425465611,-0.331736989599834,-0.131306950013045,-0.250055855480503,0.524073724500395,-0.00342383156532703
66.235,-0.928775727832589,0.714246916218158,1.96918003413205,-0.0673309252512981,-0.718028757535539,0.773183777178928,-0.783895688747295,-0.0281008338970457,-0.33154722474804,-0.275322915792773,0.884431827301502,-0.831662460000623,-1.19599536334757,-0.399564177555795,-0.421372163070568,-0.451303806127044,-0.516706449583561,1.81712566515723,-0.975016617997336,-0.282591310745678,-0.113713317544377,-0.337439109414555,0.544591494962946,-0.0301070729721951
66.24,-0.614742267299,0.612909193555321,1.72303089638528,-0.17158919428313,-1.29831976960413,0.737399688341191,-0.758290191638409,0.0341373234697229,-0.197680113304251,0.272499402663798,0.741725862561568,-0.827026527860316,-1.22733723390412,-0.384178973417356,-0.405525878098532,-0.541648175377624,-0.532580739788344,1.70497203948552,-1.00769146880217,-0.232592629625824,-0.0975886707704648,-0.429104224237956,0.54955400841217,-0.0698253877522753
66.245,-0.424271235625006,0.499676230047682,1.42633032037692,-0.217070965045867,-1.71343014766194,0.853897761437554,-0.726848051254693,0.106234384847594,-0.0505955831860792,0.504080102575192,0.564681077877028,-0.791103063766073,-1.27178300248216,-0.340868100989312,-0.397010399086793,-0.581698823915449,-0.540479753456857,1.64259696321385,-1.0396175012381,-0.183694663843793,-0.086977695579265,-0.510733166649684,0.556661171067394,-0.114193436641895
66.25,-0.208136504600323,0.28421189590534,1.11844240656094,0.0168511986964883,-2.04051873059977,1.04457883848134,-0.705515929515504,0.13096715152365,0.0824107285327825,0.398780972626944,0.369651450450751,-0.621533380745561,-1.29581168373692,-0.28420259767402,-0.384779742305295,-0.586369224372783,-0.536376147741487,1.61787968729816,-1.06219131219376,-0.163924546922102,-0.081887598244702,-0.52721636570417,0.553129936967577,-0.154360829658069
66.255,-0.0440499783448865,0.179390518349763,0.906586552570318,0.361428870595142,-2.21133358676855,1.25133285776017,-0.674780408268823,0.0760631056125845,0.173974375757602,0.163385797558395,0.172834102508649,-0.377720753401517,-1.30021893661587,-0.238591935054676,-0.370041377835368,-0.564047775309412,-0.527741133046062,1.61566381459569,-1.09234465654433,-0.135102973704895,-0.0868350219921655,-0.512029759790183,0.543907777497784,-0.198985386379219
66.26,-0.0265915131389848,0.0989694887026354,0.860675619086071,0.687069454219651,-2.2643448186656,1.44616640596128,-0.641956477047235,0.00582525815768818,0.119639173834008,0.0276984992587501,0.0152878590060682,-0.208389765339293,-1.30288474108716,-0.163320396766009,-0.343430011650148,-0.436897623002305,-0.501220531943941,1.67281199973518,-1.10415520890539,-0.116143554385024,-0.10015886578043,-0.487941880170631,0.548245548856367,-0.235875339504913
66.265,-0.0705240729069646,0.0402773484160555,0.851289595319708,0.998847579021344,-2.32560166295348,1.55361612312429,-0.589697958878914,-0.0600479232565792,-0.00513877652282741,-0.107178968440098,-0.114959018170183,-0.106504128417985,-1.30157253713337,-0.130324895419643,-0.327075705557785,-0.29459854340786,-0.483707027917728,1.74396150204859,-1.10276477934848,-0.113132575880675,-0.112733931077625,-0.448188801473653,0.546604530232541,-0.265633645996312
66.27,-0.0560277470657711,0.0158012362258229,0.807743043084602,1.12440789912578,-2.4396098564291,1.583104264929,-0.53753875920432,-0.106899347097817,-0.0299776003896048,-0.169838184355473,-0.20830682254056,-0.0115887638079434,-1.25806347055796,-0.10630393074894,-0.300195935443812,-0.0178244589219576,-0.449717310710771,1.80116046163495,-1.0904832497208,-0.108258550765474,-0.12641411307127,-0.425976254184871,0.547078749815251,-0.276721813639197
66.275,-0.0238198592119731,-0.0180062558894922,0.749345762389167,1.23571993607955,-2.55573169920606,1.57802677784908,-0.484470877571232,-0.136978497507436,-0.00617061867416329,-0.141510845358024,-0.351630042215224,0.0789205516853054,-1.2103699684056,-0.0876584185353045,-0.291981687131349,0.147821954719651,-0.389301681792193,1.82193713352957,-1.05031004955239,-0.111514468149619,-0.127900182373694,-0.414648756149288,0.559371106532844,-0.268433013997131
66.28,-0.00126250173205676,0.00361144350295638,0.713400505166415,1.25136530299723,-2.61454220936101,1.50813218335285,-0.446126629011088,-0.13935188100542,0.0040004767081715,-0.0799416851456283,-0.518616347983222,0.147803756680632,-1.14588738495369,-0.0941136333497833,-0.252635870631072,0.304117252383214,-0.355209142449261,1.80109357774711,-1.01009114770208,-0.114348062949482,-0.132333497189445,-0.40404622952009,0.559189691186555,-0.265185318876477
66.285,0.0173352937987459,-0.0117764710138848,0.703905472176351,1.1790045833023,-2.69674293042438,1.38460675159206,-0.422375876701789,-0.140823687363754,0.0227660873207735,0.0120263798425633,-0.659536070011593,0.185798842725497,-1.08581557269988,-0.116178149110861,-0.207861917850732,0.458639863118239,-0.339527352776755,1.77275795258326,-0.977157845470395,-0.119063254755768,-0.136553424640299,-0.394541195286129,0.535114903425,-0.249980769229856
66.29,0.0350853156656321,-0.0659932383513059,0.694665225942833,1.11567342281342,-2.76083740635018,1.27453031234908,-0.424500550950697,-0.129335130367183,0.0487621599117398,0.236233768806445,-0.833808414961206,0.28316758609034,-1.03435136287913,-0.129343972960469,-0.187349788081421,0.577907753626772,-0.318786715877813,1.72539637611035,-0.956843489916376,-0.119918190874047,-0.136131899095935,-0.37624091689638,0.507099573454904,-0.239065596392794
66.295,0.0232026057757883,-0.156102197781194,0.717107436470283,1.1689164705627,-2.83590791981862,1.18448283496592,-0.431564374762009,-0.144372871592239,0.0717715650986339,0.415728198232368,-0.992401943498519,0.388993746611977,-0.977288556262021,-0.148362974931254,-0.155887705712009,0.662640817961676,-0.298727173575953,1.66838397607932,-0.922564238998994,-0.13361716739482,-0.132433992121228,-0.36188483883025,0.453332006203713,-0.224447191943766
66.3,-0.0229951318006605,-0.226527946246011,0.791400265459709,1.35525530908872,-2.91076233914232,1.15765583515167,-0.432459746573179,-0.178947382606771,0.0399020919464313,0.55380082136035,-1.18978549361932,0.502241080982476,-0.940915491411435,-0.156260101085295,-0.124730462859652,0.733142874004574,-0.285584847458292,1.63739579054197,-0.886371055557459,-0.143944515975917,-0.132443829303168,-0.348894605747426,0.410591486849122,-0.20791716359032
66.305,-0.129226415588814,-0.302574817077411,0.911112432072392,1.7044521259981,-3.06184363397883,1.13444962517923,-0.434585751904037,-0.221546722529802,-0.0375547602363161,0.614669750306735,-1.36249105379424,0.570289218132112,-0.903617768673537,-0.161500852511089,-0.09040318809177,0.857521687665129,-0.250915112275799,1.59962865273287,-0.863409092419842,-0.171031288071353,-0.121782639502814,-0.34068434087566,0.375558824553644,-0.178719857032395
66.31,-0.202531534087708,-0.29735862657458,0.971157701678117,1.95627734674652,-3.24826338288789,1.14178003219796,-0.424961604274633,-0.265134472311624,-0.0625035979690595,0.665049706905823,-1.4866417153373,0.57795750077875,-0.864493763782525,-0.161015764659982,-0.0787716459228833,0.96076605578126,-0.223742126797918,1.58975939907742,-0.83969802448294,-0.184838581957761,-0.102636831340161,-0.330787003040314,0.35544112183147,-0.154139558097638
66.315,-0.280997686718202,-0.24939702463291,1.03516157379614,2.1715519495672,-3.51384744521729,1.15399583231341,-0.403130684472811,-0.291537501878704,-0.0698180553242327,0.686740902489744,-1.61239856858311,0.588938742181174,-0.838203726294806,-0.14690321971712,-0.0710736872432287,1.06990349376395,-0.174162093821922,1.5934303078657,-0.830057503134562,-0.202499075367155,-0.0890022656885542,-0.33465923953497,0.3415040359676,-0.124088560392062
66.32,-0.304150189034533,-0.21807953405293,1.02851537337523,2.24880268202669,-3.79061768458094,1.157037327051,-0.376455406926938,-0.304161045166475,-0.0713446130463472,0.641687137497997,-1.74812865244811,0.639982475106035,-0.818507845090912,-0.1378244507979,-0.0682338310894733,1.17188175294088,-0.123391028802751,1.60717498915684,-0.821082065299149,-0.220846303884079,-0.0760375666010566,-0.340193751857613,0.337975081398155,-0.0968536115010588
66.325,-0.254138553517139,-0.200134062288681,0.94087353072226,2.1955055773792,-4.02472398112414,1.15396604794794,-0.390141900549231,-0.300202838587909,-0.0676539367517024,0.551401665069742,-1.87979226079928,0.710653082245079,-0.794591385000344,-0.127415696023688,-0.0637477635766532,1.23187989527249,-0.0750719745409378,1.6323973319194,-0.819434267839672,-0.249214485070703,-0.0673706566592528,-0.332415710585338,0.338771823010375,-0.0836365961754501
66.33,-0.167256392078074,-0.240793256574561,0.821984675522457,2.03583141102723,-4.1821026471214,1.12352121091643,-0.432098165615468,-0.282950411072301,-0.0119710978007467,0.446898153871843,-2.04323442383978,0.785612582734794,-0.782382905176342,-0.112911690137372,-0.0740070713109222,1.27848375301487,-0.0203133582902448,1.62908492486635,-0.821154349338521,-0.257570528267315,-0.0536514171978032,-0.33278307747668,0.329469899770056,-0.0692814898920336
66.335,-0.108998625878996,-0.253217162639346,0.733942449129807,1.938648887024,-4.23474320976706,1.08606546394898,-0.458855851699586,-0.279608345794855,0.0289195250408966,0.399373586029121,-2.13221658502053,0.825047867682268,-0.785493526304156,-0.10971350710395,-0.0795778052499882,1.28151676145934,0.00698367300905562,1.64526093702007,-0.833982543996654,-0.269282343274997,-0.0491369560436273,-0.328740031674253,0.289039417089013,-0.053109297436036
66.34,-0.00141955916177176,-0.325444746235047,0.606517913482854,1.75816699386126,-4.20332121900579,0.981193284531914,-0.552127929732739,-0.281488800686423,0.0980832237571305,0.233129356989908,-2.34547490415106,0.926802503023423,-0.790846837120083,-0.116996418468694,-0.0904352987954796,1.26039780303802,0.065849335448949,1.67026718746626,-0.848463628217069,-0.29272084390857,-0.0389175390534137,-0.313218748779028,0.220286386696388,-0.0449702747758063
66.345,0.0207851262543042,-0.34366388114826,0.581020680777144,1.71176002022219,-4.10977787383384,0.919228878134782,-0.612590025338248,-0.300153491515566,0.0989801957756594,0.122252259486447,-2.46920509029497,0.995624233213211,-0.809023488664105,-0.131966253851837,-0.113036775259809,1.2026754593556,0.107088023525825,1.67675617578631,-0.820081120018182,-0.281822389095498,-0.0320972520634911,-0.292213687434454,0.141966729209351,-0.0325921789190221
66.35,-0.00202207822872294,-0.360050324641526,0.613055808414594,1.67661340262646,-3.99726750802852,0.846423734226083,-0.674489033826298,-0.32979458897998,0.074119304380746,0.00703433254532663,-2.63269988860655,1.09627185863863,-0.824590614370825,-0.153794292699311,-0.131920330737192,1.1590289936958,0.130641221013846,1.6480577892712,-0.878692595124847,-0.290108365931034,-0.0179314640797798,-0.279645815300124,0.0751139048816557,-0.0707390298181628
66.355,-0.0650922481392756,-0.357301398591901,0.684940423473606,1.6334791698789,-3.89666529467745,0.760932065658124,-0.715461751895403,-0.359657643564693,0.0471557910370526,-0.0297203465224502,-2.78876764065411,1.17212565882741,-0.840181529385983,-0.176397418651728,-0.153939270384128,1.11509105494475,0.166777605619352,1.61143998127113,-0.877852555523172,-0.305964146520301,-0.0145065459607011,-0.216602243639383,-0.0270660600335801,-0.117364538159716
66.36,-0.133978469728677,-0.324055295916728,0.753427828758094,1.59616122482829,-3.84111662032288,0.684106307636115,-0.757117500794921,-0.388930915753246,-0.00636092380030905,-0.0185010492743778,-2.93925361999162,1.22128063019085,-0.847888960661731,-0.191920343167531,-0.161462803817831,1.07421236652518,0.208412850327554,1.57271314266986,-0.896063713472617,-0.277206361712415,-0.0198261544619418,-0.184850987859124,-0.087565686144202,-0.116211623034822
66.365,-0.231814261150406,-0.295041601176631,0.872985184267311,1.54680034537796,-3.82678403714726,0.608923934113049,-0.781215893519925,-0.396687553946764,-0.0620327838323112,0.0526314609213567,-3.07868492821092,1.25121842090482,-0.866015536632427,-0.204307560576027,-0.176596599516505,1.0787649168634,0.251102480243971,1.52758707983856,-0.88516513452778,-0.196659045635029,-0.00682313828755062,-0.252136327758058,-0.0464913256927606,-0.0644845123690042
66.37,-0.302037052680483,-0.292569387745172,0.954748730367017,1.51913126827775,-3.86523724296705,0.562636113992558,-0.794398722386192,-0.391070524401819,-0.116698655847032,0.169516610548386,-3.21738217301791,1.26321047765458,-0.875583416877769,-0.211698672692041,-0.184333808156741,1.11215312795383,0.292126860124431,1.46612075229914,-0.930221222515055,-0.270067001928189,0.00967990504557032,-0.272588354046834,0.0928514627136032,-0.0182581688706874
66.375,-0.369055957015269,-0.314522400040308,1.04218023023812,1.52979873117012,-3.94019673362132,0.519366747351064,-0.813395842133504,-0.385637308149057,-0.146460514822289,0.296565814764469,-3.36210049421267,1.28156213447854,-0.877787947622268,-0.211505788245887,-0.185696308864398,1.14498083206887,0.323329334384388,1.41018747905448,-0.910445516352312,-0.268727236349123,0.0277745968067402,-0.229104692782326,0.16691936209851,-0.0418218108047171
66.38,-0.433764636066712,-0.356338844160338,1.10541568078021,1.59173709102462,-4.02539768746469,0.48513718995015,-0.828869901253222,-0.375585877145093,-0.183234023989735,0.393417181990047,-3.50849501748568,1.30134879269205,-0.886293109177026,-0.203346619672187,-0.181158067889444,1.21907333872583,0.35348653196574,1.3457027895501,-0.909997719010247,-0.255533800274024,0.00495863787386303,-0.242111589167805,0.183210822659051,-0.016763634551601
66.385,-0.484768056739621,-0.39578916176255,1.13189598163197,1.68669193022161,-4.11414982681047,0.452578950936188,-0.837534322969927,-0.356226260418755,-0.225163431562493,0.488590447312857,-3.67575355420855,1.32330512044554,-0.89830242395345,-0.201407341049377,-0.179903115910945,1.2935847614417,0.375005180773634,1.28955261889858,-0.907773932864283,-0.252906446726545,-0.0220043689918647,-0.273091403430118,0.216499732352599,0.0051471242963237
66.39,-0.517348573264769,-0.432371955459451,1.14483158595414,1.83255005770904,-4.22658594032,0.403625794659698,-0.852008996514853,-0.340059728593519,-0.240394564810064,0.617386052613766,-3.79023489945137,1.34475705645066,-0.894608926639675,-0.193441465562056,-0.172873443625478,1.36401491692734,0.383989760396508,1.22596411011177,-0.907914076393728,-0.253603810773804,-0.0445925129696751,-0.306234691409973,0.277982108059112,0.00915247601320938
66.395,-0.53214063022399,-0.441407760357886,1.12510341768951,1.99227794080416,-4.32058690060238,0.329588872464233,-0.865688588536484,-0.335588038352399,-0.256045071307995,0.77950535977009,-3.91684886547482,1.36363997237739,-0.890720631595965,-0.188452281829227,-0.168893286052796,1.46153079777643,0.39082286322933,1.12905361047166,-0.905828646045334,-0.258555221805384,-0.0411168620929253,-0.297044013424234,0.307604324541535,0.00110678678874869
66.4,-0.549405840095652,-0.424950479743688,1.09478386963305,2.14142918659754,-4.38797058751893,0.226854171895024,-0.883771841269111,-0.325099285834487,-0.258814316636834,0.223491447497857,-4.02881210304145,1.37594181315992,-0.888134134203662,-0.181677073060379,-0.168965278420782,1.52624670118286,0.390277439017423,1.04002738980727,-0.920051964508528,-0.254956695279059,-0.0345862979371888,-0.28268001583806,0.312538664110562,0.00150779404855386
66.405,-0.577626489849883,-0.38988469563373,1.07237578878644,2.26278827362595,-4.43015677353676,0.10949885707242,-0.917005610369709,-0.317879088816176,-0.257616205114593,1.16640654128325,-4.15806271970307,1.41336444403199,-0.892224536608096,-0.173831184004196,-0.179987951147708,1.58475852984,0.380560270961133,0.936261110749867,-0.921485502085082,-0.25651632867479,-0.0296801492420908,-0.25490868699026,0.295635026536498,0.0115206870039705
66.41,-0.655091087781945,-0.315109488716842,1.08626244711539,2.42017919196694,-4.48548355784935,-0.0463846828102353,-0.925693100815327,-0.298213572588419,-0.301583471140445,1.33971762927674,-4.06753340090876,1.48497580883484,-0.889142737049951,-0.173937527305197,-0.200242831504776,1.59239218378077,0.368121938782844,0.869078892535759,-0.93452859318213,-0.250319328254222,-0.0222626705882804,-0.22901768922323,0.312495748081,0.0191213438045414
66.415,-0.714167825280038,-0.257881599827308,1.09143422907803,2.49625144286524,-4.54447657495646,-0.16678064797635,-0.937943956865885,-0.286655796492704,-0.336435943274997,1.51775635162004,-4.39696155565839,1.55130628981218,-0.883203510385394,-0.178912514975989,-0.242079115677249,1.554197030944,0.356059944918005,0.783164104483367,-0.933846776594021,-0.24837360991593,-0.0321864875867495,-0.207945223437068,0.329845207880212,0.0268910697381648
66.42,-0.78174542076609,-0.170033683191331,1.10177102719663,2.55997524977929,-4.62487505494239,-0.287248814256231,-0.946458907204172,-0.282433996234102,-0.350372659498311,1.65970536198219,-4.48355897701381,1.61897594640104,-0.878498525451476,-0.184926405259745,-0.274551719721132,1.4968000593003,0.345263907232351,0.705389415540747,-0.9303313141885,-0.242969985356366,-0.0349808765064314,-0.210707285060513,0.363903858182365,0.0409714186444351
66.425,-0.858367148042217,-0.0614266259009848,1.10267240041088,2.58167612479832,-4.68168689348024,-0.372882390531552,-0.958079631833446,-0.285861889015217,-0.378443411160298,1.75031054232156,-4.57378940811665,1.69750008077796,-0.868907769597665,-0.194375300799793,-0.306342675953397,1.3621042897767,0.342423766851425,0.588699822174146,-0.9299558752002,-0.247700024189774,-0.0436388205531757,-0.215892393350085,0.383534483784658,0.0484892032821797
66.43,-0.943464977355276,0.0981728717415472,1.09612796736727,2.52294657223838,-4.69989875812364,-0.420185000446583,-1.00494590367819,-0.282795821084523,-0.404837361567798,1.80284930053229,-4.64416272104156,1.80825327050525,-0.855896808087012,-0.211167884621783,-0.327605267493657,1.19336258366735,0.339188956990845,0.474609950930129,-0.938276697999104,-0.251849397472769,-0.0471562999614808,-0.257137683502338,0.402670778455147,0.0567992450167924
66.435,-1.06329145540154,0.293471068339217,1.06073759785673,2.33184887388339,-4.73865703879844,-0.409772759946394,-1.04365563386198,-0.269449376975133,-0.431254963424629,1.80393214127001,-4.68516479395011,1.88481555549983,-0.833618957039553,-0.214915919203217,-0.341603028649172,1.04183956081237,0.330023202180713,0.375248583342865,-0.948764636771946,-0.245935373005177,-0.0556923961444721,-0.341710831185877,0.421105021446533,0.0732999157961882
66.44,-1.12063220344765,0.38417241345045,0.97026258726752,2.12972692290046,-4.75542587897994,-0.346603749851639,-1.07542246892385,-0.24679968816531,-0.439904089981345,1.77791763022053,-4.70881577975762,1.95329809911977,-0.787575146844479,-0.218017834503808,-0.359016756411295,0.804153441592312,0.305563684533809,0.225232261311562,-0.957009820364439,-0.245958844890423,-0.0793090217450461,-0.37964866753974,0.441566496758469,0.0779759287834167
66.445,-1.12930448365498,0.460951548733272,0.806352984007105,1.86599712044499,-4.71608819644275,-0.190000848934875,-1.10824046581002,-0.240349407653725,-0.416476101443485,1.65653665595808,-4.72142248050296,2.03230410471721,-0.754447530751284,-0.210407651717024,-0.355631923975184,0.643004277125479,0.278200566558189,0.130570445825921,-0.967295206810727,-0.243262597586427,-0.0929637021610972,-0.443606131990571,0.416195947071007,0.0942068480854324
66.45,-1.0729569955715,0.520343937250352,0.648296851290536,1.65457980283331,-4.57168865482725,0.0262896734526135,-1.12793241167577,-0.22774431927701,-0.3988944153043,1.46895088461577,-4.71877611803585,2.07503740565635,-0.677581455115254,-0.199717623839279,-0.32081374982786,0.397054945437204,0.220005432347806,-0.0202748210374052,-0.970851704852697,-0.228695466577239,-0.0972325440631389,-0.453614053860015,0.407284486396854,0.0943143194836972
66.455,-1.03932955754948,0.589350732721344,0.484260212630119,1.49412119468432,-4.31910384880253,0.252779815387288,-1.15160676164118,-0.194088169267683,-0.410353160395554,1.16643551519706,-4.71264033758904,2.11056762154062,-0.611543462135722,-0.189033287717205,-0.285552012167485,0.250697479383219,0.157945594425746,-0.149415939315092,-0.972952081144588,-0.226398239662254,-0.116552791457515,-0.452382856323654,0.377296230927424,0.0930750315893431
66.46,-1.05417544023672,0.72617546359165,0.412584682233327,1.26702231800413,-3.85462109786208,0.627578565441948,-1.18077624665654,-0.149647602910158,-0.431652713419036,0.859520036335037,-4.68083397322537,2.14756885658719,-0.54200979444783,-0.180005379411717,-0.274996478394081,0.142385860844579,0.0999915438304424,-0.258600500297263,-0.980362599541085,-0.230465301906621,-0.126695701117344,-0.472745617305318,0.337612547587336,0.101064955600823
66.465,-1.19728009670817,0.848680238270426,0.446315366233121,1.13536215341662,-3.5618687405496,0.898344910657517,-1.23404822469046,-0.110266480035735,-0.481935064597526,0.485725249481804,-4.65467366013295,2.20475364975539,-0.484796614783619,-0.170782250285973,-0.276137731057947,0.0313454212466887,0.0517046218334754,-0.367636716519408,-0.971786362643862,-0.220674599318108,-0.131801807388153,-0.500767258665476,0.269475924894448,0.102465455936859
66.47,-1.37317825140116,0.956339158230691,0.526416888393914,0.903987719925823,-3.12384141347551,1.45214490114922,-1.26757746295914,-0.082970039211048,-0.575548554143637,-0.128464875806219,-4.60110166341389,2.28173196006721,-0.453556153383586,-0.152608405144561,-0.275110760345142,-0.119801711400056,0.0160986226191116,-0.429661898936908,-0.973172305980665,-0.205702708751004,-0.141671788070231,-0.5370888237964,0.211914844011983,0.098756469215945
66.475,-1.49185256051432,1.00434709245682,0.57821181300459,0.664052479642616,-2.79548010741694,2.00148369829455,-1.31591384201115,-0.0613132900328606,-0.653479983760429,-0.605751875556326,-4.53256414445782,2.28406055365287,-0.439502197685854,-0.132633369769176,-0.261383220668304,-0.258609375989712,-0.000614868889900945,-0.468976851640157,-0.971827743476946,-0.196068976607181,-0.151536470799894,-0.584340965048579,0.142980337257474,0.108512901884237
66.48,-1.56194066724499,1.00208517158622,0.59718510487899,0.478652522995909,-2.51886372017922,2.48575662107563,-1.39913037048005,-0.0414561690429429,-0.679959527535691,-1.16322488884818,-4.43379473694615,2.22881976564148,-0.444063336981923,-0.110836088633549,-0.234282157529521,-0.319197509796598,-0.00366552430506548,-0.489464811363316,-0.957776084364854,-0.204459252973347,-0.155055543590066,-0.656039122141173,0.0829262682780315,0.110338198175612
66.485,-1.61374540676677,0.921335093869452,0.577096966194929,0.278693512440913,-2.16851491562534,3.08968691009261,-1.48510079075659,-0.0118073758608171,-0.688741777358503,-1.66529336719252,-4.33246037189495,2.15226576282715,-0.460277881786627,-0.0735973939422164,-0.181022564859484,-0.277261343258176,0.0145344077607159,-0.507101772801291,-0.944357983794324,-0.20003767017886,-0.134245839642394,-0.716265528944461,0.0444726643293301,0.110849273608707
66.49,-1.600614184075,0.843434021238622,0.529963925939976,0.184175548168076,-1.9271731355396,3.51180600035011,-1.54875573910965,0.0217719172182241,-0.686289351801392,-2.06212966203836,-4.25125531404445,2.09473872639991,-0.49862460357763,-0.0425333373083194,-0.13976520097023,-0.208653979824856,0.0311560538429933,-0.512832383006922,-0.922340105126403,-0.191792772005664,-0.101241598395702,-0.766907262000308,0.0165382048358609,0.127834748202977
66.495,-1.57748679119934,0.732649445301926,0.452183034999577,0.0462606611683485,-1.57138231480048,3.88057690987448,-1.60356707673106,0.0734505656218549,-0.684197875864505,-2.64491439055232,-4.14228032797797,2.02983925035382,-0.548329623519261,0.0108269785386318,-0.067972092387013,-0.102441433732909,0.0608497509289559,-0.523160016633742,-0.934217648892976,-0.18945338751992,-0.0781197226116144,-0.770596048817231,0.0090788392440167,0.13289898665502
66.5,-1.56029090124992,0.612899327364813,0.377225646442248,-0.100159445711003,-1.16392727060943,4.19233640119145,-1.62921681613008,0.115954157450536,-0.689439293360077,-3.29885546859607,-4.01649680669922,1.97111251900814,-0.614155124457741,0.0710042486119168,0.0170568318519998,0.00528535883735231,0.101665394429811,-0.546382217087234,-0.952659168681623,-0.184977645102815,-0.0483442034449863,-0.730652915891742,0.0121520844770529,0.134675552516404
66.505,-1.59821139140474,0.502513449940849,0.368902392950446,-0.209972664304408,-0.799433019797991,4.41490834498886,-1.61180842062019,0.119328313970311,-0.711185532653951,-3.82093130533233,-3.92080390529401,1.9303139847179,-0.687326587239568,0.122562777969771,0.0810446573778125,0.0293633257753018,0.123221937480117,-0.589867531867948,-0.95892890058486,-0.185297910603491,-0.0192840585047483,-0.700562445337774,0.0091970592461552,0.164140888115424
66.51,-1.69262197284376,0.340105538986632,0.402509375254689,-0.253383750889428,-0.43004317332191,4.57673126995447,-1.57899902723258,0.110188583559214,-0.772877243509671,-4.23856975336457,-3.81749842622174,1.85799310012949,-0.762435648386926,0.170931411739626,0.121480610500704,-0.0398406700046274,0.141307085785253,-0.641326662579335,-0.979867838625339,-0.201253593612106,-0.0117428909929913,-0.619121027064751,0.0197382900339728,0.178557430855545
66.515,-1.77058512050034,0.249756070561119,0.443127960097412,-0.234526894617008,-0.206125229271806,4.64444099991806,-1.5401983770113,0.0730198488056071,-0.838727153137959,-4.55994169156301,-3.71153209329008,1.76539999023042,-0.842336325396181,0.230779002375617,0.144570314436187,-0.213040616475633,0.149092734271876,-0.735156105655603,-0.980248246370947,-0.209575938638337,0.0105586884571933,-0.621487092050777,0.0312556434849152,0.179134718938093
66.52,-1.84450277195889,0.194797643887625,0.47414291354194,-0.202577843160274,-0.0376647748424217,4.68342308195956,-1.5103989620187,0.0237922664987663,-0.872727163850357,-4.71531271801415,-3.61940706823448,1.66469989078863,-0.896747946868971,0.279813691619489,0.143744255782672,-0.371270716348694,0.148447152300359,-0.815958005124802,-0.976309367275624,-0.211445398816912,0.0259677826578355,-0.639083719019518,0.0287140394287806,0.180630065063217
66.525,-1.90687174682963,0.177709513704266,0.485186067654326,-0.19938263442422,0.0829544036590898,4.68661819326467,-1.4903839621741,-0.0172993474321273,-0.89409145023085,-4.79177586347393,-3.54294361189709,1.5691207258057,-0.931517210725496,0.313259295036046,0.138775565310129,-0.480687251159032,0.149234316642256,-0.874208550473323,-0.977750682046049,-0.215539525299802,0.0352539106082499,-0.61152347990707,0.0184773761684725,0.198741080983589
66.53,-2.0220079218479,0.212729601928477,0.503628078220874,-0.326865491056265,0.274984072425187,4.57845546486949,-1.41805161677153,-0.0711843989705079,-0.921942218162633,-4.71939775742332,-3.37464348241766,1.33957370422562,-1.0567024197292,0.461407114437535,0.0929094155627558,-0.723219328070324,0.162003266905201,-1.04319294170575,-0.98045324469566,-0.233647000590965,0.0327413114082658,-0.563555340032271,-0.00697036096092429,0.209238180413459
66.535,-2.07590798809575,0.22629394026026,0.530374311200823,-0.57169973602214,0.326226526911837,4.39836853074975,-1.36405439136438,-0.0994219705151502,-0.945117854878152,-4.50854763704213,-3.23006711285865,1.19580929232455,-1.11801160591342,0.555467722372342,0.0436870385211665,-0.614987347844585,0.178141278816298,-1.09225571758616,-0.984119857035058,-0.251288453229306,0.025296267176894,-0.529435462671032,-0.00689439577674392,0.203810468316078
66.54,-2.09873211254844,0.174917254111431,0.538283190783954,-0.76926152923693,0.290324215643829,4.18973592850577,-1.33256558390409,-0.106824002153538,-0.97067127648855,-4.24233506544062,-3.13242886680327,1.1128470981891,-1.15284983135448,0.603275219001682,0.0126385921032641,-0.298508082980522,0.191174770529478,-1.07475254721672,-0.974918466444009,-0.26529295229961,0.0210037675167078,-0.497547547346359,-0.0389840252779945,0.210684204675576
66.545,-2.0789478914519,0.0702912565007165,0.520475155654185,-0.873775605953164,0.218878656038484,4.03038182248858,-1.31123703659526,-0.118045913923699,-0.998313888356496,-3.94493819124723,-3.02893257246032,1.04702239714803,-1.17221098436597,0.635564288903709,-0.0210294486068237,0.320793761822784,0.215636469272458,-0.994900685212873,-0.966640905273453,-0.285961966632962,0.000146190613830431,-0.485875186967107,-0.0738519781474117,0.219179314825668
66.55,-2.03270371878021,-0.0367603575149021,0.447669404708259,-0.863370224149181,0.141533807873341,3.87475520942039,-1.27803836029392,-0.131000944770277,-1.00439103355788,-3.53834609408736,-2.88478856779778,0.976423789629407,-1.18249843436339,0.640921272891216,-0.0571930943540844,0.814253398918544,0.223094575776252,-0.914740770935133,-0.976046860232945,-0.294499445277249,-0.0138097052922683,-0.48481781288719,-0.086319737136364,0.204562942272009
66.555,-1.95697243372277,-0.130388074147424,0.324620974561969,-0.746643804996627,0.0766956261535167,3.67408195008115,-1.241208004948,-0.138863760485885,-1.00333599977899,-3.22536713390151,-2.75337430271025,0.926575726604054,-1.19046394965856,0.629122674008696,-0.107390128038279,1.69408984068738,0.220123989296705,-0.784517450945446,-0.981053058772864,-0.304944912411643,-0.0198642823863823,-0.513360754942727,-0.102554523141012,0.204269575887349
66.56,-1.89814883804061,-0.199214042767108,0.213847064232755,-0.612720537584083,0.0632165148854256,3.5026652856959,-1.19912317755322,-0.149852719796391,-1.00259267677871,-2.90398268777118,-2.60680650507597,0.880060670487166,-1.19435832334964,0.591425199811938,-0.146100150242698,2.52854532587868,0.201943428211085,-0.643949361433738,-0.998851796696619,-0.313945816102305,-0.0180891456990511,-0.521097785680309,-0.15223687192428,0.189824701603689
66.565,-1.89820627431879,-0.293212467851852,0.112460258133736,-0.388346036104511,0.0901840182962256,3.28648716153148,-1.15150283567587,-0.128256760117791,-0.998882431064051,-2.55364342106298,-2.46900496103545,0.823619281993902,-1.19130170305728,0.513583342184121,-0.18801499656709,3.32253526799886,0.153522930308176,-0.495094882336412,-0.99858855867331,-0.319612725023027,-0.0266272705557867,-0.523519700013264,-0.20108695354265,0.194668528132459
66.57,-1.91560442613652,-0.341541685867098,0.0374976765574457,-0.140661141779744,0.131659417995353,3.07451755778648,-1.08930141417573,-0.102591251593044,-0.982461089523261,-2.13089401338016,-2.22944687168045,0.734733472212294,-1.16596519834875,0.453039264109531,-0.218485146489681,3.82060827715577,0.0953314298905972,-0.407677401633215,-1.01171343841287,-0.318644954774524,-0.0187949082906563,-0.477837536461287,-0.258627220797694,0.193302126101253
66.575,-1.92484641830816,-0.335214314676806,-0.00340603195329765,0.0711929033993075,0.129176640383448,2.88870197259724,-1.05076075649504,-0.0937107505014506,-0.976549005498459,-1.95959071315865,-2.14813367258861,0.717698241804877,-1.15747704944108,0.428314895053176,-0.231435679947655,3.9909287294697,0.0662798003748273,-0.373333444615154,-1.01767443301764,-0.322425183681547,-0.0147972237273068,-0.455735232498914,-0.276585815031443,0.195860890997194
66.58,-1.9180609554289,-0.32863223389992,-0.0321862560123043,0.141286901133389,0.117494306802807,2.79134920317457,-1.01406505629169,-0.0875246304175365,-0.972084561969675,-1.80804031951777,-2.07232722530313,0.70870338633232,-1.1523899499291,0.410388136619074,-0.241081380669055,4.09965708628508,0.04290316520043,-0.348869524546427,-1.02107832814438,-0.327784069740886,-0.0124196521918544,-0.441894432591536,-0.282517581252425,0.199815401811182
66.585,-1.91127549254964,-0.322050153123034,-0.0609664800713109,0.21138089886747,0.105811973222167,2.69399643375191,-0.974333857520256,-0.0850760506127539,-0.968942648233299,-1.6250799164409,-1.94734895285778,0.70090747320451,-1.15248274659848,0.429681569502821,-0.253433839199288,3.99680323261216,-0.00754450728131978,-0.267237924613225,-1.02431685813157,-0.330968946380811,-0.015010830436921,-0.428787973004777,-0.293891569654399,0.206568872764519
66.59,-1.90449002967036,-0.31546807234613,-0.0897467041303993,0.281474896601751,0.0941296396414939,2.59664366432896,-0.934602658748713,-0.0826274708079643,-0.965800734496914,-1.44211951336351,-1.82237068041207,0.693111560076678,-1.15616758667596,0.474785663100772,-0.267663322133934,3.74734157737428,-0.0767500198318383,-0.145994167087994,-1.02716666362964,-0.329043370460038,-0.0292820684888275,-0.417405766024509,-0.318044055324461,0.219894384201444
66.595,-1.8977045667911,-0.308885991569244,-0.118526928189406,0.351568894335832,0.0824473060608537,2.49929089490629,-0.894871459977283,-0.0801788910031817,-0.962658820760538,-1.25915911028663,-1.69739240796672,0.685315646948868,-1.15985242675343,0.519889756698595,-0.281892805068538,3.49787992213711,-0.14595553238216,-0.0247504095631084,-1.03001646912771,-0.327117794539271,-0.0435533065406934,-0.406023559044272,-0.342196540994454,0.233219895638331
66.6,-1.89091910391184,-0.302303910792359,-0.147307152248413,0.421662892069913,0.0707649724802134,2.40193812548362,-0.855140261205853,-0.0777303111983992,-0.959516907024162,-1.07619870720976,-1.57241413552136,0.677519733821058,-1.1635372668309,0.564993850296418,-0.296122288003143,3.24841826689994,-0.215161044932482,0.0964933479617774,-1.03286627462577,-0.325192218618504,-0.0578245445925594,-0.394641352064036,-0.366349026664447,0.246545407075218
66.605,-1.87967514008119,-0.254582338679535,-0.184208043022612,0.451577310711075,0.026798902744462,2.1785270691306,-0.811739621285257,-0.0717158984474542,-0.953389873313891,-0.830437234125632,-1.36468342278952,0.652659409427729,-1.16712303528066,0.609561081900958,-0.310528775760758,2.99103802439846,-0.28321012805361,0.215907948250976,-1.03571608012384,-0.323266642697731,-0.0720957826444659,-0.383259145083767,-0.390501512334508,0.259870918512143
66.61,-1.86027975802931,-0.131645979591037,-0.235955841165865,0.408123817495214,-0.0761172695581699,1.72493357948569,-0.751124995344237,-0.0489735437584003,-0.933259123121248,-0.290452581224833,-0.769257307479551,0.547852272922711,-1.16805568622266,0.639751261399521,-0.329675415725137,2.52275908780571,-0.320459593976491,0.286605920241535,-1.02961021290688,-0.322836992770288,-0.0751077839768046,-0.405293263715878,-0.421617811723385,0.261912315410468
66.615,-1.7695519587,-0.121097393535425,-0.300761003962313,0.250378351521165,-0.132051811127589,1.49552698097666,-0.717516563595797,-0.0277614213485915,-0.894023648192753,0.000557882673557109,-0.368862529488511,0.45449355437392,-1.16020591856243,0.65115718268076,-0.350418922200939,2.00190471349151,-0.354012920799224,0.337638055725196,-1.02172634980049,-0.320979623576691,-0.075681538803015,-0.426945233424916,-0.453983942747741,0.260686757047461
66.62,-1.64147434440813,-0.150667990270523,-0.370005505791248,0.0611803563657235,-0.149152434355625,1.32621702905442,-0.704535482396193,-0.00771809145425396,-0.840195970769522,0.101660066090636,-0.117230424682552,0.369867264583923,-1.14065803057557,0.637542603024303,-0.373289443732928,1.41110196929201,-0.382648763029934,0.362506011400411,-1.01198131845856,-0.315204913972092,-0.0734179353375759,-0.438362359327317,-0.487474183679447,0.254597625708511
66.625,-1.46123329877497,-0.191125172038038,-0.43967052197692,-0.103781414507338,-0.0778176233370006,1.10329573646422,-0.719041586097542,0.0229482737542255,-0.790771492277209,0.0577643046073486,0.140644338904655,0.29668201851893,-1.11358131658949,0.608955338175275,-0.397379217093662,0.821001907237722,-0.394504356435972,0.370460414912322,-1.0070773327889,-0.312381329878709,-0.0656432428414858,-0.444654296290925,-0.515535831723604,0.248638624073292
66.63,-1.33511063653257,-0.25007146975158,-0.468464327759363,-0.200035628116781,0.0912730650981541,0.863307082429453,-0.738267076639418,0.0468933309907875,-0.739564590517617,-0.0157657489245873,0.349320997514249,0.243054578391101,-1.07803983895831,0.571537635824254,-0.416734987550467,0.345871244264812,-0.404419859423268,0.360800487815428,-0.996089972096917,-0.308044192651575,-0.0512851310949983,-0.442228384061038,-0.53231464831316,0.240728459997356
66.635,-1.24995239476842,-0.286587115778236,-0.475577965960945,-0.210338142870092,0.284958590250294,0.631948250668304,-0.763119912057075,0.0557106483526858,-0.687319861269912,-0.10000523229047,0.529768213483465,0.208159038934371,-1.03452029880791,0.531142850923908,-0.427242655591145,-0.013190864989346,-0.41399654960008,0.336057200052617,-0.977818733192717,-0.300472441436597,-0.0332005544570498,-0.431153432048398,-0.536222624893788,0.231307857616827
66.64,-1.19808688788563,-0.259249344662505,-0.45134867830343,-0.149639337861454,0.482734573464261,0.41442628680992,-0.791888373723777,0.0458845769435024,-0.640544960008325,-0.189105274093274,0.704828604411159,0.186481698975124,-0.984067382098991,0.49334682056046,-0.425732142814112,-0.303122138535847,-0.419395699059998,0.299903931307723,-0.97694933175376,-0.295023638370342,-0.0225939887434195,-0.416676772727207,-0.530431998834352,0.227447416700719
66.645,-1.16561812401716,-0.139564298320485,-0.383524006026838,-0.0604261859353072,0.67952830404818,0.206262252313813,-0.808875482936327,0.0254991911885971,-0.623227926023538,-0.290801997999733,0.893693950496498,0.15839404114806,-0.935000541120195,0.45452087866904,-0.429879418092738,-0.570048447895966,-0.438018473046413,0.262658383334893,-0.959318483430552,-0.29654086081115,-0.000272129382699745,-0.390134384805724,-0.497568357874342,0.222864406986761
66.65,-1.20219682401562,-0.0243630476487945,-0.279454691571306,0.0423739253423799,0.90209564086139,0.0387895486961363,-0.824189436204339,0.00247172059449894,-0.647471056524499,-0.389650599050779,1.06229282596471,0.119653097599244,-0.899763564697496,0.410090066648343,-0.422385505974461,-0.804243785946304,-0.455292013164943,0.259765455551474,-0.936540442528431,-0.282219044758057,0.0134660184148413,-0.362995319516831,-0.472749324478879,0.214945999012787
66.655,-1.26631693949618,0.0748433423365806,-0.19099898996274,0.0012051996908726,1.03273540829015,-0.0623667025902426,-0.828269860659772,-0.0242591341585823,-0.647993178927381,-0.432567150607472,1.18864419881367,0.0775232435095172,-0.858847960087732,0.377492254043673,-0.400701085517354,-0.950514353733145,-0.474186936169728,0.273431611186535,-0.914964106274169,-0.276540654337386,0.0131064006393251,-0.335907122555449,-0.460362050762612,0.213264075759276
66.66,-1.29946438316122,0.17249350831579,-0.0922552033995869,-0.0821373207936304,1.11441416755391,-0.105191897380072,-0.820421935515838,-0.0570879712698534,-0.638585552647405,-0.467781436160685,1.3242996094962,-0.00363597272058275,-0.82293898444276,0.344316750788952,-0.371925361287706,-1.07250709883132,-0.506305725882772,0.283131696510701,-0.90759239505417,-0.271978978151385,0.015656454845099,-0.304728227442843,-0.45404976606369,0.208144117289531
66.665,-1.2985376185253,0.249523134193333,-0.0209197396849853,-0.176771372207018,1.1534439144309,-0.0760938387772797,-0.800222666199612,-0.11535908488144,-0.584726467059408,-0.494449632650633,1.45988020861304,-0.101961456008111,-0.779953992239048,0.300020423783826,-0.339248587218498,-1.17122690968093,-0.547711610659682,0.274381876616071,-0.891963985424389,-0.253721927721496,0.0129011087253064,-0.276409840186167,-0.48850789508984,0.194264006014609
66.67,-1.24492504780568,0.301283715132915,0.0240931278899716,-0.438896102175051,1.22741283987259,-0.0127442427999613,-0.820720208911863,-0.163885524632965,-0.498448776788016,-0.506659408407776,1.5469154493144,-0.200394317691518,-0.736725656203864,0.250301947550712,-0.300748363835392,-1.24339160546554,-0.61277983243491,0.231361917022677,-0.886330821801007,-0.238885426945792,0.0202314215437995,-0.256329856343053,-0.523306064912228,0.182232809764776
66.675,-1.14270859681347,0.409795010068925,0.190522807478819,-0.955750044995768,1.36320602443624,0.057928975277415,-0.856238689253733,-0.201425552062287,-0.339676816138969,-0.464272503956384,1.60208423375421,-0.314732435690594,-0.713614471116342,0.224912360747426,-0.275586050345066,-1.27283346652985,-0.656318843197748,0.204274676166308,-0.883470164435891,-0.22390173888734,0.0180474683483037,-0.244025945040909,-0.570830855893733,0.173612766281298
66.68,-1.03067249032883,0.514093364005828,0.593889098649697,-1.77377170095753,1.484454458782,0.052564768471288,-0.920668425972727,-0.213156775098588,-0.0406950992218735,-0.328771319520091,1.62126628250336,-0.440089311762487,-0.676237299729433,0.226729447754805,-0.220975985128589,-1.27578988682695,-0.72524303731817,0.159635540006463,-0.894680560128135,-0.205061816021577,0.0236492218455954,-0.216966075181312,-0.671293974861474,0.156533548366713
66.685,-0.623382992326409,0.494435451599958,1.21384636860611,-3.15722322868609,1.34943687310468,-0.206017560098227,-1.01393227223872,-0.234270039589423,0.221796229436037,-0.336085413727069,1.54644101922822,-0.512151878772307,-0.689875263197376,0.246223776804915,-0.150868245828386,-1.28637076086683,-0.769949173986833,0.196187339128714,-0.90084437336018,-0.188709723690966,0.0384048492858789,-0.200624844376229,-0.743239124271369,0.149546544256798
66.69,-0.0278084328141201,-0.187791270130115,2.22388122174935,-4.54098080362321,1.03780532453646,-0.356389071445767,-1.2045100066113,-0.216844815696763,0.709389693406277,-0.281189175679013,1.35828227458502,-0.562925833552023,-0.732301521832841,0.244659232714049,-0.08441810473551,-1.28641439219063,-0.807850895960904,0.254780260109895,-0.92387016315814,-0.176219768905542,0.0620770980042155,-0.185976682291457,-0.805438662591781,0.137918044631441
66.695,0.0428089784220907,-0.829699012766929,3.12328902604241,-5.7151446609236,0.40652869206228,-0.554383495937332,-1.39698523564858,-0.192638019074987,0.935531759724021,-0.580387839679001,1.21219398032679,-0.592834287386641,-0.78151049130918,0.140052309262664,-0.016112472174476,-1.33551890017932,-0.912751980079989,0.316647800327493,-0.982686430367535,-0.146025342686541,0.0880689221986566,-0.201494765592396,-0.902019370845078,0.11364884434434
66.7,-0.154966725091779,-1.7883034148746,3.17992510209758,-4.42674586121937,-0.723517812263483,-0.556930414252998,-1.53738772031253,-0.0255530131045146,0.92762075489824,-1.11525071632966,1.08871522295729,-0.496276806650157,-0.821686164506987,-0.0383753849603384,0.0216051105039486,-1.4902661363607,-1.04405109485376,0.193384388306528,-1.03480644028252,-0.122607827690473,0.0909776555186848,-0.222864422363152,-0.976916297721822,0.0998523142473384
66.705,-0.416521693629265,-2.03009671755293,2.31409092510605,-0.706964268514643,-1.43957483870054,-0.556945077758969,-1.60349866861822,0.228669440576837,0.690062087266357,-1.82840998310109,1.02648319819349,-0.211760687370702,-0.846631079870132,-0.270010002610582,-0.0546686053031941,-1.77855581172002,-1.20346468954709,-0.171744479561315,-1.10901146681282,-0.0870716531717727,0.0934831879273661,-0.25654521057507,-1.03835203779685,0.0975230485200882
66.71,-0.541713412711428,-0.775696531008677,1.27084070165334,1.57471707916416,-1.51317398647696,-1.09315670956728,-1.63403067628882,0.282253685603731,0.117885101858911,-2.78860743885174,1.12393650621454,0.199549972466801,-0.926786811088436,-0.364909126685365,-0.171325080875473,-1.66075056742546,-1.23662359297702,-0.578495181178827,-1.18934644775833,-0.0468475079893898,0.084019153395699,-0.313672745931712,-1.06454447059601,0.101712918212225
66.715,-1.30795827023929,0.860142972656881,0.577846861878297,1.28660494710115,-1.23989224169711,-1.44600913631007,-1.59834810727514,0.133620133264197,-0.445625728650843,-3.32766188310144,1.30154210077095,0.434854666011682,-1.06424642727371,-0.34216511080207,-0.236971990182851,-1.42149577514022,-1.19414152020002,-0.731540541841032,-1.28514974378719,-0.0159676632104095,0.0629793285887899,-0.354745253274323,-1.07137960760293,0.0997286063181764
66.72,-2.11561463871558,1.56531832315926,0.364978964416476,0.415465969172334,-1.10920433903821,-1.30094508948951,-1.49427508478154,-0.113817683074243,-0.864747418196148,-3.38595351316524,1.46998595642101,0.502867075665726,-1.24019523593557,-0.296486164282281,-0.325076821637503,-1.03097275322711,-1.05613385506892,-0.886704754458952,-1.33763949014996,0.0134970024226291,0.0284527548509573,-0.373494533251314,-1.04481682306405,0.106758214307157
66.725,-2.1278349485923,1.51478743662916,-0.0392665967222906,-0.471607550295728,-0.732178284141737,-0.469892633885169,-1.34551436933301,-0.602099461608475,-1.01170424186451,-2.7204848861784,1.58446607224055,0.244064640505854,-1.40747860367274,-0.251177956939438,-0.470599350439803,-0.307266281492581,-0.795603138069227,-0.967569359267502,-1.36389598974876,0.0452482324881956,-0.0328766249412704,-0.384095170524993,-0.951209245227859,0.144041305828094
66.73,-1.42644115286078,1.23080440102253,0.0588040395392506,-0.941264997370564,-0.244090840034318,0.201914889431618,-1.29066108709405,-0.845216343979395,-0.90315211748508,-1.76780253913252,1.65536084299963,-0.156065943133562,-1.62383430232321,-0.140919783156305,-0.540099926037907,0.652718497834992,-0.40912531737177,-0.88617128658825,-1.33248336825917,0.071087967131413,-0.0965965741993599,-0.324435799755617,-0.882467530071263,0.117816336341157
66.735,-0.953428587309536,0.243473718139253,0.674748044745457,-1.55409913189861,-0.00526619751117248,0.476140584025147,-1.28014913918031,-0.71424667482727,-0.574281334871533,-0.972636881774497,1.75744524940945,-0.430050031107121,-1.82461435763095,0.010748142100038,-0.419859783749103,1.5058338749866,0.037305234189316,-0.607505510397557,-1.32621909376479,0.0387662721026537,-0.128495153280881,-0.225859203225117,-0.816784669942499,0.0839058114899759
66.74,-0.660277677678387,-1.03780681725852,1.22113637400079,-1.5382973216741,-0.0550222903689407,0.266722838399319,-1.27153089486506,-0.467979838564044,-0.205772124041775,-0.695556562951173,1.7376189785357,-0.428887938087399,-1.82393055431141,0.058560724692757,-0.090529955165206,1.80337214933984,0.279475298895246,-0.152160882465327,-1.2839539994158,0.0203022700811355,-0.181679811651489,-0.122814806907181,-0.8018790563456,0.0627557070677624
66.745,-0.260155833742259,-1.30482290773748,1.27610748608758,-0.626133582682913,-0.176568031146508,0.0786443860343941,-1.18744196930346,-0.280069548041867,0.0715327710405956,-0.696385855744437,1.61407257474657,-0.355916147058846,-1.68792037231284,0.0172407406680828,0.283580989232762,1.87683105138447,0.354776768780396,0.359191182409285,-1.22842829586968,0.00872180007374056,-0.202633174564321,-0.0483821908959063,-0.785024769193221,0.0962862986123308
66.75,-0.246857507531495,-0.289183748538698,1.0725937527226,0.258817874463193,-0.178547687216923,0.00359646176313281,-1.03857527492134,-0.135126107885468,0.0796406033221617,-1.06233523445942,1.49704720236304,-0.215335314161967,-1.49289742537322,-0.107322553937244,0.504485809834073,1.91028378952083,0.268114652554847,0.670209323251843,-1.19860096319024,0.00465662917210151,-0.191329172305265,-0.0195759117126373,-0.731384914193858,0.137217741903932
66.755,-0.430959178551583,0.456213424299568,0.790004221370472,0.413491806944053,-0.113116718450291,0.0885550422269283,-0.879044737497899,-0.0213492654477239,-0.0869344778740319,-1.64075304770548,1.38774243805342,0.0615929130096284,-1.29985253650994,-0.202727553651839,0.583110358595792,1.97024968216234,0.0920257474046949,0.750296600978906,-1.16171977961066,-0.0193923494069018,-0.162405792758133,-0.0136074547457283,-0.619537737237562,0.150789819661661
66.76,-0.630757131082445,0.720938320833319,0.672548971503347,0.162758588829437,-0.00507994257708579,0.191051623281581,-0.77506571077403,-0.000529186630994902,-0.295740751949739,-1.80714368519378,1.26138252911633,0.267137472573592,-1.09526185351011,-0.305683688204257,0.5474694594644,1.9233070622903,-0.139998517842611,0.608905692070987,-1.14408949266359,-0.0389461428938802,-0.134841121495644,-0.0347946482506749,-0.485705126939805,0.150055915117264
66.765,-0.691604151260459,0.522533667967166,0.729937843049694,-0.164068721462562,0.0169868623327597,0.229000975451349,-0.691764848035103,-0.0120091551299195,-0.408905433554431,-1.53308871763544,1.12732185373314,0.319085628435922,-0.9160185087916,-0.436070249205452,0.421434388857904,1.70665396561333,-0.34901091486495,0.331508273095942,-1.12879956510725,-0.0613534334337675,-0.107643874787538,-0.0282872425398468,-0.353006326526026,0.156809528272573
66.77,-0.579931493690503,0.238163303860748,0.824026714824853,-0.313634132608953,-0.0318619865866979,0.165059103488219,-0.667893521982895,-0.0344905372696953,-0.381676859686236,-1.08735931762715,1.03649361300562,0.268435251635357,-0.77638487071961,-0.555924804565347,0.250953228473912,1.41670612021599,-0.496788384863004,0.0129193400117192,-1.115967464304,-0.0704131787012495,-0.0853530395876687,-0.0698047285602172,-0.28002373167316,0.162539011457827
66.775,-0.48735418171554,0.0524690307980929,0.898004067453177,-0.299862899784048,-0.0640820475145513,0.0551199665680539,-0.750058888452766,-0.040128255301069,-0.312374447870952,-0.726214875697495,0.931416537657102,0.216424552519905,-0.609792227776467,-0.669239357549812,0.0356126630285651,1.1732980004491,-0.566778171914983,-0.346669889146055,-1.0891753321213,-0.0591304599121722,-0.0741545756951849,-0.125414073254288,-0.195595902048341,0.164716243743896
66.78,-0.479363201574361,0.0853363602927016,0.892995343826177,-0.170617626283316,-0.0720501268177826,0.00847351928508808,-0.868599437390858,-0.0244517660396989,-0.241025423259251,-0.638692465587647,0.845317468574614,0.23226609384039,-0.507584132764341,-0.672229884616452,-0.104831292380949,1.15884241020643,-0.509059532010196,-0.529012508584154,-1.07435358129511,-0.0516804394947696,-0.057894599591379,-0.198494128643095,-0.124152570922871,0.165531804295677
66.785,-0.500596990028358,0.196946509847865,0.868913050806742,-0.0729815361557084,-0.0663873829349916,0.00437611527740955,-0.946041355099103,-0.0301868842915817,-0.201189849249703,-0.679759652003556,0.756801095494589,0.252819474245295,-0.451744322015288,-0.572981689828064,-0.216753296528559,1.37034927786831,-0.322939819245439,-0.623873574724839,-1.06147896675848,-0.0290213361293825,-0.0405691897516849,-0.313833953145014,-0.0811520721141178,0.138693271905273
66.79,-0.502439089438312,0.259877544232156,0.852607042695819,-0.0765854713740001,-0.0537807530831678,0.00713978588293315,-1.0471105597119,-0.0563226741102077,-0.193171545809193,-0.678758352347755,0.689228654690975,0.257697083055148,-0.478857577942115,-0.429658174472534,-0.298595798429042,1.62786757090369,-0.14407561302708,-0.582952051839767,-1.04283477961761,-0.0228810670171485,-0.0180654701911077,-0.387787537975236,-0.102425992799739,0.117497647125968
66.795,-0.47584321058057,0.247443420784673,0.863499411473227,-0.109866086526137,-0.0522997228425716,-0.00620660605584343,-1.13666681939802,-0.084623348427665,-0.199227521553142,-0.542892378120084,0.620528638650791,0.28287326729677,-0.557926464753978,-0.281242338538903,-0.353490926536772,1.8372946594327,0.0196865074812737,-0.507390710449939,-1.02611086699891,-0.00533040958456618,-0.0142289540760437,-0.461272536829658,-0.1581062386529,0.104736562529619
66.8,-0.473190892693,0.219451644632069,0.86471142898416,-0.144753485077697,-0.0413578614066871,-0.00503115735133065,-1.17527518143853,-0.084520592858211,-0.20211226483367,-0.258202579017833,0.543111663229181,0.309708186272534,-0.671542827055126,-0.166059050452426,-0.366993285916374,1.9966738147143,0.150164936658828,-0.449450929547537,-1.01107679782404,0.00685254138347906,0.0036924387946807,-0.534341215602882,-0.218062542984772,0.115579865874544
66.805,-0.494151123087805,0.216170244731781,0.852440443052885,-0.148859902505231,-0.0226200891378811,0.00177372911639034,-1.18475039386687,-0.0486022281085981,-0.192934301971757,-0.00761713734950108,0.472643866046931,0.335525112602211,-0.781011254418173,-0.13673156924957,-0.337991984105227,2.08200262175075,0.203648754865861,-0.452759091870037,-1.0010626518467,0.028520644070993,0.0223741406364799,-0.590406057140268,-0.239699546104555,0.134195898762635
66.81,-0.501966347803827,0.229159617363294,0.840023663458622,-0.143739792829744,-0.0116699624337287,0.00674258514046261,-1.17166640142607,-0.000919729230204302,-0.168371655441388,0.112612675130625,0.441997978627981,0.356685306617618,-0.892122816772606,-0.175477073259923,-0.257926397335255,2.05333345299803,0.18211107200852,-0.559132569139363,-0.974867221828442,0.0515576628597168,0.0285148341421128,-0.658032715163337,-0.218870042785364,0.156297213036447
66.815,-0.503943922194216,0.230401591865279,0.84041780025215,-0.150074913120193,-0.0140334261621992,0.0076123842744105,-1.14296889998381,0.0420088086963468,-0.129624060811441,0.172791726373945,0.429943084414782,0.35846539247621,-0.954146939331966,-0.208984282938491,-0.197710396330809,1.93567055583696,0.134203630794432,-0.694426923282816,-0.95179914864209,0.0585086213603445,0.0428872774849945,-0.747516332985337,-0.16392188455462,0.185285768644579
66.82,-0.49165693474179,0.220621911544629,0.856907607147998,-0.150535808195375,-0.0242472216917742,-0.00440090344521768,-1.08520572325973,0.0661787848480784,-0.0896708412775872,0.203865457884612,0.436533997509541,0.336690456145217,-1.02590381091324,-0.212709562307155,-0.120206966220787,1.75222188191254,0.0699656921786681,-0.86091094239347,-0.919535888501164,0.0735276594459993,0.04407617237162,-0.775842697160954,-0.12604594647736,0.199641391120886
66.825,-0.470320811761531,0.201967974154274,0.856000030166166,-0.142743428049714,-0.0386877427619705,-0.0163211998876715,-1.04018668870467,0.0795043508761655,-0.0692076693874549,0.188671026155123,0.438679122065141,0.315394646161875,-1.08636099190065,-0.179533999146901,-0.059105863024324,1.61683568094006,0.0146618241486014,-0.977732356055811,-0.884787490733115,0.0941475239098314,0.0535255117041735,-0.814461088913284,-0.0819988351863517,0.248775206487724
66.83,-0.472435760199699,0.17636527217531,0.872060576892708,-0.131665107551284,-0.0357859050968189,-0.039751953532348,-1.01026157485724,0.0872958250538917,-0.0730528610519169,0.150039251227797,0.432882830445164,0.326086887448178,-1.13756153383341,-0.126936357931731,-0.00793404607511956,1.488895444274,-0.0427287560347371,-1.0259799171843,-0.863106003592161,0.108874014637968,0.03776742727366,-0.845635789629539,-0.0508761729581592,0.31708931049029
66.835,-0.48638017345124,0.15357305461229,0.865627012699911,-0.100337848941316,-0.023285026839608,-0.0402688883001006,-0.986715048907033,0.0873769811593684,-0.086337294627119,0.100782532649204,0.401413263449504,0.355315245952804,-1.18836879208745,-0.0810366167778024,0.0283363461902552,1.34847799873836,-0.111956348372999,-0.999615137112926,-0.854995458212957,0.100813338214998,0.0253899371962743,-0.805039924450808,0.0106226437797363,0.34674870967865
66.84,-0.493681945345867,0.145714734459223,0.87183037534436,-0.0808182765422321,-0.0115332378386486,-0.0360529985003376,-0.961639330496414,0.0853463113539019,-0.100593452363088,0.0345813831464941,0.365978754377436,0.380915341276361,-1.21237968100614,-0.0618805216075138,0.0468512181185784,1.25244451206226,-0.155367860988376,-0.959364130244674,-0.842116159852877,0.109643790735253,0.0191237639496133,-0.750513190296705,0.106841612905281,0.366080831371393
66.845,-0.49773363070858,0.138095263010885,0.862872664657401,-0.0561988609009743,0.0031864562263383,-0.0214632015108837,-0.942416473442987,0.0802830285393089,-0.103286195866737,-0.0471869974784888,0.326327054743311,0.358072825209368,-1.22791223479646,-0.0555949691871056,0.0360615326401373,1.11221823381734,-0.19307816631713,-0.894013047446704,-0.833524624373663,0.105486810932685,0.016664884171548,-0.699486207594163,0.20056148563372,0.383694419288425
66.85,-0.496943747088881,0.171289708565453,0.853565204858052,-0.0473797544836998,0.00678623381613788,-0.00629870694112273,-0.938587169857262,0.094229131741135,-0.0908310416046324,-0.151049919259319,0.31939117227254,0.316260192656825,-1.21913100410742,-0.0535873376652213,0.00646947381883165,0.921189345765078,-0.225885925846732,-0.826466240846483,-0.841545428852359,0.107417139512332,0.0159183215574073,-0.659565348444675,0.262329579765819,0.388063860630706
66.855,-0.483878543599374,0.205784814605301,0.861760905999594,-0.0473797544836998,0.0185240833250942,0.00837360531790612,-0.959760465746039,0.123965109121599,-0.0837964543071253,-0.315511665113985,0.335054190001441,0.291786709545056,-1.17334419666835,-0.0595227006543843,-0.0456186650143279,0.652175978852508,-0.244746638748745,-0.741096665100483,-0.87057205983096,0.0863901414434044,0.00241126999598716,-0.581902401485089,0.379365568104321,0.405223067393391
66.86,-0.476477510989979,0.205158344277007,0.853661024119393,-0.0544759305784044,0.0166621939282563,0.00474003677643991,-0.98809795897733,0.154751788668623,-0.0665532097158034,-0.469344928363454,0.334621915999708,0.275471233194752,-1.12799236627442,-0.0556663900892477,-0.0918006124452649,0.510154124601094,-0.232529569004676,-0.670716008226472,-0.899023911902491,0.0783945186121061,-0.0104332490861384,-0.588646160332825,0.471115230729283,0.429276800983212
66.865,-0.476509711166092,0.189876488531396,0.862029078820397,-0.0510448403656483,0.0176219513467789,0.00559780932962894,-1.01333034156625,0.160507397816363,-0.0615510522059936,-0.603172907575445,0.312354206184594,0.274379200769384,-1.08665043592457,-0.04253162478459,-0.121667274768842,0.432972363970918,-0.203072699818988,-0.621942237681508,-0.927147743580822,0.0725400402077818,-0.0202887373630246,-0.636827785965288,0.516049771936345,0.467856971281953
66.87,-0.474766923932876,0.16842829264968,0.862318369469543,-0.0632844217061894,0.0168147686118705,-0.000488020182170165,-1.03742419448503,0.124377527812001,-0.0541183510003805,-0.708420008569439,0.291191865171984,0.272847670661984,-1.05295970986888,-0.0276639281052763,-0.127352303780717,0.391806239898543,-0.154656343570399,-0.580429457719686,-0.952103487271615,0.0497087164209087,-0.0289849611934484,-0.715032651223079,0.532758383746054,0.508289036329612
66.875,-0.474351934479568,0.160758565678989,0.864789591050282,-0.0661838141758483,0.0201927958880318,0.00432593219857878,-1.04652337849459,0.0807723410596902,-0.0503070463780015,-0.792080567602757,0.280543483870926,0.272053652051999,-1.02558433140764,-0.0155733993159816,-0.13670277181853,0.396462054747896,-0.0977860358078732,-0.561084421067284,-0.969560014664398,0.0283469905244099,-0.0471403485926555,-0.759490452716771,0.521529469727969,0.498684207105867
66.88,-0.474548001623886,0.172644457130946,0.861288207868418,-0.0643692556442392,0.0191212949826852,0.00377851829059771,-1.0488845078679,0.0478074765867332,-0.0619240791329351,-0.815043313445117,0.27598364969579,0.271175516785648,-1.01755116949841,-0.000635632764039182,-0.135241577147837,0.379513293589514,-0.0520241356744866,-0.540697633153296,-0.98326262196833,0.0283522235388972,-0.0473389602654731,-0.797281997455882,0.500923536378693,0.471238672052408
66.885,-0.474866128854426,0.185923290216634,0.863318629076026,-0.0549438603829077,0.0251434660609324,-0.00519692442375019,-1.0415842455537,0.056269559353541,-0.0823703822495463,-0.766597745928926,0.253138167112692,0.263406242831587,-1.0034363078047,0.0139361264732597,-0.11313232293613,0.299573556855458,-0.0114962819421333,-0.51146840454947,-0.98820338383635,0.0325059210992917,-0.0561122311594556,-0.854001051791482,0.477327909763668,0.458652750039452
66.89,-0.47717754827458,0.206092158045463,0.858788877157568,-0.0426535103156645,0.0346092738125781,-0.0123352526587381,-1.02521494978747,0.0802274426718495,-0.091824041031438,-0.645624818545257,0.234508750329842,0.232593878627243,-0.98897194889279,0.034333124163849,-0.0751843744552608,0.20222678731696,0.0215329211909164,-0.484343581477863,-1.00012608410138,0.0271977047342198,-0.0522740873638862,-0.870629920412588,0.422067518105402,0.42752666885705
66.895,-0.47652812393057,0.214403299442001,0.852509442131545,-0.0467960864197205,0.0365566682032929,-0.0140036618534835,-1.01215806386753,0.0807251834816765,-0.0903117487782551,-0.495060666688111,0.209334048106307,0.200224813135131,-0.981324682432953,0.0490259145482922,-0.0499800373885694,0.128291434286258,0.0279218669655243,-0.466041795958025,-1.00899312778557,0.0256809209299445,-0.0526941046037895,-0.879208690331525,0.367614247174583,0.419454440055976
66.9,-0.47128804765319,0.205366876557865,0.857206407894528,-0.0443877235592372,0.0243711081637489,-0.0277754790661316,-0.991878196262171,0.0751091648414127,-0.0894693598511922,-0.296463229575582,0.167993333867066,0.163849580199663,-0.982762035337828,0.0643344930627309,-0.019396749623022,-0.00969616284170316,0.0180705110819043,-0.44076707419783,-1.01266079955727,0.0261818851942516,-0.0562280575191713,-0.885839186739871,0.317731055154125,0.413539098957983
66.905,-0.466698996605261,0.20543052628485,0.859454646230782,-0.0521352362352613,0.0300994661170248,-0.0359022914595192,-0.983008674909544,0.0808765524999055,-0.0864135665966096,-0.131580107348623,0.140171754246585,0.144916667374813,-0.982350302044752,0.0683770850914223,0.0109685174136333,-0.151174824428001,-0.00129667170024524,-0.424865738108631,-1.02755706273019,0.0189699154617643,-0.0439018975756994,-0.883237502987951,0.278316675405045,0.422981913838953
66.91,-0.471312708625028,0.217999841304374,0.853919970822892,-0.0306156186118164,0.0202932782908161,-0.0527664047344457,-0.985029142384778,0.0955100432390116,-0.092680918571123,0.00812134049558261,0.116736651156546,0.147707069491354,-0.980735616059603,0.0591104238258093,0.0202658839635926,-0.258475814385042,-0.0332502911782714,-0.431517181415137,-1.02706360205225,0.00248711789551626,-0.0379801378858811,-0.907953800068988,0.252462668446784,0.444426039832971
66.915,-0.475012087797497,0.226736092071574,0.84652732012805,-0.0170619107297561,0.0139062766980978,-0.0590331641973865,-0.982451514644955,0.114303530062067,-0.10007704679412,0.176305419128769,0.0862161484986676,0.14207981760699,-0.98357445992276,0.0629529011548929,0.0252712777308986,-0.352150440510901,-0.0766461328607115,-0.450924193763173,-1.0291292029606,-0.0145466400316097,-0.0346860284095171,-0.928407554249822,0.256203470206307,0.470339275392304
66.92,-0.474553029498918,0.218280013802182,0.850032617964279,-0.0126729350854409,0.00588160719014193,-0.0814724107201967,-0.983921889878261,0.106021133089794,-0.0951158309130332,0.359702881367062,0.0409989390309378,0.127251730038979,-0.99074790051452,0.069024723316531,0.0218761037822051,-0.435071244019042,-0.113999228068584,-0.467644991970572,-1.02622723336708,-0.0231150889289684,-0.0295151174821361,-0.943991912431559,0.284534111686284,0.49336541199088
66.925,-0.47632076821688,0.194216727664359,0.852380899990034,-0.00955654429673845,0.00335348397493362,-0.0872509777545929,-0.972715100731742,0.0738414381537505,-0.0891707935396173,0.472533327033329,0.01678499742142,0.108518139837777,-0.995832498490533,0.0700953720439261,0.0177242724593598,-0.52273482246024,-0.147569911509616,-0.492196310933548,-1.02024508906998,-0.0240984667502987,-0.0241663931569535,-0.962983870744243,0.330774412233696,0.520144927673029
66.93,-0.480123840474084,0.175002380491977,0.855564733697861,-0.00252972218913267,0.013127040117979,-0.0881735628172793,-0.980186761640722,0.0521912233237486,-0.0786481650281885,0.550322532938874,0.00971287170005065,0.0966046314141743,-0.997383236901339,0.0646563327175519,0.0158974272279266,-0.618095878192422,-0.184252230780499,-0.514103250503563,-1.01456966204671,-0.0388550952597761,-0.0305602558200458,-0.965186516051478,0.384994953009522,0.530563789179597
66.935,-0.48659975435552,0.168279006511877,0.856372707816346,0.005463041940026,0.0176699156031814,-0.0788710631660958,-0.990566258452039,0.0413561152908299,-0.0752291455074352,0.581049182928706,-0.00474789743921618,0.102867263821281,-0.998187803739822,0.0635023445630033,0.0199867834635706,-0.676756231077551,-0.207797931309011,-0.537395358375757,-1.00872646197654,-0.0180432811729178,-0.0372760578094559,-0.937772273579055,0.441121417914808,0.536349551626839
66.94,-0.489061757704092,0.173194946621614,0.862437475082569,0.0135845485283456,0.0229005962610245,-0.063849409177894,-1.00167135917551,0.0584040606370314,-0.0568600371779302,0.625427014491836,-0.00941423309889596,0.112840217910998,-1.00380697272865,0.0564228084611478,0.0282573444714509,-0.742740392428441,-0.2272070879008,-0.570699267970472,-1.01638259650716,0.00220866943980791,-0.0341946756339813,-0.900338614769626,0.502374415850183,0.529522970238964
66.945,-0.496557293548778,0.174502985959555,0.859616837412532,0.0113274013970656,0.0324986349884555,-0.0603517540360158,-1.01621130957389,0.0999771015539259,-0.0115038883831848,0.716071358579818,-0.0436775394908532,0.127025609594776,-1.01337046647765,0.0499632143849092,0.0326434243687958,-0.764142806223495,-0.23408299504756,-0.595636173472903,-1.01575306974715,0.0402691412636003,-0.0282052888630791,-0.83811950461288,0.554647733155302,0.512632672946045
66.95,-0.490214927538331,0.174943803587846,0.867104781215775,0.00795766921929477,0.0514989219741249,-0.0391693887282849,-1.03531340141669,0.136799462383294,-0.011924925946445,0.734878360041789,-0.100937704562987,0.159548169154799,-1.02281715438414,0.0481996914683212,0.0397930768487434,-0.737922422251639,-0.234114796984233,-0.633111527505459,-1.01054877091327,0.0555348170406918,-0.034569839154026,-0.77585348136255,0.57966668573294,0.495231578017452
66.955,-0.483802691264367,0.177893486907571,0.861799469209091,0.00686743973916565,0.0593938173555443,-0.0377131541796898,-1.033933729946,0.136279042098283,-0.0758880345865787,0.610306958993249,-0.115325747023232,0.184743016552758,-1.03958018769686,0.0486985925233626,0.0398133580920922,-0.668411824452499,-0.224436776265022,-0.667486517927737,-1.00699772281435,0.0723678420582882,-0.0205943728985797,-0.684425277226636,0.587397226947524,0.467310719676054
66.96,-0.486997873926135,0.171442598547141,0.854991038160017,0.00622291247324354,0.0706457579310702,-0.026879451350311,-1.02525419781086,0.120551940797399,-0.10764098041563,0.456962949680166,-0.0640264658367344,0.182978559144284,-1.05480695195552,0.0491286581056999,0.0385186775706189,-0.608514746388342,-0.211380069544053,-0.658517651323582,-1.00755129539792,0.0869189160895365,-0.022616075317779,-0.590646175959819,0.559563714377378,0.43182381974913
66.965,-0.492642446725593,0.180079258957647,0.853755583729432,0.0195330794556238,0.075410099117775,-0.0249679187547969,-1.01942920107807,0.103218583401071,-0.0869881638502686,0.349540872877362,-0.0239928055908277,0.151760810227771,-1.07084503765231,0.0455031552207532,0.0397641577925399,-0.554286090762414,-0.186576887158021,-0.632274777698044,-0.999044871948825,0.0968030089663101,-0.0388271574350381,-0.507844359194558,0.526304670806202,0.383977377476169
66.97,-0.488295670137505,0.176884758308625,0.856795850654495,0.022918781565121,0.0803957037188508,-0.0175389233332268,-1.01403323991327,0.0811415481222439,-0.0741249902370099,0.252825564843545,-0.0197806091698543,0.120702246300379,-1.07678406844462,0.0266474559774324,0.0385217956918538,-0.486613397631839,-0.158589025915852,-0.616338446919044,-0.988769693736626,0.101925297387013,-0.0464928138813001,-0.447044606470899,0.473815319902623,0.335944597456407
66.975,-0.483143663480638,0.177052170600335,0.852204444919267,0.0227684920369353,0.0906054509519305,-0.00906252674758434,-1.00465967756744,0.0610695910835247,-0.0733444240310208,0.146734168273612,-0.0128782336210364,0.108563560646618,-1.0755732595515,0.0141271489980512,0.0315952602448023,-0.428938132266626,-0.132884125892451,-0.579463727278315,-0.977661302884832,0.10867784668332,-0.0563349230050435,-0.4137257355876,0.419257042043766,0.279801238756468
66.98,-0.486254147841169,0.178705178717919,0.853774669273154,0.0252857996577555,0.0919516014985889,-0.00379232214584733,-0.993228078084655,0.0419617377278937,-0.0717759306272192,0.0873095108566209,0.00124020045676838,0.0988144904918511,-1.06776676536504,0.00877797144208974,0.0212424422926508,-0.374127798803136,-0.10290872840253,-0.535082082756712,-0.967823226840853,0.120276707238267,-0.0587904430058441,-0.380837629905272,0.359310934377182,0.230709603748057
66.985,-0.486842494322792,0.178839854961008,0.853522756090057,0.0265247890111102,0.0925212303809908,0.00735857708373258,-0.984175168221829,0.0296224751162684,-0.0636657693980386,0.053635702324233,0.00345295215569857,0.0843507358202731,-1.04890705196361,0.0156763111942315,0.019307016674249,-0.328926816245706,-0.0779233072153795,-0.498813988597752,-0.955285506555508,0.129670709197455,-0.0419158765797117,-0.351716262012969,0.292368582021963,0.184763169211531
66.99,-0.484724534090266,0.171116536859293,0.85395221670792,0.0220916758302108,0.10285235969061,0.0250526196544675,-0.97878549105985,0.0144298760672086,-0.0497408998624654,0.0340803882176981,0.0044368492876673,0.077837405945514,-1.0251696683927,0.0269313302937587,0.0220329724972203,-0.273466066105082,-0.0465947167798267,-0.465636885704965,-0.946646805884152,0.13836018396367,-0.00476293067881982,-0.326589579583797,0.246319712864972,0.151966954471263
66.995,-0.477728175437076,0.171111431454839,0.856134895845281,0.0353417792224863,0.0956315703247033,0.0203384509062316,-0.964057210158983,0.00312727826048723,-0.0506353716092661,0.00204310431528698,0.00996438554851522,0.0812037680944824,-1.00116561915987,0.0447998026164344,0.016001340488533,-0.116152603469787,-0.013056254890764,-0.429459844518134,-0.954401553944118,0.139429079640506,0.0267239223030602,-0.275542933835937,0.226434051990509,0.113186430433138
67,-0.482219855270259,0.17639019884471,0.85297090134457,0.0335135623153848,0.0992303564771226,0.0298748098335239,-0.965276097053722,0.0106485984244109,-0.0573150566220283,-0.0109296667582746,0.00383730292458438,0.0788930040556459,-0.975931034151623,0.0550067581109944,0.00753856565389168,-0.00347774704378063,0.0148392384629464,-0.402033666204005,-0.944668869256714,0.143268928470078,0.0521112919966351,-0.211473286709982,0.236501920940839,0.087313841025157
67.005,-0.492785962247773,0.181668319413823,0.852500679700112,0.0387887996909249,0.102778647505889,0.0395193763422945,-0.964106333571824,0.0231780880643348,-0.0593302766410845,0.0035198356189237,0.00799937535982492,0.060739172118384,-0.95638676010561,0.0647269709384992,-0.00158907740296163,0.126336391171282,0.0464069790037011,-0.386840365892319,-0.931102181384529,0.148707660587419,0.0650875021898702,-0.146325474161683,0.251722656904433,0.0771212257638559
67.01,-0.488850123233644,0.17810389083685,0.84910139828954,0.0415851838342954,0.103607918009757,0.0593523681163788,-0.961038474007638,0.0428553599153192,-0.0614211494207297,0.0245613897179453,0.0204425566283366,0.0466882252756005,-0.945036446457201,0.0746793039579823,-0.0131252233835517,0.2218506111209,0.0724883286885259,-0.354048819515866,-0.928449026740508,0.142978511216445,0.0628141908548417,-0.09463313168971,0.264184291186414,0.0644639237208508
67.015,-0.481422638714069,0.17087369756206,0.855606253944047,0.0534205873062761,0.0946233616742689,0.0611383982135858,-0.971136749056188,0.0595859459746989,-0.0510761996789967,0.0301883008274231,0.0214538283196113,0.0442845991839338,-0.937657319157253,0.0783856701929713,-0.0155469922651886,0.247428824500605,0.0945354903125578,-0.345293073413573,-0.930990025180385,0.143697160280688,0.044489745566743,-0.0560426634348227,0.251953971475595,0.0570714469641209
67.02,-0.478657513348939,0.179593442635121,0.858057092089231,0.0726339582203452,0.0943481740184716,0.0589785306368016,-0.97806470990167,0.0862981946241947,-0.0377744205770885,0.0201493326937599,0.0405039543692716,0.0395698252179679,-0.932636129621487,0.0856007154808335,-0.0168504232572818,0.266177371306662,0.122929614937694,-0.34199172949926,-0.937020369204046,0.133262204385311,0.029577854389244,-0.0416731487543444,0.254960744432585,0.0543483058306314
67.025,-0.478021509323478,0.183021249435779,0.84875485169491,0.0776369802624841,0.0979691635456637,0.0624822704429947,-0.981885919718764,0.101613847357907,-0.0421044234510762,-0.00362070674066027,0.0490731176219677,0.0346290157992495,-0.934745979440186,0.0874426327320356,-0.0128493671500042,0.280056348192788,0.140265728622278,-0.349633239767028,-0.950170343669976,0.121687995761818,0.0120283778265797,-0.0525038191605972,0.243462505938726,0.0497453852777994
67.03,-0.477024926709646,0.185401860118149,0.849365425093974,0.0758113717814514,0.0947590006767144,0.0691259205341339,-0.981371264412355,0.114900273473453,-0.0394949352594466,-0.0259660785230064,0.0609918679839073,0.0281726038006144,-0.935273600269863,0.0894871714690332,-0.0123501601413927,0.30452543432717,0.153833135135716,-0.364448309403377,-0.956326651974418,0.112404048871887,0.000726380799136563,-0.0726514081449881,0.204298187753897,0.0504519979165518
67.035,-0.478735709260104,0.200748351340992,0.844901721508471,0.0714792711034209,0.0925175973542762,0.0696578960857974,-0.984767387487599,0.133169301108704,-0.0317620020571896,-0.0400727738812762,0.0718471658366433,0.0187431602440415,-0.949225769106086,0.0918845836599194,-0.014654803122626,0.377069386032191,0.15998347488573,-0.408188870206144,-0.96308731083982,0.104691709231782,-0.0171388887572631,-0.0967866721826261,0.155517006679948,0.0537034691975909
67.04,-0.473822033639456,0.203254770835967,0.844907254539343,0.0703229280947223,0.0824255199175209,0.0709366724518359,-0.976998878125204,0.155359821504703,-0.0261361112793384,-0.0678475224882889,0.0914454786122593,0.00885499693479862,-0.965575448206326,0.102181518637269,-0.0181847893569361,0.41522339072515,0.155124361409779,-0.423968728301268,-0.960245960754906,0.102509264232504,-0.0190064920400155,-0.10548882475953,0.108702012871818,0.0556277841753725
67.045,-0.469876300815213,0.205046085928556,0.844800759941815,0.0609096956967723,0.0704852452728187,0.0646190706236318,-0.972755982644504,0.166601929524321,-0.0230567965700793,-0.0939782773139688,0.11283383716277,0.0088835429786613,-0.978274434171083,0.107021235107953,-0.0283743872143496,0.407016699805047,0.145130175001515,-0.44345644197039,-0.963924845217497,0.0957267277359122,-0.0193341240496765,-0.10721692442894,0.0657095808675117,0.055494344820254
67.05,-0.464684042131959,0.230537818361346,0.835438021772466,0.0565113794504126,0.044116838657025,0.0582248637917373,-0.961154010743561,0.174252683965396,-0.00165500961076925,-0.0913879315678802,0.135214892697374,0.00311622479591769,-0.991119267690092,0.106121907438035,-0.0388286360569811,0.390350149630148,0.138492253286187,-0.449847674642912,-0.966606434181885,0.0923816249188242,-0.0102786832220089,-0.0939203346821524,0.0199392351767399,0.0493371335194934
67.055,-0.461024922050788,0.239339140451799,0.84476210271264,0.0418244008147537,0.0395065499911249,0.0483571141958237,-0.958883690852403,0.157095866259063,0.0100746576412465,-0.0913718175262345,0.155466929514439,-0.0111457532801583,-1.00122310031437,0.10983047804591,-0.0479576467378451,0.373394995777367,0.129541020734922,-0.443912200268299,-0.971866900155974,0.0877811734434829,-0.00689594983382321,-0.0767314649264311,-0.00307997609949276,0.0357609702968108
67.06,-0.459444909525713,0.2184716425432,0.851507541674399,0.0109845662377401,0.030940262754866,0.040552626861318,-0.960297724355077,0.138202995404091,0.00943821975912284,-0.103752678614522,0.172392182069059,-0.0182064677155138,-1.013545171717,0.11054154648572,-0.0554202296273278,0.377834054264899,0.126120576059847,-0.436497070012085,-0.96392659433556,0.0856814261993774,-0.00914402733738265,-0.0541260926799401,-0.0160617311522082,0.0200406224617852
67.065,-0.463316182343056,0.197688437223349,0.857269037780057,0.00320044707674722,0.0282781009238913,0.0317441163561218,-0.95247496059708,0.141356256101543,0.0204355922034912,-0.109136582962381,0.200896536951995,-0.00597928169862937,-1.02070629100644,0.10852521553501,-0.057286282000852,0.406290223429602,0.124718978780195,-0.416292106488454,-0.964286096165667,0.0787596625002666,-0.0120705234055841,-0.0577185155503376,-0.0138119252803117,0.00200582251071495
67.07,-0.474528570672032,0.197768519578848,0.858266197928388,-0.00454209179286599,0.0176220431406753,0.0193962365980263,-0.94335083096973,0.133285534146305,0.0246851066268338,-0.107883208461927,0.215197641002492,0.0139357135905806,-1.0345457090388,0.115131166060307,-0.0563489556898421,0.418176047029899,0.120075382292271,-0.391158992736284,-0.955474328665386,0.082148715386879,-0.0152958325134004,-0.0522724136209747,-0.0215328998393949,-0.0233294905894593
67.075,-0.465248292022128,0.200388216545236,0.860327325079977,-0.00554690599817964,0.0119053460657597,0.0071263823887166,-0.949080423951887,0.12145012484423,0.0212183974918335,-0.10038848933479,0.242191347378675,0.0114517856569299,-1.04638763372503,0.123094212454266,-0.0536850027855045,0.439448037917895,0.119757196278128,-0.363455321614874,-0.956986493241878,0.0788757081518642,-0.0264345841634434,-0.0426911211850201,-0.0196813877583177,-0.0369167721508305
67.08,-0.468996627109772,0.191560619577261,0.863044248390737,-0.0119506139308214,0.0144766806490155,0.00225569486676471,-0.967744662685676,0.118200380798077,0.00106341800804471,-0.0793035408566284,0.26362841061631,-0.0100442302234254,-1.05808793266386,0.137884657235489,-0.0496236991652343,0.456268726641626,0.118213343876202,-0.32845102098512,-0.968720127570223,0.0631001822525857,-0.0309747320729028,-0.0136987312461877,-0.0195696393403024,-0.0625205254072991
67.085,-0.483084289992643,0.195953248102209,0.853320389830875,-0.0108706420570448,0.0135522068693829,-0.00187408088742049,-0.988475910945157,0.119511368442242,-0.014811100352859,-0.0245691921712663,0.285367170751451,-0.0397439858137719,-1.06968299603686,0.159663901648928,-0.044858492701417,0.480793338207125,0.118853680789471,-0.293597772714954,-0.965262928127498,0.0601622535107405,-0.0387685939088277,0.0110671908137723,-0.025014769346711,-0.0767059263616038
67.09,-0.484217474299884,0.193851556555908,0.846570168056316,-0.0261479948930428,0.0187725608520195,-0.00513840422625289,-0.996186109493473,0.124123846149047,-0.0131472200952893,0.0460938648818625,0.309822185861104,-0.0699134433604794,-1.08082155950303,0.178995794639623,-0.0315938002532786,0.513132702732306,0.115339903301158,-0.254478210604175,-0.982005336356452,0.048180011245809,-0.0472510930556929,0.0488161674868783,0.00476183258648151,-0.0899893095821072
67.095,-0.4744575943624,0.202658486496536,0.852307348551687,-0.0225898369260208,0.0135598740549518,-0.00851101755799592,-0.995377179068589,0.13258103805421,-0.0130851760045322,0.0737642942658,0.331370264990951,-0.0919517428047455,-1.09459652497583,0.192928219866233,-0.0206057514567394,0.511775472164904,0.101939181772612,-0.214002522750919,-0.986626760045059,0.03819960150077,-0.0502880256925117,0.0938808436299995,0.0278995269554307,-0.0991636710020173
67.1,-0.468562154587414,0.206130255690329,0.85139095943223,-0.025746075774928,0.0138406837535072,-0.00784083269536495,-0.990510544706016,0.145614114020678,-0.00756148062449897,0.0824300105296019,0.349431734781994,-0.106825930063688,-1.10162493804342,0.192841127770889,-0.0115266956129309,0.495183786442509,0.0845392922925784,-0.16860743963182,-0.991018062769279,0.0252650617950081,-0.065089507347124,0.144806712185192,0.0537130888423862,-0.111329773121335
67.105,-0.467574266012286,0.208794413798438,0.855023766977495,-0.0217708145792715,0.0034778693068757,-0.0211084411814272,-0.992276267845103,0.156379646533148,-0.0032548239720042,0.0624411001107768,0.373338256401684,-0.120150475958931,-1.10474682069113,0.183336169572694,-0.00944549376453736,0.453099223137833,0.0708456211621027,-0.128860713302703,-0.991630765297022,0.0178375428654678,-0.0720844601001949,0.191408867589288,0.0650543497176799,-0.119474471081032
67.11,-0.467668386312062,0.202091015325259,0.852218768396352,-0.0233299474608131,-0.00303419220029237,-0.0289582904328022,-0.973210884135345,0.148644952022037,-0.00781931989415912,0.022848558037195,0.394008468229429,-0.116897836327553,-1.09375872727765,0.16616879168453,-0.0115701701643384,0.368058905295052,0.0398025656777079,-0.0772402584248802,-0.986623010280945,0.0141692894812267,-0.0817493897225054,0.227840061718095,0.077865348869283,-0.124359101769535
67.115,-0.46900732112775,0.202917620908632,0.854567231429917,-0.0222272642107365,-0.00685132947502975,-0.0389581224182516,-0.972335450508387,0.133566516795315,-0.0249381726033094,-0.0162398738508916,0.409559053937203,-0.119619707874418,-1.08475329099716,0.151434580456349,-0.0141515851754883,0.287682563774697,0.0237370736793075,-0.0274139103114804,-0.989987952664665,0.00775175309900843,-0.0890365861063466,0.27294352924204,0.0904898786456396,-0.131819451660556
67.12,-0.471753799307888,0.198373560042715,0.859570168336553,-0.0276366469830052,-0.00488152312977704,-0.0448085230684895,-0.969657328979775,0.120481272473097,-0.0411512194263148,-0.0403808484422545,0.418174913795437,-0.13392622503765,-1.07500032707823,0.137757097808219,-0.0177111524360297,0.188486237462288,0.00236784383412517,0.0175064076531665,-0.991869168446795,0.00430399462202391,-0.0826678357179726,0.300952958320901,0.109596192910912,-0.144755340066532
67.125,-0.477337034577813,0.194943315156815,0.85539901401354,-0.0290543362498283,-0.00949998885605381,-0.0525558901963126,-0.967808345207496,0.0995703942250186,-0.0614485177084988,-0.0292220501844701,0.429192687357564,-0.150954941116186,-1.06449584035551,0.115336835124823,-0.0257008019061688,0.0851644724436151,-0.0118858919612366,0.054412077768873,-0.993888739120216,0.00924557276081033,-0.0777141373169213,0.318466232186657,0.141409379398813,-0.154412766931489
67.13,-0.481366788856292,0.191074306544753,0.856447110605034,-0.0347168809639943,-0.0130457208118526,-0.0573682841405178,-0.972963966855247,0.0933667932331649,-0.0713662871861159,-0.021367359906435,0.431016739713273,-0.16693475169098,-1.0508454911297,0.0958015252041813,-0.0300423840175075,-0.0314259252899872,-0.0269013950549775,0.0827988041204709,-1.00969840751297,0.0148544143015017,-0.0792198140608764,0.369498616506453,0.168505064505454,-0.17221677095484
67.135,-0.480949766981245,0.197193013854581,0.85362013932427,-0.0410609902166008,-0.0161235308587894,-0.0648949675356408,-0.979778952326375,0.0907959026831497,-0.0859128226734295,-0.0224683685006156,0.436732863854178,-0.172975099623348,-1.03029096675205,0.0818751785583171,-0.036112735561751,-0.100506147345323,-0.0304799131531576,0.101814198295483,-1.01317154200629,0.0215778000359699,-0.0771026860594172,0.360270506281782,0.190303772613936,-0.181444901226125
67.14,-0.488174543981626,0.195387059655495,0.849074301298448,-0.0511044371752747,-0.0121284060170267,-0.0647794620134647,-0.986874753364022,0.0970402656480207,-0.101323918323995,-0.0238107480108738,0.439238794425385,-0.177717556313775,-1.0128016309828,0.0828165685561165,-0.0402437746737535,-0.13460929488234,-0.0342644399901937,0.117237778328405,-1.02302683427262,0.0349005416076054,-0.0689580733442965,0.350460914413916,0.214368851151652,-0.184383122645057
67.145,-0.490243552761979,0.188438154673502,0.851924463390508,-0.063063652096054,-0.0172667302939929,-0.0593005936599321,-0.992454176481178,0.107962767519162,-0.113475773463925,-0.0145341551443483,0.442345850005623,-0.191959572743873,-1.00107254461928,0.0865320342638088,-0.044290354323216,-0.165606089567662,-0.0373461314619311,0.128521321830934,-1.03455094185893,0.037235275226779,-0.0671752665251493,0.357954175611885,0.231026296877653,-0.187746990999449
67.15,-0.476205007572961,0.196513070015431,0.850359315304849,-0.0698833888906833,-0.0165844814300805,-0.0630736503819614,-0.995399304795353,0.10580335874913,-0.112729738440906,-0.0151726569270836,0.435288255254977,-0.203324821832637,-0.984930229000281,0.0855645339570491,-0.0442868575521257,-0.216943427381316,-0.0374997502276972,0.134805309545399,-1.05027470370487,0.050345651971716,-0.0581163194978396,0.364307448555723,0.239336412119931,-0.191541775275556
67.155,-0.462102654539375,0.206640753331757,0.852944298995422,-0.0734268306356232,-0.0169294036993471,-0.0661897001877838,-0.993045936739788,0.0997717122052844,-0.115112228765367,-0.0231709426642213,0.426281550788364,-0.208311652326713,-0.977978286961528,0.0746788930143953,-0.0411595875225239,-0.306292581752356,-0.0301930513232946,0.13366286885635,-1.03785454507712,0.0565813609902827,-0.0485566911626061,0.357565678339473,0.25429011014586,-0.187473293552165
67.16,-0.458843374489786,0.209426237019002,0.850212996985477,-0.0900395031721503,-0.0246193296137834,-0.0766342039512947,-0.994053647986603,0.097841869194576,-0.12019610532759,-0.0373985610614646,0.41723412841733,-0.208919725320492,-0.965554823877272,0.0437591132684694,-0.0416880674371495,-0.448710559106287,-0.0270883860370276,0.128175568317257,-1.04323507540023,0.066785208461291,-0.0331762361337297,0.364411628772277,0.2544785673127,-0.189629635740775
67.165,-0.461506567223346,0.197310449673874,0.848501651886108,-0.0843400089051423,-0.0306683073020277,-0.0882560739672047,-0.995440544291443,0.0930809857511809,-0.128492690178079,-0.0537484271976828,0.393591624599748,-0.201557570925148,-0.950776573535993,0.0102405313159526,-0.0432566404592597,-0.592888209433507,-0.0241945181549169,0.1097129876054,-1.05435045780857,0.0737730272051808,-0.0238278351458541,0.377719880756707,0.238986437851401,-0.189834689456186
67.17,-0.469975067221981,0.185641856972753,0.85750661190734,-0.083659708967303,-0.0381841287016869,-0.103929292176915,-0.989905793567588,0.0786371638947872,-0.139424980773418,-0.0669763644602426,0.381753592313757,-0.195392401553343,-0.937623461302817,-0.0151499990889739,-0.047879081294914,-0.706759418356227,-0.0244213665380439,0.0779561051190859,-1.04717208738572,0.0790077862750376,-0.0134911751607326,0.363765755219719,0.21762532902163,-0.185762235346619
67.175,-0.480179623323758,0.170783808454541,0.857772176517292,-0.0779221132397652,-0.0381841287016869,-0.109004246183366,-0.98727121721317,0.0388353321141755,-0.156630261368291,-0.0746220642209,0.369251290016096,-0.190699354422098,-0.923575183019301,-0.0361213693174105,-0.0563281967778115,-0.800400188561358,-0.0242128846054864,0.0299781860795736,-1.04984661284345,0.085793355715716,-0.00513776542017869,0.360796074673304,0.199816676461529,-0.180269473486512
67.18,-0.492747986286028,0.153120161167594,0.862118073340077,-0.0701982965795931,-0.0313185125841951,-0.10739385699391,-0.991701318742826,0.00677666326799123,-0.167700919206662,-0.0400780166189321,0.358556673886742,-0.199614886996774,-0.915819164982658,-0.0444796318399433,-0.0624664754806746,-0.854283556344755,-0.0196320798230447,-0.0126399353243274,-1.05606847549492,0.0935618015429901,0.00784182051697312,0.365335044765233,0.169743247769427,-0.177603786373123
67.185,-0.484873382788015,0.146717427628092,0.860731370989304,-0.0552035233293933,-0.0319275781683613,-0.10323172801534,-0.99522928033451,-0.00672188275688411,-0.17212927726124,0.0263417173922929,0.343214625293976,-0.212628639833275,-0.913703591786395,-0.0444514048593178,-0.0684441729786131,-0.898526823207389,-0.0137781819771495,-0.0629560169261148,-1.06058033140026,0.10539927088088,0.00656845369753512,0.342515836515591,0.149572301806051,-0.168353021530027
67.19,-0.489116160582541,0.102076660121567,0.867597925623195,-0.0464131004870759,-0.0182878994477779,-0.088606879790436,-0.99141309618493,-0.0145853713337768,-0.171483385503748,0.116098323354865,0.321609568465174,-0.224683090812377,-0.917008102012047,-0.0523565215011809,-0.0731422752437732,-0.951135212484907,-0.00516686604046144,-0.0992487193800722,-1.07114489862286,0.121674791904368,0.00506888676015472,0.340919842626167,0.118429638586488,-0.172178771712685
67.195,-0.490786239630787,0.159876916214524,0.859170169357112,-0.0362360053090718,-0.00260648951762063,-0.0771005542140393,-1.00336795035655,0.00215409856984388,-0.171270398591467,0.18887739910553,0.304924075614705,-0.228472038635483,-0.924302262545566,-0.0523726513318764,-0.0671665221487821,-0.978098473859584,0.0155934560695025,-0.135442027899428,-1.06291765842577,0.133045447319427,0.0111751956513373,0.328351126866871,0.0907496430661345,-0.154570280165144
67.2,-0.486049117547202,0.167896489692042,0.861753716018213,-0.0252352283031642,0.00650398558448959,-0.0657365488218032,-1.01385912059387,0.0280686524473843,-0.166385769880742,0.227080088682591,0.289884166821014,-0.225692408188354,-0.930769053026184,-0.0578310989190029,-0.0630851806838139,-0.999712115396647,0.0412889115107839,-0.172987915282677,-1.0785926281997,0.137268297597286,0.008213250032106,0.331711629886652,0.0739299124331487,-0.141677237871797
67.205,-0.486279075173675,0.170647304155088,0.865911689337368,-0.0118199429907314,0.0138032226141338,-0.0670219754516212,-1.01668899631862,0.0522668773198325,-0.166329712652565,0.25792659358939,0.280733291864912,-0.218641713433607,-0.942375605928827,-0.0528905710968422,-0.0524499858729961,-1.01322937004887,0.0708402336195333,-0.210827961811414,-1.08604299643521,0.137039012822567,0.00711152648819743,0.346915902190351,0.0420866290073642,-0.146296123101391
67.21,-0.484550197140667,0.180646384811804,0.856564218563677,-0.0024824826072792,0.0243860650993088,-0.0570695662121174,-1.01452737841788,0.0702188449474225,-0.161176423457107,0.280286871446835,0.266190448200016,-0.223122669500557,-0.962310134049794,-0.0416104805364809,-0.0380075296567738,-0.992539878731676,0.0992179274668506,-0.245045421531414,-1.08865069804726,0.148523655646763,0.0078717059129404,0.346686513061728,-0.00300761086629076,-0.139038547171973
67.215,-0.478595076272772,0.189833003396741,0.860978461895077,0.0129024014919981,0.0304643986264721,-0.0605413436795663,-1.00648714655703,0.0904350667684684,-0.164682364397656,0.31188367400246,0.24950447678566,-0.244361218955907,-0.975702586445312,-0.0351911368814851,-0.021728074154954,-1.00845118508267,0.115989341862504,-0.274486376896509,-1.07915044392952,0.150402796821114,0.00986136385298315,0.32955238371699,-0.0371504527434471,-0.135347007316746
67.22,-0.478435462794845,0.192282723042156,0.855695221617597,0.010694020798459,0.0380669243573617,-0.0613856777428529,-1.0047962311855,0.103652805774704,-0.163013307559953,0.334017558273653,0.237025928847011,-0.261656864785889,-0.98743761418762,-0.0290486481871762,-0.00343397747531708,-1.01467754028106,0.13256027446936,-0.296814314647366,-1.08218954889519,0.145060805147724,0.0170549725831295,0.316069589239837,-0.0603622446516045,-0.137598901202886
67.225,-0.477611103686415,0.194836661267103,0.857942247431415,0.0146688235476343,0.0398753995343565,-0.0617243086651446,-1.00588785209339,0.107381255032034,-0.156977315590103,0.344503864586086,0.229054221993493,-0.269131812182031,-0.998191256947255,-0.0254834858462205,0.00883387798858536,-1.02376820613318,0.148495347236204,-0.312300129064654,-1.08256173928082,0.150008990842659,0.0159541270905697,0.30389587331256,-0.0754614661759779,-0.140476748203598
67.23,-0.478164244551124,0.19797054348584,0.86456546559068,0.017435646048184,0.0367027393526161,-0.0664821714162827,-0.999360030459261,0.105860170979117,-0.153191352780875,0.34286708219912,0.211532998255622,-0.278295717391849,-1.00741643644807,-0.0305326047705589,0.0312256530363434,-1.03901564208355,0.153890809502796,-0.328927899845605,-1.08068281143241,0.155660219528252,0.0213790000085143,0.307112856958686,-0.104563180302544,-0.154233701156764
67.235,-0.48029656829845,0.197994395696615,0.85645129129411,0.0120017547048025,0.0454618168465368,-0.069335772391196,-0.994392272181865,0.106879208940338,-0.150494921960546,0.343919306993484,0.198481274638503,-0.286713361740112,-1.0131222334234,-0.029694269805992,0.0501761344998487,-1.0326084737783,0.163607525591022,-0.342346843727496,-1.08246793231528,0.153691473604326,0.0265315161857526,0.307956469588431,-0.132600339318068,-0.162015147914515
67.24,-0.480035309332467,0.198559669364706,0.853143892713237,0.0171525637102794,0.0461127907037735,-0.0725906416773796,-0.990195171974209,0.0978560870902787,-0.148519745181157,0.343056128184852,0.197542566050979,-0.292755508119426,-1.01803215763806,-0.0231200493021502,0.0662585500722394,-1.00514601065905,0.17305180445145,-0.353141305503897,-1.07976988888789,0.146490268559681,0.039113084427698,0.306515635996269,-0.160711255494075,-0.178070135836705
67.245,-0.485709229121769,0.197699165634033,0.852387219721027,0.0113118375686149,0.0461127907037735,-0.0725906416773796,-0.986211151322402,0.0871512970090349,-0.137357149172614,0.336782951795641,0.189835269891802,-0.301179895206794,-1.02102704613911,-0.0123110236439748,0.0806798250356178,-0.95563353620364,0.176273316144943,-0.367303113007871,-1.07493556905248,0.1443767279088,0.0418425136805679,0.300247893056803,-0.179002398867193,-0.192172708391696
67.25,-0.476396035625972,0.193279954685678,0.854849836082766,0.00411283587110285,0.047813512187706,-0.0797224032236268,-0.983607124334165,0.0737255772783224,-0.134484434008861,0.344626920738937,0.184497633238197,-0.312432445322025,-1.02387813860386,-0.00943957702047881,0.096585893055329,-0.89608364808,0.178344132342402,-0.37093670757793,-1.0613289538237,0.141993434338414,0.0369188345042559,0.307900382214871,-0.202825903837493,-0.214261691976909
67.255,-0.4726893500536,0.195156119257349,0.858990031568872,0.00286799000066994,0.0423078691974379,-0.0845463376993573,-0.984186267348954,0.0703626676203741,-0.128488094795785,0.345255755365555,0.179951547461736,-0.318279003803924,-1.02296819266336,0.000604665482880944,0.10911710273185,-0.825864278343924,0.182843877292037,-0.384059101343155,-1.05120896408819,0.134647505393279,0.0283791612179639,0.318368737680671,-0.232456687735181,-0.235322819353862
67.26,-0.47268785704279,0.193801001121961,0.86368317736797,-0.00860548040497586,0.046857428006307,-0.0803454936911723,-0.988422895632557,0.0678087418689927,-0.129767433218422,0.350336247799292,0.172685846120115,-0.318934037440744,-1.02057099529293,0.00683669608232122,0.119430145493246,-0.785583548759236,0.182915196831562,-0.384747384969852,-1.03983579704673,0.129406219070194,0.0179061377735213,0.335741247158797,-0.273426791869702,-0.255699305166281
67.265,-0.480329678217158,0.196442371449375,0.859293957504475,-0.0173595155333607,0.0607122744925088,-0.0821310039806557,-0.992016825231616,0.0648317452026373,-0.12694830801047,0.346966548429111,0.170245294117266,-0.322760329975506,-1.01790090720919,0.0104789057178352,0.127825811918422,-0.716646984819637,0.18136889308556,-0.395409746237773,-1.0343193728411,0.121731139496871,-0.0026484321057347,0.35964021821765,-0.333700063237402,-0.280150391061584
67.27,-0.481222600564085,0.192432498929765,0.865057451916983,-0.0102581411725368,0.0606123212219298,-0.0830852833469887,-1.00431334880393,0.0611887131150428,-0.126045998496552,0.344703093192051,0.169748422771294,-0.331443229281782,-1.01814076595421,0.0105025682280657,0.129400495310522,-0.653993716446762,0.178884857392084,-0.411777144953733,-1.02019421779185,0.118680600271696,-0.0140958633964183,0.375372122028597,-0.403937095558316,-0.299899749206295
67.275,-0.480765927145134,0.193826764895127,0.862498539506598,-0.012586985163914,0.0788943513589949,-0.0788012087664082,-0.998084930511821,0.0703147320018839,-0.127116677166012,0.349309152499809,0.173759415745735,-0.345426587832483,-1.01679001303488,0.0115692076896091,0.129378197207106,-0.599240659875596,0.179438748868992,-0.425039309579959,-1.01078379023116,0.11431413898517,-0.0227045085797106,0.390818324766926,-0.46917959603923,-0.316033895043504
67.28,-0.483631388368753,0.197880516175803,0.860378954454415,-0.0181181954271926,0.0875096519721365,-0.0753746411469376,-0.997401012972709,0.0776497863615759,-0.123789302426917,0.353118915324351,0.1788462375653,-0.361636833180153,-1.01398696306264,0.0175422357541088,0.124709391352323,-0.551961247131744,0.179516612593059,-0.441391383588177,-1.00009111938004,0.107069098319102,-0.0190292449338885,0.394883214185558,-0.522200972854696,-0.332051354631845
67.285,-0.480767397340814,0.197853428715911,0.861973117614323,-0.0131587303859493,0.0937826344480454,-0.0738157301275781,-0.999209254001196,0.0841259916803579,-0.123613411011788,0.347666647626134,0.191838064664571,-0.372094904387781,-1.01766119574004,0.0239470654520256,0.117000130842986,-0.492028813902646,0.182221643791772,-0.453055084412006,-0.995040696075304,0.0978527183608102,-0.00903075427802756,0.391938469293645,-0.552619554620672,-0.345248051998088
67.29,-0.483752139741887,0.200867401968037,0.858485914520068,-0.00846180521470448,0.103368390470456,-0.0753865801194347,-0.999165313769085,0.0886493670470256,-0.116541199674475,0.344496196000237,0.196182576320297,-0.389055653380456,-1.02241541596693,0.0317360501826358,0.106519020499386,-0.426201989610454,0.189115512018542,-0.437456380982177,-0.99624306833495,0.0861878705801403,-0.00878990420438763,0.347936280426645,-0.55202115005426,-0.349335463309962
67.295,-0.482966796641765,0.207190900807395,0.85736224460748,-0.00900981004246508,0.113122808118278,-0.0764825889394458,-0.994404901893209,0.0862644951044942,-0.107578555899025,0.348806083202362,0.20222752425463,-0.407092754267262,-1.02455022325798,0.0409918976649005,0.0950145409666848,-0.360509595991448,0.197460931736515,-0.429157625279615,-1.01468328226272,0.0742638235824264,-0.00662920219398516,0.309275185051501,-0.528790239365918,-0.345520714687516
