Header,foot_Accel_X,foot_Accel_Y,foot_Accel_Z,foot_Gyro_X,foot_Gyro_Y,foot_Gyro_Z,shank_Accel_X,shank_Accel_Y,shank_Accel_Z,shank_Gyro_X,shank_Gyro_Y,shank_Gyro_Z,thigh_Accel_X,thigh_Accel_Y,thigh_Accel_Z,thigh_Gyro_X,thigh_Gyro_Y,thigh_Gyro_Z,trunk_Accel_X,trunk_Accel_Y,trunk_Accel_Z,trunk_Gyro_X,trunk_Gyro_Y,trunk_Gyro_Z
24.105,-0.468578996168502,0.444927654743517,1.14218434298681,-0.526526354635213,5.20223897602791,-0.699649834990074,-2.16153021937494,0.11709461904238,-0.113852434086476,0.722415546290572,3.06941456667023,-1.77040787980057,-1.64140775011632,0.449437317037373,0.25166431393278,0.931149476634156,0.214232579070879,0.936289177878823,-1.85050349596784,-0.0396256184435794,0.177274634376194,0.0896425692295225,-0.843104243345681,-0.368286930616528
24.11,-0.30661480890722,0.416370987467007,1.13367487897919,-0.721164518911915,5.74804434463273,-0.924500157423841,-2.21238296817737,0.120678597144813,0.0188380881180318,0.490522652864456,3.14193008781236,-2.04183488413458,-1.67359798008782,0.563743954432894,0.346869237645981,0.918398463180367,0.258647606274258,1.09565562905941,-1.73369821134307,-0.0527492281344105,0.060232352769066,0.101912895551349,-1.07771193911233,-0.408308566377898
24.115,-0.33473347515354,0.342222038739605,1.10961449172613,-0.854394584223883,6.2122029072203,-1.10196105646767,-2.2253271716508,0.0740772216955841,0.0312990895867688,0.512289777882411,3.11428177446585,-2.02110945352723,-1.65292870227097,0.607167540193248,0.458985736271443,0.807976229213013,0.284951681522649,1.48887830832949,-1.61102915754464,-0.0394647667150939,0.0248739885789299,0.0521713609331206,-1.33216456630836,-0.332143743220352
24.12,-0.462882851461602,0.345057972823369,1.08961517148481,-1.05540957662034,6.8072549437451,-1.26007238074937,-2.18823119783418,0.012205430310857,0.0445017287636391,0.621947883510944,3.08453010686432,-1.93966118251278,-1.58178498073401,0.524847035900346,0.560716118544016,0.653596881021858,0.177643095433825,1.83018659592391,-1.5421811252265,-0.0267448904351387,0.0463822917307979,-0.0396460330837797,-1.46006278633754,-0.271143083319417
24.125,-0.534972019680601,0.381587228404472,1.06535285370731,-1.3336913885681,7.36942644302223,-1.3534376785754,-2.13278369073166,-0.0323690689077745,0.086019418926331,0.753372255333308,3.13893779258682,-1.93046408752565,-1.51730179251842,0.379615182518215,0.574255840892183,0.303562340546324,0.0326130850472204,1.91880488809716,-1.35130597410266,-0.0497893937472029,0.0956482907971821,-0.222236672705538,-1.42154788507499,-0.191769790961956
24.13,-0.564446410712471,0.416139384654948,1.06435056549749,-1.57468856227437,8.04386720096434,-1.45388577007279,-2.11945607368665,-0.0191022338183935,0.216873841309651,0.947247175397773,3.23561259165257,-2.07484892342801,-1.50852736774361,0.293599184877551,0.457683377085742,0.0781333706351247,-0.0424954964351604,1.9281247959626,-1.16699198919383,-0.0484768133863059,0.111368962351437,-0.258457999112879,-1.20146432215761,-0.175665595402051
24.135,-0.597187135297951,0.497169295533388,1.0346660822184,-1.63526225329768,8.591167838543,-1.55913221890209,-2.19066810639563,0.00194138415719064,0.364285150304866,1.09463553865004,3.29421279358173,-2.23069133539417,-1.54270512041119,0.284428030571753,0.252562635105577,0.175391944436912,0.0119495543311257,2.04921486336575,-1.65668130571173,0.0158493913709933,-0.0156115414791159,-0.331736096372188,-1.07769976200176,-0.220668835965686
24.14,-0.64409303831847,0.624302635999536,1.00729653281738,-2.24928410289515,9.26515614176136,-1.78259790160962,-2.27262643642213,0.0411860194434869,0.450412774123674,1.19482592024114,3.27829467869551,-2.28120167549962,-1.58379099583133,0.313928023501726,0.076706133179938,0.468789216039423,0.150588753904273,2.25450349735627,-1.29424247709229,0.0107862402575089,-0.0507529808051774,-0.279103098450977,-1.01827976965818,-0.0747607116654032
24.145,-0.659415657917635,0.773737736746228,1.00144371037977,-2.63709305778461,9.89720535065809,-2.0358516822084,-2.31364409202072,0.128457110082776,0.508590458279019,1.38554254389665,3.241055310295,-2.24967971779177,-1.60288033812904,0.33749267230585,-0.131980680076789,0.656175809709342,0.354362078301643,2.58056379325937,-1.21843639703959,0.0688841176350064,-0.0612917952063437,-0.426274479902157,-0.726561560811739,-0.00277203349000447
24.15,-0.646411737577392,0.945524264793963,0.984989957179232,-3.13308746589453,10.4929801881719,-2.34392075235551,-2.3287908904178,0.242419334571722,0.555842071720883,1.39651869201222,3.0451106923752,-2.22575729788184,-1.56629484546801,0.316890665292048,-0.257851272293672,0.594864525602546,0.49176628412251,2.7986798970799,-1.16126868670494,0.0723937944591385,-0.0678522608271867,-0.426935532544382,-0.422911710785317,0.0158656882037923
24.155,-0.844852628738565,0.763568531929795,0.831760556906988,-3.93342890671385,11.1610212466773,-2.65152546469277,-2.22357512463576,0.351128013060807,0.533941404465594,1.3764197113911,2.93805789478206,-2.16458822505862,-1.49695929011158,0.244985585887865,-0.472855112554029,0.503454176387259,0.606622803043699,2.98631037799737,-1.04396864171522,0.0249185375745426,-0.0856302933881483,-0.411119215628201,0.00551640026033069,0.0469341815875287
24.16,-1.10666430731107,0.504903564569733,0.908305405096075,-4.53281105840692,11.6456406400489,-2.75362368083375,-2.08538416550409,0.399270511332045,0.458022043494692,1.16723663307767,2.82300066306949,-2.0074667116364,-1.44461467756629,0.180834471700228,-0.609469112720202,0.494953417539654,0.685711112059379,3.14662028635581,-1.133890263365,-0.0169847723887921,-0.0967970197575818,-0.324572382683144,0.441519724340122,-0.039184473340518
24.165,-0.99086317641447,0.261404714397941,0.0896654932553227,-5.02425049766603,12.2534637587922,-2.89918452341433,-1.82689052711093,0.396654703948647,0.348110980894455,1.0752749162061,2.72704287380799,-1.90580125567816,-1.38351233624065,0.104622220464542,-0.679162303860707,0.554940514664092,0.750692245669117,3.32465855317553,-1.00717475610799,-0.0423019671224114,-0.106333048482996,-0.262713026838141,0.48063126734492,-0.0344758138009447
24.17,-1.45968099446849,-0.0332037490873752,1.41191128928739,-5.42015119961096,12.5581339202494,-3.21463267768152,-1.65231562336039,0.388707891656493,0.181023176942169,0.749031032501529,2.59635829968281,-1.80232990701313,-1.34381671544873,0.0188161567706169,-0.698738873225399,0.717487514847635,0.761048008405084,3.45264883183608,-0.437538663839508,-0.168352713956265,-0.0592329959242807,-0.19389140337407,0.8280962302724,0.0962330156837883
24.175,-1.8694098564816,-0.239955499299211,2.31239005856574,-4.28750168856395,11.8325993624072,-3.08262631618935,-1.47438582021253,0.393619646071687,-0.00192988501099587,0.439898341631906,2.4765545812257,-1.69687155692872,-1.30079428316151,-0.0822355329260436,-0.656665630412987,0.732387121745133,0.710164327809118,3.44923001720361,-0.92801997713961,-0.18524403800236,-0.0206082607894832,-0.00856018899175364,1.37731934755818,0.190749196463257
24.18,-1.96246997411496,0.205893543792227,2.70666157447267,-3.00901011248196,10.4826450276975,-2.91541946412383,-1.3083138416168,0.492989605198852,-0.064536790755603,0.183220504617196,2.40791161944088,-1.65377486817005,-1.25974635688873,-0.17634715270149,-0.576084452172563,0.568935389345482,0.580107624357536,3.35871755273691,-1.05767670351023,-0.211413199096256,-0.0609813731959697,0.209732772191058,1.25829991065828,0.127874458799997
24.185,-1.91174924620619,0.731584887668207,2.30188700337123,-2.62295486807309,9.25442384071283,-2.9690581490723,-1.13354248943924,0.621711730516066,-0.143396695927895,-0.21753621082524,2.37887074237802,-1.56031209657441,-1.2392715981308,-0.281101672670244,-0.517095901261892,0.267393552486504,0.421925191417649,3.20424923016838,-0.79841252759318,-0.244136824329212,-0.0444929993748402,0.365630872823253,0.947602328310665,0.25013892348787
24.19,-1.94462254391012,1.19970819624543,1.52152505303548,-3.45987710357476,8.29130690995842,-2.9512137054136,-0.970884036578761,0.679808217954156,-0.157844480879147,-0.726073341473927,2.45340768489154,-1.42790807424769,-1.23095330229165,-0.405344844536055,-0.506344919282054,-0.255645735467061,0.217493461159988,2.97529329469105,-0.871607813505357,-0.235681171417471,-0.131310468466771,0.271921108773897,0.678236182576707,0.252110262605604
24.195,-1.83618609217231,0.788826406101767,1.42716373347786,-4.28245076779636,7.67473596172788,-3.07682364516211,-0.855206624037025,0.722166676421161,-0.268294801863193,-1.10231819740379,2.58293265628039,-1.38915672142235,-1.26187181434203,-0.513896514219889,-0.491150797583016,-0.743807052013282,0.0124916849250435,2.83132571490271,-0.926033355216257,-0.304465969411858,-0.0515032068365976,0.31428211816375,0.580990031707857,0.202853319324732
24.2,-1.75498600516849,0.341894165785843,1.56098138132244,-4.79506165372454,7.03944840108896,-3.24243066026929,-0.804940227454801,0.763873419598511,-0.456570199060358,-1.61060581263828,2.68693235299225,-1.37577880301706,-1.30949628442627,-0.621293582916106,-0.505286080122174,-1.09385177845776,-0.162423813588098,2.74377578574077,-0.895034640616867,-0.320483255885725,-0.00431818219567089,0.228975630910409,0.641301889271645,0.221139433731185
24.205,-2.04394358909715,0.0537714080754696,2.58114264830755,-4.33540912471309,6.33903702109574,-2.96303858491019,-0.806923779458495,0.777204974363712,-0.554990066751029,-2.094373036248,2.67888825010613,-1.32685979411379,-1.35094630504984,-0.666309866730128,-0.547571616395777,-1.24270460300195,-0.309798045921214,2.72451605876178,-0.936380375612456,-0.310813773285657,-0.00400711465363742,0.113671717211864,0.641368771335,0.239816567298192
24.21,-1.90917154023588,-0.546848977975794,3.73810754539722,-1.81452447550474,4.59298754815503,-2.39549925405087,-0.827357120295751,0.695325435635645,-0.697216146446185,-3.00149660506949,2.29572783893889,-1.20380417487113,-1.36874499730082,-0.678263876881061,-0.596033893750288,-1.33798346413443,-0.453132630863429,2.6878689610286,-1.00316347451694,-0.331478642205388,-0.00366082128513411,-0.0698252910574023,0.58803161276713,0.216436267115705
24.215,-1.61190176071017,-0.0026628218525265,3.48202794087304,-2.40366886756018,3.34722001732451,-1.92609435082309,-0.828654589962868,0.424693982170767,-0.697717537470458,-3.65179249545537,1.9760560378516,-1.08956155249582,-1.38707005093243,-0.64911692753485,-0.623726912702236,-1.33028808291649,-0.52983826364517,2.61117050465598,-1.01689238268342,-0.306848115677209,-0.0105842942919137,-0.362127585268879,0.527187436219615,0.165884622583504
24.22,-1.60300981991679,0.430856676791427,3.26319373871621,-1.29475842790327,2.05688184575059,-0.993343705980016,-0.884323292084638,0.0526654400771943,-0.669407604556938,-4.17701688548894,1.56263085928167,-1.01727428368587,-1.44415396696164,-0.598287465812779,-0.628764896138769,-1.24229052503294,-0.577579415574497,2.50320720437843,-1.08928460665026,-0.239695613494773,-0.0736961408218625,-0.637365067231327,0.488537729661728,0.0771680698280657
24.225,-1.50642940426942,0.55816932507461,3.10860616125857,-0.384562845826233,0.90451187265802,-0.513564668823737,-0.950070290748635,-0.269408744578337,-0.571405061975591,-4.26243731275275,1.23038260039838,-1.01651443511115,-1.49798380565281,-0.55931161288251,-0.62723509940492,-1.20339355896004,-0.566770390395454,2.38864268152744,-1.09730465267467,-0.18397268970708,-0.0967429663026975,-0.724071150072964,0.324828358163716,-0.0417351174849501
24.23,-1.2484504099962,0.789016003181006,2.88646422142489,-0.247695985995348,-0.185124521411786,-0.327528414562017,-0.944617385972043,-0.287897754293611,-0.483385218754543,-3.76215794444241,0.987665126273209,-1.08115994836552,-1.57477103322166,-0.514519415489406,-0.517189539694173,-1.33875433296332,-0.549459111289721,2.28340659584047,-1.1099234177579,-0.108687168669663,-0.108550351896477,-0.80760670415554,0.05276446835727,-0.183512938863224
24.235,-0.93514154261698,0.823087181957902,2.5411695080487,-0.289679658605907,-1.39405328822436,-0.11099694065942,-0.898894144225539,-0.191751204105795,-0.24646627225557,-2.87814603693063,0.652328309162511,-1.05925077734979,-1.62576893051567,-0.461568286308214,-0.369358918980275,-1.52938690062904,-0.523951785831164,2.22985318677306,-1.10358552468068,-0.0312418381727307,-0.0851716274730311,-0.82520720890237,-0.0820563412620687,-0.280680060289864
24.24,-0.564448357431383,0.678837845122652,2.13160467175118,-0.101245451725631,-2.10575961216268,0.0379320684866022,-0.785904068422773,-0.133191365093954,0.00622971836110533,-2.09806243434811,0.397013883309562,-0.975974558543509,-1.63473096119524,-0.419407347280096,-0.220939482186931,-1.75989272360584,-0.530724218928316,2.19721105503803,-1.10417550582815,0.00818002012022089,-0.0594898203416879,-0.813802505896833,-0.133486332631594,-0.359157272932259
24.245,-0.0520407288101369,0.534002492947065,1.5740111986029,0.177738765908124,-2.6985902329001,0.181106636189808,-0.682529406845622,-0.085833671292158,0.180828454511359,-1.38608865144465,0.17700513322217,-0.894234201677827,-1.6234576885049,-0.365621921942147,-0.0724544926340954,-1.9361014719734,-0.495400760363976,2.18149924278259,-1.14128756838234,0.0474835254388735,-0.0318984328179302,-0.772369689516055,-0.136650137115099,-0.431556265882617
24.25,0.217291236439697,0.47152555649287,1.21434299074563,0.384370813897662,-3.03994749294113,0.30560331691717,-0.607922675550775,-0.0832130561604712,0.25209072035037,-0.855932811366569,-0.0504095774086251,-0.756963692232564,-1.58631841626559,-0.331719505439646,0.0234128562045391,-1.98860596160679,-0.514827114458439,2.17456000083108,-1.13688643794616,0.0700097692756102,-0.0269448527746766,-0.78240107350679,-0.140765618460482,-0.466147809641408
24.255,0.379940324389679,0.376904589608302,0.93022144432543,0.51142002474255,-3.11855392804767,0.375755929316341,-0.554647235042952,-0.12943415040205,0.285388457705051,-0.299972378235274,-0.337950081805522,-0.560892382982236,-1.53535419464027,-0.297602927164109,0.137763042095141,-1.92563869812776,-0.499003949948134,2.20635714606905,-1.14683629954522,0.0907126679943279,-0.0324668183112454,-0.794441932650375,-0.151567350654517,-0.499479039639834
24.26,0.457735255559329,0.339656627639793,0.770126959408852,0.671328455768018,-3.10648747897534,0.48635369063303,-0.523058470584466,-0.206318380741679,0.256874209416149,0.298431628637654,-0.640196062865247,-0.343160515203104,-1.47486076026815,-0.285230510863326,0.234185134147918,-1.76204291924877,-0.539188719740473,2.24786874829309,-1.13716214615927,0.0943223151616815,-0.0240051613462741,-0.7959479825576,-0.160971055580471,-0.487056270358791
24.265,0.409174398112191,0.359983891264147,0.706084153888931,0.707173941302102,-3.05668587899189,0.563504792131559,-0.482927630939686,-0.30944185134362,0.214172184501441,0.892509542131268,-0.893914617041828,-0.159206794222661,-1.37322942095085,-0.212190701229879,0.316698870916332,-1.34033219181617,-0.634467051139225,2.28040997960081,-1.13457875445541,0.0948475566318925,-0.014100128721946,-0.777032929227369,-0.131761663502225,-0.436130668886797
24.27,0.274471351787478,0.33244874267095,0.753978015192612,1.64269768543232,-0.643083188048596,0.290671454386423,-0.402253504768112,-0.318814705882637,0.134758997256092,1.49035322287875,-1.09663981951374,-0.0257951966455232,-1.35909655490129,-0.205066396860988,0.303807380946039,-0.939054484431503,-0.657734342573288,2.40901199458126,-1.11216945689927,0.0916753736075547,-0.0165340224369702,-0.711372552446422,-0.0655658527249958,-0.381992790933651
24.275,0.115210270414229,0.392080690746402,0.868148893574407,0.796061733283811,-3.20156920407156,0.782642941903639,-0.361978558432146,-0.274688083447241,0.00481232947852516,2.01206978250491,-1.30570352512558,0.0905283641827869,-1.26640768344678,-0.245017753420191,0.341247890087343,-0.374785151257074,-0.741872418564311,2.47385831890994,-1.07497633098442,0.0856900112108492,-0.0244885773855835,-0.659162851730127,0.0350543705309064,-0.327033973757084
24.28,-0.00684918934873252,0.387227240580884,0.954525719383975,0.820466492141836,-3.43070335773715,0.925451548074412,-0.318254472468172,-0.230895024522589,-0.0623691354668968,2.34616330213593,-1.47949275892817,0.197730392336231,-1.17813431638971,-0.2968002455785,0.313190169646514,0.164684471677617,-0.730210719593543,2.43288950153822,-1.02499745396688,0.0543168699776024,-0.0409693799519664,-0.567755183380981,0.108951309694692,-0.302620575302738
24.285,-0.0985924862224536,0.411104416999787,1.00474981281538,0.813338989000413,-3.77418692073326,1.09383795910484,-0.285958276716045,-0.169432836025125,-0.125383082637617,2.56413247119492,-1.70096401151452,0.290501735041818,-1.10214083852054,-0.346386593093911,0.327786546585086,0.61139882454196,-0.72562759014156,2.3017719986125,-0.979587454697935,0.0279204735327595,-0.068106753359887,-0.494712577561062,0.198510290168565,-0.270244793974757
24.29,-0.109636173279281,0.400059919006859,0.993821364747775,0.709896442418413,-4.05630306282583,1.24132930098206,-0.235771349875471,-0.079395773906403,-0.104142123602739,2.68546954970061,-1.94831513428324,0.346072435233882,-1.01764459429289,-0.346522296266077,0.325083256285893,1.03302072008102,-0.638965601204637,2.13629320845292,-0.924060371381403,-0.00869380212640036,-0.087275200251099,-0.406852173471612,0.232627019719109,-0.248703588902943
24.295,-0.105801594563484,0.360114132272488,0.96968253756368,0.618395213845942,-4.33599120605487,1.38303947760806,-0.200343356797796,0.00287888126288705,-0.02842584161947,2.68044361863972,-2.22817106442271,0.3914658373886,-0.972747896948229,-0.316273337592046,0.346870876076069,1.30313305246346,-0.572430627915379,2.0886504650116,-0.885353493477041,-0.0407207580334584,-0.0840859049184504,-0.355880866850662,0.251527915800858,-0.232037003976662
24.3,-0.106671815971837,0.295045840172666,0.957316425027348,0.581275198925298,-4.58885786085729,1.53094483098507,-0.218823754778216,0.0640411463059077,0.0181372404772027,2.48215191542853,-2.52258694166654,0.449080615345384,-0.937962787298222,-0.26992515331796,0.364946083555006,1.65443564050324,-0.521180193425782,2.1099555704594,-0.85882790514898,-0.0740999975483155,-0.0810060404211764,-0.300192460491064,0.202199276746427,-0.231790803218124
24.305,-0.0667293760560467,0.211182007625524,0.973468521455236,0.634100379858801,-4.77134558637843,1.65248776975537,-0.1561257008067,0.129815689928495,0.0393092124623306,2.07025337317718,-2.78477685410042,0.475035457235315,-0.920272362844265,-0.220798977974587,0.369930736788264,1.93970429518114,-0.502435366638381,2.18686209845877,-0.829020114916407,-0.109177661380105,-0.0727732360059136,-0.296614305904346,0.148073077867557,-0.2314740784825
24.31,-0.187869470760422,0.171798671436142,0.983817759102442,0.670507766655069,-4.9665336878159,1.77967015945832,-0.115124575998244,0.163093216125973,0.0351769070534182,1.40662908392031,-2.42153356941584,0.431846153698293,-0.861034028576753,-0.200575348195687,0.43015066812266,2.17951856831307,-0.497509087468365,2.32540884172688,-0.831788756003568,-0.143783520310935,-0.0498885765842464,-0.336534046458634,0.136097635832173,-0.199451911443988
24.315,-0.262256579880129,0.15061618264681,0.956560171428621,0.653252735886521,-5.18487356872216,1.82326849583407,-0.133003501495952,0.215680911668959,0.0506960772248387,0.435073841416069,-1.40268621584803,0.403921655453288,-0.899310650081068,-0.204413652090134,0.343471837073366,2.55758895077881,-0.489356072904129,2.47603005094306,-0.822186911402668,-0.163173075025388,-0.0181518267314712,-0.374621427208341,0.109551364606302,-0.204203830558908
24.32,-0.283312366919201,0.137601940776613,0.938108926638285,0.668177523197835,-5.43297959072056,1.85252660877045,-0.168943375530772,0.246768284458705,0.0608580874944801,0.745240764039204,-3.32937011775647,0.43170117236392,-0.888654757102103,-0.230958781968453,0.298565172212433,2.7703360335021,-0.476148891044561,2.54221506836878,-0.83935492021016,-0.172846324248096,0.0217422705830688,-0.486921605713583,0.111420577992101,-0.164442163023055
24.325,-0.288216130462492,0.121867009984081,0.94149820149933,0.743219045201974,-5.65438813948588,1.87737778488003,-0.21436537566106,0.221451246182334,0.0271968377277984,0.395609957216459,-3.51199829350516,0.527570232167488,-0.865957715072422,-0.259393661275911,0.249770755464648,2.92931496779922,-0.438536937887258,2.59382953153592,-0.835830720754946,-0.189365408670629,0.0459271910489852,-0.57943223392891,0.159887724117596,-0.125612049024623
24.33,-0.27829465413516,0.0832947979003608,0.895388583994333,0.75654443559587,-5.91293494400114,1.88047908614969,-0.285443102638597,0.155874461590334,0.00227385568731714,0.0317661347587785,-3.69031144170067,0.651793774553703,-0.845826840379124,-0.302975658325554,0.194327289969424,3.03758212311682,-0.379595714153294,2.56333545208522,-0.838190061648685,-0.189976211709506,0.0685693048572874,-0.693872634631306,0.204401197765354,-0.075374683024617
24.335,-0.261299731254034,0.0354225792177543,0.813352441624548,0.741821001284507,-6.06309361473147,1.85997501847194,-0.389006779875548,0.10891910981408,0.0263695489935457,-0.33228667892661,-3.88604894113666,0.763499683524902,-0.840509760669489,-0.332342318501427,0.147459756371666,3.05705841522005,-0.333618373550186,2.49189077274617,-0.836917638994097,-0.187358656583772,0.0753087453719169,-0.7710264140661,0.230566076872866,-0.0310343279696485
24.34,-0.245860619439799,0.00782172711801895,0.727565887115435,0.692238937382133,-6.15200474594399,1.8149921344172,-0.503260509471906,0.0797122347497619,0.0477224267119212,-0.66863718422366,-4.06240342083223,0.8663853297707,-0.831853224662578,-0.364946402486588,0.0818675311390125,2.98884431456301,-0.287563301430602,2.39936800846483,-0.825485481579757,-0.178031296034012,0.0734485456757169,-0.839206303482164,0.260899716033322,0.0239020474228062
24.345,-0.239986907647898,0.0121229598341692,0.666707633919342,0.629634718742476,-6.16177917556945,1.74839181103059,-0.604113436418728,0.0461700826775038,0.0642691547573329,-0.914935895815879,-4.21038001733594,0.968073551743751,-0.82297092221483,-0.388547939244171,0.0309132803124908,2.88132632410828,-0.256562232798823,2.31163297172518,-0.809157021403417,-0.171633675102408,0.0606904159270402,-0.860921069247333,0.273428583937851,0.058700391119378
24.35,-0.256192233363594,0.0515636337641393,0.65251120151553,0.566974254462575,-6.12865618621722,1.66646092048214,-0.66292014806552,0.0073559526142609,0.0638029446794787,-1.04226694220398,-4.35026044242248,1.04497610965308,-0.804422100263069,-0.403818187850913,-0.0203854709487733,2.75239860999856,-0.245259809965175,2.21535981292422,-0.784782697999712,-0.177578235655377,0.0506392783754098,-0.885486326297918,0.276155312222916,0.0673659774417224
24.355,-0.251295382064413,0.10336581445609,0.665798729465984,0.494855121369011,-6.07001577090807,1.55522713974309,-0.712600699527079,-0.0303218782279533,0.0370442550188401,-1.07263478381474,-4.49028072803914,1.11739121708451,-0.780835213528849,-0.412021485653167,-0.0750994311300487,2.59284730494601,-0.242179860073006,2.08967373443532,-0.758837580075046,-0.166199981637653,0.0532369735624462,-0.869035050520904,0.264204602480623,0.080811124997693
24.36,-0.26794729960257,0.140683720319855,0.707713942609188,0.455941461670747,-6.01722793215636,1.47555033358196,-0.751564119438926,-0.0501365008144017,0.0167760523353613,-1.05810953907038,-4.63846397452977,1.18664968588028,-0.756602662875442,-0.414020674718398,-0.11310988021608,2.50275339030544,-0.25049065539431,1.97118619842903,-0.761431653713402,-0.148998311611592,0.0502988803654129,-0.862264942872312,0.253650553335418,0.0637772304423698
24.365,-0.327693724022431,0.162646675729023,0.765969525662199,0.421739954099426,-5.95877169310593,1.38213705029053,-0.796058806443262,-0.0665993160640764,-0.0115685988383105,-0.949444151008935,-4.85458914790413,1.24755851495262,-0.715426251348559,-0.414371279271217,-0.156218306997417,2.42056511849089,-0.26541386214809,1.83208151492213,-0.801777993387242,-0.135274821794055,0.0407373426538092,-0.855757781106722,0.305204556124877,0.0448613826813475
24.37,-0.399054283144345,0.17514067740389,0.819764738900621,0.408229968377751,-5.90974720123517,1.3139004767108,-0.848421332324924,-0.0728979259114263,-0.053662131470535,-0.840896131592868,-5.03822363850216,1.30777781182539,-0.674556361498633,-0.42279765596498,-0.194969753224828,2.36374382499013,-0.275642672627187,1.65890894981447,-0.788680811032939,-0.16334282076087,0.0156878853180765,-0.883865026470313,0.391386335405477,0.0512656198990559
24.375,-0.470374947029503,0.178491854970572,0.87737763307489,0.503494639483086,-5.88448726853725,1.283750516248,-0.90316908243607,-0.0770089787350098,-0.0993274178275802,-0.693066554833277,-5.23161355478234,1.35094519864673,-0.643265638958629,-0.442913953729833,-0.226643732150036,2.33889516628004,-0.282884054109024,1.46884037667892,-0.785358701215408,-0.173493770957029,-0.0146978566595657,-0.883274797830887,0.486341289235774,0.0174867391274846
24.38,-0.533377180129522,0.189598712154248,0.91613143247932,0.645782454340751,-5.85262019616532,1.27680173234538,-0.944372399595004,-0.0605484295238527,-0.13445157443997,-0.618176158069332,-5.37312625823655,1.39758147834717,-0.606871925293521,-0.4686780197527,-0.24908288309606,2.35477683783385,-0.282677297273799,1.29823838145222,-0.780892559944323,-0.183929343598152,-0.0267262113425941,-0.928884188628613,0.508497374221204,0.00553809050329534
24.385,-0.61500774719677,0.209047716983483,0.951746188840039,0.813094454445737,-5.81461472888303,1.291213039107,-0.971667595411512,-0.0439699951701173,-0.172400936197673,-0.651472932525504,-5.51279422821756,1.44593581295754,-0.560665182829103,-0.510974406133877,-0.284963025297012,2.48586769471256,-0.28524313096655,1.08754057333338,-0.780043463546421,-0.178085017360966,-0.0306434790948113,-1.00949150895877,0.489063120961193,0.00345256552100182
24.39,-0.757479864259869,0.233323343072966,0.985406375727823,1.04490476077548,-5.75319351876304,1.32929177012546,-1.01517609719062,-0.0223505197232849,-0.236267221129804,-0.836169795567013,-5.65279656591879,1.5071367124322,-0.518393735284941,-0.54792480884903,-0.304355931177129,2.66948392027341,-0.279076956598417,0.848423495024767,-0.776097445301375,-0.169230032105756,-0.0340043815823055,-1.14472548310053,0.476592310697262,0.011393780019995
24.395,-0.902992448472156,0.296641384211418,0.967528394295978,1.20643166330585,-5.66030217232912,1.37826032854508,-1.07947293677532,-0.0165742791475082,-0.329938726693518,-1.12787213599209,-5.75561559955326,1.59222491061102,-0.479331349997551,-0.58837168688268,-0.285717727040385,2.91347334090192,-0.272875624479297,0.665784646709579,-0.794506237316057,-0.157453415637299,-0.004553296422171,-1.22715159656058,0.519435702446436,0.0350624261216743
24.4,-1.03248326284251,0.434973011349224,0.907092597512448,1.25861167907715,-5.52352107952801,1.41710412638559,-1.14178827798981,-0.0339061346165614,-0.417878893565523,-1.47481578430651,-5.85722624290715,1.68113408471495,-0.435474645466767,-0.619647130625663,-0.283761998646803,3.19655691839753,-0.256611639601113,0.427123430366932,-0.806844550623105,-0.149699076125549,0.0338252965726666,-1.26332735459391,0.59321035530738,0.0417124539810862
24.405,-1.12036937373343,0.622331721581528,0.855686534046868,1.19989793275172,-5.34080349806563,1.47240816210748,-1.20950067531354,-0.0578395232280174,-0.482412059625306,-1.71562345947549,-5.93760867242993,1.73726356046071,-0.396808156456802,-0.642049984872706,-0.304015121293799,3.41137343054711,-0.216937990673374,0.164657480878436,-0.83047081454795,-0.132869123500503,0.0588228692923773,-1.26086305589323,0.694222537773154,0.0788318772421985
24.41,-1.27317386517874,0.863929632491577,0.829667916400341,0.87043286607483,-5.05714547595186,1.56814411152402,-1.28131147663147,-0.100367272348628,-0.546172119120168,-1.85001239288485,-6.0195515037411,1.76685458086385,-0.374659174400044,-0.64999287033845,-0.277058006279734,3.50489085140928,-0.191912918621816,-0.0605175167437093,-0.863855809479695,-0.134054779369499,0.0498399893601862,-1.27834056843848,0.774039314512259,0.119994930814284
24.415,-1.4130046819827,0.999417199723536,0.837929538658618,0.553174119328701,-4.81961171136349,1.70135960735815,-1.37733541044516,-0.14918155518096,-0.617520873236198,-1.95355656374074,-6.09166197684334,1.77237712213517,-0.346457712970224,-0.646959833569532,-0.234582265332768,3.64461153853385,-0.174001871506047,-0.28159036898177,-0.873593742338191,-0.140586893413936,0.0322272083282992,-1.23500901182805,0.769743632059228,0.139710994967152
24.42,-1.61488027393501,1.1075035991668,0.921269307546311,0.225710853512051,-4.55058935242247,1.96192100301387,-1.46044153451837,-0.201672476001552,-0.700115649183788,-2.03913383653926,-6.13447778311296,1.75219945491814,-0.320200458987617,-0.642082841936304,-0.212951527321912,3.84852403670565,-0.155243853245452,-0.514393278367162,-0.875253418933184,-0.138571056182408,0.00261797584013992,-1.2255536027691,0.71570272451113,0.156230229850775
24.425,-1.86353055623358,1.09040188787229,1.04352554014099,0.0578154605995328,-4.3566337194983,2.32182749384393,-1.56771042162141,-0.263631935366284,-0.803852278776961,-2.10631481445393,-6.11358149534725,1.69449871072593,-0.287839838355083,-0.623706548642106,-0.233710110519148,4.04010777332021,-0.144411850864351,-0.683848386007593,-0.875073633162669,-0.157698226346654,-0.0359233966001602,-1.23828580210259,0.643431636621941,0.187167671501129
24.43,-2.06715372769502,0.985320219462462,1.03016554398142,0.0728405971675733,-4.1918453944708,2.80820891117445,-1.67276874218768,-0.315683626874948,-0.938184058967443,-2.25756003610034,-6.04263448908348,1.65387120481843,-0.258578465499789,-0.598097486936366,-0.288766226137314,4.20029053704732,-0.113171467400315,-0.80098546440861,-0.861771876325896,-0.150293377798568,-0.07164341597194,-1.23747359155303,0.574931144192359,0.196082695983012
24.435,-2.23553552528032,0.826739144513289,0.844372518836524,0.127477026891531,-3.94234942024114,3.39785546811684,-1.75069187199078,-0.305838983214966,-1.04792842807203,-2.35164513398152,-5.95231434597114,1.59353330530646,-0.238464982865178,-0.561296474226641,-0.349537849510831,4.19807479681402,-0.0812924171772053,-0.812727954889969,-0.867970857485644,-0.138373495853401,-0.105947637974965,-1.28665064164655,0.471259186776991,0.210466445829652
24.44,-2.30032601119686,0.79259045404114,0.638590661408126,0.154199838638306,-3.60536849573926,3.87363319140106,-1.83035393991211,-0.238900393239493,-1.13715797512812,-2.37402380921259,-5.84030267115192,1.52621485766999,-0.246627488097948,-0.536195049082379,-0.388524083673388,4.11154374067072,-0.0434677601140678,-0.783445412188498,-0.858036354173872,-0.128680603491315,-0.122300454106395,-1.33986551883433,0.363731394080731,0.239460898775303
24.445,-2.34905928278672,0.758748765155242,0.481792577377713,0.0499936290612581,-3.29144478850339,4.17543635340266,-1.89054480097055,-0.123606216930786,-1.25997232674119,-2.38349700240119,-5.74104543932484,1.47748017121594,-0.296797494592254,-0.505867214017719,-0.38624247222112,3.9441134815264,0.00832672222036945,-0.725830060033974,-0.855997283376956,-0.118689317207979,-0.142464952631988,-1.4020237919908,0.289075788589669,0.255970328628172
24.45,-2.44553704766864,0.672305012325938,0.408206532835361,-0.125469211162652,-3.0264763498537,4.31832265096009,-1.8576652682914,-0.0167114189344877,-1.31760862218947,-2.39396405142368,-5.63067670787153,1.44621915136911,-0.373203062743993,-0.473821598230586,-0.365419803633004,3.8277982399114,0.0648458210217325,-0.674625966364148,-0.852456736590893,-0.119956424071056,-0.115145851713093,-1.48379989461771,0.26779410400006,0.315606567318491
24.455,-1.40515598394411,0.501345294744325,0.371900875449729,-0.353310814108201,-1.37535616480465,2.34217112244238,-1.77176532467764,0.0644103637945887,-1.38050124124805,-2.49294609278944,-5.46406733143834,1.42410983239428,-0.489218438184894,-0.404224969501716,-0.289969091662291,3.70237952794829,0.136798921444629,-0.615513967205035,-0.86143675806743,-0.129988817236953,-0.0872379348230695,-1.47510734808995,0.256229810923796,0.306585418482379
24.46,-1.88494006590202,0.372552009267369,0.412535133051719,-0.355429947991655,-1.72055093832122,2.93470604964771,-1.6682434911242,0.104127065562293,-1.48449058241303,-2.71392780359784,-5.26462377971944,1.40260674713683,-0.621161831592968,-0.288693447654058,-0.185500376945877,3.6006772457267,0.20862056249408,-0.559828615294664,-0.884578275862175,-0.132561728383884,-0.0772462251888725,-1.47259645168428,0.260447845574855,0.302744629393128
24.465,-2.82189109789317,0.326858988872709,0.381877478674705,-0.317021312330857,-2.63529632316438,4.26692273099599,-1.59086747411804,0.101963143698685,-1.55439131910525,-2.92481826064535,-5.07322244767307,1.35982727152821,-0.743779431460992,-0.163707922978588,-0.0706931300296872,3.5039423418258,0.253654448722303,-0.488296091418281,-0.9062476345248,-0.14348031013906,-0.0887231820372989,-1.49657214128971,0.300556256444578,0.323047430004768
24.47,-2.85859033561238,0.389035475841048,0.288788602007129,-0.398732198883761,-2.55300757204371,4.18453071025789,-1.50233182925605,0.0907064740029433,-1.59743355618212,-3.17550200448031,-4.79817637974018,1.23848734168192,-0.870039648117636,0.00340416376819107,0.0473892793028981,3.41175625809842,0.267824735024239,-0.401251422972558,-0.886197957523064,-0.168733121284074,-0.100543092405017,-1.58482195233462,0.360395283140285,0.385208378997339
24.475,-2.83140060634352,0.487489274531834,0.134162208465153,-0.578021890614774,-2.46909921797925,4.09092734054071,-1.44024078291586,0.100874068190252,-1.62063589431436,-3.33432112756437,-4.58401780004531,1.11936064934907,-0.936118390365985,0.131634374583256,0.103063861748226,3.30110074395395,0.213088048898226,-0.368308638957842,-0.894037532033527,-0.174116958069451,-0.119797490902267,-1.63577305333654,0.450824686530699,0.411282284287737
24.48,-2.79814006264881,0.604182637933813,-0.00546768188056288,-0.805111811222542,-2.37578012425019,4.00088543125995,-1.38171173422469,0.143542419319785,-1.62609955348944,-3.46099778260418,-4.36386175818161,0.995505408784276,-1.00852017897891,0.319089717087683,0.0933316526118431,2.96589187634247,0.0464952658509875,-0.465978164100841,-0.913591091506781,-0.198349600588653,-0.141901139398521,-1.60344302788439,0.538578097517398,0.420346734920506
24.485,-2.81449372210562,0.684838681872411,-0.0950435796953548,-0.983963581901338,-2.31091737311057,3.9302687663747,-1.34295564557639,0.189518053081069,-1.62916450655993,-3.61318520394075,-4.13841468517652,0.922071589110085,-1.10151600060195,0.480323182339488,-0.0167093997688287,2.54766961659362,-0.103818120693214,-0.55454432993721,-0.952921030960346,-0.202364764197284,-0.135828102165141,-1.61702206893323,0.599980205333758,0.407495983859726
24.49,-2.78818199679234,0.635274080771279,-0.322853453413568,-1.17605078230545,-2.21908365444572,3.88482701479503,-1.27947142131803,0.2280826163334,-1.63589768234394,-3.90711344587859,-3.86194730476955,0.913458644774359,-1.21009330175241,0.663909979253697,-0.167696451620012,1.91522567857571,-0.220428575655549,-0.613738193017424,-0.970976967137553,-0.214609615465841,-0.127348758826348,-1.63251204106318,0.626766205711082,0.415163606405258
24.495,-2.64653424308929,0.461294511641566,-0.564900842624134,-1.2010008819793,-2.02717081095054,3.84384747314247,-1.25115048140463,0.225166014148251,-1.5997323486495,-4.1253228871459,-3.63615479413171,0.922830992898768,-1.28799642319423,0.847286671206944,-0.384683279444321,1.73280333224065,-0.178042723551226,-0.521020276444176,-1.00908275857292,-0.213267923833951,-0.100335818214056,-1.61470915958565,0.657956866218598,0.412934112855864
24.5,-2.3780618048028,0.225927998044673,-0.831980523579162,-1.04378187996456,-1.65626870189649,3.78381026034423,-1.2477616016528,0.197534475238617,-1.57502591987267,-4.33878616994532,-3.43181642935892,0.902871721365767,-1.51361726205596,1.31150897866444,-0.652672181132453,1.85392541214378,0.051417600122576,0.0852749640534737,-1.05523541335025,-0.201867885292252,-0.0804722177018132,-1.60745775699615,0.662551097006789,0.401734280315706
24.505,-2.28242959300732,0.155801535266395,-0.920597756695821,-0.726372257327357,-1.0321042330981,3.65021817200762,-1.27518009841268,0.166306699258946,-1.59449322938919,-4.40408011281848,-3.21190621458729,0.871704228047356,-1.63247538717092,1.57611071048953,-0.78842767545669,1.64237315322473,0.183489207220163,0.513390068270042,-1.06541292734652,-0.205829905723389,-0.0743309039859866,-1.5629008186082,0.643071441259533,0.397995891065722
24.51,-2.40195668257333,0.202829868289479,-0.848864866683332,-0.47884469787055,-0.609436869112507,3.53027460907032,-1.29842900548738,0.145044836034683,-1.61551377850088,-4.39186723274491,-2.99416384490942,0.860688014067775,-1.61192784571635,1.60346304841522,-0.849895250987511,1.03475645191148,0.263135126985377,0.477114058303709,-1.09523856406191,-0.197255592909437,-0.0521389312217479,-1.52941762102455,0.631294447930681,0.384153014576505
24.515,-2.60009103071412,0.220330563246341,-0.710885139941576,-0.216518669968276,-0.277069319520191,3.40720339960345,-1.24936775516335,0.0842201035876433,-1.68356362774063,-4.22408014356661,-2.62528207253155,0.880402841738701,-1.46769190733383,1.3535301812379,-0.857371853914094,0.950323655337071,0.121261495847882,0.0275972168382025,-1.13268709203608,-0.188131594722381,-0.0466047366090227,-1.53331324079569,0.657342014204851,0.382935514336907
24.52,-2.65699495124146,0.11278909913074,-0.696456865921404,0.0577844253993649,-0.0603936644172103,3.31159443597699,-1.16184379155457,-0.0109712597672187,-1.70525678038965,-4.00039309602584,-2.34378478776461,0.885887200917682,-1.30010734524399,1.11710207682537,-0.795384619187085,1.52962517846701,-0.0166399691281756,-0.160862500619088,-1.16040162765194,-0.196755279423809,-0.0470216374460089,-1.52183965119416,0.701318118387541,0.384621262550354
24.525,-2.57607890098606,-0.0263770610136321,-0.69941315742577,0.393196710705532,0.150619614390261,3.25364169350564,-1.06429841566849,-0.160745396843676,-1.68627978158812,-3.48651788100985,-2.00236591394491,0.850597935549443,-1.15819606208305,0.928937862695417,-0.769083760580771,2.33916536105647,-0.0956886333967109,-0.201251408284842,-1.18401163402859,-0.215759537656256,-0.0613659675403656,-1.51449421336473,0.740989426743499,0.380193563781758
24.53,-2.50656318855417,-0.15072193125507,-0.654316167562062,0.8275317800929,0.35280602211641,3.26337401314207,-1.02830911415521,-0.251710669702258,-1.66813058673041,-2.88032235285228,-1.74695606410909,0.802138759370334,-1.04143967547431,0.748116982546714,-0.747951717773241,2.92471900576555,-0.114193228924111,-0.171529721840162,-1.19346063564637,-0.205733975514056,-0.0753929022556043,-1.5218284908714,0.779498348956518,0.396236040352125
24.535,-2.44764731948485,-0.206514155031416,-0.655173515394707,1.41685127684163,0.574037361432328,3.31202233562584,-0.993080358393669,-0.318326608083772,-1.63812334860966,-2.15209970195441,-1.49378655656395,0.753086661724588,-0.90127624578659,0.536009534276893,-0.751943691523863,3.33282969138559,-0.119841103804129,-0.185061094424855,-1.18530646880573,-0.226410387177007,-0.079627462905535,-1.54192794267922,0.823847490503569,0.429490312177427
24.54,-2.36833976797415,-0.146814964718351,-0.709791336807685,1.85580857751035,0.810437194252382,3.3440396757513,-0.921834415671432,-0.355701616089461,-1.55796400641916,-1.18526275353013,-1.16905699769525,0.700515611947512,-0.837501889940938,0.396329618152444,-0.752657512887548,3.24824177729738,-0.101259594740428,-0.223281303639164,-1.18784796215667,-0.235831870888338,-0.082927642477963,-1.52611512307379,0.837360688288738,0.425606699516646
24.545,-2.28808612072744,-0.0445746700921133,-0.732538059669944,1.98228173795198,0.987220475345199,3.30913093358983,-0.821848956348421,-0.323669566129536,-1.47028271279426,-0.360293781664734,-0.903158778893139,0.640093265709079,-0.807285437014015,0.309382811621914,-0.747745181843914,2.90094584536008,-0.0670651902247741,-0.265503577610388,-1.17724253380595,-0.245912525953682,-0.0897176204009965,-1.5023067776785,0.839724719524384,0.418558781424535
24.55,-2.18690750421622,0.0168263056464466,-0.727176068902495,1.89014151445074,1.16579548650432,3.23116972910751,-0.739897511851961,-0.266126238710772,-1.39366374961712,0.298946031258453,-0.690383420576562,0.578604284093888,-0.797231539214997,0.253703538367094,-0.722974631963688,2.42915250652577,-0.0311159465223449,-0.304237406948859,-1.17310354649496,-0.257819561832966,-0.0920530809885484,-1.47582041536565,0.816905303597754,0.408880642959553
24.555,-2.00214440851138,-0.0792099603138462,-0.694000500734656,1.6881704985599,1.34999986356192,3.05176189152558,-0.681535372876422,-0.152416022258032,-1.28172794874797,1.05182196312948,-0.414012423861215,0.460086483968358,-0.823048715425119,0.235620355543299,-0.695621989966717,1.92831853613175,-0.0269246691616276,-0.371660511344514,-1.16447389410263,-0.251193313719639,-0.0958258098576107,-1.4479497868162,0.782388934046702,0.406125310249313
24.56,-1.86008669663551,-0.167019883667988,-0.643019856857023,1.57639934274212,1.4912243283159,2.8715143688519,-0.681899012838681,-0.0673560915533248,-1.18688400237747,1.44821960285684,-0.23136219396878,0.37248350834742,-0.863722120744778,0.233737537487756,-0.653403883743742,1.36040570092857,-0.0440563241868983,-0.452752895915422,-1.15351382455721,-0.257111742838771,-0.101304391026055,-1.43896708876225,0.726811535159813,0.412032007614001
24.565,-1.75879925679075,-0.181758690113367,-0.545613464111601,1.46889709182834,1.69301317264507,2.57701926446732,-0.719961223317925,0.0458883589122067,-1.08704130328807,1.7442462146469,0.00150879153312959,0.266740762116811,-0.928561389888414,0.227780843960445,-0.625006410205973,0.793928239784948,-0.104369644024821,-0.515172361656492,-1.14617944492182,-0.270390106030995,-0.111905539376125,-1.42929969461407,0.666749541716838,0.405040773076318
24.57,-1.76417412854197,-0.100474396913406,-0.476037882639575,1.3909383995636,1.79883170978354,2.35395244016253,-0.751849048026746,0.113739030948364,-1.02308383005826,1.74195680073781,0.248954190077168,0.182757215335179,-1.00292468462735,0.225449993870991,-0.58958549246986,0.0775743492735889,-0.231284541297532,-0.582476952602078,-1.14429320106402,-0.2794144036613,-0.123415819842305,-1.39867461716288,0.574705156639976,0.392042231616361
24.575,-1.75878064006496,0.0891119279160542,-0.362667366518258,1.07894133639686,1.88281466771705,2.01864709462786,-0.791740530281184,0.18901512278949,-0.973756126619343,1.58230125508263,0.423816740608951,0.140445430523801,-1.07020355334999,0.224090012280292,-0.546797467260757,-0.637669582049701,-0.394159467683289,-0.647261275738928,-1.13567418712776,-0.293987528884932,-0.113788906385708,-1.35563527361575,0.527730720193977,0.378083696421312
24.58,-1.70307993936227,0.231563693517052,-0.263526849476735,0.724545529001426,1.85602802419364,1.78632986190425,-0.814507203206429,0.234555797311114,-0.919668125725562,1.22963210388786,0.635954971044092,0.0820574222134484,-1.11471155216867,0.243248214524275,-0.525838324721034,-1.11418796070977,-0.560450252530159,-0.648534008738675,-1.12309038963463,-0.29564739597803,-0.0966724203277947,-1.30228570687726,0.495047687745399,0.368087310931936
24.585,-1.56076550474932,0.271303028216028,-0.204365370300752,0.312012971730849,1.80465874140873,1.58068708571939,-0.836190581629728,0.245851742797274,-0.860090617960105,0.786854859948027,0.812233274554115,0.0369376264039548,-1.13956963000027,0.300026543660007,-0.482300885088541,-1.7540280667347,-0.704439861563212,-0.59442220597498,-1.11046781648576,-0.289430256043182,-0.0889749999878745,-1.28780779123879,0.482362148697309,0.364800272344227
24.59,-1.3730172978305,0.271159681080674,-0.176356287718024,-0.0240408037750028,1.77754721253995,1.39045447073013,-0.855813095813527,0.24272538035265,-0.773873444791328,0.15727322074106,0.977043207789902,0.00739793322411693,-1.17428535107643,0.381174197292705,-0.458529220691966,-2.34363916214305,-0.818493164413032,-0.484401288699385,-1.10181890459729,-0.287220761590978,-0.0956482422761926,-1.2896323133594,0.490617240497858,0.364889222749123
24.595,-1.19917639637733,0.27974254045189,-0.138548893244343,-0.245098207061224,1.83818743690627,1.28041805121353,-0.872685474018929,0.199341501107251,-0.678776162019147,-0.390447279019331,1.08097107957941,0.0153249381009468,-1.17883749272958,0.444914179263931,-0.413992260724593,-2.77161708916116,-0.889045240317415,-0.309773700555214,-1.08628450176669,-0.281772652467934,-0.102775223958619,-1.31869313958376,0.510457867545613,0.354256798341883
24.6,-1.0712362244272,0.31172070553074,-0.110918272327323,-0.390181522164511,1.9493820527103,1.21650995705276,-0.866720550575883,0.167667622035979,-0.581954352278705,-0.926493725718762,1.15000332660755,0.0248187333345413,-1.18261898668373,0.47546851827544,-0.337316777363995,-3.1136160263902,-0.927266850393713,0.062222653076964,-1.07105969323098,-0.271415682216088,-0.100605548882956,-1.35635599107423,0.508540329423999,0.329777823713788
24.605,-0.985236364615875,0.419335121236635,-0.0997672188426104,-0.485421025192227,2.05559182724867,1.18159015310798,-0.846133378363079,0.140875429679463,-0.511943038555537,-1.30853269274321,1.19241240385972,0.0274257006959118,-1.16688354885641,0.457725454775479,-0.250461904654953,-3.25318424067298,-0.957635540537949,0.40872512063176,-1.06248863364505,-0.260106329162741,-0.0900598562679273,-1.3629459644973,0.456800083505961,0.265409729104866
24.61,-0.854829694740789,0.51741654686192,-0.101261274372205,-0.651546315789077,2.19582847591564,1.20881137528792,-0.831355830352367,0.12333052077766,-0.455722850444546,-1.74978512832957,1.24320866311336,0.0356915228774725,-1.09298219645953,0.349916374753917,-0.127302989971106,-3.34171093395617,-1.0552784687194,0.817666615594885,-1.05619755165419,-0.243920573975242,-0.0761303120194901,-1.33150225427161,0.341121219846648,0.184672164705959
24.615,-0.82771433138384,0.630521539231422,-0.0919506555583373,-0.818635944440295,2.32116178109486,1.22702302328954,-0.82175408181812,0.095699702188838,-0.398205253741495,-2.08461013026459,1.27282733113573,0.0574970757553385,-0.984916743210239,0.162342275343681,-0.0306855321449623,-3.4776977324707,-1.17317182171437,0.989226887333264,-1.04411914353979,-0.222808464341338,-0.0672161890393786,-1.28140302002621,0.171763194005377,0.11115801002458
24.62,-0.901400371994922,0.942327849466247,0.129725849882869,-1.40159506320748,2.44929113633562,1.19638422486945,-0.784628462052393,0.0856994753643878,-0.416601501232241,-2.30260984456065,1.28086754633821,0.0465563020972605,-0.815319480955893,-0.109677516915271,0.0355637059059332,-3.53280737137647,-1.27473951351105,0.95323293906984,-1.01498608128777,-0.203973413409855,-0.0558012770136858,-1.19994195987714,-0.109636422472129,0.0234986425734233
24.625,-1.1659693202775,1.0440860031213,0.666411000281383,-2.58592510651604,2.35155207048927,0.975279872587977,-0.737029967376971,0.130564008747862,-0.41915132865211,-2.45221642080279,1.27395910416339,0.025133648899612,-0.592188765468255,-0.361123542199942,0.0834893267174283,-3.27105918364091,-1.33547366315668,0.700716784867373,-0.981865297697017,-0.197102380277598,-0.0567343318789909,-1.13113343934671,-0.345120459821521,-0.0106992413538557
24.63,-1.23629041549374,0.703601514550136,1.11686573353697,-3.84768868307271,1.99955471090931,0.680837274746541,-0.718351586193285,0.178240109165457,-0.424921942627144,-2.54494709982696,1.26882929329343,0.0266866500384711,-0.463276810313183,-0.431640429314134,0.146823652064706,-2.92529865400484,-1.33048329189041,0.549641783937868,-0.957446756450965,-0.182141004440982,-0.0626254186302104,-1.03087317690265,-0.519620205270947,-0.050421584401631
24.635,-1.01381950185566,-2.07560375820777,2.54014185723014,-5.72109218002641,0.975812164224794,-0.358812137929119,-0.769339035282987,0.276884006130967,0.042324849229897,-2.14696585732532,1.18089128277321,0.0471508692144604,-0.29251376297487,-0.484133265581101,0.234306177998103,-2.55587089659798,-1.30236376084833,0.375536547490733,-0.925532024701078,-0.169678364789234,-0.0577777771950991,-0.988636786905868,-0.725686599558073,-0.0441935174167156
24.64,-0.520920510798552,-3.30510191267922,2.97281486018896,-5.36409311625071,0.162684203034567,-1.18993897400651,-0.953601587293945,0.122077171710974,0.457234083188105,-2.22483516929596,1.10971473513821,0.0681497136442309,-0.145251485931478,-0.561957555377333,0.311128392016865,-2.46120231411917,-1.24387773899825,0.10211056627636,-0.910138489423099,-0.167633095674636,-0.0154084281281404,-0.994135921386119,-0.885989524996353,-0.02734424143781
24.645,-0.491384267147636,-2.18446508054337,3.25180530906298,-3.09907330302171,-0.448017019468478,-1.87484633505206,-1.32290414702186,-0.16802287729953,0.701559959079131,-2.77095302380985,1.06943279078685,0.10865230397784,-0.0446783227631787,-0.657780528482694,0.391884871218031,-2.35687630065004,-1.14831940861825,-0.363393227524317,-0.935294163232402,-0.146461368593379,0.0193037220277523,-0.991862803503527,-1.00019105970459,-0.0237758321449636
24.65,-1.09962199625618,-0.0660412522662039,2.91793938993607,-1.84708989015941,-1.41689293570757,-2.51403541920331,-1.88638606594909,-0.324622620236299,0.351228752094891,-3.63430102936909,1.10065501119096,0.122538238955953,-0.106473661883155,-0.755793568604178,0.419525738577965,-2.22474838913564,-1.02840357388831,-1.08466677059208,-1.01806606020718,-0.151864065304776,0.0820471643995937,-1.09471000035982,-1.01058120264126,0.0342478432214453
24.655,-1.72451175150653,1.74480231278273,1.39370230124928,-0.818406575003214,-2.28487130524517,-2.89361503714316,-2.38956934727196,-0.463429528263945,-0.198332803567153,-4.2950439800357,1.20897247400937,0.155845624338591,-0.318786821447738,-0.740053559084138,0.347815479562806,-1.98779820542873,-0.900087608873395,-1.62189222400233,-1.1403637540102,-0.0499695693827483,0.0880047329588962,-1.1457999393958,-0.93198656466577,0.0579114010896297
24.66,-1.70026756951255,3.09858825281156,-0.391843799899055,-1.08532377330261,-1.56028353436182,-2.05786889926928,-2.94968739387558,-0.602875359112957,-0.598090207792259,-3.89954680535166,1.4035832865914,0.0546585723660563,-0.823779309690013,-0.524663850997308,0.187997165813306,-1.27981780643169,-0.657794105589709,-2.16293141976058,-1.33271545961576,0.0520893478065737,0.0258518545935672,-1.22762385997847,-0.683441443191026,0.0575158108332896
24.665,-1.23007908797677,2.22770773891601,-0.0181851157179169,-2.06498015248309,-0.48060885342762,-0.8794126869426,-2.78905489897655,-0.582406303970282,-0.605631012433747,-2.67024516072913,1.45025783487986,0.00335842083711614,-1.20140991223935,-0.148207985832535,0.114303826004258,0.0720216704809726,-0.390963265968383,-2.28196765098816,-1.46609532987542,0.116633892160531,-0.077794209144754,-1.27956138785512,-0.404964824220617,0.0275482572731817
24.67,-0.831120576757273,0.480476318193509,0.691907927210924,-2.76191517150047,-0.111932875210344,0.154322982997097,-1.99352843421033,-0.544641194726078,-0.465208795135578,-1.13410799284525,1.37477352774803,0.0783624914212675,-1.77768007680704,0.155724748096265,0.00531887063155405,1.74652310248162,0.0394823005386286,-2.06861858693502,-1.50204860151643,0.156020309502452,-0.20268588529283,-1.26736373281788,-0.083430750026256,-0.00434058326045753
24.675,-0.633797531012507,-0.507392767122764,0.953400911526199,-2.40032630415818,0.0151123769997048,0.466851773365729,-1.44285859326061,-0.51841475136171,-0.304690646135839,-0.171716401029303,1.3883702612669,0.0111299977335739,-1.99993234569936,0.428157652630742,0.235894578327754,2.71884096000197,0.222464689103112,-1.85820573901721,-1.44139921607969,0.208250297141082,-0.341959547519693,-1.14694857658192,0.28109218398894,-0.0231168369847356
24.68,-0.537330388198463,-1.04992874049733,1.3263404031059,-1.62670739406274,-0.187640143728344,0.106797595177353,-1.03634729258698,-0.405034181655956,-0.124499747599458,0.099567057140348,1.43200145720371,-0.0675674948127,-2.00385702504939,0.796230284776589,0.59460629721447,3.81548976226143,0.423720927856181,-1.43121731921938,-1.31050347875951,0.229782975031788,-0.409537482622939,-1.10758843898256,0.488759349603963,0.0355694294854933
24.685,-0.672142800956184,-1.22076497361239,1.26998588305671,-0.674937085611495,-0.473557518344691,-0.453053925750536,-0.784177751991992,-0.272414701646452,-0.0807264381966878,-0.361756663229391,1.4226293910202,0.179668741917839,-2.00906366044909,0.81128814493509,0.937432557434278,4.38928994662894,0.367758217366629,-0.70099373257096,-1.16870451867915,0.213179841775354,-0.453152849342713,-0.902722734497616,0.558026683075032,0.142990144136026
24.69,-0.752907534714893,-0.236398589465645,0.928855683298279,0.182092040825355,-0.516113209390512,-0.610103713561663,-0.506758526757916,-0.169685298732829,-0.176296266327201,-0.936349540439208,1.38226637722011,0.148102767971223,-2.0117900210033,0.412906491161094,1.00271267333116,3.79253792608785,-0.0185284915212613,-0.0522087313588732,-1.05313028316712,0.183653824828402,-0.437343161143429,-0.674497274251148,0.358828063430413,0.327411371085352
24.695,-0.621701443659122,1.04226053102171,0.489040487410796,0.338699776645575,-0.340106259747586,-0.15796895873943,-0.365046470906461,-0.0783793542175955,-0.256908666248665,-1.10134256986813,1.27465021415355,-0.0979205323846263,-2.0099974929238,0.128032774875482,0.806044425846257,2.84276755764207,-0.400878507591366,0.172037853157551,-0.973100056050838,0.137769900477857,-0.364052668418949,-0.501706029659006,0.0262009438885331,0.32418679146056
24.7,-0.704257291523942,0.804768472860954,0.578331974052078,-0.424000028975762,-0.160191902110733,0.0449293752571127,-0.274725010606021,-0.0340861758057775,-0.295575991741703,-1.02543859166239,1.1336454091387,-0.187428335870366,-1.79355585394314,-0.123302401074076,0.415720480076701,2.13366918488819,-0.66284886980399,0.48766630548989,-0.941433179606082,0.0828316901895891,-0.280669726643445,-0.356391387023791,-0.485848141786931,0.312645140266163
24.705,-0.593914239089349,-0.25611114767446,0.99133866476339,-0.731689338926217,-0.146381350980715,-0.00586096982655359,-0.250566648757657,-0.0414517679568987,-0.223709526913175,-0.839852898890006,0.989562273188995,-0.146094598535865,-1.50748203361472,-0.287478218001249,0.123763157067116,1.8299311971963,-0.752944968662941,0.849565986194797,-0.941256061247187,0.0719251526046939,-0.224809263666378,-0.301830532492909,-0.949390068526002,0.260098689869984
24.71,-0.542463079348087,-0.315759158439077,1.01700727081776,-0.406339518206798,-0.178962914240272,-0.0474705153773664,-0.388112690792799,-0.0547572796304375,-0.111526759099217,-0.994826989892054,0.935237042360742,-0.02686731887436,-1.07241657712052,-0.532296026741969,-0.209722580168512,1.78698828768453,-0.734109839744338,1.06859083756773,-0.965293119273119,0.0702466723852067,-0.15990482863623,-0.35033164590448,-1.44132647412687,0.179224642320023
24.715,-0.530251561557285,0.156605590704652,0.867441074620275,-0.0719626788626797,-0.117308786423761,0.0156610499500236,-0.641815212570169,-0.0817210663281552,-0.101459155601384,-1.37900486231322,0.890757703345428,0.227160604444481,-0.751308343975154,-0.701609861775996,-0.3847780952471,1.91620583820161,-0.811651547114763,1.03156590372614,-0.993934972764647,0.0902991656324582,-0.106808852657617,-0.490398491247382,-1.66066769707297,0.138119060807725
24.72,-0.515272299112002,0.335462607139379,0.813800065351569,-0.0894757375726272,-0.0492843283992669,0.0714724356098395,-0.839143580180921,-0.068054079248335,-0.125244751260332,-1.55081999482987,0.87033537194446,0.3740445339829,-0.545067077402874,-0.754749803214362,-0.516983018935489,2.1673107942078,-0.751181218454448,0.834256048520161,-0.992743485158362,0.110539678889251,-0.0288022279946705,-0.670592378604059,-1.64471016501064,0.114235321946543
24.725,-0.48851863949669,0.344312009876976,0.834567717128631,-0.11414077000323,-0.0273432293354915,0.0796801086072835,-1.05616628549066,-0.000630369641997992,-0.136516807822356,-1.54024382639954,0.854217002459994,0.377991108564843,-0.333112270983339,-0.760564236204686,-0.641245140098043,2.48389574904056,-0.466051880858184,0.547749931995605,-0.98222074803759,0.157406798454457,0.0306709956596378,-0.830843612154946,-1.3153158795149,0.128918749947577
24.73,-0.433734635490877,0.304427513409525,0.871642232962263,-0.173944131815541,-0.0408651758189193,0.0359193924700626,-1.30638703209453,0.084475048186039,-0.161422917282255,-1.32413069885936,0.804398523771243,0.21820870518667,-0.184410795372907,-0.68635846113047,-0.697773951885882,2.74686087021224,-0.309422018164332,0.268211436434064,-0.958436906503894,0.211744560325536,-0.00683974577333634,-0.951597789336757,-0.642677235595965,0.180542534853192
24.735,-0.458601556529466,0.274297733311655,0.873853469459534,-0.19163040468581,-0.0720678317953417,-0.0368593734769129,-1.46267797637895,0.0860762303073168,-0.18239075997344,-1.01273252219863,0.708115393450872,0.0768382389127042,-0.0714951910297596,-0.499656846944531,-0.719544095449871,2.97799379706447,-0.104135895271156,-0.0106097086875285,-0.960549301905765,0.261155123178239,-0.0823417031398119,-1.01911780755752,0.0212157349102528,0.189271661023363
24.74,-0.487116975374368,0.241166872502882,0.85015721059902,-0.216655200904807,-0.0877463545080924,-0.0774517333561444,-1.52979309729136,-0.00171368739351981,-0.168283274697134,-0.808337655665856,0.64611689780718,0.0779044787367385,-0.0890986005056755,-0.367838864291833,-0.707136524191778,3.01800328100418,0.0196259018028878,-0.0892529012732079,-1.00341552813672,0.294860278521303,-0.0675478258125427,-1.12332730749906,0.420996356483924,0.238072778731773
24.745,-0.516543749971306,0.201423999364813,0.838789945545545,-0.218170935330215,-0.0914016606159738,-0.0896943658590317,-1.5036143733028,-0.144275631162073,-0.139598815467268,-0.763542083742782,0.617851077784571,0.154899543908567,-0.190960838283789,-0.266693572889341,-0.674860233555051,2.89904462580284,0.133783701832828,-0.0949828367134011,-0.989329447620158,0.2906533159475,-0.0674998957687669,-1.11304193562371,0.529903116832851,0.283361308650781
24.75,-0.541571103467807,0.186747613824505,0.8351692887159,-0.202684830479387,-0.09027327825682,-0.074296465875399,-1.38778053013057,-0.243886891962704,-0.165343462347791,-0.716693012190734,0.591494255194142,0.22901104564616,-0.29661306599437,-0.223359825102217,-0.627669975027603,2.64072994657459,0.212542227392838,-0.127753399116572,-0.965035421991655,0.283273570375872,-0.0481928253036937,-1.07256529285137,0.47007147261082,0.271882668886348
24.755,-0.525558247407001,0.173052952844533,0.850233382759583,-0.198876879003573,-0.0773483036375563,-0.0567855569437374,-1.20964773914775,-0.267542866335248,-0.200001913285636,-0.383096586585231,0.53433219060818,0.291007670288819,-0.442789165138529,-0.220706412576598,-0.517186929574686,2.21802268140659,0.246680399057736,-0.246613198149928,-0.929693631315832,0.263843897184878,-0.0418293466593841,-1.02852578687866,0.326011072575002,0.265010845963524
24.76,-0.518590326050706,0.168202086981703,0.858449933019666,-0.202421568102396,-0.0638397186994553,-0.0307969909440241,-1.07432659980821,-0.219672580454447,-0.170680052635512,-0.0593214277043016,0.497522069797115,0.277723130515336,-0.64172770436265,-0.18804896592439,-0.389723518428173,1.80181079506225,0.221261122362444,-0.478074215127924,-0.907242483701123,0.253498418058359,-0.048548921394843,-0.999743055998005,0.142730509579883,0.25740845316782
24.765,-0.507639368073032,0.179707635577411,0.851640631960248,-0.200880576388042,-0.0570100971400288,-0.0185094373823538,-0.928789211115744,-0.127430141934576,-0.11052210996881,0.243335010264181,0.449717982958264,0.234513689231027,-0.741639947758456,-0.126198821431936,-0.290175535275368,1.52166636369811,0.159244643558064,-0.641577351237651,-0.872653337620533,0.242508739228561,-0.0710640787752624,-1.00124156017248,-0.0768293799591885,0.284527293836021
24.77,-0.495268393108484,0.193634510288264,0.850922260774313,-0.176049412973045,-0.0476957238969335,-0.0056153431105679,-0.84415509888954,-0.046985347751551,-0.0803073798672842,0.272268562160427,0.403125941807674,0.209084925799944,-0.875940861957162,-0.0561308613916513,-0.162167501070115,1.22491664242196,0.0496931647152428,-0.793457691966086,-0.867929787539287,0.230380075632884,-0.0920898187842177,-1.03113444834796,-0.314886757491787,0.347680452347552
24.775,-0.486289777986812,0.191012651008847,0.858517804328037,-0.138278770335065,-0.0312154660970946,0.0014565293973463,-0.811339601376264,-0.00573899161438838,-0.0724551000738709,0.185668377460504,0.362474658537384,0.234784761833891,-1.00035043658368,-0.00287926088068975,-0.121544667424089,1.13057838326894,-0.0589166100762245,-0.878426526853721,-0.85678344165962,0.219239950284956,-0.1056643382586,-1.05016999300162,-0.453376245253979,0.402026933132912
24.78,-0.486819437564455,0.17153785555149,0.86537991337162,-0.0872326225320637,-0.00993080599540271,0.0162458384985396,-0.806375062258315,-0.0123244548696566,-0.0748811282450654,0.109436313155726,0.334453411775183,0.279304233148618,-1.10522759091132,0.0616876981739672,-0.0963343953917717,0.987126032120916,-0.242893859209132,-1.01111348474998,-0.830672032924253,0.184437354802555,-0.0770395065493826,-1.03838066861413,-0.455958217465998,0.441324023622802
24.785,-0.493853438622127,0.178970134943364,0.858509814700557,-0.0386237081108846,0.00445595462191201,0.0235443148457272,-0.816359625739657,-0.0313665144170805,-0.0996557764182247,0.0761808397543452,0.306644995557802,0.302894744745381,-1.18146890449988,0.10664729869828,-0.125839238626105,0.897423995128091,-0.360090139967509,-1.08554303088123,-0.849765079976294,0.143698234940879,-0.0748277995645789,-0.99523777138252,-0.351499598415525,0.463138127890541
24.79,-0.497243185115529,0.207793120153327,0.853039808431814,-0.0125455433960862,0.0195860668723263,0.0309771797581828,-0.859874993553479,-0.0298446398716371,-0.126012041738872,0.11987526823738,0.283981735464871,0.29263966036258,-1.24851289997281,0.132700293819761,-0.162775250219156,0.772867858190475,-0.448788777687571,-1.10853331152941,-0.864355157583595,0.108512404648504,-0.0818509753621481,-1.0153306012597,-0.155262234813292,0.505004941599567
24.795,-0.48597741996689,0.211679425385122,0.857134616380329,-0.00558392428724351,0.029220337284154,0.042107797930222,-0.939885206681556,-0.0166735564392071,-0.124688786653657,0.225245116684556,0.262975245951183,0.286265939539951,-1.30227242949973,0.140570153328295,-0.19749496518816,0.607764949195223,-0.51545871631835,-1.07276338101433,-0.9008845325103,0.0594375806150747,-0.0795974227539815,-0.996444419529641,0.105557763736648,0.531943226345551
24.8,-0.477383579346029,0.181701307435278,0.868055646060201,0.0116056291305707,0.0421630824082994,0.0364604468841818,-0.995409687243896,-0.0165041522139885,-0.10429155265643,0.263287454843521,0.239913981206747,0.295473620545983,-1.32752697493955,0.13506971094989,-0.215635768932704,0.363073166062324,-0.523104243703315,-0.923587140695339,-0.981029342401974,0.0395647212799095,-0.0814359634491037,-0.979911152736134,0.313993307648912,0.547934233409982
24.805,-0.482488835612037,0.173571778738455,0.865761359334241,0.0295936784058883,0.0580686380594472,0.0451037163571491,-1.05856872735318,-0.0124040396320319,-0.0918072519676516,0.238420789513306,0.214294329163122,0.308426013594022,-1.32956570905195,0.128482618312282,-0.206662766609349,0.210448605036277,-0.500587822679271,-0.761742886018058,-1.05376072940744,0.02667088776066,-0.100200809407315,-1.01690916318981,0.458719436279162,0.58930173841088
24.81,-0.490838659714567,0.205732472868631,0.857028412214799,0.0325263641496104,0.0851340356051897,0.058094183472592,-1.10846542394735,0.0041924063781327,-0.0916879149018509,0.16655291995649,0.198746820110719,0.319238484364864,-1.31316931134471,0.119687731450546,-0.188756371673393,0.0941242909889587,-0.455103478847543,-0.621396844874145,-1.11406463347432,-0.0105503624608411,-0.121516200324467,-1.01465067292032,0.546837229591846,0.615076092972479
24.815,-0.490009558989253,0.222344734459738,0.841581987691862,0.02891585143373,0.0908869678245058,0.0643001578612239,-1.14882822226393,0.0323608798840941,-0.0967931390017087,0.0993824131525131,0.202040396880486,0.32136288153454,-1.29590563385071,0.0996170288408967,-0.130028671445059,-0.0492122208005671,-0.381189665869809,-0.503097542105079,-1.16840457278857,-0.0422127058587868,-0.170334414160341,-1.04584203790739,0.607800412889827,0.656201170197273
24.82,-0.488657073773489,0.219677359966585,0.853589754466183,0.0117444372311069,0.107076801980877,0.0676627991106992,-1.15359373217394,0.067807019608768,-0.0877164879374512,0.0395885797202771,0.206610121890076,0.306285842345903,-1.26848040914654,0.0891370240899881,-0.0919419184137088,-0.166913677825959,-0.317920822597633,-0.463004780227151,-1.17759943337862,-0.0634531652207667,-0.194471730962862,-0.97592961942451,0.646872761950826,0.634980736620259
24.825,-0.484572399645288,0.216182853606401,0.855998727633885,-0.00123397230702997,0.116445901091516,0.0680275074714258,-1.1229308709333,0.0944146410943028,-0.0754694908064717,-0.0410515019203394,0.199794597787766,0.285613846623746,-1.22231974014263,0.0833638541018773,-0.0430960441347855,-0.352369329938127,-0.261201894534556,-0.443669151273241,-1.16512083738175,-0.0704931322875526,-0.208612027462122,-0.982521050542562,0.629582413827989,0.615841530149577
24.83,-0.492432594731998,0.223563933338119,0.84760545809587,-0.00435977309037893,0.130507041817431,0.0690442466657494,-1.08670537226394,0.107396558307536,-0.0720251224713313,-0.124803244219654,0.185772965719121,0.274909842902549,-1.17297571086322,0.0805143387503834,-0.00578779860768211,-0.464194606007238,-0.203350937932967,-0.442270162217332,-1.13428269513905,-0.0606870689862411,-0.213243131031798,-1.00269504047209,0.553561747957979,0.593889194927861
24.835,-0.495238589164068,0.234055021691247,0.842853438743188,-0.0137050499155503,0.135533267840587,0.0610476103123874,-1.04989578136984,0.104486443208136,-0.0840188735070884,-0.216247638348269,0.16100808645547,0.282382505323432,-1.12480793629663,0.0915607936710224,0.0110063222325355,-0.522436379129015,-0.164748464227843,-0.445136136490774,-1.08140883185572,0.00442281252026349,-0.204250605706323,-1.07448351186527,0.474639690268878,0.599440208858751
24.84,-0.488568165379446,0.233329528241733,0.844588033811567,-0.0231472459214064,0.140523376585388,0.0689871964516773,-0.99179696142666,0.0803965753355132,-0.0877282257821799,-0.283573195950422,0.141019834576851,0.273382775212625,-1.06564022917154,0.103602225006449,0.0276421755094335,-0.574564251935694,-0.128236684937638,-0.457630853042994,-1.0776024556979,0.0212430301291557,-0.198478107226942,-1.17646163018787,0.447337087387346,0.616018931913014
24.845,-0.495587604830569,0.226444122091891,0.847399893887861,-0.0177530872074091,0.14140497148037,0.0613367525362245,-0.962534684433028,0.0624830080236905,-0.0814263747532039,-0.273400383283888,0.122071355560975,0.261970438474851,-1.02067497112171,0.106817359585839,0.0483185959759811,-0.561748636856565,-0.100294967003969,-0.46114226221378,-1.05503873196442,0.0648258833435272,-0.158513190501142,-1.22502923542298,0.509321557496533,0.556899278384973
24.85,-0.500630584320355,0.22194046193615,0.846216858706815,-0.0117359183916844,0.142374910085006,0.0561907775737673,-0.94526931724401,0.0388485594496807,-0.0688685864065061,-0.196192675840094,0.0726774172918836,0.258832171881616,-0.982528365625354,0.10627073569432,0.0617755164884322,-0.501160519789346,-0.0873999364935228,-0.475271252147529,-1.04101295372424,0.0974363809301955,-0.109390126901531,-1.28255311901114,0.558953379800566,0.513247165872339
24.855,-0.496320218168016,0.215481630071254,0.847286441901454,-0.00659836420724518,0.143324865277327,0.0471354201436043,-0.939884632705296,-0.00201663835691719,-0.0606986787349993,-0.0688589884415299,-0.00424084384551766,0.241938527399867,-0.937172804423312,0.113143049901266,0.0805742871699851,-0.421910844268084,-0.0827374221808956,-0.482981842111714,-1.02289507868119,0.143527680141174,-0.0816838509376693,-1.28975187348236,0.554044233368212,0.49245708195778
24.86,-0.48492996555934,0.210186404266629,0.848562928805419,0.00602034765680209,0.157286986708641,0.0445604887413142,-0.940204697553438,-0.0438883898469628,-0.0624606123908823,0.038524205996053,-0.0380404023415916,0.228007538711673,-0.911725992689358,0.117685554180849,0.0903853061927508,-0.31392869283763,-0.0903416963138769,-0.487125547273565,-0.999434635829929,0.176522593189251,-0.0803916746956269,-1.23444118688154,0.542994308048656,0.471032413222195
24.865,-0.492110400026582,0.208333445631341,0.843047216718373,0.018517596181109,0.159349543875367,0.0482088089893924,-0.955593154204707,-0.076158566299636,-0.0878405799474134,0.122880889543265,-0.0578620866865101,0.222070876294608,-0.89655352533231,0.12059920954044,0.0879575616969484,-0.20390809842697,-0.099932947826852,-0.474390697124944,-0.983670588535366,0.18570830976572,-0.0852636427987651,-1.23258879678727,0.577107076344733,0.468750315496448
24.87,-0.50459805876503,0.208801795108275,0.838170336609951,0.0212913290439732,0.159986566901829,0.0547217749832757,-0.971959751340116,-0.0752247893582406,-0.100221245931515,0.209627562942338,-0.0656927078962326,0.213053556658257,-0.891946883535459,0.113857476103899,0.0820364991892602,-0.092590469829962,-0.120878872063138,-0.467463349720934,-0.971234251947671,0.20835409972282,-0.0882181780041892,-1.20906083070631,0.622235492461634,0.455156754965913
24.875,-0.496295227149729,0.215169226289681,0.838384758570407,0.0205326510998581,0.164832517141999,0.0769585724840997,-0.98074654827459,-0.0403481862117841,-0.0867081956988037,0.311598613977826,-0.0656012827275467,0.200239897752225,-0.892299994276985,0.10768942058865,0.0752094643758759,-0.01249368647792,-0.128082026897217,-0.477609192321539,-0.984749580453399,0.1963658131912,-0.113634546496642,-1.19929497125672,0.652065096160932,0.471803946130495
24.88,-0.485745024768917,0.221153087908501,0.844970583391345,0.013218693288541,0.16644369693311,0.0853756589542852,-1.00071018307998,0.00635589740818522,-0.0720409008871922,0.41347563312415,-0.0632493197917938,0.184907663770902,-0.895385372441465,0.10130381393216,0.0743511691748883,0.118193679801327,-0.137389246865133,-0.524181034955039,-0.986100276936718,0.200489912907295,-0.117374865047945,-1.13441432523441,0.652083036425607,0.455753749605403
24.885,-0.476815337108878,0.224894373523285,0.843175480393372,0.0135613264566281,0.160808424432006,0.0800856173676768,-1.01028389880209,0.0610606324292052,-0.0533285983472538,0.478302451381352,-0.0560158784753696,0.174806724240305,-0.899912562035704,0.0853634967848232,0.070434483444949,0.227742327485454,-0.142018059179831,-0.568337053572728,-0.969847829152244,0.19760969385077,-0.117011723044376,-1.07979314622608,0.615306302444996,0.467217655649816
24.89,-0.461446382624129,0.239239600298153,0.840152232743808,0.00589173362173905,0.151255542575236,0.0742927421307254,-1.0113475321321,0.0973277489734069,-0.0399409262526917,0.466406062475377,-0.0314965849794197,0.176916303309534,-0.905726627346324,0.0661760300139097,0.0595533432106551,0.337888188779156,-0.147283536728617,-0.625062208950737,-0.957344418070278,0.188113023614253,-0.103682237355882,-1.01499641609626,0.560280219801313,0.465095841238718
24.895,-0.461099171527622,0.252511389594329,0.843278911639666,0.00860631377602738,0.134898278541711,0.0636020002535121,-1.00773629778554,0.130665600839296,-0.0359152400112771,0.406413111973834,-0.0145962349128117,0.194083911285114,-0.917175214872079,0.0549857424303276,0.0690351719590242,0.457931017826997,-0.141385827864438,-0.660403517041584,-0.957112223500348,0.169018441915742,-0.096276915829648,-0.937274580846946,0.504151197786847,0.445829327598216
24.9,-0.462354302440426,0.252495846785444,0.842621001458042,-0.0151704602130353,0.125610410288903,0.0526767815728646,-0.994793431140838,0.155603033003251,-0.0235860244789751,0.292536486647904,0.00804910378911369,0.21239368745598,-0.93897098989419,0.0466462327380628,0.0710622928065576,0.60786066487361,-0.145532400741362,-0.69938706085897,-0.957049301578615,0.152078350023662,-0.0981392490758641,-0.780252755895524,0.422536444938125,0.387961655771914
24.905,-0.463217466128097,0.263327964782664,0.837979477001381,-0.0311102794627063,0.108806659160884,0.0381515958030361,-0.983217953131096,0.157019381336128,-0.0196379167901698,0.211984477472617,0.0151070671990457,0.228524768335491,-0.965909320306698,0.0546169718851601,0.0739508436765469,0.785890276881084,-0.155983890992725,-0.724900942957535,-0.947476828005217,0.147227903886128,-0.0880064149928622,-0.682762621202963,0.348829196407745,0.34025262870213
24.91,-0.464368955900638,0.271296211495009,0.82975479248329,-0.0611034509267264,0.0934992671256004,0.0270945423708654,-0.976114801790897,0.156005583929839,-0.031864543867863,0.108399611292186,0.0183364412000225,0.23346073372885,-0.979839569291127,0.0598636779906268,0.077558147445137,0.903729340669143,-0.162725521940054,-0.726133584976196,-0.944292829537939,0.145803306321746,-0.0893564271718891,-0.560091926673134,0.25799883754812,0.272877365521646
24.915,-0.475757327920459,0.251816261374129,0.833126688663907,-0.0929560333687302,0.0907924678645997,0.00704365381289939,-0.968108171910667,0.14414211461217,-0.047047750647795,-0.0128469575258867,0.0237867112332275,0.24487159929798,-0.996927353978499,0.0465600770005095,0.0641974711903442,1.03338072737997,-0.163357764482498,-0.719070754193966,-0.957734143527312,0.132561488086148,-0.0996953749115774,-0.412414188363163,0.136533806433104,0.199237529042024
24.92,-0.496218529173292,0.217385637700987,0.838936313449825,-0.103533555484573,0.0831361374511102,0.0104845855385065,-0.962327057515298,0.116445889722914,-0.0618698755456429,-0.126828421177641,0.0301264612645472,0.245262716277833,-1.00065581006716,0.0347979283523726,0.0692820766270308,1.10816593138886,-0.164880509352299,-0.711224584372545,-0.954967419231885,0.138431731908568,-0.104745862190606,-0.305492402357427,0.062647685582564,0.132785604743036
24.925,-0.494084337502072,0.195890785008883,0.843712789682274,-0.117279142287655,0.083308773078699,0.0118376818285801,-0.960677853637675,0.0835519766919425,-0.0609316592009467,-0.218526049287585,0.0283777639269829,0.229557142318644,-1.00843986310582,0.0148934423579072,0.0313433819993151,1.21203271431244,-0.165801152586937,-0.680981315735111,-0.95028573680159,0.145852501987109,-0.0958290587761872,-0.260341352222582,0.0267984293429808,0.0954179709119632
24.93,-0.493093379172903,0.20000377525712,0.843460138781873,-0.115583594062385,0.0730732916268035,0.0100208747524446,-0.961488275365396,0.0604191704047009,-0.0250814327052399,-0.256355600020245,0.0349766683595062,0.2095354239366,-1.00582979102929,0.0028005974273378,-0.00486761500808617,1.24034479482798,-0.16401228416218,-0.637561284692801,-0.951484413725168,0.139569034993773,-0.0983562286962847,-0.211783681666154,0.0161387693639515,0.0498994260142091
24.935,-0.497149484399367,0.182311900185582,0.860106458382598,-0.0977082946310441,0.0701687467041026,-0.00440250828808749,-0.965967440863341,0.027466339432676,0.0221617581074958,-0.231122347190227,0.0203007094303216,0.199467844579635,-1.0074747775836,-0.00120031316942273,-0.0425994210056348,1.25120724649656,-0.14234141316953,-0.598829813746472,-0.944938606071351,0.151073362159507,-0.102048945216154,-0.129819281310811,-0.0273474073742827,-0.0240947379446748
24.94,-0.491167790086347,0.169461469990823,0.864267900255187,-0.0780666164338001,0.0695452744090956,-0.00893520339109788,-0.987417727165598,0.00158065673660686,0.0262265223838934,-0.172560050719351,-0.0310157659201791,0.202003762288999,-1.01866784078584,0.0154166821804957,-0.088246717108663,1.25449043441271,-0.105456650706559,-0.565096752776035,-0.930899767395232,0.155183905133847,-0.100625845934346,-0.119027662273104,-0.0683535117093724,-0.0339837043370368
24.945,-0.484573136163576,0.162366822208501,0.862915357294663,-0.0546158878333744,0.0822258761618162,-0.00398253929877663,-0.996184723868861,-0.036325802350737,-0.016129318361302,-0.207124508134762,-0.0397261741476453,0.217012893352492,-1.0304714810756,0.0520988590730492,-0.135725408613524,1.24934626369362,-0.0570411020980463,-0.535529325889818,-0.930273475155769,0.158301023752409,-0.10227224863926,-0.0719960198751161,-0.105533682457969,-0.0682942368940636
24.95,-0.493690722639413,0.16147220630239,0.856604845005492,-0.0372990246819953,0.0884916312611779,0.00384206105528473,-0.987479674708176,-0.0624335346749703,-0.0528273838988353,-0.229985195699018,-0.0150953735409296,0.215932941373967,-1.0349914708269,0.0956583791919245,-0.167979750690851,1.23082033008415,-0.000177936231089354,-0.504864663619611,-0.93530977109821,0.154501093555627,-0.0909280652895242,-0.0639529932192115,-0.10010354249282,-0.0896220452345438
24.955,-0.493775926970501,0.163573495323718,0.854493357441739,-0.0436063272459849,0.100706285186232,0.0308706302813257,-0.983036916941545,-0.068696455612502,-0.0520021963813283,-0.216787876941074,0.0055125572480955,0.199971652539086,-1.04298978122844,0.136320138598526,-0.192243712883373,1.21100450768796,0.0428427586655398,-0.466198952163295,-0.911525690209314,0.158788118223303,-0.0738726154113616,-0.0763333498955648,-0.0805524901031572,-0.107380425882427
24.96,-0.489719875616249,0.186468477180335,0.850651418096536,0.00668044472320633,0.0937588736414909,0.0278939496374958,-0.993884362837561,-0.0433601241268287,-0.0405990307858016,-0.151190969784586,0.0175052875957443,0.168914268560361,-1.05716196366562,0.175968321119384,-0.204167343806747,1.17109527004412,0.101480120608987,-0.415325148050389,-0.924242046504295,0.158976827749307,-0.0888354080871469,-0.0904920411724288,-0.0685720123066665,-0.107873154198958
24.965,-0.484591426229897,0.200009876808567,0.853381487470403,0.021597337824589,0.0951211216207473,0.0339562507117933,-1.00474161116362,-0.00834174653419797,-0.0475381747473379,-0.0497246653048012,0.0236730755952968,0.142211508412011,-1.07143921175645,0.186414601225163,-0.210906722846137,1.1077340260329,0.132247822897645,-0.373721426680637,-0.934653892619857,0.167061916617484,-0.105796275490316,-0.0814664593682128,-0.0950075533673745,-0.124377376867339
24.97,-0.481289768200575,0.203153994669791,0.848692504168041,0.0356385393123615,0.103975563819641,0.0390266905630452,-1.01356877794493,0.0321768453780377,-0.0485698800777273,0.00678688710579028,0.0344628714856677,0.133150103230766,-1.07754605186536,0.174281339442586,-0.208994830328625,1.0039296191096,0.164791776054748,-0.323047668856948,-0.925203662166105,0.17268606394661,-0.117711517700197,-0.098734921829896,-0.107448068306263,-0.124106313112775
24.975,-0.487216535843449,0.202164849787518,0.843665263211234,0.0448572338312226,0.102310739457607,0.0283506858668454,-1.0048555652011,0.0679899482877063,-0.0444923671769752,0.044086959355999,0.0605555725672408,0.132431291728679,-1.06890233099432,0.162266252642089,-0.206033030786629,0.892826664253947,0.181177422517877,-0.265364094741944,-0.919726044681132,0.176584741912796,-0.109230767580466,-0.125261917219651,-0.120364833889413,-0.122411488744596
24.98,-0.475616562750478,0.2059271130747,0.842726574905091,0.0561986795701447,0.102673704350932,0.0379904291500983,-1.00137380357299,0.0734638599689841,-0.0447443225451316,0.0266416073703068,0.0709293044821007,0.134433264717103,-1.04783507835767,0.152989966285954,-0.191704605077442,0.788485287555218,0.182654380175293,-0.218106199735065,-0.924544885050225,0.176865593803589,-0.0749476103143193,-0.0935505560993012,-0.144319146443428,-0.130995981872476
24.985,-0.473904019114851,0.205571627054201,0.839307310194207,0.0599745184539091,0.101467625477661,0.0398912064125615,-0.998439139288411,0.0744732490401949,-0.0470471614035574,-0.00693752585088333,0.0828584188880281,0.134874963532996,-1.02426877121163,0.146027462003303,-0.168431081998009,0.70991436111183,0.170760073928165,-0.194076937724739,-0.942541564895065,0.178430370502794,-0.0460224237944034,-0.0788145937301039,-0.142033456473639,-0.127268746495247
24.99,-0.481274285856138,0.223397357757723,0.835737370015323,0.0673958927828463,0.102696758309628,0.0437488963870123,-0.986927545192646,0.0812979623138484,-0.0511085526122873,-0.0354153611569858,0.103510490140245,0.131412101748177,-1.00411023575653,0.143833797655553,-0.143878238336021,0.654991549103408,0.148780679627731,-0.204923905431037,-0.938659533087299,0.188677904691619,-0.0300296189311753,-0.0145637389333676,-0.148682770570221,-0.157023730258701
24.995,-0.484844265420889,0.238536491098273,0.838085980406264,0.0736607274966533,0.10347598477447,0.038865805454853,-0.985467928293151,0.102945392698195,-0.0336822672322477,-0.0199484711212844,0.116274042403371,0.106310747587791,-0.988073084643485,0.140184938016159,-0.120018206708155,0.61251879601821,0.119073390345502,-0.240831753487806,-0.920629420054175,0.196828748904467,-0.0349850880517099,0.000520328080813333,-0.148756512316457,-0.129598532371648
25,-0.481132853140649,0.242072906182771,0.834276083881421,0.0456430638245438,0.0997731075252587,0.0446920320391655,-0.978937907308838,0.112885874809821,-0.0283876015116086,-0.0161928732999021,0.113896377384663,0.093233622610569,-0.976494986919414,0.137961435464686,-0.101430295434043,0.546654636814899,0.0891634631371495,-0.266516826291807,-0.924642558814558,0.157978499056371,-0.0711681500497771,0.0995650545759069,-0.138582335145561,-0.196745249117079
25.005,-0.473188158305713,0.236567385390082,0.835466861770795,0.0222150892729163,0.0917157597429824,0.0460541079715045,-0.975508084266068,0.119121418892692,-0.021315641566901,-0.0479743458959083,0.127006037288772,0.100443937356706,-0.971198574528603,0.129307082636533,-0.0861881995574079,0.436286320495753,0.0650955924548644,-0.285716676893556,-0.876438237663816,0.199930013865057,-0.117859528119271,0.0896564091113594,-0.156689479316759,-0.191980315547914
25.01,-0.468273030126108,0.230559923283386,0.836310052233366,-0.000513416232081173,0.084523782468382,0.0387804009574178,-0.96710201107009,0.118539194937243,-0.0141694053319451,-0.113982844276095,0.142858807833722,0.112106508352254,-0.978626169815856,0.114136636634662,-0.0747198983243912,0.328143043111349,0.0498836794121153,-0.287767437148853,-0.887001197025577,0.161752829073172,-0.15149590014166,0.0991055351580545,-0.103273433584951,-0.217579235622872
25.015,-0.459864397335301,0.24260152478132,0.844683091420836,-0.0206055908960321,0.0826991803873083,0.033593663283529,-0.965363425477546,0.113802644140229,-0.0204263751736357,-0.178508498130617,0.151700289249241,0.114002428948879,-0.981101029586147,0.0837293014645081,-0.0738099067249662,0.181828344320671,0.0245730481562686,-0.270006568640031,-0.881231513574938,0.181715831540139,-0.188697457142407,-0.111650627964537,-0.0589947639107693,-0.0799363353140546
25.02,-0.478709480314181,0.253496711514505,0.846116277323592,-0.0273606961613232,0.0751974878954406,0.0206434750578217,-0.973265645256735,0.139154129606075,-0.0017812794818225,-0.165539730966908,0.147027530578899,0.11122037103546,-0.98624235651636,0.0693230954556406,-0.0493734740908727,0.103495394285501,0.0092015031499063,-0.257345845493063,-0.924175107188216,0.146200829239103,-0.180958637313362,0.0548380419688367,-0.036811596483197,-0.197644572159946
25.025,-0.487103567636865,0.255335249615612,0.837825565452472,-0.0326439670398547,0.0690702652784838,0.0102298656704678,-0.98401849335678,0.144094257665805,-0.0242732334468033,-0.154985802273819,0.129324672717979,0.115084471091549,-0.998258540160254,0.0587885394049131,-0.036652079888265,0.0498343857301314,-0.0213346931539766,-0.265003615431183,-0.923296153548556,0.159623316684193,-0.149425244530825,0.0912919335495615,-0.108518656733502,-0.243993201686035
25.03,-0.489568857663772,0.248961591945157,0.833216806208563,-0.0442967323718592,0.0605684577024542,0.000826178295841812,-0.985351476614925,0.129330013615864,-0.0547109331330443,-0.185147827188704,0.13888135509198,0.115885505365815,-1.00798169722614,0.0714656387359482,-0.0225636486240951,0.0527049014745749,-0.0420022207768552,-0.291616850904487,-0.950150057352543,0.14165675517619,-0.116409229168031,0.0158851356351553,-0.224189560918069,-0.241242440495874
25.035,-0.487995188638253,0.236510995898866,0.839750905029031,-0.0575237409240188,0.0517767478364316,-0.00417574867606163,-0.979495714362473,0.105324867520217,-0.0639981489501802,-0.222438007268233,0.153257891006405,0.104737819381059,-1.01944521291474,0.0847845124003758,-0.0104132072272859,0.0762350832524418,-0.0571925354921693,-0.320922039087256,-0.962036978987195,0.118540063656149,-0.0710230480944894,-0.0150267104616311,-0.324506412459668,-0.258742477427346
25.04,-0.484313814490872,0.222518109362266,0.836150954371816,-0.0677378457591332,0.0460101132319998,-0.00454875420287687,-0.988097564428934,0.0813080376794801,-0.0676499802119638,-0.24510154097365,0.162409405059131,0.0799856673822069,-1.02659608792806,0.0886208719455929,0.000676285168841522,0.100134068421401,-0.064140496553316,-0.341680915779035,-0.974298153987182,0.105340312501666,-0.0341332889395177,-0.0113438308207381,-0.368031232678242,-0.279900772918568
25.045,-0.491602641661105,0.221925373650276,0.830670415674465,-0.0895625476650596,0.0499256432784354,0.00144987231504885,-0.997927840067337,0.0817835633156122,-0.080149675111425,-0.254711002111435,0.168308829993811,0.0552662083670979,-1.03407223366144,0.0851867094458209,0.00947178115661496,0.137597305992744,-0.0686743936038108,-0.340695070144538,-0.990993928770132,0.0981934243605334,-0.0148893941234085,0.0124646428753672,-0.409267677160903,-0.305255632665249
25.05,-0.499496267041404,0.225768802895528,0.837962700559521,-0.0870818390522395,0.0500321448025003,-0.00188730701252859,-0.99578640293228,0.0940257784293797,-0.0807156201297961,-0.237768984546335,0.176402426802739,0.0317496466113304,-1.03803458740971,0.0781269702754855,0.0163562611277065,0.162402728807673,-0.0722990250606909,-0.313710678416667,-0.992696553759205,0.0971504820674753,-0.0250169880502324,0.0495669678686476,-0.396569314933559,-0.328888915090407
25.055,-0.489257854110571,0.228991079359964,0.828997427023876,-0.0990974474135426,0.049439100008547,0.00600644812411954,-0.994261919960225,0.0987373133334861,-0.0483839436586696,-0.222828688908275,0.189170078979421,0.00827464415736419,-1.03730146267439,0.0763680807499957,0.019796419085377,0.195646890318345,-0.0705082757639983,-0.291190486245028,-0.974222742448529,0.0900736927821287,-0.039657777047511,0.0900426142139464,-0.340169576983573,-0.349313059355579
25.06,-0.476387111647548,0.20567208741166,0.840211579838139,-0.106021091341972,0.0429182914668678,-0.00558749815278922,-0.984372425719154,0.0721073525640788,-0.0350530407510419,-0.268294509427223,0.214763116369621,-0.0121759982549134,-1.03512613044769,0.0693858352829686,0.018893515105245,0.216455874938827,-0.0661554656780727,-0.211704805189687,-0.971919351234898,0.0913238127534076,-0.0515226453731899,0.124728319371955,-0.222464721800436,-0.369947575124143
25.065,-0.476112421767377,0.180338669826302,0.849230725801936,-0.0997809669315933,0.0467727901041807,-0.00397739914828504,-0.983795453874781,0.0350056552662207,-0.0301876077903869,-0.344522811806889,0.237416112852797,-0.0218331773533735,-1.03342679484365,0.0647430038297631,0.00983991199615931,0.260728498572541,-0.057628789137871,-0.168789412557933,-0.978350279654507,0.0965050885072371,-0.0554881093639646,0.165360500214923,-0.0730775777479498,-0.395024896483014
25.07,-0.481807052038234,0.171841595779672,0.85397999969083,-0.0931677221061709,0.0565739194166395,0.0054586170180395,-0.986190589496237,0.0197084364088795,-0.0502343665871777,-0.404276367080925,0.249138799093417,-0.0204321641558182,-1.03831901706453,0.062874097139548,0.00115770880311148,0.315248864687335,-0.0460151042365565,-0.124239112193666,-0.987331087807674,0.0948534106240085,-0.050448817501367,0.196715077615843,0.0414912219056802,-0.387911854083625
25.075,-0.493946749754498,0.179712787660271,0.852787700441318,-0.0790013610414211,0.0664542582903933,0.00278740138542025,-0.990555867065133,0.0328058620803146,-0.0559586226298704,-0.407206427367155,0.258281045254802,-0.0258999099028568,-1.04113545371111,0.0667619658126918,-0.00907900632745822,0.348699218726524,-0.0298275670524716,-0.0753751236519811,-1.00797753591568,0.0822567152785294,-0.0571404036506591,0.24547537082094,0.0843074641820219,-0.387243661767488
25.08,-0.488751909347998,0.204908491978072,0.844658871550116,-0.0774020504224572,0.0574465379542974,0.014137349132968,-0.990974705378842,0.0524324900916438,-0.0663309750763916,-0.358503945124243,0.266114163252083,-0.0452984974208016,-1.04116051424933,0.0611076377058168,-0.0189833808482328,0.371596938251898,-0.00757694518598932,-0.0215868040082048,-1.01065067893181,0.0776210616507282,-0.0669501133785471,0.323051772870566,0.112561151183485,-0.380658594756356
25.085,-0.482785139718866,0.21826846996507,0.842680647260344,-0.0825576812070703,0.0508557130421533,0.00872397221708487,-0.987536126388286,0.0771481994599635,-0.0595655432342762,-0.314835903911513,0.279401047308015,-0.0619346210658068,-1.04214342554746,0.0486183833873921,-0.0379590130443131,0.378929807939856,0.0100648794260704,0.0384861160266349,-1.02318526371367,0.066925540326096,-0.0756876848908015,0.35238313940041,0.142281941194719,-0.35308836326651
25.09,-0.477330000880018,0.226661641956844,0.841732569577716,-0.0928208848659686,0.054508254594624,0.00264036225114879,-0.985114547765642,0.0862477450836255,-0.0648116239385597,-0.314626660238168,0.287075963158361,-0.0756963401913864,-1.03690621337188,0.0275629917164875,-0.0604102112874256,0.3614061635477,0.0298742281298438,0.0980847150260088,-1.02917614699845,0.0524508805780994,-0.093175845250815,0.369616800116258,0.162057099797434,-0.33372808016451
25.095,-0.480883824544375,0.21743610187138,0.846167493781219,-0.102561694965313,0.0577812240919079,0.00281159614583962,-0.98661713575756,0.0940664977464934,-0.0696141242793956,-0.336879610134373,0.288868774850161,-0.0744535985955536,-1.02776852053225,0.0105862713833122,-0.0805116330240657,0.337259836721642,0.0432838441225704,0.143217150798836,-1.0293918571503,0.043562656602988,-0.106187588923425,0.370407209317672,0.159153216220646,-0.315362978195913
25.1,-0.483353478639629,0.229114717704354,0.840060818187403,-0.107863511647148,0.0470822425640719,-0.00332253738403819,-0.984543179530611,0.120656708754842,-0.0892776867829615,-0.347172956293657,0.295243346345884,-0.0857752082053458,-1.01544841751681,0.00265851569838336,-0.0865029840921607,0.335794016086354,0.0519623788026216,0.182448771689525,-1.02197658786906,0.0516605836413903,-0.113773772631924,0.356248340811996,0.135414435251193,-0.301635410282614
25.105,-0.475258412592009,0.244236936622746,0.839058514201,-0.119616383249071,0.0389050647593166,-0.0055369874659523,-0.985631882273738,0.137874013275131,-0.105621095809275,-0.357038914584384,0.295453605819276,-0.096965873806098,-1.00502382865797,-0.00472714995044086,-0.0931619253617718,0.342806251321618,0.0497765964878989,0.198730256031879,-1.02303273449007,0.052767113496535,-0.117375470365695,0.34222750199138,0.113517522122899,-0.282444580967777
25.11,-0.48058011380491,0.255259549791194,0.825838931593894,-0.137229134671424,0.0205413815728526,-0.0221670408304486,-0.988888788149906,0.153337255114268,-0.115280267175217,-0.36572911319682,0.288635356980021,-0.105470912854455,-0.983130424566152,-0.0215515220733918,-0.104867677104685,0.298485829368756,0.0324023858475979,0.196641535613582,-1.0268454860018,0.0615210313590737,-0.10621545483563,0.334693163485922,0.111938093467314,-0.273145327143595
25.115,-0.48256020475471,0.25454396876171,0.826940681114516,-0.162621288663956,0.00962455698783839,-0.029739338486545,-0.979069643001639,0.159231703401065,-0.11598629020095,-0.374211724052366,0.287519335266323,-0.121322039423878,-0.966245250393534,-0.0286120904304012,-0.114845710668758,0.210088063257515,0.013743330661675,0.16805013675039,-1.01356777040968,0.0719671138364378,-0.101457671881574,0.321767507762598,0.128482600156883,-0.272634969695633
25.12,-0.48053927564693,0.238323468442118,0.83329941992426,-0.189457646405699,-0.0163136310032119,-0.0539379954964981,-0.969015819378205,0.138106682937849,-0.104808250219087,-0.409305708920095,0.29104208946228,-0.140110030770302,-0.947739853726561,-0.0313423211669226,-0.122643693180033,0.123125322062739,-0.00495241912999033,0.121519767219208,-1.01090975889943,0.0797519420417272,-0.0968326925192023,0.292847904710742,0.151349968510728,-0.282824529577207
25.125,-0.486136624352862,0.209893611169373,0.845154600584475,-0.193705956211579,-0.0403503726630334,-0.0717693861260128,-0.964681095942357,0.0973766634199591,-0.0968744155394691,-0.464160807157854,0.293000470973575,-0.142068412281596,-0.936865047842529,-0.0249966485882371,-0.13327978935369,0.0498285519473188,-0.0228222809743015,0.0456050493243186,-1.00494426120049,0.0770195307518851,-0.0992916985561837,0.260500708014587,0.165429116924061,-0.290816244205924
25.13,-0.488835207059176,0.175087964278815,0.850935193986923,-0.196426495909691,-0.0460295311879669,-0.0789788548842476,-0.961640032181522,0.0394184727435474,-0.102859073372962,-0.516664750295127,0.290892483016435,-0.143775120377541,-0.945209512269299,-0.014144588947794,-0.146169438525088,-0.00423835602072131,-0.0349740211340286,-0.0113376996301361,-0.996375221258287,0.0868865484151109,-0.103988279189745,0.218363117963425,0.173753063383735,-0.297794399980808
25.135,-0.493697661257785,0.143530796693477,0.865738486867201,-0.181152545413105,-0.0554631690073971,-0.0879467229000494,-0.966580816923141,-0.0302743887208571,-0.111170708693001,-0.535323206641761,0.289435697063193,-0.152519310072051,-0.944862028296029,0.000849088578301918,-0.150160599316674,-0.0784644056678504,-0.0411135924023465,-0.0839891806377569,-0.994800504807086,0.0868540083404727,-0.0940935762806884,0.196991263603623,0.180007871057319,-0.300748465496664
25.14,-0.492064991616962,0.141412966361848,0.862488032747139,-0.169362355353692,-0.0588868227005297,-0.0815276931641243,-0.973423167410777,-0.0652944927899463,-0.116002426030655,-0.463429248557322,0.279237759087792,-0.157076214283238,-0.957077386975827,0.0274375947802252,-0.146457015756262,-0.116884266149181,-0.0343920368377284,-0.12806751751196,-0.998128669927726,0.0980049758288918,-0.0903927251424812,0.194950111015454,0.179137568965622,-0.290747850922649
25.145,-0.497004776803539,0.153345812449711,0.862031320120397,-0.155413160800722,-0.0544160947844958,-0.0767800088522699,-0.99838657283706,-0.0743121086919542,-0.130408589695955,-0.361643031920208,0.267451736715143,-0.155613895913506,-0.978200728506754,0.0524785402780688,-0.147313904714272,-0.145869558703232,-0.0220710828728265,-0.182874323350674,-1.02122653363332,0.0976867701447371,-0.0713726340865698,0.190834216325614,0.187749687252883,-0.26774245863601
25.15,-0.501444339856117,0.162865114915873,0.853944272420088,-0.144261294017662,-0.0392329572102373,-0.0696067158735448,-1.0205122954115,-0.0597960847761843,-0.133772525611059,-0.238497572251645,0.250670924744981,-0.144616189057562,-0.985882568034218,0.0655655352853078,-0.135997421804026,-0.170106438112307,-0.000563590433658298,-0.205559984039195,-1.03570917601849,0.0937157728485648,-0.0455831171107809,0.188007748784375,0.224346906595246,-0.265443855962324
25.155,-0.50127145191736,0.177972567651199,0.853787120814997,-0.139525800758354,-0.0284903171490453,-0.0518218353390694,-1.02906871844955,-0.0252738274638925,-0.132785766190318,-0.11462369396032,0.237685756895192,-0.136254911030073,-0.995690964395699,0.0730478307284622,-0.113983102106905,-0.194457358356823,0.0139509000437745,-0.213003769337599,-1.05917768971545,0.0951113393311252,-0.0128413594331466,0.183606621152991,0.263553364673782,-0.258140704167016
25.16,-0.497245992604694,0.187701617056213,0.855563614305462,-0.125082205086631,-0.0141340081669305,-0.0487516755859894,-1.02915325295282,0.013728644712651,-0.128223562461666,0.0113023797348403,0.223675959944696,-0.13452780612006,-0.999544736304663,0.0751820505347373,-0.0898865664015165,-0.226563437416922,0.0283611946765009,-0.212450727460667,-1.07024235872091,0.0951807909660541,0.00661944927018031,0.186470754790679,0.268395794649676,-0.25910419123995
25.165,-0.49519567060674,0.206067217162063,0.844768265551133,-0.111968982148335,-0.00322260337224332,-0.0420482791960239,-1.02161669745257,0.0530184402649172,-0.115076418113751,0.0991352806862413,0.220334223033564,-0.145508398755476,-0.998710743035081,0.0603678570725799,-0.061952601082093,-0.244761044870585,0.040730876266872,-0.221770674509544,-1.08396378319179,0.1050980974929,0.0171368373847705,0.212282008903215,0.261409862026902,-0.252559929391958
25.17,-0.49217277997519,0.224024389971233,0.842418606485515,-0.103033200558768,0.0077655391892839,-0.0390952783236162,-1.00838681625086,0.098600752688316,-0.111707240173743,0.146855513558916,0.216255841057934,-0.162610966149647,-1.00099730432203,0.0494946843478792,-0.0399939052765822,-0.270622474754202,0.0358104554906615,-0.238938878623732,-1.08841274076623,0.109489684673288,0.013272098566108,0.250557170910572,0.263082696901498,-0.24629826981806
25.175,-0.490353610647174,0.22153726612389,0.838021009526326,-0.0971901164407388,0.0148371752819242,-0.0406172496046763,-0.999287800814146,0.140390247592167,-0.103850067773763,0.153007697827337,0.227700975932548,-0.180753204458239,-1.00225701041245,0.0414496101893447,-0.0288840046227213,-0.319641915157726,0.0170994566964634,-0.27250636767823,-1.09331391609821,0.109150669652513,0.000472821551633458,0.308517030461589,0.269185573093875,-0.242061377579669
25.18,-0.492092199940799,0.208972008792128,0.843967957845726,-0.0908985230824414,0.0245845230090382,-0.0401925685379295,-0.985008929514688,0.150874242968661,-0.102419001781722,0.140802921745494,0.232706914013888,-0.192345646553519,-1.00073094707757,0.041704252011784,-0.026267385783856,-0.37059533334484,-0.000969558561890383,-0.312076309377571,-1.09165031371673,0.111969302496763,-0.0225468770099928,0.373318420491094,0.263835702335165,-0.233628991548293
25.185,-0.494869110454577,0.203961432377225,0.847535716065585,-0.0796853999534268,0.0290090683847666,-0.0427258890724361,-0.977695242410784,0.155800723990124,-0.0972775563155344,0.116529875875381,0.236226906561418,-0.212183178400565,-1.00194288321469,0.0484018832412555,-0.0304104171539988,-0.436260358933461,-0.0209226330202115,-0.333842920023144,-1.08680841291105,0.104311264801275,-0.0452031157972231,0.42950332788152,0.237231117350248,-0.231002747895057
25.19,-0.49705166326867,0.206043832984777,0.846768380951772,-0.0629627451660459,0.0290090683847666,-0.046853911339315,-0.978203842204609,0.147675317534691,-0.0942104312343751,0.0865615717353994,0.247617457466552,-0.229850102620552,-1.00647628619018,0.050513892041145,-0.0378325962429806,-0.503062431730725,-0.0340641761594549,-0.339121434483651,-1.07026872218875,0.0953143214426312,-0.063380605613732,0.491056453185509,0.198300253200602,-0.244156768166391
25.195,-0.496389422574916,0.210989444102836,0.844877371268348,-0.0694149040283958,0.0463806857649196,-0.0386510883752216,-0.980247609109074,0.134167482606828,-0.0904067705452088,0.0665744768812013,0.260550136992986,-0.250244041893321,-1.01099017719595,0.053553704645036,-0.043784087808107,-0.568685198866997,-0.0447692672002213,-0.333990652555063,-1.06039614631902,0.0845715537981764,-0.0775436844538215,0.544283825743764,0.124227237820278,-0.250627138887551
25.2,-0.498187975769135,0.209502599721722,0.839916619603512,-0.0672537794080704,0.0554458608605679,-0.0453795445026345,-0.978906782188876,0.124204192197122,-0.084887314890254,0.0663274165293532,0.269095215594883,-0.27516183312946,-1.02215028622719,0.0703086824759032,-0.054452891597354,-0.645161132619188,-0.0514070979557416,-0.314505771788906,-1.05246577634942,0.0711926001399645,-0.0916436034772126,0.575134990071389,0.0555851510818171,-0.277183610059168
25.205,-0.495280566334153,0.210231860231329,0.848081697942954,-0.0618809073025817,0.0689535656421775,-0.0433230336865061,-0.978805605843904,0.106108176991812,-0.0708871674994153,0.0766053423963168,0.283628719939249,-0.293189346945213,-1.03622067794814,0.0853622702387212,-0.0595542524970503,-0.71841971838568,-0.0474846959192889,-0.276173714492115,-1.06840522223309,0.0659775320112892,-0.0973244790363178,0.596215227600284,0.00405313388551972,-0.314054229730592
25.21,-0.495913445757092,0.209553779416017,0.847563431062075,-0.0685906251448294,0.0884568431959188,-0.045895552031888,-0.981742197355982,0.0899504886394426,-0.0648396925882932,0.0990049253467603,0.297869006509463,-0.309422346607177,-1.04030352233844,0.110136320157086,-0.0569228909046023,-0.778083413152401,-0.0383041073936953,-0.233901271708198,-1.01874581551282,0.0723305185281126,-0.086175794626375,0.619573905257951,-0.035003392706178,-0.372538492743865
25.215,-0.501449425870989,0.212205754678689,0.847833993606891,-0.0608907966800721,0.103677241303164,-0.0457857654701308,-0.982102774637909,0.0815147381412752,-0.062454051423654,0.137961297537037,0.314830973318914,-0.318669651803606,-1.0464080956953,0.145988424153821,-0.0465228943866131,-0.798806449356702,-0.0154986729647563,-0.179962365251992,-0.993182453785042,0.0825936228050173,-0.0820331589348723,0.595846544469949,-0.127841843701405,-0.369576658535782
25.22,-0.502890546377258,0.206389540586133,0.849474290661216,-0.0624035548589133,0.112154799068285,-0.0465715888902612,-0.98685838029214,0.0747410160403391,-0.0589139615820378,0.197431936963962,0.333979232619113,-0.326740614344991,-1.04895938748335,0.170013724594988,-0.034469704570349,-0.779860441168296,0.0102534890871269,-0.122754787407879,-0.986509974073568,0.0790797912979083,-0.0964563782737642,0.667464073154862,-0.21687952486707,-0.429009901351664
25.225,-0.504658127767681,0.201905773413509,0.851239154102132,-0.0586306235248753,0.134683760002227,-0.0503445190251307,-0.995205511374886,0.0732496136595339,-0.0542430665135019,0.297204175146705,0.356142328505736,-0.347662836773585,-1.05067516086608,0.194328504868096,-0.0162651747782876,-0.708911166514935,0.035298986507135,-0.0696900958572745,-0.970135987665469,0.0852656036227064,-0.0956616831357453,0.686468022267513,-0.271420383019338,-0.459805698289527
25.23,-0.509218612071079,0.205337535892241,0.857704600110686,-0.0566396563468736,0.166491511199742,-0.0378624800503841,-0.99654154362137,0.0794032684648833,-0.0482434384679513,0.410421387754262,0.38216321174791,-0.372861335607154,-1.05493964582936,0.213231264553091,0.00152914119001748,-0.641118288606804,0.0634283585110394,-0.0252210388630526,-0.959221974463077,0.0761612981214402,-0.102519851003724,0.735462774161211,-0.311144239859241,-0.496013712890318
25.235,-0.505136553068528,0.210072938446205,0.856968153757846,-0.0407424954642917,0.176934368331272,-0.0503357485687877,-1.00120349433561,0.0799026462194357,-0.0330485865771026,0.499704032089593,0.420296119345244,-0.404803859282895,-1.05795015705323,0.230296579384071,0.0160305369203756,-0.582196580033086,0.0835257108940769,0.015801745553758,-0.959491201421606,0.0667833214679989,-0.118006933434142,0.785557037118138,-0.32693028229368,-0.509648566419971
25.24,-0.505418478305494,0.211704863860208,0.856726941361102,-0.0268485397756579,0.207407514324281,-0.0457133613526821,-1.00147385453437,0.0838329578504927,-0.0187081803167725,0.585994672542727,0.466307020139451,-0.445596953317312,-1.05649698340964,0.23581331164264,0.0364825624328057,-0.543609300317658,0.0961755959422543,0.0617816279306324,-0.956281501441122,0.0506537327788733,-0.146515412951666,0.875941540678322,-0.327409515642551,-0.513356754908398
25.245,-0.504857209677513,0.220636025343977,0.861189591758515,-0.00860191062038267,0.24316091332461,-0.0395367506758924,-1.0016496412174,0.0961743685350734,-0.00988364102465523,0.657061310495048,0.515000374997764,-0.493366693853806,-1.05785353513089,0.241311143146626,0.0550135762735673,-0.531103132034874,0.106074384451552,0.109990428733877,-0.977314202738414,0.0223970625502688,-0.151648450660288,0.950931396970791,-0.296078550373017,-0.498097154683515
25.25,-0.500359435491687,0.230074517587623,0.867034084565768,0.00275035468196356,0.279382785945035,-0.0396455213283797,-1.00920895920325,0.102048847613104,-0.000285123342828268,0.702850351940097,0.570393532962171,-0.544596895843378,-1.06206086152968,0.239820401657185,0.0728378905425658,-0.527914346710648,0.107858426868916,0.162765848874219,-1.0066582235371,-0.0241815248740201,-0.152437030697732,1.05819093806786,-0.241519295659028,-0.470366503027926
25.255,-0.49302031427683,0.257790959258679,0.861328100267965,0.0348130840172247,0.335450432129242,-0.0343788040609786,-1.0161411239317,0.0998299787511007,0.012281348388471,0.718814796707066,0.614887358669144,-0.577119847443909,-1.07775255338233,0.229907317470781,0.0786948018017219,-0.528821408748627,0.105430964354147,0.211880987675796,-1.01517626464836,-0.0735706373606827,-0.154811243261189,1.13172702809826,-0.168376456682234,-0.42382028704314
25.26,-0.483126926112176,0.284138328921881,0.857798554599578,0.0402194766446506,0.384772931952235,-0.0300607362230095,-1.02939662501761,0.102010178257882,0.0109871466706291,0.711745322518263,0.660376636903151,-0.606940716945612,-1.08373779667703,0.221274966929637,0.078948701978965,-0.53264006496567,0.0963770491924623,0.259761173994759,-1.01100467595975,-0.142502866191335,-0.173894992213936,1.19768372087594,-0.0949667816919872,-0.389106690720078
25.265,-0.459166005314349,0.297008122713303,0.86129081578002,0.0352716009782604,0.427755285283569,-0.0403113420085382,-1.04844312259129,0.0984838251556666,0.0221752187769359,0.718013252083003,0.703081619391935,-0.628769690502601,-1.09650008902953,0.206952579321918,0.0716780853764692,-0.557528242619279,0.0834296763717605,0.317783431209187,-0.99111873412493,-0.218816461733565,-0.186107918115338,1.22577862853875,-0.0244785752366056,-0.339340927510393
25.27,-0.446982223090707,0.312371368510533,0.881627971026991,0.0223775877782332,0.457129891632275,-0.0669495257636403,-1.06775102216387,0.109524261088403,0.0485227910099519,0.747544501934415,0.717602392213679,-0.623903567797986,-1.10925907683721,0.191174236636719,0.0601076272276748,-0.576043121755062,0.0627481503726351,0.382436084514635,-0.935026867410521,-0.285373440120749,-0.192316799658909,1.19499494610373,0.00683936553236817,-0.289990627364336
25.275,-0.43448386206157,0.331894308466624,0.883582842931213,0.00739328145080936,0.49252212937266,-0.0942091642032106,-1.09541370324107,0.118673879568956,0.0753852623545023,0.762757777296305,0.645833211615572,-0.583382426820994,-1.12237752886404,0.170554130007743,0.0442730873668502,-0.60948735566997,0.0394041974336162,0.459085827045338,-0.90328380709595,-0.339653194229657,-0.206540568438947,1.17689094261948,0.0367328741222019,-0.287185998647827
25.28,-0.42859684352951,0.342356059023037,0.869618653175439,-0.0395846316254296,0.526508977626667,-0.177461630627652,-1.10847884155878,0.101466367730894,0.0595055689734073,0.711301629460194,0.564720475436516,-0.543588756133528,-1.1319208565446,0.106282396252517,0.0275122055098681,-0.622366986801007,0.0136973826415009,0.558573426603524,-0.872041155517949,-0.382309327849714,-0.180371114560317,1.13288401963224,0.0341834655648862,-0.309197825239883
25.285,-0.450060397128242,0.355168331772686,0.915909932399332,-0.0131412119272197,0.573051258320466,-0.266781902265821,-1.10002293655527,0.0823475901586868,-0.00374576229429638,0.605369309968963,0.554484112880621,-0.503294416299663,-1.14271014995111,0.15350710588534,0.0100589565034276,-0.603825263884225,-0.0342057669741567,0.637607765529993,-0.857830004717503,-0.36433463297862,-0.167682913422766,1.11023974660467,0.00740651577758166,-0.337070101919019
25.29,-0.437191689608303,0.352276310677442,0.886149964985166,-0.129789657532012,0.614208491890926,-0.291768457972706,-1.09977561428234,0.0829081074154604,-0.0293074221389437,0.580962158864999,0.627403050102369,-0.467799725806553,-1.13222665537672,0.272048138822569,-0.0280213095999198,-0.520730379321992,-0.0774611486635759,0.704927247625045,-0.860541754643494,-0.320482389727956,-0.151198587944586,1.07091424128655,-0.0388865347332923,-0.332852304086384
25.295,-0.430710139215122,0.350780886273711,0.917993636826552,-0.174047666570764,0.663372497629092,-0.32089400059353,-1.12662176600075,0.102872478654914,0.0487227412415772,0.743093530337292,0.626667366123022,-0.453711653761547,-1.14933084584343,0.195365778007085,-0.125754148547218,-0.495172534962726,-0.0355724600226493,0.719215928925409,-0.87597866264641,-0.291598297344179,-0.139891369471326,1.04613930962918,-0.043647982919118,-0.314275548601052
25.3,-0.449736270314108,0.408784273522946,0.919038128100501,-0.29655460219899,0.691032115432537,-0.444154864947549,-1.16702835803555,0.119721100883198,0.149528128683849,1.01012387066682,0.496160442380714,-0.431238460788663,-1.17650497347241,-0.0740848614282486,-0.0917137874937899,-0.375855544458602,-0.118636862883551,0.560494984953411,-0.906588067182863,-0.265431805586251,-0.0949315785085852,1.07509495222964,0.0138896522658948,-0.353859045724309
25.305,-0.463706842388501,0.409687825039332,0.939022333356219,-0.376950383890706,0.716513647085969,-0.553300044188817,-1.18571846586245,0.115903684676611,0.0634825674023863,1.22472746840221,0.355479464151196,-0.33298077604759,-1.19992982174515,-0.0742326721965344,-0.167169570144617,-0.237382217665777,-0.22147457316399,0.655288226629193,-0.938967027479203,-0.182001506855779,-0.0735769512934683,1.0945870172592,0.0309629328548908,-0.400623844659016
25.31,-0.485022656974225,0.387503986386239,0.953832322942112,-0.450617828010472,0.760128905989484,-0.64811395676792,-1.15851721269867,0.0904992954032626,-0.171465716057553,1.24718687325772,0.44556090802374,-0.181396970723227,-1.22125178403887,-0.111693753536226,-0.263331732292597,-0.201174935240594,-0.304573430441241,0.997741502255138,-1.01067838278891,-0.197177167009196,-0.0752152187237917,1.11485784625806,0.0265400124406381,-0.439094830200541
25.315,-0.472889978675336,0.39114204770768,0.97041133997506,-0.504308462974555,0.797923381303574,-0.661601054294159,-1.12718494875579,0.0939215641159971,-0.211704723313394,1.2037004986147,0.57939547939384,-0.159435190419513,-1.23906110351506,-0.219350338346018,-0.327212296962796,-0.0396164391461192,-0.357442837245284,1.33128182319513,-1.06177418777107,-0.177723963678343,-0.0862198002272901,1.04117431865052,0.025977654960009,-0.433480362445096
25.32,-0.529943868845036,0.386397652735585,0.998286153307851,-0.514311255603263,0.826439661759595,-0.670918953373494,-1.15096282758195,0.10899495669651,-0.134473084713133,1.21269912136575,0.516987965976913,-0.214226789470443,-1.26282690368078,-0.189826399891015,-0.366723643989301,0.324326217344982,-0.415901051273616,1.56787241546847,-1.06763220415249,-0.0834953942182073,-0.0442774551742679,0.923009866259098,0.0204266221095362,-0.463407138623443
25.325,-0.615608393441026,0.363461304754703,1.03786480728483,-0.433013489811124,0.842093308765049,-0.681112342252171,-1.17465578859197,0.0938049695467674,-0.265065622475971,1.01960764955174,0.395322163346786,-0.204530197095699,-1.25141119091561,-0.184370364218619,-0.422291087841113,0.471034897864208,-0.420583737637895,1.65912257425088,-1.10432351466666,-0.0463873008168049,-0.0200641413444048,0.754062209717183,0.0334904479660692,-0.405238589126382
25.33,-0.659688076569922,0.287000679349615,1.02464626087625,-0.330847922619906,0.880208360693719,-0.6318920944187,-1.13622153155356,0.0490823566801994,-0.327647917908184,0.792987523506129,0.423681450744438,-0.209966926259285,-1.21984782509833,-0.22254435903813,-0.484447165984307,0.435294761833065,-0.371039110022447,1.74273243890524,-1.13313199516599,-0.0296007259049394,-0.0219849170298422,0.699937013461726,0.045473440842728,-0.392076818857392
25.335,-0.516553995335144,0.247736744693719,1.05367321360699,-0.0296527456357176,0.866964066835745,-0.492770769398602,-1.08826013437533,0.015655082978261,-0.195323955581658,0.638540848250912,0.484526830317406,-0.273944166463911,-1.18755310610048,-0.249198774981818,-0.518837284646913,0.310589931103876,-0.290479587665553,1.73682402798442,-1.16889376487039,0.0114691987321019,-0.0541438518443994,0.675072982091942,0.0732527807072964,-0.360009542937131
25.34,-0.403815640070228,0.176293575875806,0.986072219277794,0.215755968300166,0.777679834996399,-0.383765773288817,-1.04956424155336,-7.57965599991798e-05,-0.201789652392494,0.377450546164123,0.466348554501596,-0.247778674369909,-1.132371124087,-0.252678984318658,-0.482532397700797,0.0571522311314975,-0.204836930595792,1.69868794028796,-1.16802532650804,0.0395391317662444,-0.0939317721521453,0.752558467591735,0.124334658212111,-0.324268122694579
25.345,-0.498160199843459,0.0893153478837987,0.946586494765152,0.492106590114747,0.663077703619677,-0.296381075101249,-1.02986455583832,-0.0155847367325831,-0.261531697688473,0.141952045990824,0.48814964054716,-0.198410263962219,-1.09152411607749,-0.228575302035246,-0.458240509929523,-0.286258075920484,-0.0821350627298923,1.6018295053236,-1.16046399366831,0.0462317656914635,-0.143507581371147,0.795631121286721,0.155395259643928,-0.281805196136386
25.35,-0.600272284355551,0.058595683781159,0.98374949850974,0.686537705383591,0.529693983455985,-0.260040674071154,-1.03749014395969,-0.0355203064856188,-0.267949640938556,0.0215760184573233,0.499951839447021,-0.149165539080469,-1.04672824209706,-0.18515481351676,-0.399924336222783,-0.541974656457491,0.00115235087059974,1.42714562623136,-1.15615818325246,0.0185550548103835,-0.182740362741728,0.85111444797258,0.188605876029248,-0.274100273353335
25.355,-0.546614975988192,-0.00653181881840502,0.859436949955154,0.953008059467359,0.456770729036594,-0.285216639517856,-1.01128414579195,-0.0807310661675877,-0.172090493163363,0.0199464482011705,0.46500454491857,-0.132602674101572,-1.0112449652976,-0.141683062931946,-0.353333657316774,-0.7163049313407,0.0830771981304146,1.12606102198365,-1.14533984271534,-0.0126370386818924,-0.194393486831409,0.853295768068104,0.191120811372037,-0.284635527791509
25.36,-0.31663322610009,0.643558406790852,1.09315130414998,1.76291299039232,0.542341624816981,-0.0877318052036095,-0.993357676735884,-0.133889274933779,-0.120369380414142,0.0954889634522411,0.425487994277884,-0.169278660868624,-0.956257951044524,-0.0963911291966271,-0.308704540598458,-0.777179225542209,0.147044863052977,0.908804856006487,-1.1310714297763,-0.0530847525495347,-0.191832791750813,0.790271835071102,0.171916803613292,-0.288093124690351
25.365,-0.34455626809191,1.17770019432652,1.19652754700039,1.79154596740792,0.288647644361344,0.386119537619709,-0.996573145903197,-0.0932998178965518,-0.141549342491447,0.193337223973171,0.343266940355594,-0.175667823382264,-0.929911433033159,-0.0693294716709863,-0.264871533991388,-0.798848071219265,0.207121253540012,0.700250497346983,-1.11106153364508,-0.0859023981863415,-0.18151886521967,0.74303589833705,0.1367589153551,-0.294640898704529
25.37,-0.394249549848256,1.06941980019588,0.986463310932571,1.24664008931794,-0.0735120039033066,0.794798122356863,-0.979288182065996,0.00874259630823492,-0.147492182342478,0.351170862287204,0.267567955631705,-0.108246823831639,-0.904178291471069,-0.0587799366725679,-0.226327046225434,-0.815997116537095,0.25397688106962,0.520732127190667,-1.08895916655468,-0.109085786240485,-0.147346960679024,0.686487644994424,0.0709679089002523,-0.282595733781352
25.375,-0.367799228801718,0.66187048663509,0.846032669706816,0.958379642448216,-0.253913344221353,1.01575012725681,-0.930675324836136,0.0701305722567793,-0.113296344341627,0.52146018317381,0.204884968367601,-0.00581762912817505,-0.877846583222194,-0.0585172667796268,-0.197529507646079,-0.864655594369531,0.276452273130417,0.366152819332027,-1.07838195256384,-0.131212037487604,-0.126248538509409,0.602060771698335,0.0160768216101021,-0.260301762996758
25.38,-0.257527349165804,0.489260968013695,0.783173302732113,0.901801511957117,-0.250907552261105,1.07572683460839,-0.860033697815547,0.1145057590688,-0.0854800033456274,0.618468526377904,0.114397693061107,0.098721727456021,-0.861590283278848,-0.0624527866464396,-0.174489782889202,-0.919635619445799,0.275884885151671,0.248467307333054,-1.08499630268887,-0.145148735725273,-0.124096806617495,0.525188760268776,-0.0153961637681047,-0.239102014291671
25.385,-0.155365921999658,0.396317466684583,0.78729988840253,0.905231603497162,-0.221733887718104,1.07367902312145,-0.794211903678027,0.145729250005561,-0.0900582990174535,0.595164153431385,0.0389303122114427,0.186349947670176,-0.841700083174027,-0.0618425299631826,-0.149580103933307,-0.950304399605563,0.265445619495523,0.132650902897037,-1.08312177441703,-0.146364349531769,-0.126543570917397,0.457802493293328,-0.0139768056000822,-0.215517261285897
25.39,-0.144545623516852,0.254512919396421,0.831830745233016,0.866856834771059,-0.271388178314968,0.986352477034254,-0.76291795965271,0.162147936893988,-0.0980300374958139,0.539080775065785,-0.0355529411126694,0.262199086750328,-0.810557162156861,-0.0663696718234756,-0.136813745562348,-0.933580377905108,0.252009171401704,0.0418282918690023,-1.08050082809091,-0.139794189997074,-0.136831027765418,0.370330179763369,0.0286443301141496,-0.194720580215457
25.395,-0.208044823378278,0.0229066837279513,0.891864926421454,0.845938959069399,-0.35428038284223,0.851493177115517,-0.761236588225628,0.145818437920341,-0.0991454135083736,0.439108501082423,-0.123414534085577,0.356108195753333,-0.761321385435402,-0.066235158835446,-0.126922099071622,-0.902882688488273,0.254172875191329,-0.0669658696801721,-1.08148265131205,-0.135192795721386,-0.156083694868586,0.275822240534693,0.0874123641881296,-0.174800262085149
25.4,-0.283749987190905,-0.11621027098765,0.982274281475575,0.88856126147549,-0.482638261751583,0.583578542309108,-0.772322419866352,0.0987558927651219,-0.118250023433336,0.352534318740576,-0.206219403639788,0.426743692049591,-0.733446455739925,-0.0709506510208082,-0.109956446716798,-0.882043446574276,0.267786141132067,-0.165950022773148,-1.06807877168948,-0.129011975807769,-0.180051086605575,0.207149434287028,0.144507266967939,-0.166362971067429
25.405,-0.362195892875379,-0.17803674595789,1.08467814615514,0.931168333240059,-0.6312466425662,0.368406028244185,-0.788289189152319,0.0432660132713761,-0.171582733368079,0.278563820357191,-0.293176512699207,0.497201505323763,-0.71595646705075,-0.0754023778991664,-0.0869839286840033,-0.8725862294872,0.284846148734089,-0.26460689031338,-1.0610430341948,-0.124372378066332,-0.202226538637778,0.126610302883959,0.190380785188076,-0.162445954438203
25.41,-0.402832708440062,-0.18018044241665,1.07507455855084,0.893033908038804,-0.864654630962083,0.12999928173361,-0.798835641521751,-0.0167342963913185,-0.209693686869054,0.256468424067566,-0.364446779589144,0.539893818876626,-0.710022407129632,-0.0821064474827053,-0.0498530439757671,-0.880945474510464,0.289299639241687,-0.37109774014483,-1.05029733178456,-0.131758646505309,-0.230712676061584,-0.0228167738067161,0.239043966882607,-0.161357812821862
25.415,-0.421427849220639,-0.166387141119977,1.04243865733467,0.804607760426742,-1.04865663079697,-0.0714999835361903,-0.802385753809888,-0.0681334708816405,-0.209506648734449,0.281931732913042,-0.444577600380203,0.556149573546415,-0.723926830656117,-0.0850175569749021,-0.00497767544717846,-0.863292910626819,0.288606688436283,-0.450365878394633,-1.03303165762443,-0.140128538308506,-0.256881000432149,-0.175649327632791,0.279855548944043,-0.161489005359376
25.42,-0.412587699929202,-0.156604527265499,0.980441401288737,0.708422950271301,-1.21414577998295,-0.243499607777509,-0.7999000058226,-0.115365984792862,-0.214569157014654,0.332137623645224,-0.52141835914685,0.548264561909551,-0.745478501778217,-0.0831258329810561,0.0509874877926388,-0.790028363609472,0.272549302095565,-0.531644032315521,-1.02399157930106,-0.148821342751115,-0.276442410291434,-0.322058051166624,0.330507665030895,-0.138605807319163
25.425,-0.401202431929598,-0.150245961729035,0.864913089241242,0.594250837971988,-1.35309796119116,-0.427499529129638,-0.78794620247977,-0.168127666100554,-0.20173574041912,0.404082113639947,-0.600375169335836,0.523337544847251,-0.764114763858175,-0.0801416408143648,0.0923094390245216,-0.706073484135589,0.254643914944933,-0.581586574231475,-0.986194442853581,-0.172175066608816,-0.303179262427127,-0.453668506706694,0.442968534102235,-0.118330143767741
