Header,foot_Accel_X,foot_Accel_Y,foot_Accel_Z,foot_Gyro_X,foot_Gyro_Y,foot_Gyro_Z,shank_Accel_X,shank_Accel_Y,shank_Accel_Z,shank_Gyro_X,shank_Gyro_Y,shank_Gyro_Z,thigh_Accel_X,thigh_Accel_Y,thigh_Accel_Z,thigh_Gyro_X,thigh_Gyro_Y,thigh_Gyro_Z,trunk_Accel_X,trunk_Accel_Y,trunk_Accel_Z,trunk_Gyro_X,trunk_Gyro_Y,trunk_Gyro_Z
96.555,-0.433499903196718,0.297315406107939,1.00881334466184,1.86806134411611,6.34505688819999,-1.42169915615084,-2.02872921433028,-0.388308906751119,0.0137613943556988,0.477500538912912,3.66058919811588,-0.506316744996072,-1.4472541645245,-0.450021082096098,1.15891772933243,-0.0310383230885339,0.115583602384344,-0.366914788928827,-1.74304520304139,0.0643755951420256,-0.0606580921753305,0.254404664039612,1.25724696533306,-0.360521321312312
96.56,-0.554732660734293,0.284939322626501,0.974758998829491,2.05592053087871,6.89893056940739,-1.54007899566663,-2.00771585233006,-0.494290447382116,0.055238303591189,0.407072275353374,3.71330053525499,-0.418335327905255,-1.41905804046848,-0.723267860876625,1.16075277668036,-0.517441349616565,-0.0523215862780521,-0.27921045370516,-1.60751089214582,0.0570132077847412,-0.197197047789423,0.253763894032109,1.4506916043926,-0.292024952915092
96.565,-0.596886553583885,0.334012575387625,1.01625462039489,2.3247573675136,7.49923015541042,-1.67020800045295,-2.00947693229034,-0.638922207843743,0.0842649117075126,0.460640462906743,3.73957482501136,-0.366954372221357,-1.31787734654818,-0.866547915401886,1.10244444187979,-0.8036967157633,-0.28186182441679,-0.252915812337247,-1.38252341854106,0.0346683919742702,-0.163309471752564,0.243029015376332,1.31424487383691,-0.188795035090008
96.57,-0.552466809283318,0.386153092139431,1.00964474294154,2.46652073591887,8.19740267974742,-1.69115271862437,-2.0659632953691,-0.748702559598673,0.153735812728502,0.629602601343914,3.73588287741611,-0.421301623262176,-1.17071709672483,-0.912979060534416,1.0982165008235,-0.908858925915756,-0.42679801754575,-0.355569721837855,-1.20845641731872,-0.00804970911415409,-0.0809354537183339,0.195686758321118,1.01211764139336,-0.0943531905582045
96.575,-0.531066453732416,0.336539448950519,0.985659160967341,2.67577501873975,8.82650230221097,-1.70929363917362,-2.17319369791199,-0.747940255626981,0.313962769845412,0.846200857509211,3.76256553300524,-0.537892794978926,-1.08524785719015,-0.974905380681303,1.17063209456484,-0.868921437117389,-0.478753059938855,-0.381055375449084,-1.12357293606935,-0.019221027913069,-0.0351226830849728,0.118021387631602,0.675067553441817,-0.0391019473909133
96.58,-0.582468087250715,0.337627245882097,0.921556967020364,3.024618902237,9.52971074602857,-1.81031576628217,-2.27810664147341,-0.713783723484496,0.538781986423112,0.911173691877059,3.75397300876569,-0.577316304256643,-1.10595749695101,-1.07442941898632,1.06113986860987,-0.657374599659315,-0.53802917133665,-0.455545785526223,-1.11664345805307,-0.0154374303896252,-0.00249772443452771,0.000473904722691846,0.305969227859683,-0.0320630033853094
96.585,-0.581463323657331,0.458196499275687,0.960737632556862,3.37492501747545,10.1332327606079,-1.95184811351312,-2.36086580142005,-0.711828722149401,0.749475724165162,0.950765605321249,3.64022070808117,-0.544165882228352,-1.17315194047334,-1.18056731323267,0.933926222728832,-0.320637456257441,-0.603804244334277,-0.608621381603346,-1.19254503826717,0.00701278108622323,0.0147285821835806,-0.104704024903713,0.186312988647457,-0.0535345140835958
96.59,-0.495230247751607,0.633385651373489,0.972999350262996,3.70161153446969,10.8977206565154,-2.18943693707285,-2.35561799912145,-0.649400374038097,0.960014050582991,1.24546252365237,3.34270081025822,-0.441201094685041,-1.26877321579654,-1.22496440009493,0.839762794606624,-0.0316901745875234,-0.717461650770831,-0.831156007761726,-1.2836805523299,0.0236653672362386,0.0221562068630543,-0.196865653841906,0.210823163531072,-0.0650075149268938
96.595,-0.473034199290666,0.813936177623761,0.978430146448344,3.93007763939282,11.577360739953,-2.64567863400106,-2.31378584693886,-0.568211943726974,1.08497964737126,1.69326968969584,3.03276322925942,-0.539222573680166,-1.39632191751257,-1.15993587075074,0.752199232197205,0.294637969545351,-0.918194331682431,-1.06898500011552,-1.35074472198485,0.0344091718365727,0.0226310163825755,-0.312108824453149,0.278453007540377,-0.0540955584290798
96.6,-0.592061030122742,1.02575406428774,1.04921919548338,3.87882912386872,12.1272825358137,-3.11636524398579,-2.10504362251145,-0.329208187309286,0.896941092930208,2.87732734573537,2.39843577859682,-0.0982559510565037,-1.51858558104523,-1.08022859502936,0.60638433070441,0.903119715193276,-1.27668348167277,-1.21265247923899,-1.38253517327783,0.0474215579535945,0.0277035630526826,-0.417734812382277,0.226526199955832,-0.0120913923290435
96.605,-0.955210672719558,1.02905321095605,0.573911948168329,3.49627536655889,12.8080665664061,-3.7908778590051,-1.94580198701925,-0.163419957851501,0.659299013812375,3.39808487653868,2.20053001156906,-0.0517865410518464,-1.55843238847385,-1.00777655076347,0.542477702661944,1.24705654257049,-1.58966576311436,-1.34984515212383,-1.37264808045212,0.0131552948415374,0.043551204735902,-0.489200762055576,-0.033005100178262,-0.0571690085190106
96.61,-1.62127867676729,0.44340132681921,0.00548237178273153,3.57240226070808,13.3795427006342,-4.62602455850726,-1.67992614822183,0.0600448897261341,0.198174177584047,4.00469795672816,2.04367575080061,-0.0404149386879367,-1.63036335207737,-0.936939725773444,0.406399298855257,1.72710178570545,-1.91532827055016,-1.46240132132816,-1.34534949207336,0.0103537872599098,0.0464818110417714,-0.47238623391292,-0.343483279266068,-0.0861686691855232
96.615,-2.88041702835441,1.00711789704083,1.43304217926059,3.44393521442105,13.0444887868529,-4.97114307459949,-1.42525052832922,0.0729812845864304,-0.470768957178648,3.88651924750888,2.11384530016459,-0.0585997427528017,-1.58133757554688,-0.826931784863294,0.205430975421645,2.19632588072337,-2.17726186179709,-1.61620260707474,-1.32135128149929,-0.0537757356688741,0.0399655826231881,-0.447461374638362,-0.603178724500518,-0.0263840443827348
96.62,-3.57843195998199,2.11136356395339,2.0607878809392,3.85746297732842,11.3546637041014,-4.03360096469707,-1.19430821156753,-0.0277482423718865,-1.08353439119694,3.18235435123487,2.54237376543991,-0.180919758198531,-1.57739745669961,-0.605992580926678,-0.03223293882911,2.72223488211204,-2.4117771613765,-1.8472152793308,-1.29785669292301,-0.181033050966004,0.0726991953534993,-0.362232770185967,-0.81225181513296,-0.0844124186041198
96.625,-3.6388590858154,3.00221403447197,1.77768510453832,4.18800483608914,9.56203371793761,-3.13621011797694,-0.965619492499039,0.0282259133141653,-1.47644847833653,2.21674045043276,3.31732442510461,-0.313240473464027,-1.63858563942794,-0.409680125356526,-0.304597922387749,3.59732912857677,-2.68148258281713,-1.86212229907472,-1.22439126065681,-0.228253722102179,0.0172025193244866,-0.282253196953643,-0.806662993262571,-0.147546741012388
96.63,-2.95198871093008,2.70697066408859,1.54986016233219,3.47071854481655,7.9793243044375,-2.43369151214465,-0.985563311921337,0.133336817301829,-1.13433469069415,1.46549703739537,4.05635479711104,-0.387965273701075,-1.53382539535203,-0.325206060472596,-0.392706683115521,4.16023662496946,-2.89642478467064,-1.81120044383951,-1.217397644528,-0.283151077101173,0.0187858033050705,-0.295957929394804,-0.618928296578354,-0.0140428206683288
96.635,-2.12483327124909,2.23999905268214,1.67306431110875,2.23450141008718,6.7074041294693,-2.59928160800977,-1.07966559567725,0.236299309685317,-0.880223769774759,1.79146904907664,4.02591542108239,-0.460805946244587,-1.49469225250104,-0.180521089337064,-0.41186126197897,4.6126629515346,-3.04024554571559,-1.81391839486048,-1.17179991760765,-0.344385241946756,0.0528531391017318,-0.311812317601733,-0.476811571662832,-0.0155751196533126
96.64,-1.68472978879887,2.02539255387116,1.67121622281699,0.830576530724545,5.48851436836191,-2.59850392506129,-1.19008519550774,0.626795943198124,-0.787677361273434,2.59461377251404,3.66128483899645,-0.616860272560907,-1.47275024449728,-0.054513559352826,-0.427015945319939,4.88780704702782,-2.99461232584017,-1.75565595785775,-1.12711531551777,-0.376082770836353,0.0835847096432968,-0.320057505106282,-0.316151614917315,-0.0150315736732355
96.645,-1.50363411602206,1.78744645852956,1.90534407668331,0.0927252094499102,4.61791238765524,-2.12024241532847,-1.36147812513323,1.16842630953902,-0.672132307186368,2.63913584247168,3.22398149259555,-0.752704049386149,-1.43000300418503,0.0334254940249504,-0.42948867208933,4.87961246084504,-2.7600234284732,-1.60039346386745,-1.13890851973407,-0.40302688027459,0.134544985284568,-0.273618027869747,-0.287711370808581,-0.079048299801308
96.65,-1.51976509207965,1.25608851636677,3.16494159823706,-0.2275437594228,3.75508001662032,-1.44500447345045,-1.4850398035237,1.46044481292689,-0.537213672926751,1.74187155716276,2.75976297393688,-0.735012858913465,-1.63276993690765,0.0901961632917858,-0.306363517935239,4.7225290435596,-2.35199956943879,-1.34610214810417,-1.07399261315147,-0.390533438680528,0.163927750968674,-0.20604823082367,-0.428425821726741,-0.172943622449938
96.655,-1.49882340288116,0.78744934860011,3.32692793371268,-0.513078972982935,1.62461137771984,-0.742055764177559,-1.4415183294744,1.30166164821215,-0.362427874663002,0.336556567392237,2.22305882541348,-0.66144978107702,-1.82948236279648,0.160470697964496,-0.213148564307489,4.41133905805417,-1.87736301223512,-0.767575867104035,-0.983525969135514,-0.345958746629382,0.170121248278777,0.000763236711942477,-0.501339209306981,-0.376606449429741
96.66,-1.25518003408595,0.516035696465089,2.59596989590872,-0.297871171066011,0.669638782127609,-0.485170157808447,-1.29578748499621,0.810580660039779,-0.319568358249189,-1.22286828055618,1.6641355736113,-0.58720687376569,-1.86959672841086,0.27873149838713,-0.161982080690567,4.06871618645527,-1.28985339165494,-0.0867315232593503,-1.01970405451381,-0.281895475237892,0.189508941215136,-0.0394784103886163,-0.463325655265799,-0.121439524868061
96.665,-1.28639361782448,0.650340393136631,2.74359563030215,0.120184612749528,-0.0277436696212187,-0.318358581941933,-1.18273904644209,0.427915853030644,-0.362659569805406,-2.04616572793276,1.34379447949757,-0.528481046885409,-1.86686918960735,0.498496747607169,-0.123080789690321,3.18826322227649,-0.365640137825793,0.498472462062604,-1.109321697424,-0.295981159848816,0.203239029645367,-0.0594404179627413,-0.520478539934091,-0.0783455483942929
96.67,-1.01340652119278,0.89473662486888,2.42425184422353,0.399816033189173,-1.1702721161346,-0.211872032281881,-1.10367930677228,0.267997042344718,-0.4416336256655,-2.38836156969702,1.07015001824335,-0.407317817227228,-1.71158474402199,0.740835586786844,-0.152315074760631,2.05641018902657,0.524841490684829,0.858621945954429,-1.19397967992882,-0.231532815354646,0.233852780615899,-0.0516870108297387,-0.674127859058709,-0.110615452578443
96.675,-0.302682824300238,1.05191418316399,1.94851521480862,0.258955582800481,-2.11445531581753,-0.442879239046855,-1.0686355249264,0.317414330671082,-0.411541919997159,-2.20494761731183,0.710668030565993,-0.283998412107113,-1.8068104792611,0.961704872082327,-0.07807619415691,0.617100616573369,1.28207974261737,1.10699339429237,-1.22875840584637,-0.193106630699728,0.249954207684787,-0.0989953821468346,-0.992637551567296,-0.0271347006525128
96.68,0.131467881263858,0.849334306976719,1.61801444754029,0.149659402712577,-2.83767166485848,-0.837750005010921,-1.03595654352531,0.429646542772269,-0.182079548970091,-1.82707797074534,0.182407426748043,-0.172189036590955,-1.72928881333242,0.949632139392757,-0.0660852934824547,-0.198647627574824,1.74463487382206,1.28700063935999,-1.25501769670441,-0.16719600617597,0.286598306149945,-0.0630694259290199,-1.43943188569379,-0.0648758372714138
96.685,0.227766054390846,0.539291929799647,1.36832470045809,0.154807797217639,-3.42461625819737,-1.1484482981749,-1.00655897812776,0.494642289995019,0.0242630144823598,-1.55321193560488,-0.341460882473608,-0.121876326302843,-1.83395949455167,0.804986586421394,-0.135456976410734,-1.60648243055955,1.97073288536101,1.27144967322515,-1.22268941919635,-0.106132291006519,0.295754653435554,-0.0119730729513804,-1.96793525150238,-0.120773240377373
96.69,0.0207035539863503,0.423283241463496,1.15079921736439,0.190262794989831,-3.7117955104662,-1.3656640759343,-0.905350715858657,0.506269576129158,0.0631544302578134,-1.43102842000422,-0.780917432088842,-0.0511550626526345,-1.87622951426911,0.60908176803103,-0.269878189472353,-2.63956149908283,2.07655897831502,1.22437220166499,-1.19288210152623,-0.0382072967756878,0.289755726510751,0.0361755782949144,-2.299654789811,-0.112710044207348
96.695,-0.173944947879083,0.53573373607542,1.08599839240275,0.179114851011577,-3.97207383198163,-1.53060909743051,-0.783620960837883,0.421841427692976,-0.00595256481498284,-1.48043341556252,-0.881597937887598,0.0753940913712508,-1.89584932779294,0.369852704715509,-0.41943385938776,-3.15961454331504,2.08631097968558,1.22716681389784,-1.17500627113146,0.0214235811720906,0.288446666711615,0.0581452372766563,-2.47579826381323,-0.0105325390312
96.7,-0.27094499512587,0.634945017285601,1.02172518951024,0.102750426174499,-4.24817517906432,-1.52896933167912,-0.65386188856834,0.254514792676844,-0.0605351067586027,-1.49094438787621,-0.888702349430196,0.213851258908393,-1.92569126700761,0.147192616731102,-0.526545758637627,-3.48916695199411,2.1136948794347,1.07840250293178,-1.17338180434862,0.0778332913558472,0.285584654497285,0.130560351236696,-2.48867515123337,0.128562053559677
96.705,-0.25275394902824,0.633387261419634,0.948898283720535,0.0185724906248898,-4.5571916572395,-1.35087564820922,-0.55421684830096,-0.00491199327483945,-0.132098816356673,-1.31165575396106,-0.964888658994774,0.317839146390329,-2.00730538701569,-0.0653151789029817,-0.579765147437197,-3.77745989608798,1.98337628742206,0.769313148043655,-1.19374401969279,0.0925153930642721,0.271214627958038,0.212372445071155,-2.37163447924121,0.254379746324441
96.71,-0.203423875393167,0.588411737230725,0.895439976664999,0.0415190462476302,-4.79224752147736,-1.05354072672971,-0.497949196507181,-0.222664514459288,-0.193768923810702,-0.975799216842162,-1.10796360984125,0.390824121629781,-2.10342548565764,-0.353247235181551,-0.622018188144302,-3.537499694476,1.46578858274573,0.0481398342739034,-1.26046970790362,0.119542216769377,0.260875388292653,0.355712983903416,-2.11598339983887,0.402930155762328
96.715,-0.126351096045227,0.5935261563152,0.808394689111393,0.123340072489799,-5.0484052143725,-0.838279104465812,-0.465282724065182,-0.391265401264572,-0.192201308888657,-0.486887713306709,-1.36513589294776,0.39052052962621,-1.92911934627628,-0.402834799034437,-0.677351380121559,-3.2618401593564,1.10958468269621,-0.593889109064664,-1.27349802151857,0.132714413800217,0.244860882597589,0.467058205259122,-1.87300223252165,0.501880493788547
96.72,-0.0729110295466079,0.624158204644951,0.730033273857452,0.165551900863647,-5.222476926184,-0.63173199603011,-0.468024872585147,-0.448930932451895,-0.153997236359243,-0.160607686957791,-1.70605586572988,0.289134215534002,-1.8373277597996,-0.178003983414136,-0.64595343781823,-2.93196351195849,0.506541403088048,-0.945481946123016,-1.25092756739105,0.110430356477552,0.203897374302446,0.510044124301508,-1.51691533167598,0.55672792693681
96.725,-0.024088162311332,0.657674357392973,0.607505460128051,0.140789922364763,-5.36442561371081,-0.398021958616875,-0.465444312506639,-0.45725365239449,-0.114443795449856,0.310038734713,-2.05695386038147,0.242596704564528,-1.9136159496811,-0.0460490678467328,-0.743654294481694,-2.45578476096617,-0.398621709456166,-0.934044463305454,-1.2608716055897,0.0820377128667533,0.161648563416036,0.490438148258914,-1.14051354122304,0.559700289393008
96.73,0.00978947669598119,0.666121389545739,0.49795529397166,0.0274132019313882,-5.42845980512189,-0.157601308295353,-0.432486974001216,-0.398385015499235,-0.0942651843347325,0.823438185757319,-2.34909634751474,0.224284874234073,-2.03003117424853,-0.145243135608191,-0.752881893294787,-1.98947554620103,-1.01656591274907,-0.839738244035438,-1.26143665835444,0.0659465146250053,0.140096248931502,0.374278602348216,-0.712522558206865,0.529037164464604
96.735,0.0355309505370623,0.645287806700597,0.40536227307187,-0.113423604547487,-5.44018473178782,0.0598678457768462,-0.387033480359006,-0.297646023115451,-0.0819642572085007,1.23978247340379,-2.6285510934029,0.207472763342239,-2.00871753755831,-0.113655388132294,-0.68226551689702,-1.61141577961717,-1.73957572299209,-0.713435804861087,-1.25535612322088,0.0648282762820039,0.129054732676618,0.237369996241285,-0.376140761580468,0.488606570761261
96.74,0.0478491383533003,0.607127544661813,0.375017847189486,-0.22487146299271,-5.35024152479054,0.280552207168327,-0.343918418706772,-0.221701428978144,-0.0808534459904033,1.57264612777814,-2.8491295601782,0.219720642431627,-1.8040801915947,-0.0525458634668897,-0.785497111560395,-1.32779774718843,-2.60288256126157,-0.388228346521464,-1.24619701236569,0.0647735229678898,0.127474459190348,0.033251439563396,-0.0822895540231102,0.463073090275885
96.745,0.034200086016121,0.584656860933464,0.389304124919142,-0.274244208992319,-5.29456114958829,0.452359776360511,-0.278256995680588,-0.137402943266562,-0.109558329434295,1.9609181790151,-2.99596666581577,0.285043686215663,-1.60269423351224,0.00479178226021933,-0.908285015970834,-1.04670549120845,-2.96505933155622,-0.273746715094965,-1.21243094178457,0.0561830194061848,0.135241903027081,-0.156039101580598,0.0826355175441594,0.44414930188306
96.75,0.00788555781404179,0.555978370462857,0.379980539380004,-0.29523995752941,-5.24858482302061,0.687208513895485,-0.25059951334943,-0.086458523301836,-0.137860748148753,2.2616175540963,-3.09033081520804,0.346673475022941,-1.31019948148432,0.076026568706681,-0.987832949798876,-0.814296390444886,-3.11811926291456,-0.263156581898387,-1.16682757305975,0.0595580030315725,0.15028084610532,-0.313121270818015,0.128600605921945,0.442198390715995
96.755,-0.0455388030295639,0.553008320063394,0.384565316632819,-0.285340048955741,-5.20695770912808,0.950267659328659,-0.228058264254454,-0.0355712926594253,-0.164005220007892,2.52620237994775,-3.29633607395337,0.384750246038835,-1.0785729530318,0.0809023023150008,-0.995548157903588,-0.717902118223622,-3.06389740212138,-0.22901694892303,-1.11724472381171,0.0585618377643425,0.170233499624456,-0.470661465479653,0.100077491879491,0.448862694303902
96.76,-0.129255015329156,0.576330100373838,0.378057686653832,-0.296433546572099,-5.1952126022266,1.2280700169166,-0.186868856275305,0.00232706232148711,-0.183071686721995,2.67098972274698,-3.4616537899257,0.405207314635233,-0.949561468992854,0.122704954207279,-0.967434488658377,-0.602213687700947,-2.83713363123675,-0.193059535812276,-1.05282149055792,0.0641967477140113,0.177918960459004,-0.593113072606419,-0.0194421644336648,0.500466285112141
96.765,-0.194584909678184,0.579722351033822,0.352492139765672,-0.325687798424638,-5.18569569232657,1.46042889819879,-0.175094918636749,0.033245068757388,-0.179476509323255,2.6782882606191,-3.65023241996767,0.381084317142801,-0.916889614181804,0.153501024859004,-0.963842545307754,-0.55345796674236,-2.66709646509927,-0.159958744319744,-0.989224402275587,0.0628648881809185,0.176342757519651,-0.675109717302552,-0.104498781264004,0.556625759323798
96.77,-0.294975286847124,0.527732966075673,0.334510522112052,-0.360855149254708,-5.14521781970428,1.75445826860214,-0.187562769376924,0.0519018430012707,-0.174510341288217,2.6149733742049,-3.87396926536398,0.336093148464486,-0.828151363873735,0.183182571499751,-0.979979096189066,-0.434241812937093,-2.56637062793111,-0.182786895334709,-0.916884562666086,0.0411628106449028,0.162253476761011,-0.754899785035565,-0.171927723086454,0.61363830269178
96.775,-0.36128757631787,0.472108886304822,0.335743198449678,-0.394286066995468,-5.09860218432657,2.01395500064413,-0.201607149460642,0.073833556190445,-0.194393383194058,2.4338335539976,-4.11244486797874,0.266212825615081,-0.793398676567747,0.219229828940733,-0.996700139905253,-0.297446601002668,-2.54099416627189,-0.198307410659798,-0.854772442304537,0.015979005008918,0.153884789124436,-0.781863114296493,-0.176373087390941,0.640172045542075
96.78,-0.381391821497841,0.428498113333272,0.330624708903501,-0.430429734184821,-5.05026195901977,2.26130558363174,-0.227912760216218,0.0941818904765566,-0.231864472203106,2.1581490286795,-4.3050105387246,0.198969459376855,-0.754682016908204,0.241527976906295,-1.01014379858453,-0.219099658022906,-2.58452561371158,-0.180893343593239,-0.780781151693675,-0.00619351491966045,0.147555296508633,-0.792520305248331,-0.0905959754387628,0.667129616830968
96.785,-0.385868828579834,0.392912181356146,0.326535800180529,-0.467857387534719,-5.00518404752088,2.43045389209065,-0.272864875768511,0.101675036110951,-0.293894090783405,1.79528604394254,-4.48606141050692,0.140433333678421,-0.698829133890388,0.282248665244067,-1.01346027255553,-0.209596003070135,-2.6213929624665,-0.14513337515769,-0.725233695865524,-0.0306061917981045,0.150993671021818,-0.783186700725951,0.052477504389481,0.698255130858655
96.79,-0.436718770386884,0.334460153770188,0.354685318950066,-0.496375540296975,-4.95597233604124,2.58327718596556,-0.318047964541475,0.0962805121176408,-0.338209723822885,1.51705997243083,-4.62251640463575,0.118331435132477,-0.648694785292177,0.341898047347784,-1.0081335840127,-0.26520151359936,-2.62435580102326,-0.100853778255962,-0.696908601065088,-0.0508226977193075,0.164595294816621,-0.751964822923095,0.234241336104983,0.728928817586388
96.795,-0.518378281356112,0.284843972829203,0.392078803527029,-0.509890961598493,-4.91269440526861,2.67729833257883,-0.360997066430788,0.0791083210276189,-0.345955886214623,1.31437082105283,-4.74476913175202,0.132805268500119,-0.583960413758225,0.401001175793382,-1.01078094556147,-0.325993952862208,-2.59083992211169,-0.0762313540908445,-0.688939380781249,-0.0778109360152846,0.193280316704029,-0.722533122774592,0.379492971396116,0.760312050842546
96.8,-0.610641966076984,0.261568672458845,0.440169728617219,-0.536080734159004,-4.91858789693523,2.70068338389507,-0.421745721157703,0.0548465201732385,-0.363769869729821,1.02644964719311,-4.93231670847067,0.1683555661991,-0.533152307145974,0.443339138714271,-1.01248678491197,-0.447292849215823,-2.51070342438467,-0.0394983249223796,-0.701336305256615,-0.10399299843499,0.21981788048984,-0.689899943511517,0.49600787916296,0.771340909440254
96.805,-0.676397919884753,0.307702445272587,0.477616411526286,-0.546210690855183,-4.96872391276829,2.66798204363194,-0.46070542553264,0.0433564606730309,-0.39505952402222,0.848054403833149,-5.13142787309409,0.200929241356754,-0.502692055135071,0.454818712407496,-1.00878439002542,-0.58240572748003,-2.44411012422552,0.00211633869203127,-0.719344935038392,-0.139561546050909,0.254433179284934,-0.681413352489471,0.577525438044715,0.766698061409586
96.81,-0.755888157084101,0.418136062237744,0.498010015394435,-0.586209367561879,-5.0573735393286,2.60490691591052,-0.496916101209262,0.0398130428178658,-0.434016636709901,0.745305819731555,-5.3161011506197,0.25072904672556,-0.468758307794211,0.458220930971151,-1.01531822539506,-0.665132050827035,-2.35955977497114,0.0628977800378914,-0.740364735050432,-0.179119797669311,0.289575113303097,-0.693119549774468,0.588259937753939,0.735251717439949
96.815,-0.85335981789694,0.551115185404007,0.515684603979276,-0.66378178020394,-5.17070713605603,2.54597762331896,-0.525915396554116,0.0502600356259924,-0.489458212568617,0.705323171130781,-5.46233308214133,0.319971063752167,-0.443400778201211,0.420420560853324,-1.00363503650488,-0.694459606260285,-2.28214276735741,0.13812203163897,-0.755494817008135,-0.213577710544818,0.325356946423712,-0.730926045332583,0.545821612959522,0.675273196595011
96.82,-0.955608260644578,0.69516509310429,0.527238105429307,-0.777393070321096,-5.30383153779662,2.49364734055514,-0.550163822002326,0.068982566890975,-0.548394257097686,0.721691124850896,-5.52535338617263,0.371818764507903,-0.425631267892621,0.32671610689122,-0.984117644658131,-0.691418680184934,-2.20369157379998,0.236368592307141,-0.753293093375905,-0.245439447474208,0.349429500080121,-0.779780264462414,0.421386951221839,0.565756157743039
96.825,-1.0969911669507,0.876282258611401,0.528517488453217,-0.956317314511386,-5.48288915472274,2.47465469756551,-0.594295602617664,0.0998741341963611,-0.599126641636257,0.755278371990476,-5.55539601112832,0.428294653434088,-0.437616134482309,0.258052829598212,-0.97884041343673,-0.65785365839552,-2.173830803735,0.335816013591898,-0.740654152057437,-0.26462853613846,0.36468566212994,-0.853094926177353,0.236325325449185,0.404850774853773
96.83,-1.19704679762638,0.957031567204917,0.50694869164838,-1.12607504303774,-5.58026844362236,2.52790065778146,-0.652404600020237,0.125647225016692,-0.649681103241063,0.806394029981118,-5.58062121659143,0.487701720135567,-0.436761496295521,0.164753378323867,-0.964280909295166,-0.649537498483835,-2.17030765671541,0.433750400364582,-0.710470770257613,-0.262278831546153,0.362722937346593,-0.9020787467262,0.0813668415279904,0.263420159872527
96.835,-1.30569575633738,0.95223394300007,0.483393134782227,-1.26806169794592,-5.62883037518566,2.64508326234169,-0.724262968614748,0.152575679426101,-0.677676354328766,0.817333992083643,-5.61480754182922,0.532345765839924,-0.433561350977306,0.0928613728930229,-0.94748003343445,-0.71664738526994,-2.15659120095771,0.522786407509097,-0.678769502963288,-0.245054881418168,0.352951187092142,-0.954219337478115,-0.0659351456652355,0.125670658135899
96.84,-1.39526205858479,0.915838986636973,0.476882265374225,-1.33185767136193,-5.64876061833323,2.76403418840829,-0.831794502926311,0.179338950325981,-0.67637956652201,0.774247407433006,-5.66040103310278,0.572348637373312,-0.40713194269849,0.0312000047465562,-0.887759891315589,-0.919424439139881,-2.11640966554389,0.589125842976508,-0.65380398115637,-0.200079992455079,0.339968253486122,-0.997691462401431,-0.1782056951556,0.0517747150255198
96.845,-1.44596995586293,0.93563862409554,0.432658723011282,-1.33002865215946,-5.67219437051118,2.84114896908852,-0.917639254372344,0.208610022256525,-0.672776692045083,0.716981415372009,-5.66936787944606,0.613370011497352,-0.387971321477406,0.0255338965486672,-0.874075159550299,-1.12415444895726,-2.03592755875744,0.635674837304431,-0.618218455623611,-0.164545307258594,0.324248329734916,-1.02260207588704,-0.266282782421491,0.0250231570635546
96.85,-1.49804685773966,1.03712561362395,0.330644889621102,-1.31778609099567,-5.64945410930913,2.91656284605259,-1.04008862679102,0.257912352008202,-0.673152566658896,0.424966948600124,-5.73796620934528,0.678932297104972,-0.367452740923561,0.0374292472524667,-0.82673869285387,-1.35911798408914,-1.89876960816386,0.705910522528034,-0.589200802971964,-0.13805488196797,0.305449082171607,-1.02960573128238,-0.314356747740714,0.0137669900994345
96.855,-1.5579833316985,1.12985795595369,0.251365746234515,-1.36430792499722,-5.56728212056112,2.99720132585163,-1.12685733436272,0.295465993638825,-0.700088450797059,0.0492025092942936,-5.77470833994118,0.754204677124099,-0.360254129215882,0.0259216270833347,-0.798996585027213,-1.53430399477252,-1.77601400246671,0.75468531038804,-0.566842881402198,-0.106743425265842,0.285257348563603,-1.01878853603403,-0.307273789591785,0.0206324106266803
96.86,-1.63887696428484,1.2340990365847,0.171059038924464,-1.48800776849626,-5.4114272033337,3.12083409985255,-1.18806048939312,0.327687226187758,-0.729206474142176,-0.348358348625683,-5.79596992063861,0.825797827724162,-0.357854867841544,0.000950491666705183,-0.794110970762863,-1.68133309577384,-1.65639427587675,0.787495191039451,-0.552403557517724,-0.0801931154763313,0.263675379226626,-1.00776703633705,-0.236253182952363,0.0412953587782802
96.865,-1.70738577914589,1.36037136767399,0.119227952284663,-1.6790708177752,-5.19947035663534,3.28241560117346,-1.23187354395185,0.332754025338076,-0.752049959878881,-0.777371749757602,-5.7947916244174,0.87861412987816,-0.354759112780149,-0.0423756812389513,-0.794560155262561,-1.83759400087558,-1.52885374091556,0.814830799911602,-0.553178989087011,-0.0666398150747134,0.256779561129298,-0.993480792420784,-0.143821633484662,0.0618866477646285
96.87,-1.7700285987026,1.48088025409863,0.0834394722839494,-1.89262991872889,-4.97755590448251,3.48569125211783,-1.27968379538497,0.32311828630952,-0.795232387041322,-1.44108597556896,-5.7837624311166,0.917583357379141,-0.35534436852087,-0.115775662394296,-0.798131955565036,-2.01593868966608,-1.4068723793112,0.813483969156506,-0.561888297216747,-0.054722074997586,0.25068191259402,-0.964931207551505,-0.0815701198301778,0.0657589882612228
96.875,-1.84127606121054,1.54556701189453,0.0760092826408921,-2.13986623948895,-4.70760038555752,3.74948508240395,-1.30279700634644,0.296015980150979,-0.846826646273786,-2.06765748739634,-5.8139852110423,0.917665717472513,-0.34174432445277,-0.205854774966259,-0.77891725579244,-2.24284659401845,-1.28272291706887,0.770226337700205,-0.582620352571595,-0.0427128050083026,0.265747596577575,-0.929719830356764,-0.0908933456841828,0.0485361926632346
96.88,-1.89489054531749,1.58611653935454,0.0907261126536505,-2.41493333886845,-4.39040376221338,4.08748683873979,-1.32573287425972,0.245418609886315,-0.899878097096888,-2.7706661478277,-5.82621895709403,0.896323146967692,-0.333244263706171,-0.272186809207783,-0.747840321263676,-2.33687097978722,-1.20396702437383,0.720791124599168,-0.607203358264078,-0.0346207464288923,0.276702984478611,-0.886053974846512,-0.174504858546624,0.0207704354070759
96.885,-1.94296283217088,1.55542342264483,0.117400592188267,-2.63178325575956,-4.07514464531312,4.47713497569036,-1.35938455448275,0.173802185861026,-0.953448373059833,-3.54630691300544,-5.84799810139395,0.834274221182622,-0.328462170424299,-0.373664250039985,-0.723295762873722,-2.4415889741809,-1.08577360361398,0.66095710256432,-0.638148267471752,-0.0200634691093599,0.284517702464994,-0.833055210065917,-0.331050576231442,-0.0210793106356182
96.89,-1.97411619748296,1.49949160304708,0.142697810580978,-2.75309396256119,-3.78042229524658,4.83386365375254,-1.4086208526397,0.0971712213251913,-0.974835355748081,-4.20144810716336,-5.88121512470034,0.74006338566375,-0.305144157141364,-0.435005308665712,-0.667223116828588,-2.56089055353082,-0.949745479306042,0.581705291242439,-0.671901971048426,0.0079911400272926,0.2869984659925,-0.779020142060826,-0.522690430496371,-0.0577126513629553
96.895,-1.98137579245353,1.43182448229631,0.154863882547006,-2.8225624710888,-3.52414438147827,5.14794650425515,-1.4625298537527,0.0278288954441326,-0.976556685636791,-4.72772224050201,-5.89653339413414,0.622696776550785,-0.301221479335211,-0.451805380212668,-0.556270616888483,-2.65089880864634,-0.812521931830222,0.479097035828406,-0.709892140607669,0.0375775502100893,0.28948243222367,-0.761334469369539,-0.691776829620023,-0.0455911341818763
96.9,-1.98071796450521,1.31716008009803,0.150156143912865,-2.84601084411402,-3.17808851148026,5.52259157869816,-1.55277159603187,-0.040259128293835,-0.986009569621175,-5.23441351553526,-5.91498795922262,0.439548996129814,-0.307400892680281,-0.438996147715815,-0.491225717610431,-2.78682829594329,-0.705398599105396,0.377590402847494,-0.750833079747476,0.0794625368717712,0.279124015713852,-0.793082439962298,-0.819770822424963,0.0608384442989034
96.905,-1.96700224365756,1.26720278157291,0.144126954446793,-2.79948180951207,-2.85269736189746,5.79789242903991,-1.61171362432143,-0.0914834850807385,-0.961515183166597,-5.51760442855574,-5.89678155489403,0.296231326132529,-0.314732354896324,-0.382061826214046,-0.393420924261065,-2.94418120733267,-0.57505128615334,0.282604268315558,-0.779405566216701,0.105733232909748,0.27451803382627,-0.868368725236687,-0.874933949337967,0.186053666519805
96.91,-1.99997416874603,1.2228838100474,0.120764982765354,-2.79915087752688,-2.57199857013888,5.97032590659639,-1.6628127651666,-0.140411520134614,-0.949924435913507,-5.70845533194944,-5.82500607569142,0.149044155804507,-0.366281651399247,-0.308555928289426,-0.315173545012003,-3.04431033022257,-0.475226208041746,0.221260332219773,-0.820490985440305,0.100517805867047,0.261767178906521,-0.989100255847754,-0.886947640133554,0.317037779275527
96.915,-2.02422473621788,1.19099157248003,0.126922412778763,-2.82718257230494,-2.25896812070377,6.13113402358095,-1.68446804026945,-0.152294706240132,-0.951479940294118,-5.62239336317742,-5.70904699515337,0.0519611096229264,-0.413244952893265,-0.269316563228568,-0.263181271331202,-3.13444704030865,-0.421354121063789,0.194750860155869,-0.860714356127207,0.0834202283451031,0.258226531275739,-1.10411813182725,-0.895303784031549,0.442613193224876
96.92,-2.05155618614996,1.1532910679787,0.138267114944084,-2.85766412446324,-1.99384336608421,6.22489236571609,-1.66909267455888,-0.120436359245656,-0.951738640891744,-5.3843639145277,-5.57248644793099,-0.00885782035026886,-0.476170419712542,-0.239682768623835,-0.190227496228078,-3.26776596240891,-0.387459483862709,0.216243563094032,-0.8853266686004,0.0834034058937802,0.240344539728699,-1.23518603757418,-0.84889819651106,0.559611132676885
96.925,-2.09731479432359,1.09697131510931,0.155663895524688,-2.88077663955358,-1.78192244096543,6.28060554198228,-1.6210992201911,-0.0557863249615986,-0.95887391268097,-5.05001018656271,-5.42533230929165,-0.0395570053718936,-0.548703506960859,-0.203428010895757,-0.114944877315323,-3.35660044373812,-0.399814311388627,0.209535468937845,-0.901757134136378,0.0778865236901127,0.22255928271455,-1.36562877766872,-0.736947847598568,0.683814600476982
96.93,-2.13359377069963,1.03582278541123,0.164847994381793,-2.90526919098381,-1.5806726176055,6.28000622840774,-1.55684192835981,0.0113531084268769,-0.96693489097076,-4.73879889617336,-5.28462913247438,-0.0586864865992239,-0.635491540566764,-0.182289739948031,-0.073897645222406,-3.42107449467678,-0.415722210302681,0.184983767465,-0.921453051643344,0.0729878156952673,0.214222864981644,-1.51199041864997,-0.563484264742866,0.84234126541526
96.935,-2.16639435039967,0.983753430079846,0.166108532789527,-2.91063480565815,-1.47087993610663,6.23180724238638,-1.49254237667325,0.105400171228073,-0.974176523561013,-4.40974563689287,-5.08957342669665,-0.0858438163130557,-0.732903118797269,-0.184909702349748,-0.0470949177042271,-3.48730182897369,-0.393100852078542,0.174745201209091,-0.925755346626232,0.0593992364693713,0.212874824485332,-1.63091047019509,-0.42099061671525,0.967778073998652
96.94,-2.17911102316171,0.95191355390181,0.117203883701564,-2.87363342396508,-1.36333656525038,6.09526876436963,-1.46050079951808,0.18084825960758,-0.980273800559057,-4.15409090691761,-4.94663983103656,-0.130980035067985,-0.831411610796947,-0.195209033807896,-0.0246306334348479,-3.57249885201148,-0.352847316640608,0.158972947277732,-0.923324653085248,0.0414789015806423,0.211109508776031,-1.73566283590121,-0.233057738130582,1.12607764514714
96.945,-2.174642165823,0.913172032210651,0.0549463363481586,-2.85695894339803,-1.26483678088521,5.92531083440875,-1.4561193072361,0.262881819207327,-0.998680874580856,-3.89968977705544,-4.7440281283471,-0.185910298800165,-0.958693680907813,-0.211970530210918,-0.0200451601005175,-3.64070988567803,-0.341427944008659,0.147531776405339,-0.922024922370909,0.0239959108893263,0.224031666194891,-1.79807482475924,-0.0948021743739454,1.24357051595711
96.95,-2.18242262451664,0.867319815221832,0.0321055192762481,-2.86296915861277,-1.18175551964685,5.68871501712994,-1.46516006889,0.341480585849332,-1.02235894765481,-3.73098627316724,-4.54090495046418,-0.214306629919537,-1.06021757144236,-0.255285070371198,-0.030039660776441,-3.66543012598121,-0.33153986472447,0.146777395808937,-0.921942328799476,-0.00264636218864315,0.243955744845361,-1.82638918049329,0.0283451913875995,1.35469277069026
96.955,-2.16921241356086,0.822582091369371,0.00277538138440243,-2.85235560664484,-1.17870639896496,5.36527913895855,-1.47179979673985,0.414372664303916,-1.04520604690143,-3.62434614111814,-4.26392269612378,-0.183895834198438,-1.13670260157765,-0.279140146214536,-0.0346487317480273,-3.72938892492279,-0.330878215989255,0.160430727278675,-0.912043046337356,-0.0267514966276298,0.267240895407387,-1.81562576988547,0.115936344508389,1.42484337018047
96.96,-2.12326885670327,0.762393367011128,-0.0751522165554827,-2.82848227559801,-1.19631362468082,5.08118326436018,-1.46092896499072,0.459127096258089,-1.05596350634772,-3.59789189351997,-4.07315259902173,-0.12520613089566,-1.21916133201962,-0.420196000226706,-0.0142369799771106,-3.76216646006378,-0.331853896379471,0.184380555135814,-0.906651098965416,-0.0466175562744869,0.283722028235419,-1.8005652948479,0.16991705437289,1.46328280172378
96.965,-2.02764591339698,0.661770003731552,-0.154526583457264,-2.76236454933781,-1.1781125884144,4.72832190092585,-1.43463616942239,0.472212955136003,-1.06067976633942,-3.69561785060001,-3.84069320013943,0.00305052084482843,-1.3173501993519,-0.574626196660598,0.0718216536620064,-3.96294205494893,-0.26754432544604,0.268808687134087,-0.903856848049636,-0.083633336953913,0.317157500166946,-1.75862911917582,0.221653611640881,1.49593831232083
96.97,-1.93142661350248,0.540287601729097,-0.229150998645572,-2.60636073217387,-1.09844598835783,4.37483819831893,-1.40586739629997,0.450182110865295,-1.08241208040999,-3.84180859055494,-3.67468080218461,0.109154291074189,-1.3565088088423,-0.763439419111777,0.274095879061948,-4.29495885033883,-0.156731128866067,0.29640966441815,-0.904560684658698,-0.116888748718198,0.343355219012865,-1.71588239209128,0.253082461316703,1.48289881372123
96.975,-1.90160470356301,0.45915410510876,-0.275616893376696,-2.42931032698426,-0.997329396554207,4.09798258038443,-1.35130552003204,0.397300608250931,-1.11237161568769,-4.02499920750165,-3.48865432339463,0.221295413712488,-1.46029511754988,-0.988917666563834,0.666872347500282,-4.82746710420585,-0.152525803100726,0.324966871453038,-0.906144692383577,-0.141384189442544,0.367603234287923,-1.66678403168854,0.261863201856613,1.45428890178766
96.98,-1.90007930286617,0.39914514863886,-0.310515324623926,-2.15837267311332,-0.851368745912822,3.74905721828481,-1.29763226400473,0.326445393963567,-1.14783619294763,-4.17790609877997,-3.29133748084631,0.304097267301965,-1.57655411651498,-1.1816085516842,1.23004833836472,-5.60688096093988,-0.704967345955487,0.319706986395496,-0.915413810441991,-0.16729272565417,0.374869233503128,-1.61367331505854,0.25552286901263,1.40399601006672
96.985,-1.92901050283746,0.371196150050681,-0.336654743727902,-1.9252272267959,-0.742880425326062,3.48564165671324,-1.25020833500736,0.261674483636799,-1.19500401055092,-4.25438938473519,-3.08887398885839,0.361576212190135,-1.56455760744534,-1.12021746169752,1.22280954099371,-6.07821433746706,-1.58760959254416,0.446619962451951,-0.913354165456941,-0.186674434232127,0.382006748529416,-1.55526424414961,0.242918199987322,1.34666209643989
96.99,-1.9870654710871,0.342830549836399,-0.377550408624224,-1.60880076481838,-0.624274668066776,3.18984708669709,-1.16999913911854,0.200933116453477,-1.23579686587316,-4.27760680593708,-2.89603350971065,0.398136855144041,-1.32641455614814,-0.934793084031274,0.817297290251734,-6.36490717418868,-1.82825597734279,0.629592276596059,-0.910084125390602,-0.208813634300665,0.36798443573346,-1.47807037212251,0.239287616425484,1.25967895809465
96.995,-2.06218148014511,0.307322855953163,-0.410376836714561,-1.41223839470979,-0.5286803168153,3.03114094336703,-1.0568805287972,0.123256284547167,-1.29670622514963,-4.18756446947404,-2.65741713906675,0.450828052308427,-1.12242355897925,-0.837896137058774,0.835855737112479,-6.2552597726039,-1.45313497972268,0.567112090320804,-0.920653312965565,-0.225470621153244,0.361063413937853,-1.40776738467804,0.245628504016371,1.18737521915744
97,-2.1205213764944,0.264973406021813,-0.40792463050631,-1.20562129560091,-0.416665771341906,2.86235366561936,-0.947488356315494,0.0611485465277112,-1.3451491093963,-4.021676613021,-2.45238656754068,0.478895745190531,-0.898020370167891,-0.694603122430352,0.943588626334839,-5.90105903486121,-1.06664089175883,0.440405943272717,-0.929141272290811,-0.242688395155572,0.35203444057923,-1.3396275813963,0.238725566112212,1.10327586826965
97.005,-2.23193022930882,0.218800637982593,-0.407483498372211,-1.03995586213062,-0.362982312725676,2.73984007422983,-0.834613227360353,-0.023876020137687,-1.37866624535758,-3.72344480984269,-2.18357205234527,0.503105205825655,-0.833543087369819,-0.562934960678699,0.935764267971786,-5.53841526409246,-0.79245596824062,0.406301034803544,-0.927398313804295,-0.248481687983408,0.341706229449597,-1.2856955623585,0.223851406435777,1.04221734340119
97.01,-2.26026628831384,0.15875984932964,-0.448834536230692,-0.918743743396318,-0.356348334784458,2.63798605381063,-0.737990521455804,-0.104253724498686,-1.38487786633839,-3.26050232924021,-1.87492969789758,0.499294205746546,-0.797989342162621,-0.442260230160839,0.938694282546864,-5.11243585415139,-0.516051848584443,0.421955220636839,-0.930042084630572,-0.25683953199332,0.334393462777078,-1.2379334250479,0.21719622936804,0.993852775019856
97.015,-2.21295904162612,0.0474349317814866,-0.585025271448063,-0.81289328419579,-0.337908057290001,2.4763563258856,-0.671101890536869,-0.15958888107349,-1.36119178821773,-2.75953626614167,-1.54094208226644,0.47820833976089,-0.763623644777067,-0.412856312799259,0.957016348083053,-4.79526284885805,-0.369106660211119,0.402580534701347,-0.937066190236594,-0.271877523688305,0.318693702007055,-1.163591952087,0.211906702238896,0.930726866173909
97.02,-2.10589015096818,-0.057368633046393,-0.693420756615049,-0.750438216638605,-0.224383959792895,2.28680340247349,-0.640664109804427,-0.168093497514668,-1.31904808734981,-2.230134402027,-1.1760238302175,0.459814207808988,-0.726113545742982,-0.394361713090906,0.894314609740353,-4.5152940227169,-0.221813253561805,0.310321121101977,-0.949655141680556,-0.274792496249115,0.311976775987967,-1.08133548606452,0.218259013879689,0.85102294662462
97.025,-1.98795055534555,-0.165673202388774,-0.794457411735091,-0.662231643146975,-0.0112697084596535,2.02361045291578,-0.634874102247281,-0.133380649611651,-1.25622842545857,-1.61151337708231,-0.774185642003164,0.454090416431427,-0.713793364526873,-0.367565950872745,0.791933829142629,-4.29098743941004,-0.0714667639198411,0.209081583467383,-0.961689199262581,-0.273683266641977,0.310636758901813,-1.02194896082363,0.222057568377468,0.767629988801383
97.03,-1.90965376921603,-0.247635502823624,-0.826017257063934,-0.542289205832292,0.282484227063273,1.73567406669318,-0.659290898177616,-0.0560375271491102,-1.19192995672873,-1.06606174525087,-0.414110462391544,0.457731565383523,-0.720774301282113,-0.342031620139847,0.689831661101241,-4.08862979269819,0.0848439714488827,0.103392954227197,-0.978520002163546,-0.268591115736052,0.312766828705757,-0.95601858807524,0.206297633463143,0.67623816745705
97.035,-1.86284931801919,-0.272611753165094,-0.794361321324388,-0.388076163739223,0.605004322851936,1.4178417970458,-0.689235064524111,0.0265074181266345,-1.15121445945176,-0.665824312678853,-0.0469941550998734,0.456318147630152,-0.756862364025165,-0.326723591983907,0.682424832764088,-3.81085717375808,0.0947027496938083,0.00604664540447263,-0.991592891137608,-0.26145016180538,0.317562875701757,-0.903337259877678,0.176535475611956,0.601242986068651
97.04,-1.84633387252933,-0.22863531338965,-0.695101475602365,-0.229371696764872,0.947623158788592,1.08713285864064,-0.741456930285114,0.109918830440359,-1.13319262499142,-0.425672207062031,0.396525835315105,0.426762584832482,-0.769363075494695,-0.310962214491353,0.636257080212555,-3.74980184247081,0.0443360472199439,-0.0841919024252453,-0.997781776395428,-0.241879853487145,0.332858206552623,-0.884043966207905,0.128155067001923,0.53846497871187
97.045,-1.8338009850822,-0.134591290952378,-0.598499251154409,-0.129558559989183,1.15453459897983,0.849279628733135,-0.786009156908018,0.160521675752823,-1.11235999055116,-0.391249948427596,0.727922701099198,0.386426316041038,-0.780679408013791,-0.315636690036607,0.548446937516512,-3.54672612083411,0.0220745461516996,-0.146952643990517,-1.00126160281529,-0.22508767153845,0.348643477910312,-0.879075680637476,0.0728829483164819,0.480041575698949
97.05,-1.80144715335052,-0.020228406085234,-0.498559906047152,-0.0742488170731872,1.33345403848923,0.651737526310747,-0.82542919987396,0.181691271935995,-1.07991995582319,-0.468115661630815,1.01692533677362,0.337197547891738,-0.847527943943964,-0.355888328049139,0.535296995631743,-3.17279369721049,-0.157011496527627,-0.136735727730392,-0.983322776019526,-0.208071315603852,0.353420798020839,-0.868428825832122,0.0143402130607204,0.449595539334601
97.055,-1.74078931354313,0.0865434262174769,-0.410466338487456,-0.075462235363852,1.51363037167186,0.491573384272071,-0.840807220225035,0.187106474858338,-1.02887992201469,-0.639132238354227,1.20884823216918,0.288931056782518,-0.918867038063017,-0.424740849985035,0.543313088674537,-2.9923931987,-0.282887796076532,-0.0915629372386449,-0.971973112957461,-0.189836108207891,0.365061421791207,-0.859972699792076,-0.0177682236191345,0.43064706763797
97.06,-1.64920964378417,0.178174825565434,-0.327512105047002,-0.119619705568502,1.70007303137628,0.387749435361612,-0.851517755391694,0.175493252547628,-0.970807535065784,-0.857724984447951,1.34186343944501,0.242473911024611,-0.971108190789559,-0.454686675662504,0.504698112770703,-2.7492259575161,-0.383559018620759,-0.0172615345882482,-0.941205366457996,-0.165562205714007,0.368128366869214,-0.84375168672514,-0.0356855390564529,0.418666859910316
97.065,-1.56278789059209,0.238992843669024,-0.258544352535072,-0.15972803579122,1.87276542615645,0.334960342002653,-0.853004588158765,0.167378789381343,-0.921935776194293,-1.10830846029981,1.45082936661315,0.206383475475745,-0.982487563209648,-0.474868321486859,0.370372936628766,-2.33111802885539,-0.238474671132524,0.124025758595957,-0.931551263492034,-0.159204724042552,0.372846455355839,-0.808435782477377,-0.0347563873306398,0.408290909841202
97.07,-1.47882007861327,0.327625715089439,-0.16466318287884,-0.205685691862365,2.07117757027288,0.317268731487951,-0.860947677824237,0.142380134272229,-0.859427460210097,-1.45688946995387,1.60189856339828,0.151781141564716,-0.96612084287493,-0.479193995751984,0.298785343546291,-2.09787669344997,-0.0524715084025451,0.290258027839411,-0.908322498548716,-0.142432402549097,0.375158536622554,-0.776849615970036,0.00123470258792299,0.391424448874175
97.075,-1.43902241119396,0.385813172423167,-0.0861431614984247,-0.254202726579509,2.23060457157018,0.330253891064365,-0.881207862505105,0.107492190229719,-0.802739276684204,-1.72754088080758,1.73370833072122,0.10867817274363,-0.973354210908862,-0.460912646659627,0.219124481302829,-1.90449511578304,0.00752376097772142,0.430690787971492,-0.896272745272183,-0.128565772032827,0.381035739443667,-0.749313575288311,0.0319278381430481,0.385392741319575
97.08,-1.36727094808219,0.43173282434148,0.044961571379018,-0.339536589246207,2.43350358184183,0.394025076024728,-0.903591354830835,0.0511108795638122,-0.71630662027858,-2.02406484744643,1.84066981153587,0.0769198505496258,-0.964751400408161,-0.398967327001651,0.105070639616513,-1.67449229911829,-0.023119969517255,0.476887135999778,-0.886086305718899,-0.112082952065968,0.391636287115252,-0.722245246831303,0.0607776017607899,0.375211552102319
97.085,-1.20009727813294,0.440883037875552,0.233957121879495,-0.37450926576267,2.6680980144763,0.498499335873297,-0.936652086208804,-0.0249136392780429,-0.573211317768535,-2.27387897876751,1.957034780528,0.057733209779978,-0.901143691530125,-0.332327153936647,-0.00768266081806825,-1.31998715237037,-0.111583734267839,0.419888719576535,-0.878271242155346,-0.0941405159495978,0.407632213140154,-0.69640607921874,0.078387424659248,0.367202622564028
97.09,-0.956555718291967,0.541840281234461,0.635140614689971,-0.654692048322238,3.12502109305528,0.693217676961459,-1.03154797763031,-0.157860200898877,-0.173864108306026,-2.38507422462542,1.97953491293091,0.0257250505539699,-0.863644393453082,-0.220069499569028,0.160582153849074,-0.905727758164176,-0.235685204320806,0.252728470634836,-0.878927072919588,-0.0506818867359826,0.446753489240386,-0.634330432272549,0.0485892625714739,0.341460887105523
97.095,-0.430202378728538,0.499498169766845,1.05616871889285,-0.967236469163988,3.57958458414042,0.877552214889251,-1.17018335315728,-0.338790490255623,0.612407059950436,-2.28644536146848,1.85528850553568,-0.0135660995452495,-0.624661528315813,-0.0197557109774004,0.777401525848167,0.921279993781992,-0.0283804446592827,0.352027359443015,-0.866431402612846,-0.0291461632518587,0.489923240630996,-0.645388736398665,-0.0543193374862707,0.489117412651674
97.1,1.17463699510701,0.463035273464344,1.850296662205,-1.72125549052916,4.54598481860302,0.942010173919516,-1.5066932637866,-0.710452385805035,2.10957950786293,-2.03574511029918,1.28441113151681,-0.142311725873605,-0.357732894289022,-0.00810662376664198,0.313054422021281,2.23543608917145,0.546183636316617,0.522589938217454,-0.8635317374404,-0.0685198612343617,0.52141911219663,-0.664726917466406,-0.249308738871212,0.490390659380989
97.105,2.78258120509084,0.806323935808268,2.70841311539979,-2.24424069879624,5.93302793266723,1.35567475767856,-2.11532939171981,-1.32226024177248,3.13304813440013,-2.38526876216141,0.324355036459503,-0.562074095305595,-0.29239266859705,0.259106682091607,-0.56531209531826,2.11567442335368,1.13685948890389,0.232892078452075,-0.842318275860407,-0.0390060714774899,0.535562176748913,-0.700573526286526,-0.273756951478543,0.44108459991308
97.11,2.44583775321769,0.15618626413179,3.22018059706075,-1.79259641227206,6.4309585407587,1.81953030697034,-2.55789352499513,-1.00103454494049,2.46879449342268,-3.19703467245459,-0.0114223390296044,-0.883102703913707,-0.569777054452391,0.471942884092256,-0.48969491998624,1.99894043785497,1.43011563337243,0.28017192591112,-0.848184688159689,0.0035921900319691,0.56482840662463,-0.693627463476064,-0.179446037490418,0.418971765809793
97.115,0.182228862401305,-0.961773225521122,3.56646748574487,0.130477832608736,5.14325215915996,1.19447115169978,-2.38604057090574,-0.0340353200068113,0.591960773013833,-3.01605098339593,0.300583182122142,-0.364387597084724,-1.0519652716643,0.356218184668688,-0.325086247081281,2.10787832203388,1.72080996751864,0.614756731123259,-0.871777812898251,0.0380855453087264,0.578929925920376,-0.646531880804572,-0.109490827006472,0.420683312404392
97.12,-1.9905943575636,-1.20545325130974,3.67005996768843,1.34957301338695,2.74364653930815,-0.50621889059774,-1.721689037126,0.256498321149202,-0.409504215148913,-1.68644012921008,1.15006906416059,0.426104508404955,-1.52475121299495,0.158404767033452,-0.208837066871231,1.84925814992965,1.88556940720983,0.768455747740526,-0.926358844625446,0.0769370261048926,0.602529764804319,-0.554152760929318,-0.112218610195618,0.412127496570685
97.125,-3.22054447004511,-1.02955704249161,3.16952758971372,0.504269903226301,0.00729104941836362,-2.31135279622099,-1.26383807363815,0.345313465394726,-0.42917376148139,-0.462131211263693,1.93526336483489,0.841424750823624,-2.19821614055333,-0.0372015470471738,0.0465764906833687,1.49099283059584,1.97980900592436,0.909720264640225,-0.98078715746142,0.118418507757648,0.612037209666957,-0.504427343457124,-0.149273563260368,0.383690078800849
97.13,-2.81410171493053,-1.64159428082566,1.11822182289833,0.614412952994014,-1.97630209904333,-3.54185253614413,-1.02070056685177,0.340045455817785,-0.568318031612276,-0.745208256697593,2.1073042877351,0.850335654985886,-2.69467285415134,-0.476802453468084,0.481149320359376,1.2478868640397,1.93275765859066,1.27095287624974,-1.07131812910994,0.170531570479681,0.587045046805968,-0.446395308172192,-0.159037942592376,0.341510969889996
97.135,-1.8956035575968,-1.07992023478556,0.0507851648384828,1.79826368356093,-1.79525356397234,-4.23675379234344,-0.906581835235869,-0.0262088359474249,-0.95838140418223,-1.70795260446634,1.92301143312464,0.74128666631591,-3.00285640821561,-1.2311309086521,1.08699238427573,1.06766213142541,1.44717811203274,1.79797195424214,-1.21137625443297,0.231835428209905,0.508977553753093,-0.333460034879696,-0.124055093462002,0.316943204908619
97.14,-1.70507447456051,0.874731808653566,0.043328001343652,1.22958411528244,-1.11124996691413,-4.36415279098226,-1.06083094246183,-0.732884443939049,-1.33859632126601,-2.70824409044636,1.62171225670483,0.791077504050417,-2.58491128749979,-1.6696889439176,1.08677280077904,0.379781200469404,0.39705135261369,2.27985587408147,-1.3414616052798,0.258556254413077,0.389529115409677,-0.233617106759783,-0.0185109955807567,0.325722410386883
97.145,-1.61347862874683,2.23040643626808,0.0946277185742692,0.314353876724618,-0.766700076761868,-3.49224837834063,-1.18022645930069,-1.34787052471414,-1.4676027613358,-2.67011438373047,1.71351912059205,0.834891708410498,-1.44041867540107,-1.32947475522321,0.00821010451558271,-1.22169419120792,-0.475288896651279,2.20252866824691,-1.45072850083323,0.284673658916298,0.259256713939288,-0.165745827791639,0.171789778731801,0.352854541525118
97.15,-1.26493361363074,3.10148897028886,0.000523858117591261,-0.306777954643113,-0.565038779399483,-2.0835307666078,-1.11391270554412,-1.61697448214539,-1.20539171893402,-1.70187486423583,1.97258521695222,0.64670724502126,-0.652518537213542,-0.693040781134374,-0.635556470830344,-1.91959240411262,-0.217489657206116,2.01151997531146,-1.4951558190754,0.307045491469325,0.135841689494286,-0.271179764866873,0.458367135278408,0.43598370959609
97.155,-1.10764315143978,2.77473621535475,-0.111628166813151,-0.584091460265326,0.10832208958836,-0.109579588373474,-1.26659736404377,-1.42264509813179,-0.678156928555012,0.725813284230166,2.12670887260756,0.0518923537114875,-0.418457574890291,-0.362990797138373,-0.600099636260312,-1.1906834359547,0.571612555985439,1.94188729052865,-1.46953318657231,0.333634842392133,0.0939928663455948,-0.378479177147636,0.543556633398899,0.539358946172634
97.16,-0.916214006662607,1.23159923547316,0.466765547361271,-1.32153267901263,0.709951551189176,0.736660075694224,-1.37234213522907,-0.816210949298822,-0.404971484826404,2.2312094586086,1.93260682503956,-0.127547993031031,-0.44183879792815,-0.309663433565622,-0.511216280241566,-0.203283726969934,0.938039401434718,1.71991457118353,-1.41216772123772,0.346303190379985,0.0556481170203892,-0.485450808072102,0.447806224226311,0.657493078874352
97.165,-0.769454021607421,-0.27778540347179,1.26788427756295,-1.50941380426644,0.733799063044312,0.858129538652761,-1.19336749467516,-0.0189346715859977,-0.287245780035763,2.99458359796518,1.79949633436618,0.165042519436591,-0.468696863108167,-0.336115007317275,-0.518886774655476,0.531043807261888,1.00338550153557,1.63120477424377,-1.34925358509963,0.338685457683903,0.0263952257319516,-0.584430307482505,0.235528767454677,0.722116979035489
97.17,-0.710466484192437,-1.02439815726722,1.66195245684667,-0.664878015770887,0.32006023704529,0.555479701284866,-0.955322891745827,0.370038533610774,-0.277674786777714,2.89259713238951,1.74836830865766,0.585837144471047,-0.470433478344388,-0.327231303790196,-0.582108392192214,1.14024337997639,1.09803477993658,1.76182194683809,-1.2882972699943,0.317791288188335,0.00216440822681148,-0.714616494551907,0.0102787851769927,0.717684035372806
97.175,-0.55079273664689,-0.99251466275892,1.4694589976003,0.220961464894795,-0.137205829866534,0.0431147231188244,-0.755687584754896,0.393966145427783,-0.221174739373413,2.18202127048566,1.53955413392555,0.90333185065237,-0.451996283038388,-0.307222716840173,-0.600696001836969,1.65128182292037,1.25937630831467,1.97306413539695,-1.25858913905355,0.280864229995587,-0.00250117521610826,-0.814990290058116,-0.160736004284587,0.690793215187815
97.18,-0.464007968802166,-0.120031226142386,0.935490590549143,0.861875055655219,-0.345239393445407,-0.363099808867294,-0.611272994122588,0.30945025691028,-0.218730769201162,1.29116725398647,1.18975619807701,0.969748597233845,-0.470263194813331,-0.29553551791283,-0.763062889204589,1.86854249298202,1.39931858145173,2.12842079417839,-1.24607261299552,0.240284520015598,0.0286802912295055,-0.90910792824209,-0.24188093801212,0.717766745454612
97.185,-0.56134268818226,0.773049058999732,0.442811987041415,0.839484983108424,-0.115653685209228,-0.204277665512879,-0.558206376476888,0.198501745977998,-0.361565555609703,0.62390463556712,0.987148564020448,0.884334237415041,-0.530982610510703,-0.141565692430867,-0.735244431105263,2.1332482924116,1.59674544979767,2.21040144024967,-1.26187200105168,0.225493893787819,0.0734895981842083,-0.925728102584045,-0.259120796345425,0.736242753599727
97.19,-0.942792521154793,1.30253384362539,0.356404230436224,0.235354442131768,0.134520880462865,0.110530515175815,-0.633052271540486,0.0422376035625595,-0.553026808332194,0.234076590721395,1.02142749046823,0.679583344571485,-0.551247052604768,-0.0771153792080624,-0.830923487978315,2.52394890747662,1.86807792529173,2.13308957376488,-1.2794386412095,0.216466571601672,0.122880917548559,-0.900111217682433,-0.245241812195663,0.727141718817668
97.195,-0.762653275614669,0.764369259474251,0.509108091499095,-0.172641680361199,0.195515033300797,0.493979446296435,-0.811361850009717,-0.0226793445470926,-0.528046739220947,0.290056137381914,1.24210114417364,0.528429752380597,-0.662402542117792,0.112395723612512,-0.939073158566509,2.75739975475274,2.2430359551371,1.84005717769728,-1.29658145193326,0.22476454144221,0.148626692133118,-0.823882454781137,-0.179628886090971,0.685999121853126
97.2,-0.547518385422786,0.363585759296444,0.808474410936425,-0.296148533417863,0.138957502570077,0.521359952976528,-1.0441673168961,0.00427598069220249,-0.36927061754548,0.300919882644223,1.26529733488175,0.429983728096018,-0.772626806180485,0.322807099199863,-0.991721221081334,3.0293219202497,2.58261732005209,1.53775389128059,-1.29903595879143,0.224595904421432,0.179148937682831,-0.735215225998141,-0.0667052233513481,0.624927269098023
97.205,-0.332000368852946,0.188247950200389,0.881911678642171,-0.256172152419811,0.0234787325047273,0.373653426982931,-1.20740721277362,0.0892762537702118,-0.233001786414332,-0.0181364847895557,1.06489684074518,0.338853791221301,-0.881999074490432,0.590377302938457,-0.921154883153846,3.27251721375508,2.67145898816762,1.25498926459946,-1.28585552973609,0.213897870359906,0.2202203955218,-0.639552709679006,0.0796993697010822,0.581748267188594
97.21,-0.299634205921108,0.250905379528201,0.89006566247918,-0.220144910503081,-0.0189264663535005,0.255094546788988,-1.30183308031388,0.18090507819933,-0.189382782092511,-0.508199812994273,0.712952078607902,0.249504941013451,-1.05604800609801,0.896068422052099,-0.878031099700648,3.46102381933499,2.42425334941644,0.903125910845135,-1.26323093185192,0.201694744624581,0.271060399694159,-0.574637645305852,0.193120816563866,0.601675004944616
97.215,-0.447582694364112,0.533171421430695,0.743829067828368,-0.261779969124127,-0.095849793474184,0.111009968285495,-1.34240345635751,0.274044910578888,-0.233022729493689,-0.904586451796831,0.390769181338192,0.180292995964365,-1.16456587551221,1.01461888725443,-0.860645779104796,3.25678279961516,1.98176900493434,0.589197113906982,-1.228909445457,0.190666466869527,0.322412908395559,-0.553892445121629,0.29083903308911,0.641221287414496
97.22,-0.513021549257955,0.603433119991113,0.704173923091678,-0.381367662836619,-0.0935891821210655,0.100972426631281,-1.33836199446564,0.333323437278008,-0.258981329897631,-1.06788674933294,0.223845123301781,0.172586360256231,-1.25168652905807,1.00292333917124,-0.832614240084014,2.59991318309472,1.33889427813327,0.357046821029265,-1.21030254184075,0.17855662971735,0.370673474894372,-0.575973674143539,0.366679616200512,0.708541030984788
97.225,-0.493648349809048,0.531829838569221,0.74605504444388,-0.478594112946056,-0.105550782747508,0.116369898419739,-1.28776273601197,0.320563018902242,-0.209509454133717,-1.18291457997747,0.156933176691219,0.202696470581351,-1.3366933305619,0.983344577497563,-0.823649602466187,1.62588342930167,0.403493338415205,0.09520332437604,-1.20866015812748,0.177469031045112,0.404895635159819,-0.644971830463207,0.397089384809567,0.773711325445634
97.23,-0.447066286645581,0.37199758046914,0.822443360211985,-0.526465274042771,-0.110232580897805,0.102076564182729,-1.19243395739351,0.233257916365657,-0.142958300766977,-1.46164584371361,0.0799456492056535,0.236757511980462,-1.41030134389778,0.696992098840198,-0.766172484344142,1.13835757207022,-0.574369737822789,-0.0374713965839559,-1.230521540125,0.162856175082979,0.436246581594408,-0.80450217900503,0.392316885592092,0.871005730840997
97.235,-0.43255694016471,0.253024395391735,0.8803230674653,-0.504019425814337,-0.135404907109816,0.0515826178285409,-1.08055398731757,0.0701020641431433,-0.13441627459719,-1.79196496576319,0.0117898813773201,0.233477780750973,-1.4336002900304,0.395813954232496,-0.607160246908891,0.645762271184323,-1.35992209699944,-0.103833655930667,-1.27768796206059,0.132194408603454,0.449066847721915,-1.05007069565699,0.284630951600442,0.949654538747282
97.24,-0.445157092487698,0.240083480697455,0.876975300405901,-0.446697398417262,-0.185971168045948,-0.010246892193185,-1.00700708098385,-0.0983318491109468,-0.175763335076205,-1.99116237823004,-0.00375545216308687,0.196300420931914,-1.32605383879536,0.204145134723801,-0.312970620976253,0.200248327511533,-2.15565624900545,-0.201698963728326,-1.28119060093718,0.0858827501157511,0.437865474905464,-1.25254128739288,0.101803686098869,0.953751393278762
97.245,-0.484676105091337,0.306183259741453,0.820301651138394,-0.41272145415676,-0.211884229641314,-0.0653807444783728,-0.973241353080075,-0.257666600022876,-0.247137240901211,-1.90937865024298,-0.00151803805655039,0.132515672630993,-1.23484414977405,0.173553326817823,-0.206347744105044,-0.341037406504122,-2.4979808480791,-0.428016922986227,-1.2201645192412,0.0504262062616293,0.402231510829819,-1.43857772860571,-0.132757237797964,0.85588292435325
97.25,-0.510050855518954,0.325098670874414,0.802457336817574,-0.422945720587596,-0.20196047438956,-0.0556102112143069,-0.977377211304206,-0.345653454864135,-0.260512455345301,-1.61751385451623,0.0150619395401026,0.089966641171122,-1.13055062721791,0.11539566724827,-0.00277894238296724,-1.36477425198779,-2.39227012398032,-0.796243196435223,-1.15016175934797,0.0530859250991479,0.365544896471848,-1.5390300272976,-0.216326288894126,0.778786606037257
97.255,-0.516087241709534,0.280062696517799,0.81368633213405,-0.435280049799699,-0.189996885439212,-0.0302114756641376,-0.985943075301913,-0.40916988196253,-0.246966556182118,-1.30805113423598,-0.00204632245004177,0.0721837559849201,-1.00947678344002,0.0364113405330211,0.0219676331635598,-2.07931538399683,-2.10927185121487,-1.05622851541294,-1.03775445386317,0.0589647494389534,0.311698892519003,-1.61694902919431,-0.234904700373135,0.742247901378957
97.26,-0.492831486922677,0.225086481652946,0.847225381128976,-0.433901799333542,-0.190703856336624,-0.0155132487193821,-0.998075854597108,-0.423409226301864,-0.218967151764712,-1.04508215760107,-0.0197753703949276,0.0930941566023634,-0.862953035040873,-0.0945747877557587,0.0611969700805352,-2.61354520213707,-1.56153516113813,-1.31315222366849,-0.931912482843009,0.0842221428435089,0.266460498006005,-1.66234594589779,-0.19763489372742,0.750147282909343
97.265,-0.454444362066354,0.191654380837251,0.861122152757669,-0.406550446889426,-0.203293228037449,-0.00234224648471854,-1.00924899586905,-0.414450284242897,-0.192229923644462,-0.782638053680613,-0.0932611452595959,0.157981995963148,-0.842365358494564,-0.202725222167158,-0.186826269335822,-3.4753092171751,-0.952462332122884,-1.49189330492174,-0.850669501450524,0.0967377469821814,0.217387124606876,-1.68648856276802,-0.139490349229436,0.791808428201809
97.27,-0.447038112549895,0.198710829931704,0.858047621152084,-0.384577218843476,-0.191232675849434,0.0192347860883102,-1.02530468636095,-0.418482010161287,-0.171442379154096,-0.587596721985215,-0.136566641267201,0.25806292992908,-0.811144240357281,-0.32432636584659,-0.313134533171253,-4.18398101577683,-0.0659412831624104,-1.2417328154624,-0.754181326399709,0.0996876015253624,0.168097814227159,-1.68920033988593,-0.0541095908788031,0.825098362538469
97.275,-0.444015010788631,0.209826705915528,0.863936518727614,-0.339488903071449,-0.17142459591492,0.0527453776624675,-1.04206086361839,-0.411603952209282,-0.1655029069573,-0.322834867923992,-0.220119031324782,0.372015372496407,-0.78142530188037,-0.452030467117171,-0.285362994024778,-4.68249897904482,0.501312603277263,-0.925084374683062,-0.703049467099639,0.0958154987568808,0.138092978599713,-1.66818424986574,0.0619489814531049,0.818259435857689
97.28,-0.441150972695059,0.21430469326731,0.857239351840233,-0.316107259167712,-0.159739870074581,0.0769468365670972,-1.06099239686183,-0.407082464455023,-0.14692827440956,-0.102632836358676,-0.252441209894353,0.448972641233538,-0.827196757852623,-0.580250309190606,-0.215905837955469,-5.037878205913,0.823237970496436,-0.536321568018186,-0.668681580399238,0.099575493481155,0.112618581721711,-1.6449525837462,0.223989573988669,0.796823598424464
97.285,-0.440286888808159,0.222470897330697,0.856895142017972,-0.267138004285374,-0.15174418111399,0.100197752906474,-1.05861603612322,-0.375814025141358,-0.117284105261725,0.182857866841515,-0.277608871486858,0.505895786053766,-0.909091424699267,-0.732537451959059,-0.263552306949538,-5.24740054139903,1.20167455160138,-0.216705971908899,-0.647866439240454,0.112175414428001,0.104338631011401,-1.63371481264986,0.378077260178887,0.785328973710204
97.29,-0.446509691693566,0.224041174722973,0.854199229592012,-0.22767661551693,-0.138052466416852,0.122499785704412,-1.04048289560923,-0.332554794851863,-0.0955224909523701,0.407904582801754,-0.264615744591175,0.522687678403922,-0.962752564586928,-0.863069933401542,-0.25529049766902,-5.33732723254261,1.60768162097077,0.0251672679110629,-0.631534528649023,0.130294858649966,0.102856589114046,-1.64731438477838,0.548801775739523,0.797836512860832
97.295,-0.455738057552906,0.219271519505613,0.848511122644738,-0.209139779332569,-0.120416499651,0.144512875523439,-1.023319562408,-0.28545886472423,-0.0865075766741159,0.568798789501861,-0.234905927328661,0.512689848109122,-1.02501499431006,-0.935850665534011,-0.179297705458402,-5.11704676644689,1.8820239052996,0.101158193742783,-0.622669123649461,0.170644117914045,0.113519898524367,-1.73318555093184,0.761941033907414,0.877617775449125
97.3,-0.448515966210489,0.245433465183039,0.852149091187732,-0.14935149354159,-0.109787343494191,0.156629178993872,-1.01063405673708,-0.217246740968466,-0.0677277334506147,0.717535086337482,-0.170586294819673,0.500450154490363,-1.05470203040191,-0.99244016185209,-0.138018931328161,-4.73062254572595,2.05441904159479,0.0366995298584481,-0.632724818569459,0.201284907424505,0.144218582411,-1.88344435235792,0.925759894556186,1.00397057610352
97.305,-0.430342696538372,0.266118832618237,0.843179552323204,-0.129909944532956,-0.115832116461496,0.158928529928815,-1.00673165598015,-0.15018778988365,-0.0401430470249791,0.818741057638476,-0.151185554844985,0.486104049609067,-1.06134006232739,-0.956359371002308,-0.0937002510881781,-4.11148969839974,2.16454464565703,-0.100959502378167,-0.631298739520304,0.22934359442217,0.166982504784922,-2.00638632398689,0.977529876936918,1.10542685719288
97.31,-0.411277130110295,0.285310225085787,0.840727513714346,-0.109142807344083,-0.126295988244907,0.144580905319768,-1.00741988206299,-0.0720259957969727,-0.000430738444539469,0.842906397120493,-0.110377395661464,0.489704634692708,-1.04071665456411,-0.878173724130276,-0.103953984765464,-3.41110030617482,1.96268865684948,-0.226061772658276,-0.638628644353562,0.262398469100054,0.195658831965045,-2.16402191277601,0.99121481180191,1.25565058609771
97.315,-0.424415499320785,0.276290765151502,0.838170322535289,-0.0974109712475751,-0.118293340243372,0.137974743705701,-1.01781872133979,0.00829862756734598,0.0131036364624113,0.755815751046276,-0.0859912887236907,0.501634962025988,-1.01393721936239,-0.698118430448867,-0.0707104362674032,-2.67745391190686,1.418350629566,-0.380320989928983,-0.677672717140896,0.297241018867132,0.217443101624926,-2.33968957142856,0.975517836389487,1.44401199049028
97.32,-0.447972335954132,0.262809273449804,0.850718153922245,-0.0819683635702575,-0.0992108308264213,0.129811938191466,-1.02552025665003,0.0747813591887711,0.00335595511183952,0.551999340357413,-0.0652455899256034,0.523734749716179,-0.968026048840979,-0.49113401423067,-0.0557681603559769,-2.28760560018908,0.857532103697271,-0.553617195780766,-0.780131356038205,0.321305983001429,0.23179704469919,-2.50471056829567,0.933395329780402,1.66241547394699
97.325,-0.485682694192832,0.255035862891703,0.857793326677744,-0.0470503640288613,-0.0700578374517359,0.116139237180527,-1.02863755301624,0.112935310414099,0.0287500285190285,0.355522831952447,-0.0916748529229454,0.543639295826577,-0.910429789491172,-0.261865971050599,-0.00611415842543324,-2.07397082809817,0.26467597732826,-0.725943735331003,-0.883800904258765,0.319870976605586,0.23575192287313,-2.55632655117351,0.881162596400679,1.7908396373032
97.33,-0.483599277784649,0.260028975411719,0.855747505271632,-0.00130409566115681,-0.0512117080140891,0.0827679523339414,-1.0185211739534,0.126184730550084,0.0775695512527446,0.146655090350454,-0.186800915752642,0.562208329706184,-0.913625060475097,-0.154089246557688,0.0760410509060397,-1.84988793390092,-0.115146581815847,-0.789826015111435,-0.959793119309014,0.266181807826148,0.223067025370563,-2.36531688725715,0.854077994325633,1.77836264823964
97.335,-0.460052097523875,0.27651748876422,0.848807636853673,0.0369116456037354,-0.0293795518710939,0.0517206726892248,-0.995988613838923,0.137624452542635,0.0873683176231024,-0.0635122746521608,-0.291687968473965,0.538722625332866,-0.948999698509043,-0.0677273924864238,0.139415013630407,-1.67137217021637,-0.305556940537856,-0.784997326957136,-0.933863806390507,0.194350119354252,0.21905135327539,-2.00547502852128,0.899523429963611,1.60366979433515
97.34,-0.448547302136253,0.294416221173611,0.836065827455286,0.0728957553262328,-0.0232786523636579,0.0123958143116937,-0.978129597253699,0.13178667137563,0.071028840239235,-0.32509365008871,-0.359197031868104,0.4900679374486,-0.986338263712802,0.023895801961724,0.158760679442755,-1.48210433934863,-0.254682786567674,-0.712780648126222,-0.872937694989385,0.130272440877007,0.214268271083388,-1.55604302156902,1.01685970790544,1.3036771875747
97.345,-0.443948084339595,0.30967497730526,0.824572570323443,0.0817778417266362,-0.0212173359038276,-0.012792369113134,-0.968595003707665,0.0985933511343516,0.0212977890863319,-0.617407809067217,-0.424127198994681,0.41442959469475,-0.97999476666836,0.0837575373877747,0.159270540011862,-1.27221401365388,-0.0206077215403977,-0.58957602885448,-0.829835063041641,0.0887702518463443,0.217827676063943,-1.07850939627565,1.17314896648667,0.906738585753598
97.35,-0.437853602041643,0.300319093855159,0.826927560417918,0.0673881357012025,-0.0245675758824763,-0.0237950375518716,-0.958637310397016,0.0593035202726449,-0.0189635240130264,-0.877921157533073,-0.447964817285538,0.583378853787412,-0.953515425044812,0.120066213529031,0.158105504977118,-1.05381009760616,0.282408591655186,-0.443206935686001,-0.842117603254808,0.0960920067438015,0.228736932450423,-0.737099885457892,1.27134340324203,0.57929007301656
97.355,-0.433548591217138,0.289680545895087,0.824255234719147,0.0398291554116953,-0.0265928940283357,-0.0264924354851246,-0.963541243504682,-0.00723935341065879,-0.032184289862275,-1.09786564114449,-0.412413269876086,0.304860071239833,-0.920073639100916,0.147521874579906,0.157538919187958,-0.787863798146197,0.586890603839501,-0.276772861977035,-0.883673867342908,0.113817285894625,0.247687486802469,-0.557595003583623,1.19301926972556,0.348405139235842
97.36,-0.43799802047032,0.283817069746842,0.828185976496028,0.0187292723199282,-0.0361136196326333,-0.0360075628386881,-0.983621959187185,-0.023896180219492,-0.0379842402596305,-1.159132703444,-0.402503051299863,0.290383338928223,-0.903078559891145,0.158851085519367,0.129241659343363,-0.490851116438934,0.930996314827589,-0.078778771788224,-0.914167803370019,0.111768968742004,0.253180103181271,-0.539219663163798,1.01723750107531,0.276031156015323
97.365,-0.436172239251183,0.287592781905887,0.825842558438996,-0.0026267911821576,-0.0479380149581088,-0.0461574597881021,-0.994062962346844,-0.114807728291142,-0.0477294237978403,-1.13981567657122,-0.39801073147477,0.294618970072292,-0.914292973687088,0.150670594390372,0.100004497340437,-0.330521461625884,1.10190873342152,0.0766808506996525,-0.942846906118834,0.0826254298005536,0.246542734600934,-0.570474868035511,0.795358032633255,0.235617413235539
97.37,-0.436681046157272,0.28787757577346,0.824348526832547,-0.0240102463903298,-0.057639514598591,-0.0485577281559605,-1.00676766991679,-0.155681649874478,-0.0572600042976452,-1.04952323619265,-0.371513463144981,0.3133550093382,-0.934750113410039,0.139608337301241,0.0644277751543988,-0.268894666678342,1.16467148922644,0.212264248942891,-0.98698881712149,0.0431863352376207,0.229465989315896,-0.619233400033227,0.627149596642772,0.194205334386849
97.375,-0.44238708863343,0.289477135306705,0.823505618383431,-0.0389833918983328,-0.0682109721389947,-0.046476994344299,-1.00912328903976,-0.168024315086572,-0.0514206951742612,-0.897863273064798,-0.358446522817502,0.321322564034827,-0.945469847922653,0.103858260707868,0.0498260443663138,-0.309304004925478,1.10286180089855,0.316911081663872,-1.04698499180737,0.00821651964750732,0.217839909797229,-0.664910565098772,0.415637916749126,0.146686777010274
97.38,-0.453557011979948,0.27607413990294,0.833539945551575,-0.0464167813189966,-0.0709836064293555,-0.0460395477712154,-1.01437282142204,-0.170431879897162,-0.039254101094143,-0.726802803906798,-0.367486076327428,0.321969299766613,-0.954710394304458,0.054643051832636,0.0350983636901568,-0.477184872780986,0.944775443689069,0.373153802903029,-1.09943532649581,-0.0175633856000746,0.207275456881873,-0.697800172152356,0.204575291279298,0.0950010306980081
97.385,-0.459666992963345,0.251211900852133,0.84461693887377,-0.0318068924303335,-0.0617860182003563,-0.0459187404236664,-1.01167246273151,-0.146030725328276,-0.0263367925153324,-0.471645269322867,-0.383292657800908,0.329399928872658,-0.993807571318731,-4.53438604545737e-05,0.0482210850832686,-0.948874255754567,0.598547030879623,0.256302359396176,-1.14497916366139,-0.0438251200243407,0.197203385920841,-0.713442308281135,-0.0723298433512003,0.0505364450457561
97.39,-0.45896786120811,0.237936446071792,0.843433525563183,-0.00062034122136501,-0.0478489064328717,-0.0385298101962105,-1.01707261949402,-0.11704606153841,-0.0148435386203451,-0.295332680017661,-0.376823715814622,0.331110735658581,-1.02349298408727,-0.0498326694471628,0.0764018950040696,-1.28701658295757,0.350638329972889,0.0890512925260541,-1.14022178809456,-0.0697013944354645,0.177417793782078,-0.731457860636483,-0.260440266904408,0.0372765807924628
97.395,-0.458159584857524,0.243076467147339,0.840431906559653,0.0178387976979775,-0.0398233467557109,-0.028080693352605,-1.01660291026894,-0.0854311322675014,-0.0132721594673475,-0.132234508241233,-0.356197414508391,0.327355926748464,-1.00809345294499,-0.12990976432029,0.0866615977022534,-1.37335693836212,0.330204767587328,0.0214674490058463,-1.08386281763505,-0.059819547599391,0.136645253727187,-0.731309983670287,-0.375273035042651,0.0185773563167987
97.4,-0.453258555061635,0.258088353190878,0.836806631909702,0.0307731342441346,-0.0369391991214226,-0.0099986775707253,-1.01814965686916,-0.0593821550715842,-0.00411905183405828,-0.0021973986351985,-0.335444095676758,0.308560846318497,-0.959467059417784,-0.198094109077747,0.0696324436793818,-1.34752841449297,0.489244336214005,0.0471836321856312,-1.01406765487339,-0.000442506057150488,0.133043325172009,-0.753899396388847,-0.361991614006863,0.136829325769164
97.405,-0.452044315691971,0.259350247313736,0.838828547915941,0.0452783282671951,-0.0338714537620534,0.00044204576054343,-1.02217197215557,-0.041188132128674,0.020329457795894,0.0721769694104094,-0.293302056266321,0.297256548141111,-0.904483636868892,-0.204030812896999,0.0386221026901211,-1.30689706109253,0.81093283850393,0.161794322552322,-0.98386138484768,-0.00401883638784562,0.128583993492708,-0.816302048724971,-0.375360955242971,0.233272768894585
97.41,-0.451690406840745,0.263501312505248,0.833617303398323,0.0659727657726119,-0.0359769970027676,-0.00384351437976263,-1.0102460820184,-0.0273364814645436,0.0475895219941372,0.110325953512028,-0.259664264695342,0.279580153956966,-0.898903304126573,-0.204519702909744,0.0855348977481011,-1.17076848994321,1.25788330567721,0.393361021445619,-0.907572540346475,-0.0270280365156996,0.0672387810852266,-0.910402404405395,-0.236118997986098,0.185145214527696
97.415,-0.452453673246534,0.262223699277482,0.840462588008446,0.0829014958765103,-0.031591478877917,-0.00593604076733129,-0.999749027564239,-0.0153540442398034,0.0515235426721171,0.0838924246447228,-0.238530562494998,0.264233098161661,-0.885629670389633,-0.174443635127419,0.0953827755907359,-1.00286901622588,1.50426207344627,0.599796991443707,-0.851040421174031,-0.00370500561986315,0.0305300338973529,-0.990019456991726,0.180164645754762,0.100378563402546
97.42,-0.447263019874563,0.269596635480977,0.83283815627789,0.0857958599938285,-0.0354502489452907,-0.00777512118253438,-0.979423282264267,0.0021040701470877,0.0506127859227406,0.032260820087492,-0.203110739335389,0.253658915563521,-0.89382301646862,-0.132418430519656,0.105270914305836,-0.877812821125221,1.674084149375,0.764793382472136,-0.825203087270867,0.0235097126299571,0.0450627086596514,-1.06549589860532,0.803275099661932,-0.0161916067442469
97.425,-0.447732531753246,0.281397084331818,0.830431159425634,0.0757120354523676,-0.0405823587205812,-0.000180682425227677,-0.963577137103891,0.021474412571038,0.0618875582955861,-0.0501793452115033,-0.178339464268384,0.23525062625386,-0.889035641825551,-0.104722045417794,0.13653213141489,-0.62229213934956,1.78736157648846,0.923240446605733,-0.870700996793578,0.0817377801027489,0.127532759896974,-1.08640841139079,1.16918715057541,-0.123009427892171
97.43,-0.446670116579277,0.279764880804292,0.829268468884716,0.0524260498840897,-0.0420186445734558,0.00428086050492239,-0.941862656393881,0.048126028234247,0.0741199763659045,-0.16123211984573,-0.160955720409517,0.215360519426635,-0.895501942255,-0.109618241587455,0.178466079870934,-0.246251496678248,1.75153927914981,1.05900449751055,-0.925811475814153,0.132285622930248,0.216824170278335,-1.12903792789183,1.19773080739243,-0.198840607524613
97.435,-0.436828654648171,0.274531819308784,0.821073295818943,0.0160075721000168,-0.0374627899894538,0.0127065461075957,-0.925062445415766,0.0593164866244594,0.0833585416013117,-0.278959117282178,-0.132018358449457,0.203034238663916,-0.896794406618868,-0.125036017787547,0.202273939894834,0.0158022956461622,1.72506632476711,1.12536103233529,-0.983032013433733,0.175137685775308,0.30087818871699,-1.14437406016643,0.936366630089513,-0.259826152878074
97.44,-0.429435742620583,0.277217021842475,0.819928986111662,-0.0118247910083993,-0.0339094775192161,0.0188353465216175,-0.910525033683041,0.0604796735420236,0.0830622158412116,-0.411588761139804,-0.105109483159685,0.18138803745948,-0.877969025504176,-0.143273288878202,0.220270520054156,0.289037067314088,1.75356451289201,1.14345237319397,-1.03823955119858,0.249387134999321,0.391767448676697,-1.09322574107239,0.35609635711173,-0.284448645712586
97.445,-0.424758977852325,0.284341026078818,0.827703382960025,-0.0406226198541755,-0.0451563624891315,0.0240430141215966,-0.906145720012312,0.0653385136584665,0.0918839568085616,-0.542761742121275,-0.0700637389416634,0.154917493671215,-0.918302399996423,-0.153268135484569,0.228742681579857,0.360589988722978,1.81288721387113,1.0928272685332,-1.03140969709146,0.2819923330917,0.404810385681232,-1.07896192593793,-0.155459152650049,-0.21851576849356
97.45,-0.406925029458235,0.292482065746892,0.832734876692474,-0.0726768954460425,-0.0555693955974372,0.0216194458676434,-0.907867486487034,0.0622053436175616,0.0956576542021367,-0.624930609085413,-0.0395086384237622,0.131511678243259,-0.987333535486461,-0.139713632482992,0.203223010694505,0.313483659628695,1.89967787057979,1.01670716195775,-0.989863512630094,0.314259118000608,0.383650472251233,-1.0786713788797,-0.500504271674362,-0.123277657350813
97.455,-0.395620381895843,0.296357770580373,0.839028777676951,-0.0905554840062118,-0.0702392887055565,0.00644690586751824,-0.91941717534132,0.0627558705945744,0.0953682422924863,-0.673056271112943,-0.0149246725914687,0.111901154206326,-1.15338741228284,-0.110425488407035,0.156663167515797,0.245948134830764,2.03565674814469,0.945694807441065,-0.936617056364458,0.353377700057631,0.351239353009939,-1.07929537018569,-0.600514696357707,-0.00766828755591055
97.46,-0.400395832810277,0.297622592441916,0.83645862337474,-0.10230305178015,-0.0853157921046362,-0.00862280611801895,-0.942591007308239,0.0608716194441707,0.0787076679494258,-0.704145959600213,0.0148955519656456,0.092078365250078,-1.35790247984566,-0.11294377730697,0.0837485403171418,0.407384580199774,2.1853261252452,0.953869284533339,-0.896440268161996,0.330038599030742,0.320763170835949,-1.06684487724554,-0.549570123194625,0.0292065579714618
97.465,-0.411228850027621,0.297384026967036,0.832097295182548,-0.112609228754886,-0.0883105680171738,-0.0247094069796751,-0.96653733591871,0.0440388628081278,0.0578291094438808,-0.711873245996213,0.0400193647461897,0.0800312148310295,-1.46028223169814,-0.1047475041977,0.000783064150001771,0.426071441494281,2.08796502531105,0.949047402606866,-0.879789349718804,0.319714551866141,0.309908580449257,-0.988447320469641,-0.425117750291914,0.026158551096809
97.47,-0.421072954018272,0.290094071625651,0.837871806647967,-0.119364492115376,-0.0936668363168816,-0.0365275575030572,-0.995900447625058,0.00131608444502098,0.023571622756333,-0.693666019533299,0.0570986004546598,0.0606469627449634,-1.52846534662202,-0.0650747089797986,-0.0510711202301022,0.349669995327864,1.68379312757906,0.895850965519102,-0.870434325766394,0.330706276392826,0.295275017848477,-0.904738569261862,-0.343886368433812,0.0166944298684327
97.475,-0.43267261667752,0.275404576913006,0.836488998725582,-0.128459655732711,-0.099977772426216,-0.0443234197670343,-1.02339776325686,-0.0409832063339331,-0.00380276471348901,-0.622665331847757,0.0767801507155752,0.0489748958426606,-1.50177400027573,0.00829239228520998,-0.0821944808675751,0.235911148356613,1.038314857156,0.769712950083035,-0.864756324801784,0.348917360714752,0.270062803798589,-0.826611896941273,-0.236907817393934,0.0409724591326652
97.48,-0.437471132660725,0.270012464646623,0.834096435624402,-0.137882116501483,-0.108621566562254,-0.0460395477712154,-1.04379382468436,-0.0757563907502789,-0.0277603778498965,-0.509325759932437,0.0973999695019622,0.0359448611049719,-1.3719575690348,0.0424786961453942,-0.0695471675732058,0.179593157210468,0.468638300437102,0.615957199323078,-0.883748481080566,0.356184163945135,0.252506867235622,-0.784908072607397,-0.0686035934700435,0.13408759307127
97.485,-0.440147636595154,0.269802451317891,0.835991657143884,-0.148451018576525,-0.115727343669132,-0.050953749065302,-1.05158275356005,-0.0937024028714799,-0.0327931804069752,-0.388825560186707,0.094801746970078,0.0251085327004013,-1.18365470260354,0.034307358562723,-0.0137786642183245,0.233288693841956,0.165071816558127,0.462048860660337,-0.907415286418151,0.346553717689563,0.24644135007779,-0.759702788551072,0.0737566921372134,0.212918957669302
97.49,-0.438116229518414,0.275431288249288,0.833272593819716,-0.150549650897879,-0.112799405107449,-0.0527350508340363,-1.04457599733707,-0.0796494273910147,-0.0349674225853355,-0.249118684261039,0.108705084958515,0.0191671624779701,-0.970767842437096,0.00439280982091132,-0.0190673889251703,0.283535062111942,-0.0595034778457817,0.210772868073836,-0.932476422103786,0.323455201194327,0.248212861956111,-0.740599299263793,0.199851342177363,0.302252640308787
97.495,-0.43765351385753,0.275028452590291,0.83450882014682,-0.150887680397355,-0.118846776571382,-0.050305129415828,-1.02910258567336,-0.0552444380797774,-0.0316052015267353,-0.179516223815942,0.114655392920996,0.0172449605156779,-0.844756444647078,-0.0140843160512427,-0.0611856170794626,0.211255598539072,-0.172559920593553,0.016430203738808,-0.941659817481869,0.300558079990823,0.251128086529937,-0.724867138646874,0.271298298151654,0.346058138682338
97.5,-0.43941851110576,0.265929871330445,0.842152023434755,-0.149049798197401,-0.110330645553977,-0.0489449129052472,-1.00824057029526,-0.0431203956410537,-0.0277049876082758,-0.156069243827831,0.12221819401649,0.020156642086229,-0.750902129472387,-0.026499421250248,-0.112092289734144,0.0660964692040932,-0.219486434398127,-0.131899771989716,-0.945705905066485,0.273051374883144,0.259564183092854,-0.713190382484037,0.330174251448963,0.386180953201515
97.505,-0.440350323530452,0.254491397601518,0.852287123437129,-0.140061728914032,-0.106571974168358,-0.0440203316257951,-0.992672049254713,-0.0443366970751019,-0.0317238396119871,-0.140474798624687,0.135049174134041,0.0208727844957009,-0.725525247108852,-0.0304684964447824,-0.16457654621512,-0.131871055993936,-0.17473888035801,-0.257791581871499,-0.950946436224652,0.24961878615859,0.264434966209055,-0.697358538434252,0.360114044878299,0.42500365717765
97.51,-0.448264490129252,0.249579186483547,0.855069391949727,-0.124310024501062,-0.0917268687743863,-0.0399893180651026,-0.981627406163266,-0.0487888518340385,-0.0506805779398215,-0.11371916394747,0.11775807024877,0.0179552590869873,-0.734165734077355,-0.0416232840473028,-0.205627191699273,-0.264167161602267,-0.0537207869329184,-0.339718872585672,-0.953710369428921,0.235329134474308,0.258309459520014,-0.677677955498077,0.370699485734437,0.469621252634561
97.515,-0.459034712699414,0.249194560652074,0.851691040467778,-0.102738686621157,-0.078874188754675,-0.042052954652668,-0.978316451766833,-0.0513794199839568,-0.0393971406780848,-0.0814254958386215,0.093535076120204,0.0108052433120619,-0.789077293481421,-0.0329537884848371,-0.246504990980687,-0.399242384273462,0.152875904148875,-0.43391652196988,-0.944836157049452,0.211036225557325,0.264650004080364,-0.666593635803304,0.380266854347822,0.495454781604239
97.52,-0.463295778062131,0.253327305985177,0.85001171323072,-0.0835636407910031,-0.0654793428203393,-0.0431694204483815,-0.988193374564405,-0.0458298252660302,-0.0475224101893831,-0.0492351774664465,0.0505635791748949,-0.0026157959063599,-0.83975819352769,-0.0315590417529678,-0.270581692283844,-0.484925068377955,0.293988007662378,-0.481653431627175,-0.941580510616424,0.190973738466978,0.261667621719006,-0.627539102592303,0.416316776681239,0.500729025722339
97.525,-0.466347784002488,0.259141202422158,0.848808196432233,-0.0623701568558128,-0.0540252726791329,-0.0302540022501724,-1.00167991834187,-0.0361521737131964,-0.0565855957031291,-0.0685553881994791,0.0129086135753071,-0.0152539052963393,-0.911175506863449,-0.0403185264264235,-0.273094815965647,-0.546776305616882,0.389069422103926,-0.529842332908805,-0.933985219400385,0.17977236711348,0.258714553047557,-0.594049413152204,0.484930192381242,0.494417855608344
97.53,-0.459998945459671,0.24589291534211,0.84745396321761,-0.0501620285511794,-0.0334332288148194,-0.0220230780721177,-1.02540171733048,-0.0344004521076312,-0.0564134577587531,-0.0894563802346772,-0.0216551191907419,-0.0220131960074715,-0.956737436721112,-0.0455233307564449,-0.235286604201075,-0.531937079131882,0.399610121252457,-0.581152397598451,-0.938189860180854,0.169789351327093,0.254700173239459,-0.552761315716256,0.549892065778502,0.486391422127239
97.535,-0.451496992981945,0.247187663697217,0.843885872712522,-0.0306980329777318,-0.0304223629222182,-0.0158331221741916,-1.03876781791489,-0.0414760147334677,-0.0520991072913422,-0.131010594044938,-0.0484595784329651,-0.0321440100669861,-0.980806968076683,-0.0936259518926987,-0.220132956746285,-0.495111633198868,0.301878748247727,-0.65824805640796,-0.947251954387424,0.167296518358308,0.256736677995012,-0.512590659143707,0.650453803299407,0.48060592754778
97.54,-0.446905092168695,0.256922931830488,0.844748845159532,-0.0241155446274864,-0.0146855016926271,-0.00175124278713738,-1.04072538385352,-0.0541970663476966,-0.0502840183040465,-0.190733001218245,-0.0610274406732114,-0.0318042300466923,-0.977426308611908,-0.113314835335748,-0.230511841949901,-0.489342880921994,0.226224388037987,-0.721980659447535,-0.962923088407933,0.163530367430444,0.259576828448352,-0.47337656471468,0.725947461729723,0.475447189272541
97.545,-0.44461241778777,0.2621975003367,0.840331538096676,-0.0197312601513676,-0.00718233302878456,0.0103108780472045,-1.04300728727307,-0.0614342414542619,-0.0422312619849649,-0.223719950883384,-0.0658715920288155,-0.0314883488444967,-0.964560500877609,-0.114890715657209,-0.233633254695174,-0.464483237332648,0.168011887612699,-0.786927835402132,-0.969970695737204,0.162811549150066,0.261713703545264,-0.444042743766572,0.796427215133323,0.46252826592664
97.55,-0.439682113039181,0.260547351295237,0.841989731892649,-0.0205407967092864,0.00268588457707079,0.0242703728219102,-1.03685374075959,-0.0664926575775442,-0.0395590885218836,-0.255517745780183,-0.0682709488317054,-0.031413920701527,-0.946174370380303,-0.116247268175017,-0.217612507288201,-0.483137963566837,0.0750281569799352,-0.846025284514246,-0.980255503883789,0.161656151175718,0.263751389235477,-0.418325481013526,0.841916949799584,0.44314340038134
97.555,-0.439535663962962,0.260722902898475,0.845267565941112,-0.0247129240620515,0.0116624784454215,0.0365908630887476,-1.02194046920496,-0.0672497219338513,-0.0404661034372074,-0.294457045486396,-0.0616826810127404,-0.027513344607185,-0.928336133895622,-0.111072687706254,-0.196869524298195,-0.598768692603659,0.0213401658471039,-0.86933991846794,-0.995065233546593,0.158246189361001,0.266048357339578,-0.401221417313271,0.85470914429816,0.446129865521736
97.56,-0.438717019316644,0.262511031500202,0.845520978802292,-0.027069140235032,0.0234974822567583,0.0521108236252237,-1.00669595910403,-0.0742390241416704,-0.0383879611587094,-0.306648969650269,-0.0540525367412202,-0.0242310583425065,-0.920369678502206,-0.0928462929588486,-0.195017129305963,-0.821686778895579,-0.0306068764935364,-0.864886889899946,-1.00429913517977,0.155135650142437,0.25960641014192,-0.396071373920068,0.840068828779566,0.45127988563272
97.565,-0.440177490186558,0.259047385969666,0.845993050251965,-0.033181210455839,0.0369358401585489,0.0673134539670669,-1.00047909731355,-0.0780092939071152,-0.0398590146998498,-0.315368220059333,-0.0492293852312679,-0.0206857352188053,-0.905461293615806,-0.0753261706636873,-0.221092231021893,-1.09440395254675,-0.0784177446342504,-0.846034572417685,-1.01142091497874,0.14791696480028,0.26516121388138,-0.396549885863086,0.783380632425855,0.429527172802626
97.57,-0.441988884286875,0.259212432435375,0.846153428372565,-0.0376826899756857,0.0470441902393898,0.0796103936576347,-0.997276603862798,-0.0831254334796105,-0.0460630755172453,-0.313741082780301,-0.047494924275264,-0.0189512720584797,-0.885300417600623,-0.0849667421743784,-0.194020157109801,-1.38356070397249,-0.135636637865863,-0.824977718102425,-1.02030385206936,0.135232267607793,0.268166383027354,-0.400871935244146,0.699518473963154,0.387916480698502
97.575,-0.442551847983181,0.261415744332912,0.840065302925044,-0.0417374062611216,0.0589455434243562,0.0963924380797897,-0.993618153943639,-0.0857298960273973,-0.0524281728378235,-0.293811370822607,-0.0448807577159031,-0.011600580083785,-0.867420718629161,-0.114226045495624,-0.185391878841644,-1.69208553911929,-0.248491532719578,-0.823735915612753,-1.01642229556633,0.125034291603951,0.273802407724591,-0.402786703444506,0.605813704824855,0.329147235058765
97.58,-0.448991564388892,0.261232236027786,0.837764227018011,-0.0589938199722377,0.065272506387208,0.111678830494612,-0.996639208699229,-0.0897672187762156,-0.0624587522867541,-0.274477947097603,-0.0496924072504044,-0.0154136332390339,-0.87563276801568,-0.145864689400068,0.0377817246101108,-1.66964642120965,-0.357145232995522,-0.804116338386491,-0.989966876277694,0.118093917081365,0.279297874021368,-0.380341130175317,0.462413260173195,0.201092512057048
97.585,-0.449314107933428,0.26757643346172,0.833160020508939,-0.0677917450666428,0.0707364740071211,0.127040471836589,-0.988853472399279,-0.0841221791006284,-0.0597420863324531,-0.241489551886804,-0.048832429526504,-0.0101535059511662,-0.898591559514199,-0.17195789225329,-0.166404483016978,-1.53567976618605,-0.491454571162552,-0.794665386401403,-0.954593601809994,0.125310539688458,0.285043182730259,-0.349491523059176,0.372598858151374,0.107850382258778
97.59,-0.452421221188707,0.262110708543535,0.836173674284227,-0.0726747092924432,0.0805008556455113,0.137889950938985,-0.984211040293607,-0.0879522635997385,-0.0575002439069428,-0.219960768999571,-0.0427701987027942,-0.00679438976521331,-0.9181781286355,-0.146930260934094,-0.179386617275135,-1.47610807173669,-0.605818858086871,-0.828402860492761,-0.923186009790766,0.140484926964549,0.288919623147779,-0.31321632567097,0.293936343515761,0.0481669819244202
97.595,-0.454909720209196,0.254154439688375,0.837160562499992,-0.0807046838079051,0.0896895284737232,0.149715371190593,-0.980404287288569,-0.0890431244570411,-0.0580611185336649,-0.196840285814877,-0.0302171928470708,0.00113571852250364,-0.922458585450121,-0.140374856219426,-0.170121790944283,-1.22677310977298,-0.739866904403915,-0.871826943635058,-0.912307835879756,0.151778658156748,0.301733825407213,-0.283533327614568,0.219059404039299,0.0289213917938309
97.6,-0.455641262435827,0.252295393375301,0.842074140727517,-0.0780624217272326,0.0961051297038025,0.162563507497003,-0.977519451525935,-0.0859355641698054,-0.0542192487533069,-0.16474714091833,-0.0321091719391149,0.000919118228836905,-0.906161882951102,-0.209553160408909,-0.166260621717317,-0.863788287283679,-0.763432895283643,-0.864206867675642,-0.905313587894334,0.151264555223873,0.31120471797496,-0.262618057390668,0.127383647899593,0.0174623951680001
97.605,-0.450772211432878,0.248188494073475,0.8453705562271,-0.0751561513143024,0.108667328547857,0.177188269596838,-0.985825828352565,-0.0866284938353975,-0.0491893510909698,-0.128625849587197,-0.0374467786770143,-0.000379949808120728,-0.926304825880285,-0.279569030043132,-0.193092116986681,-0.563900566483701,-0.658861031371621,-0.819916398874053,-0.900144589611341,0.135044846613049,0.313993442200786,-0.244797007098151,0.0319037411637171,-0.0122684113978147
97.61,-0.44432591673339,0.251308985857817,0.840851320553487,-0.0770547749608868,0.107751484125408,0.178241706094157,-0.982207475488713,-0.0790844646771957,-0.0345296045831497,-0.0966986661590413,-0.047115304818108,-0.0062307116886332,-0.931919871852327,-0.302514921745222,-0.184701863934717,-0.370804123226605,-0.549375733543218,-0.759081861186803,-0.91347342603879,0.124411675594921,0.324305615458846,-0.221888245627427,-0.0483848008456264,-0.0673267806066795
97.615,-0.435874745616254,0.255606007531027,0.842341041171837,-0.0770821992896278,0.107797191247061,0.182171130040345,-0.991628739018065,-0.0624241690831117,-0.0230118830371471,-0.0613691027302997,-0.0298843521124742,-0.00729102485331266,-0.929456886750319,-0.329497745019752,-0.163129919445411,-0.168771025013819,-0.42800572713868,-0.648986576972071,-0.931068619183721,0.118431444828765,0.331896760995446,-0.213862492381783,-0.131999028330014,-0.116741401161924
97.62,-0.434274442303039,0.260511273021613,0.842496730202901,-0.0784793243241138,0.103358139912481,0.181463717478968,-0.995542598798638,-0.0531570058675095,-0.0108301992939043,-0.024873860891746,-0.024367705529814,-0.0146257841949574,-0.923621623701816,-0.359858927840479,-0.113596346807067,0.0392182239570024,-0.25869727664014,-0.49801468354376,-0.947522312820293,0.109874239043191,0.339755445751426,-0.222069918639061,-0.208200768583296,-0.149300375191215
97.625,-0.433769614823084,0.261958038648318,0.844977285944059,-0.0764431991206513,0.10963657918963,0.172248216578482,-0.995088514714592,-0.0373442315671908,0.00180779914857047,0.000793151314957939,-0.0165169052716103,-0.0185004901998605,-0.923537261968522,-0.381459926925354,-0.0802401889038579,0.27789613676124,-0.0768059305085219,-0.291248147694219,-0.967800435443621,0.0968715955959045,0.348357056325381,-0.230872203344531,-0.30785331815395,-0.188452392826682
97.63,-0.434154398112591,0.258521763903617,0.845397419148228,-0.0696643429132024,0.107217109415106,0.172155592556949,-0.997976879018315,-0.0353461923469435,0.0155855271980643,0.0160597059576302,-0.0153903853191988,-0.0232138366523551,-0.921089477732667,-0.382481377499314,-0.0520665426109699,0.530195521940221,0.0784977113999727,-0.11630867695528,-0.982868919552899,0.0752509277068854,0.355312725415584,-0.254037333009601,-0.470441088582945,-0.262200617278417
97.635,-0.432447568650093,0.253272981089645,0.850344381879483,-0.0590109081101432,0.112598356048854,0.162641231073143,-0.990164537048041,-0.0256906038636003,0.0136505849638598,0.0353509324505573,0.0115455463451249,-0.0305413091439161,-0.936408859802895,-0.371680730888051,0.000844642309168851,0.950603623984242,0.305684591496093,0.14827164934557,-0.9781222646939,0.0615999677895333,0.368884877194633,-0.262423947269835,-0.573657393351309,-0.327513140232072
97.64,-0.436180129268693,0.257017197206575,0.849823354040805,-0.0545863874323297,0.11540664483684,0.158546181524272,-0.989731895793063,-0.0269466379631017,0.0188832165414045,0.0721020825298362,0.0298746993174637,-0.044610444307578,-0.958920941895567,-0.335522831738294,0.0423513055739594,1.27268259425176,0.483610101593312,0.353681369211474,-0.964177268761434,0.0468868552975212,0.365942223075263,-0.270951634535462,-0.648492714761324,-0.37913132795244
97.645,-0.43453145521365,0.260820221153356,0.849238302122473,-0.0498499221665326,0.130747870613815,0.156761735677719,-0.990202678320664,-0.0192768660576154,0.0341484682043252,0.0971459270950936,0.0660167626873275,-0.0542849526915963,-1.00639311376791,-0.300004715927556,0.0969134658242441,1.6021635398344,0.646143291441075,0.537749973097888,-0.944213864806725,0.0221566936341084,0.369675935564683,-0.268441086000051,-0.692947037737669,-0.437096728437575
97.65,-0.433056278541375,0.255221655449296,0.850324603011566,-0.0416236517213402,0.148678492694016,0.153676426687843,-0.989060985095996,-0.0151218112857978,0.0466688276818277,0.130803248557978,0.0984298462587097,-0.0820294176511779,-1.06449216679141,-0.256548932621271,0.115720486587112,1.80822281138965,0.776634778960141,0.646463386422721,-0.921127526297402,-0.00383195681804375,0.371292637616221,-0.256973078144968,-0.69408527437127,-0.50757767278967
97.655,-0.425726384888081,0.243133054635366,0.856958445304417,-0.0344152428883715,0.172671302513651,0.153902876976853,-0.993394910797292,-0.00403223916170754,0.0637975454469561,0.159666142215755,0.132721966509408,-0.112874562393783,-1.13844935520007,-0.234678292565658,0.193387132406565,1.8636879426475,0.877708165684404,0.664367764521939,-0.907426405364355,-0.0254695226853566,0.36935056070343,-0.240727110357096,-0.649094532151175,-0.571049706591803
97.66,-0.42196949289188,0.240271352579394,0.857124644599914,-0.0199439404913612,0.182472643921533,0.150431364355404,-1.00040356524774,0.0107069578943327,0.0693116384331611,0.205660345096074,0.193503772166074,-0.15070103390362,-1.21277563032226,-0.133118788110273,0.207464504395744,1.81790465335708,0.906489708585478,0.632996386481449,-0.91000825154212,-0.0480226525314668,0.371266154046842,-0.21138069374879,-0.584349293672951,-0.634110416219727
97.665,-0.415264077174371,0.266952167148159,0.851193516922428,-0.00540937855046115,0.191140069109973,0.134695288630413,-0.998564480104853,0.0266148388157119,0.0942851596477478,0.259254216724679,0.245485082385446,-0.182615778689867,-1.27055119195696,-0.0592617388868537,0.225206053655745,1.67228285388007,0.934440599719844,0.561682696619772,-0.927119158342565,-0.0645375718982401,0.371400995551915,-0.179640354614449,-0.495138472328997,-0.695670321687495
97.67,-0.400753131670468,0.288533268193016,0.837505103513151,0.00383357554384574,0.185933820684991,0.113519904821685,-0.987286962168753,0.0442438997664561,0.128365590527465,0.329776548112806,0.3084297055736,-0.22134603630455,-1.33072639947115,-0.0216737922731952,0.244721616236451,1.48562045439938,0.941775035472352,0.499219767494357,-0.9567811176525,-0.0778341183358027,0.360266960642139,-0.132264797573055,-0.411394357394529,-0.749605611474875
97.675,-0.37582807879352,0.304459466132374,0.835184320800804,0.00967849333394223,0.174944076966733,0.0740789226668862,-0.971547081733875,0.0658794880102403,0.166511824501658,0.402432852230031,0.369765140109301,-0.253726924772395,-1.36361491065376,-0.00459256718322969,0.255866535292777,1.23405657141163,0.935063464613015,0.445220727860469,-0.990511847612051,-0.0887944095483884,0.344956039513536,-0.0829691999299138,-0.342416196118238,-0.799079574543308
97.68,-0.358202355105027,0.301775997882626,0.846519976570839,0.0144888846493008,0.15574186907995,0.0260668413890494,-0.957109500338223,0.084241641505413,0.196624800207732,0.441787981903252,0.439782034134237,-0.277972205337648,-1.38378222559448,0.0100196932439487,0.289230041621908,0.850441861750481,0.845966373604727,0.408593385181199,-1.04010644404611,-0.0945559330973077,0.32147415102344,-0.0199039201846076,-0.252280789649705,-0.8508494353358
97.685,-0.356155156786332,0.282593809615713,0.862065137971472,0.0203845224068081,0.144627454297999,-0.0163798147013161,-0.945747567631415,0.0840932209617304,0.202671297846269,0.461574943586361,0.486854091514933,-0.293697852004664,-1.38462886962679,0.00503587414714007,0.30205054559606,0.672536996907839,0.76546288859291,0.413073427787492,-1.090005994125,-0.100914495601184,0.289336411697019,0.0321720703994901,-0.163710380508034,-0.889129342383509
97.69,-0.369145315676351,0.273996442500501,0.864054894733889,0.031533934860511,0.129778414964676,-0.0570565490750049,-0.942194875219668,0.0586060309833601,0.191032013469521,0.472393309852118,0.566409715526717,-0.305940742414689,-1.42033477731088,-0.02197954805336,0.354535976616935,0.408384903399468,0.529310186178852,0.458985856530413,-1.20035806361657,-0.112455037511975,0.269991642293831,0.1084442745093,-0.0469697326375357,-0.957698603283723
97.695,-0.378746358270781,0.276052512575307,0.859342805715268,0.0419255114351594,0.130025027021021,-0.0913882863209438,-0.939661576097552,0.0218279677040776,0.171030104059297,0.497684922822916,0.623159406309083,-0.312432146100676,-1.27416804673076,-0.0163320938554459,0.323915817974566,0.322340595747393,0.371152476477748,0.482743748567568,-1.32443394011291,-0.224525971144917,0.209681269424843,0.241278882892805,0.176989556719591,-1.25124684960512
97.7,-0.397691715105253,0.284014319096326,0.848699832456388,0.0514658358147593,0.132598409191308,-0.120480182926537,-0.944037709933553,0.00115650449648393,0.141442814206471,0.556532199562545,0.6889311661438,-0.333451321232169,-1.10244358211736,-0.045650320410607,0.314443308387164,0.95544785824833,0.0405586174430387,0.866104846593771,-1.26722469477623,-0.116302540505889,0.278836728862964,0.51917699853295,-0.161068285341475,-1.29316872303584
97.705,-0.414983902578234,0.297393991545669,0.841039055345707,0.0512484599662332,0.13980198005421,-0.144175145427688,-0.950916117209636,-0.0108640082382551,0.114886991327767,0.593480854736504,0.765368385911068,-0.34609310553129,-1.01190855638031,-0.145491994757244,0.312144484029982,1.89959766985691,-0.0702321473572889,1.31517512633452,-1.32897787440148,-0.0499971537493514,0.231343591457865,0.328629927946211,-0.498110535380504,-0.817577813503654
97.71,-0.427044002179624,0.289836347754931,0.84219917582604,0.0520179105931278,0.146502763886115,-0.164498949162526,-0.957026697251765,-0.019497065022713,0.102488372116002,0.618550141469192,0.825921138427953,-0.359590029654906,-1.14072762421193,-0.241995792835476,0.394711676762653,1.95448818649356,0.0881336902642472,1.36118602589104,-1.22287808018548,-0.0238312493932114,0.121580053454507,0.250346501790975,-0.752982069710459,-0.636607399525113
97.715,-0.425579829891596,0.274915359093202,0.847892687190666,0.0522545278952181,0.15679840824005,-0.174839578041041,-0.967361088314787,-0.0370620208420398,0.0948193717752407,0.590532463900644,0.890200461096191,-0.381341690692148,-1.12920871622651,-0.248664554656745,0.328521310103661,1.24639478540882,0.360715113347337,1.01097224721159,-1.2153238983417,-0.104442901290669,0.0861301680215524,0.140127472891854,-0.677139723059153,-0.487655530083011
97.72,-0.412510592688124,0.256387844934356,0.843353319405796,0.0687074994820351,0.142429372109763,-0.190179408217048,-0.978818793926698,-0.054842105773294,0.102775506077489,0.577188164659296,0.944381161586336,-0.387450096279741,-1.23402746221535,-0.232955017597089,0.330246664083623,0.661695769153568,0.111687875569116,0.73214748700877,-1.10573359931146,-0.117819054193125,0.0156155176577337,0.108016267501616,-0.509103890366676,-0.568808852213694
97.725,-0.38523983370633,0.251344685212842,0.869969993844953,0.0823869503813743,0.152329304371929,-0.211315723660183,-0.991828729814432,-0.0703421245311885,0.11214515258213,0.583966314792633,0.973820397652928,-0.398067071997032,-1.20295879343175,-0.212879520727672,0.299407123656662,0.0988754105842533,-0.141388238114586,0.388345777230313,-1.1236200738045,-0.128117817334835,0.0246405645141838,0.157936000283428,-0.120255746065755,-0.812956046174921
97.73,-0.376644440095406,0.240936889858141,0.879183508336397,0.113628348955306,0.160403584280944,-0.231180968240083,-1.00258294851479,-0.0665090866631381,0.116802776240006,0.591176498930016,0.986204502212515,-0.399112926125413,-1.02185008816124,-0.201099388471279,0.20582001922958,-0.286896565819745,-0.37512470244114,0.17812646382064,-1.17609273295308,-0.0332841274769423,0.0817791355481731,0.217988985886305,-0.103862632937384,-0.86820876485813
97.735,-0.392318023035398,0.241802678322582,0.871313286664193,0.142487159289167,0.178101018170033,-0.246179373934357,-1.00671183727913,-0.0536459803721002,0.0960498106698919,0.619308060190891,1.01441582933362,-0.39000078284838,-1.03668087728336,-0.225519800469857,0.277805156316459,-0.0121906683832532,-0.365652318811953,0.0700192286858879,-1.1770837939342,0.0176954599040978,0.0949476295171836,0.16883509014543,-0.236040988273251,-0.800137349013793
97.74,-0.42494331761558,0.260531778761307,0.859124479517124,0.167710732366793,0.202702009623733,-0.252975488878683,-1.01750652551072,-0.0479423409508629,0.0673250514555261,0.64113288487394,1.0593563869478,-0.385926113003305,-1.08645824292095,-0.266881469737072,0.36887216240591,0.172395799195849,-0.110526052954118,-0.105685963074816,-1.11083943553063,0.0110153301189666,0.0643448149701885,0.0456106941368106,-0.173189744428063,-0.736332103659264
97.745,-0.455410125599581,0.285030536834097,0.843923535635198,0.1886628185807,0.227005608525776,-0.255967481627343,-1.02156214079059,-0.0655875343291307,0.0521579946964905,0.645051002502441,1.10028131652943,-0.390905360894411,-1.01755850300808,-0.293120961389298,0.333121240341343,0.202285195641834,0.0177181125610925,-0.233470682253969,-1.08716310412816,0.0353514996719015,0.0668200129947177,-0.0768384508423405,0.0557567834312561,-0.656081013119336
97.75,-0.465347574389711,0.288083856978152,0.84706154225519,0.198407927209889,0.250466709122469,-0.249380047300187,-1.0190397452552,-0.0808786425403115,0.0465793490797735,0.667666307525899,1.15836242251873,-0.413625090871268,-1.00124569033565,-0.278994200133344,0.252261263419054,0.358392954909691,-0.128623066858363,-0.309120075516943,-1.06289435419557,0.0557635929561507,0.0954293624065477,-0.148354533450976,0.216888943537383,-0.572966935669932
97.755,-0.452833081944361,0.28179224797796,0.852646666245348,0.209050552911602,0.274366692923978,-0.244934584140774,-1.01318546055362,-0.0821602811619486,0.0580015475362214,0.679355345445727,1.2044389243537,-0.423183156211076,-1.01377037043711,-0.24889631092055,0.222722784298529,0.432192510812149,-0.393363619262423,-0.327041924171177,-1.05118557021139,0.0653785393588293,0.119473579489699,-0.164636567234993,0.286518684698949,-0.516687126193413
97.76,-0.431541274714936,0.280953773886735,0.864069783102494,0.219001614476891,0.299136678670278,-0.250291948044587,-1.01015244467776,-0.0787356726241672,0.0725196233609382,0.702076629147949,1.25103800501301,-0.44590443078648,-0.992559618059378,-0.217067543507715,0.219764964511164,0.551775029014893,-0.643573830470722,-0.308296238617749,-1.05440024323109,0.0701403797195186,0.147787671680951,-0.158821620784374,0.292557746832338,-0.45972183412787
97.765,-0.419319295169911,0.282019070109266,0.86976518702009,0.23659938631335,0.335559158855172,-0.26369038281718,-1.01991352892042,-0.0656029291810784,0.082699150913533,0.707153809121098,1.28758797130374,-0.462587737439539,-0.993006620421252,-0.223916242177417,0.268137128272293,0.848034759059024,-0.766452728423832,-0.269035628433613,-1.03868334207604,0.0626271238393894,0.169915827461084,-0.136530173071154,0.242793253285582,-0.434159162918493
97.77,-0.419993592600345,0.281928833152945,0.874999663876732,0.253861460118434,0.37914828115395,-0.276281172110984,-1.03651654056562,-0.0459984893216613,0.0784457155663327,0.688527733732135,1.31783903921495,-0.48467530702579,-1.00675051539877,-0.241316143617324,0.300739450838005,1.10091426262174,-0.806823518939987,-0.255683451890945,-1.01314936887718,0.0576824945170519,0.185175211138017,-0.0858233011884354,0.211976323874235,-0.450815196482896
97.775,-0.424895932185982,0.284749655973424,0.87599316833812,0.28648259390458,0.424099413549507,-0.276505328027722,-1.04834428965144,-0.0383629419513267,0.0702601026196221,0.638251533592092,1.34483438106597,-0.501561382045372,-1.02984270241669,-0.25412649265539,0.31935497191094,1.30449931100878,-0.753077168061165,-0.251591780770947,-0.987380854744093,0.0690571140313331,0.197705663714126,-0.0253461330640776,0.203570093258157,-0.450840809027907
97.78,-0.426284404219141,0.282519513683751,0.882530212990025,0.323292712214951,0.492862963750601,-0.260397426639215,-1.0622664982912,-0.0561318837451995,0.0641323374585923,0.55404851527882,1.39832713932449,-0.521016511185409,-1.0529375755902,-0.246608258870129,0.33127306893762,1.444583790502,-0.632707048243638,-0.237422863730965,-0.93971309366462,0.0679590896515579,0.211164804087769,0.059792232924788,0.231274461487525,-0.448574423789978
97.785,-0.44835406027694,0.286873767462703,0.87882957128373,0.327312889106722,0.565472757511892,-0.251626614196513,-1.07986979147468,-0.0752772399113924,0.0475099426569834,0.48864365104389,1.43484572310955,-0.541650416673283,-1.08110391648974,-0.240646856328082,0.318308746848549,1.45516898652231,-0.442455925706509,-0.244099082027293,-0.919352017356707,0.0497590464870464,0.2156497592743,0.148761069995019,0.262192407483357,-0.449452285891305
97.79,-0.453253813277654,0.30849298282059,0.895742986897762,0.341806863451694,0.650343492652418,-0.238839615949889,-1.09883880391105,-0.100296869974262,0.029581324827849,0.427640010409097,1.47878967396026,-0.558166459196389,-1.10355947224689,-0.235041760854827,0.278962841235852,1.33874846944191,-0.330286098225762,-0.275623548950697,-0.896282772789624,0.0413416352768123,0.22862873018713,0.236038642146957,0.271509627991339,-0.451312625472231
97.795,-0.439223242117812,0.321502504511606,0.891305031850195,0.360957726617629,0.733537755186939,-0.235607363482368,-1.12940795681908,-0.136911692410471,0.0288989823690429,0.365812895079285,1.51148594843649,-0.574856034993697,-1.1342728061333,-0.221019658589748,0.232302990186047,1.17132358233461,-0.26146244256466,-0.319366604664511,-0.881353139636283,0.0255084532840718,0.240158042812711,0.309486022254806,0.205048400676052,-0.442371039431615
97.8,-0.453415998096223,0.329742882993883,0.884406654084572,0.369649119215916,0.839654802250589,-0.248318839646867,-1.1564258933651,-0.165940376593698,0.0204726969369118,0.312289352499718,1.53208843050367,-0.590402964155186,-1.17493338555341,-0.199465180005293,0.202510960778249,1.04930041440359,-0.224381815384402,-0.351827106775349,-0.862480344932267,0.000179869934763724,0.246171697138628,0.368762528030273,0.0896912710408345,-0.430841345122948
97.805,-0.465312328876944,0.351674123417812,0.896546040310323,0.377926877841847,0.954512286397605,-0.258066428398385,-1.18302859579629,-0.189511898573919,0.0180060452510458,0.287998221703148,1.55884486654428,-0.60838243461585,-1.2131797656291,-0.180809296456962,0.19927925657097,0.996255407801419,-0.196047410872794,-0.377816307999132,-0.839342869199539,-0.0271925083533308,0.245551018519098,0.396862702975046,-0.0565495534957031,-0.42254232369684
97.81,-0.346006957638661,0.40510467577591,0.910824040019969,0.413135698468327,1.07508531463836,-0.254183519923794,-1.21540796472858,-0.205289678345917,0.0425644533094531,0.302304444380153,1.57251018872215,-0.612448930740356,-1.24434122470415,-0.158909999122131,0.208907428542532,1.02370230337292,-0.216357149520261,-0.418263360279857,-0.816770791434355,-0.051746172171929,0.243843317801411,0.409963300374764,-0.187172408755665,-0.415021570886809
97.815,-0.491945351634815,0.288367413480947,0.888052237819239,0.40894920728576,1.16677437967629,-0.270688707948742,-1.25472405581706,-0.223298828009668,0.0742013381294576,0.346212761441373,1.51811716778892,-0.61833584051262,-1.27748469557339,-0.197533386832746,0.212144215270144,1.04642132893968,-0.250285303408169,-0.419560280920149,-0.802019425830884,-0.0851457398690803,0.233396340973465,0.411834507206017,-0.328780846116845,-0.426335501407937
97.82,-0.539945076144264,0.378469412839814,0.909425806982878,0.430518578031965,1.31033117518407,-0.419391244995834,-1.27563497722823,-0.21944356666271,0.0610881684182377,0.397026016725047,1.4899266870642,-0.6159693434639,-1.33043009099316,-0.255889077435454,0.226677983295931,0.998621385361391,-0.283703904208839,-0.390194515019397,-0.776045061319705,-0.102432493864503,0.22356519351299,0.401411997878415,-0.395291778467872,-0.439973924298679
97.825,-0.514011647799694,0.391506380003172,0.870848403261929,0.427528553650502,1.37134560952477,-0.451231851764086,-1.27421416930573,-0.19487732973659,0.0435653770620601,0.475968688374603,1.52916067829458,-0.60841722645058,-1.36132463336368,-0.283148355691823,0.242913097366556,0.937719638830774,-0.341969853523619,-0.359349522764781,-0.768899256024783,-0.118720572552711,0.216276045777416,0.400767348590536,-0.43204088409197,-0.460282468510395
97.83,-0.507430156649236,0.378419038887513,0.86816318553063,0.344749279494324,1.48443460421893,-0.492004082020081,-1.25583590627492,-0.157171373606177,-0.00926400976922681,0.539629008248851,1.61843072744864,-0.571858070124938,-1.37616269322086,-0.295285460320801,0.23649961845684,0.855742105090951,-0.446484797010562,-0.323838569533262,-0.767460557933237,-0.13965909352833,0.203011017868305,0.404850812391565,-0.432894462932499,-0.487961946920018
97.835,-0.455904352930241,0.41084796067349,0.878992062543305,0.239142915185869,1.58010888192926,-0.610614007196655,-1.23246840651294,-0.130345882580542,-0.0720484401322836,0.620901797789332,1.69651082979575,-0.541891812676678,-1.36665599932668,-0.293502408294951,0.222632055933057,0.76678732452199,-0.536037020976506,-0.273892396835306,-0.772359902020262,-0.153351383546318,0.195626358080263,0.41215116792009,-0.395224910158308,-0.509078435387239
97.84,-0.526445037717937,0.421368091725341,0.934590853767978,0.189332786350371,1.678942121236,-0.792780157331239,-1.22404874704303,-0.0809580466131489,-0.107124756555564,0.796085721068507,1.74498151670306,-0.511983288700309,-1.3305322308253,-0.270131317286426,0.213244666384101,0.607331198699942,-0.606530135792177,-0.208285962621762,-0.776204274396667,-0.179338139859032,0.190679517407041,0.423086944660139,-0.317708542067237,-0.544350115776283
97.845,-0.515469455823973,0.472976156487262,0.901802145411931,0.11651020048118,1.75847109085031,-0.921717493834455,-1.24316229102195,-0.0331874948473417,-0.0862469810213391,0.997064318691031,1.75249751022979,-0.47740824713935,-1.26040459638839,-0.189750887422345,0.252019372447418,0.427528371234679,-0.45473806950956,-0.115414056079355,-0.790021812195248,-0.196179994387959,0.193610170589417,0.447336660623153,-0.244934315859259,-0.572701438147971
97.85,-0.482420352000725,0.513836767433516,0.909448074573692,0.00771974631570519,1.87370779011047,-0.997512696457052,-1.26390497457851,0.000674121550672768,-0.11687217042912,1.03988756902459,1.7483284747121,-0.471855376765764,-1.08798568531926,-0.00328527701182083,0.314435373934029,0.59555372887435,-0.136287663662048,0.0692580089546388,-0.802455593117989,-0.203692991407181,0.198021759952478,0.465910170734844,-0.15448164940236,-0.596030060304124
97.855,-0.460041223553952,0.514346444894963,0.905131567081838,-0.0424584629439414,1.95673314479564,-1.05029176735438,-1.27117540811251,0.0262095207630789,-0.185765406061347,0.961297106460579,1.73552488248536,-0.498672875247678,-0.925075947380526,0.0252427814061666,0.198755494714762,0.965921675819328,-0.103899920851335,0.175796406300906,-0.814585681135629,-0.213200261937886,0.207181015160122,0.489359808220639,-0.0691708343732387,-0.609749660402761
97.86,-0.470552243767172,0.521693096751973,0.881367450929254,-0.0196900794253469,2.03425174221722,-1.09508531176106,-1.26849135730787,0.0487900158174968,-0.216172170430877,0.886451656368847,1.72083053763717,-0.510689458780856,-0.838313689563742,-0.0840354992315807,-0.0216164021698072,0.753360174845979,-0.208618318275932,0.25073739310836,-0.84297332048645,-0.225895617543162,0.21329064256533,0.507751363235614,0.0193766689473568,-0.625513589773263
97.865,-0.503496926115061,0.587324665906356,0.889608126782397,0.0809086469197318,2.10986518718318,-1.13714134619858,-1.27169062000956,0.0621050070232045,-0.21024034495809,0.822475643061515,1.69154729241962,-0.486630093979648,-0.756569047276956,-0.218430522284968,-0.286253693320635,-0.0333928922744665,-0.195061151659576,0.389199474733135,-0.868510431206034,-0.223066517220782,0.226691045734883,0.56047842048267,0.11374833391361,-0.652445669103001
97.87,-0.527968782357298,0.60763894028285,0.876113308901874,-0.0236187708984345,2.16584495540749,-1.14725676288342,-1.26856224991054,0.0396522477785545,-0.246276086123166,0.69108556135799,1.60543690456157,-0.426217510971256,-0.774594305716072,-0.228970478283678,-0.500390324452105,-0.279067783177094,-0.199379907375746,0.421723208452089,-0.899132814655281,-0.220457899491021,0.232327293584341,0.608035853268067,0.175461480888044,-0.64621242404177
97.875,-0.558950773944418,0.541719541737197,0.865097868113254,0.026243253069694,2.20979268588524,-1.07578490901467,-1.23072499113082,0.0120141071731573,-0.316526923980459,0.448739687863709,1.51730371012633,-0.399035067625849,-0.801871071443135,-0.141729772480409,-0.742955644406106,-0.125383393345446,-0.245261395596544,0.387077425751954,-0.947643445106889,-0.210514184115925,0.243766799760899,0.672015855427402,0.227560761786658,-0.656675843227325
97.88,-0.621842474327986,0.498155577869636,0.876847548141083,0.0335406784844832,2.23910210167375,-1.05451430265997,-1.17295831145759,-0.0231224893655448,-0.345361032349295,0.152095294416256,1.45847391777571,-0.349033838576018,-0.818515947031163,-0.0197257315260733,-0.826078452668915,-0.00698057511601257,-0.230555245362866,0.363419134067946,-0.977029802077939,-0.193491826946154,0.24693404831434,0.716687873583026,0.241094380617142,-0.657888809943097
97.885,-0.636520941826341,0.482188608923709,0.865105237684002,0.0919995229178008,2.20094973384631,-0.98568979089083,-1.1239695286779,-0.0614854835596494,-0.327025742984832,-0.0808557790030554,1.41565726047846,-0.307563233701713,-0.865105581832985,0.0502929820845937,-0.784787786646726,0.0420768056987085,-0.168685472932723,0.331561290576734,-1.0129666780293,-0.171459430764195,0.253485181589358,0.72079288518413,0.235644930072102,-0.692360699802324
