Header,foot_Accel_X,foot_Accel_Y,foot_Accel_Z,foot_Gyro_X,foot_Gyro_Y,foot_Gyro_Z,shank_Accel_X,shank_Accel_Y,shank_Accel_Z,shank_Gyro_X,shank_Gyro_Y,shank_Gyro_Z,thigh_Accel_X,thigh_Accel_Y,thigh_Accel_Z,thigh_Gyro_X,thigh_Gyro_Y,thigh_Gyro_Z,trunk_Accel_X,trunk_Accel_Y,trunk_Accel_Z,trunk_Gyro_X,trunk_Gyro_Y,trunk_Gyro_Z
51.03,-0.518707190560972,0.184316557603677,0.938121871884788,-0.363502774334591,2.34341352223252,0.0290360568900594,-1.24074570134107,-0.292970528948654,-0.0603591324809517,-0.569655364237819,2.54798020939344,-0.63381990877732,-1.01686398847431,-0.0644497026793266,0.648498108931667,-0.459389261981142,-0.00635590827563932,0.0631934072491979,-1.1636734196772,-0.0613393153451706,0.354018519469105,-0.381623119829821,-0.022745811734138,-0.420164184798883
51.035,-0.518536944589186,0.211273053064371,0.948393151172428,-0.352257863097462,2.47659839507774,0.0374773927868874,-1.29426333161346,-0.368743816176633,-0.0893067032755688,-0.549931393429664,2.59970112195346,-0.654130128207796,-1.07573497600815,0.0110906957381754,0.670896787305649,-0.449416239324932,-0.0234519483252435,0.127461535494356,-1.1411544037681,-0.00592098902541862,0.346506134546148,-0.365263698482721,-0.0295903259075048,-0.404769445972092
51.04,-0.53767257603578,0.221338479690998,0.940564574715658,-0.334613050514275,2.75027283369083,0.0616839115228567,-1.33784298534096,-0.429046534784571,-0.100790186317215,-0.516476557694245,2.69563129506422,-0.701471869241582,-1.14987866952149,0.0813321280265377,0.661836493499013,-0.425858232910336,-0.0597617299291076,0.256573356838058,-1.11762897338932,0.0950425154448659,0.326015423322802,-0.333405758909199,-0.0433332638304516,-0.372062743563337
51.045,-0.549939250527946,0.212005436063008,0.961478433492767,-0.307983866385969,3.04841930417365,0.0832382372696101,-1.35994939621413,-0.466258896493048,-0.0926858039913001,-0.47380741833308,2.78767238828101,-0.748544061361004,-1.17407246483307,0.126290869010775,0.609087922271947,-0.395543901724222,-0.100355962134415,0.386346270212263,-1.13802264713896,0.119750550248509,0.303493088201569,-0.304326270663569,-0.0584232006080406,-0.33435025203302
51.05,-0.530153329374698,0.172532794822007,0.971911566167881,-0.271509463720199,3.3712591930867,0.101362892636101,-1.37334494568512,-0.490088057119408,-0.0765748669163088,-0.422593292687987,2.87500742452482,-0.795064054078004,-1.13440354647478,0.162758593603711,0.601838463010483,-0.359409789543796,-0.145267318344826,0.51621123763201,-1.16800214605975,-0.00432125531667067,0.31816380878601,-0.278949620102522,-0.0752357127050925,-0.291580355057682
51.055,-0.527210967786417,0.148417359138178,0.965208078947255,-0.224109279596506,3.7186439232112,0.115420681703135,-1.37477231289984,-0.479899656507797,-0.0721239730901512,-0.363632602825618,2.95679889678063,-0.840737483731735,-1.09064427227785,0.0891856967729139,0.705458838888279,-0.318514626449703,-0.194456635671601,0.645671716278826,-1.12751581730754,0.280617532400453,0.374426644995051,-0.258185373143279,-0.0940075648098371,-0.243719821287806
51.06,-0.532447455026045,0.140509974875742,0.970206727344819,-0.16453114674973,4.08995793444269,0.124929692082687,-1.38564653290016,-0.460251549150591,-0.0594882851204877,-0.297896329256226,3.0321750591805,-0.885273806689014,-1.06789866318153,-0.0173603312245093,0.804282568716011,-0.274075140533717,-0.247786036134193,0.774311962107733,-1.09847177402001,0.179954396402669,0.365397785661386,-0.242896632440724,-0.114807526056128,-0.190771908507866
51.065,-0.512686148501571,0.177443462223134,0.993424365757687,-0.0914347095906046,4.48400246046508,0.129568891620335,-1.40131039539168,-0.435022312915579,-0.0381086391554553,-0.226579090723386,3.10021328673706,-0.928409544371203,-1.03789077700686,-0.104942631234781,0.823862847023859,-0.227509417961009,-0.304988931515037,0.90179482754997,-1.06004537600644,0.183923553272247,0.330808563803883,-0.233869416109868,-0.137523682607786,-0.132796071626695
51.07,-0.497300413778586,0.227592377979159,0.993156155527637,-0.0034890952905049,4.8988698555696,0.129184497988129,-1.43972472307089,-0.417166021598633,-0.00559565807751569,-0.151126622660372,3.15992863679883,-0.969934306028824,-0.995904459676338,-0.201578708820844,0.886411187381341,-0.180457181490947,-0.365645582152469,1.02785357447406,-1.00712627874012,0.15253091699927,0.315155648928873,-0.231786959616073,-0.161862265792859,-0.0699253100771597
51.075,-0.499170327208093,0.235201000904723,0.997163987947945,0.100543390656405,5.33183783063856,0.123806070916645,-1.48242271449113,-0.406907622669709,0.02334697852198,-0.0732071172593575,3.21027633339258,-1.00970978492025,-0.955579627021139,-0.29711654061332,0.912971579354385,-0.134744366635083,-0.429174070317531,1.1522851844559,-0.914875741064759,0.11238457948329,0.297927021978626,-0.237204678849575,-0.187354837784648,-0.00238106364804764
51.08,-0.492611747062548,0.232680734474816,1.02278242176901,0.221719952052899,5.77928752989376,0.11366106204302,-1.54312074701851,-0.405690064704509,0.0473606619231784,0.00534929006786861,3.25016700533691,-1.04768127614636,-0.938840116015205,-0.364900914946382,0.925467660763631,-0.0923153761707168,-0.494831498063016,1.27494564436514,-0.846064892358264,0.118122583815125,0.296846767572738,-0.250520385864569,-0.213373082076752,0.0695119447641965
51.085,-0.50642625381217,0.212559692479271,1.04195714833205,0.360780063117132,6.23661551531838,0.0991657045773597,-1.61794698333032,-0.402526276638111,0.0636841301714096,0.0825909006343765,3.27848930973319,-1.08389080342371,-0.982614628089597,-0.435529519427358,0.956310472153259,-0.0551841500012098,-0.561711365959394,1.39574239097365,-0.857152624233746,0.109927798783529,0.313013440523445,-0.271944974140704,-0.239147098495696,0.145311150581214
51.09,-0.486546016815411,0.124810265696366,1.00035126023253,0.517964587127408,6.69814957798943,0.0808931635705221,-1.68787374078498,-0.416093087447422,0.102682034237689,0.15647202436478,3.29413802672041,-1.11849009128597,-1.00732409623178,-0.527619747837215,0.903026490022255,-0.0253970683489809,-0.628739470960425,1.5146182325189,-0.865808572644296,0.0505429062539923,0.324504179122448,-0.301483491225241,-0.263791236332908,0.224441492785318
51.095,-0.487905585556772,0.265805964882507,1.09061379215315,0.692844700775782,7.15712279791475,0.0595419868617806,-1.80349080546599,-0.469231413254535,0.181886140659841,0.224914265663149,3.29604812316959,-1.15174103423458,-1.06628710105016,-0.620066335246048,0.82892661223003,-0.00496272994164432,-0.694685142053682,1.63152189985019,-0.899259397339183,-0.0225147428499842,0.323489664884653,-0.338927190401384,-0.286355809505832,0.306185469037217
51.1,-0.498725896125806,0.29652690410946,1.0589387226404,0.884179428307384,7.60571478134428,0.0359068488562055,-1.89789496458699,-0.519304344078353,0.222792711528429,0.285902332974048,3.28323903295327,-1.18400144626677,-1.16242594823142,-0.723220698779086,1.07030120500702,0.00425158618881902,-0.758192268847961,1.74637209032668,-0.953054390838215,-0.0585255305167241,0.346363537423958,-0.383847228895527,-0.30590274398583,0.389690666769341
51.105,-0.527030932863144,0.243982170725887,1.08494906921561,1.08978041736101,8.03513147424496,0.0108281617428596,-1.98497798091313,-0.587990364053006,0.232541089617094,0.337575307468515,3.25487097585491,-1.2157039245824,-1.24549234284436,-0.984487973199889,1.4294773876835,0.000618831330244943,-0.817818574219149,1.85902941678077,-0.937261374940659,-0.0584333519524338,0.331758857895402,-0.43558693321578,-0.321573941048636,0.473996349917954
51.11,-0.572841789889851,0.146965321933436,1.05862596842545,1.30638682512734,8.4357326768938,-0.014881533302999,-2.06469409944342,-0.701419871846488,0.244654754080354,0.378297751789693,3.21030522446043,-1.24733065886691,-1.2802245984187,-1.24424745539225,1.15485516572848,-0.0171691164247477,-0.872077115270257,1.96927847643615,-0.954946963508436,-0.0895942253394505,0.338297721815534,-0.493261865202516,-0.332637927411408,0.558065593830133
51.115,-0.610589839767542,0.152966432780729,1.0353403618701,1.52958736293374,8.79723416811827,-0.0405094330881877,-2.14792468309722,-0.83010730111112,0.311464730918712,0.406724546232592,3.14915993213197,-1.27938107669342,-1.26829334840217,-1.27244683384258,1.00505227327903,-0.0500310841704696,-0.919485492797958,2.07681452234472,-0.942459119243233,-0.164830989671322,0.320267188468927,-0.555774124639807,-0.33852960171587,0.640814852980702
51.12,-0.563367323490216,0.230386752359441,1.02345656873195,1.75381931555011,9.10899091617443,-0.0655045947010278,-2.26105524244657,-0.963563009222145,0.494260629802269,0.421867140935431,3.07135829026183,-1.31233114272371,-1.34420145221261,-1.27862971392885,0.707553028484378,-0.0984286627960678,-0.958626379749346,2.18123779087985,-0.890990343378879,-0.120670415490688,0.312841502288648,-0.621836416508576,-0.338887350178902,0.721144411732752
51.125,-0.517478442666844,0.225011320531276,1.01517887606184,1.97244998897472,9.36034876759641,-0.0895435635226915,-2.34439059979967,-1.0414088862559,0.782035771062819,0.423149545819987,2.97716416820973,-1.34658773855405,-1.4221279368892,-1.1887669327768,0.412044969894319,-0.162312526728562,-0.988213365842904,2.28206254094766,-0.885671402226146,-0.0943551788481212,0.295050112335091,-0.690002680631447,-0.333568494402224,0.797972079027186
51.13,-0.50271805491055,0.271437057240768,1.06883157712953,2.1779331576729,9.54103220064861,-0.112601435636187,-2.38308380956959,-1.03593604219772,1.07959796476554,0.410438115002924,2.86719779939612,-1.38244311669833,-1.51343339608719,-1.0390717792466,0.537349493530893,-0.241097847833663,-1.00715160821413,2.37873586333926,-0.940852371252155,-0.143683368855241,0.255267076836383,-0.758717830406144,-0.322642075755604,0.8702657919446
51.135,-0.46977629404097,0.48154997172252,1.12972278035983,2.36203333123671,9.64153995714991,-0.135016652480824,-2.33386923747714,-0.898876874443439,1.24658707116903,0.384039754848383,2.74242569355055,-1.42003334112671,-1.58774672820134,-1.02039577474837,0.629754582459964,-0.333673400941484,-1.01458626478937,2.47065723169369,-1.00477894534969,-0.154564342363206,0.203754713994012,-0.826396844311368,-0.306376354947716,0.937068693078979
51.14,-0.518739837449873,0.730159828749635,1.10266911014124,2.51611517090124,9.65354510111443,-0.157533445697561,-2.19550024939499,-0.704539646724021,1.2483469839533,0.344672646220271,2.60412404112506,-1.45930577686905,-1.5431483407946,-0.984041187494151,0.522371929389757,-0.438441835597939,-1.00993776672635,2.55720353420626,-1.05165107607134,-0.163472373728641,0.125930003856668,-0.891514170744349,-0.285216653951389,0.997516084193239
51.145,-0.679444456177507,1.1172722491851,1.14460113686975,2.63149912350272,9.57029335285308,-0.181305794556487,-2.00243316732325,-0.462490105111393,1.14030274577827,0.293421491727927,2.45381995654003,-1.50000000642766,-1.52940602438082,-0.861970558120339,0.302181008363102,-0.55338279196059,-0.992928779797312,2.63776319329947,-1.06328799405897,-0.163911502399845,0.0465889196186331,-0.952679885698778,-0.259756168170042,1.05085704857404
51.15,-1.00910634820195,1.47530323208464,1.21540886835995,2.69987631394488,9.38696442704465,-0.207863161006098,-1.80271308365644,-0.150521762786433,0.983393636712768,0.231690104711282,2.29321747906267,-1.54164146565326,-1.54689708823448,-0.551714047796714,0.00899994320223433,-0.676127443441919,-0.963606745138229,2.71177310930941,-1.10897655142179,-0.136125697890031,-0.0308413185311389,-1.00869837875899,-0.230719459794632,1.09649349223519
51.155,-1.32094041301897,1.28515592921485,1.00909366037845,2.71375323042184,9.10095511956965,-0.239052729114491,-1.58593199708143,0.286127537341342,0.675377732632962,0.161148371595688,2.12411287465496,-1.58354546690305,-1.58901202952906,-0.326971125941819,-0.180326619162121,-0.804042816936004,-0.922354771171792,2.77875260852764,-1.1692320413471,-0.0855579769869489,-0.104337437638841,-1.05861633789463,-0.198951124223582,1.13402349723348
51.16,-1.91549136702506,0.590744803569734,0.630729439048887,2.66687937812229,8.71206863947252,-0.276962787411073,-1.34334944224418,0.645685964101549,0.149944673226478,0.0836548703606925,1.94829693202853,-1.6248347479854,-1.61214862628351,-0.11124952334229,-0.353850163996173,-0.934337761951708,-0.869875008590573,2.83832319843144,-1.24909519910091,-0.0818503288839268,-0.156519849716798,-1.1017737616978,-0.165395092372598,1.163256250233
51.165,-2.84129548056615,0.361068179188632,1.29823700238712,2.55461590297121,8.22260444528316,-0.323812765086526,-1.0567386614673,0.81634528850754,-0.716232203238652,0.00114593651916994,1.76745015748638,-1.66448277732478,-1.56693761294787,0.127910041294257,-0.540308816502473,-1.06420110241942,-0.80713953889463,2.89021007707228,-1.19392103954614,-0.130570558482365,-0.172555252710185,-1.13784274797624,-0.131069925000093,1.18419621991541
51.17,-4.10753820254658,1.91675043357639,1.70807067461426,2.37423796003871,7.63733610272504,-0.381802879652262,-0.845562215040243,0.835415435955169,-1.64528389795532,-0.0844835273724162,1.58305308342997,-1.70138708319674,-1.58211706535882,0.32127368974479,-0.618356605399797,-1.19095504707693,-0.735327062061577,2.93423980267618,-1.3116973296899,-0.0357732239211518,-0.13786793589465,-1.1668180911985,-0.0970396237282553,1.19703365963108
51.175,-3.76506689552056,2.31648389475177,1.57779791877237,2.12518778737786,6.96338470350034,-0.452943683459085,-0.709384607045826,0.743367526841407,-1.69838832884304,-0.17147461776266,1.39632045295614,-1.73445234463204,-1.63774025183156,0.478913446488704,-0.459956265760127,-1.31218866530392,-0.655761824517069,2.97033492615104,-1.25913119238897,0.0586972075600869,-0.0777305859189605,-1.18898397750479,-0.0643727707914364,1.20214479182873
51.18,-2.49015732919249,2.33714407427613,1.37873345668828,1.80927025644287,6.21001902938785,-0.538881042944142,-0.660409770684297,0.370984038103338,-1.24494609597159,-0.258274269843198,1.20815001309206,-1.7626648089559,-1.73823955918495,0.617977987645623,-0.31547307391177,-1.42586032522105,-0.569850684752346,2.99849145875391,-1.17096200732051,0.138300125939263,0.0232132070955072,-1.20490212308463,-0.0340986595941984,1.20006894239302
51.185,-1.63711819343843,2.02085090407323,1.62762801748458,1.43075832824414,5.38840279730267,-0.640711501016116,-0.995700140615113,0.289015492002712,-0.847821426626635,-0.343591377905415,1.01908878249503,-1.78516040352002,-1.77173338256808,0.851798996857345,-0.225813355992123,-1.5303782594742,-0.479016133664084,3.01874449876549,-1.13319426080255,0.195306268565416,0.121510083092214,-1.2154046131724,-0.00717069335458059,1.19146692810318
51.19,-1.45108907691678,1.49407230725908,1.78674594118635,0.996383370849329,4.51129603483454,-0.758792399588322,-1.36408552365956,0.625645422390821,-0.584841816952248,-0.426435925486508,0.829327492425335,-1.80128816527874,-1.91586117081223,1.15374568614844,-0.187294264839649,-1.6246588154423,-0.384633626040669,3.03113811518072,-1.09213490009555,0.1659487124595,0.206542601766084,-1.22156309787949,0.0155670473415079,1.17708678937039
51.195,-1.33683472963316,0.802992642011218,1.5284096492948,0.515193437992448,3.5927229665759,-0.892567559894575,-1.68156929456404,1.2050549445681,-0.442308985692223,-0.506135945810224,0.63872384816012,-1.81066132947796,-2.11696462040042,1.36398368765943,-0.239141176292548,-1.70815549280787,-0.287979102318116,3.03570474098336,-1.06525215439229,0.150415718043788,0.272778804849121,-1.22463920489006,0.0334140315525965,1.15773975454813
51.2,-1.44444365755532,0.182426751313047,2.4356909584114,-0.00173400935418233,2.64762218239119,-1.04043137475233,-1.69762556201196,1.27984682321752,-0.30387422453863,-0.582332316778371,0.446849667891964,-1.81318893235101,-2.09607477620708,1.64771119513769,-0.362637634194318,-1.78085581986173,-0.190188896031773,3.03245430670789,-1.16825300802312,0.16414217041822,0.309860692672355,-1.22602663824203,0.0458472466255967,1.13427752911722
51.205,-1.43681061923229,0.0762614155643703,2.83940825241242,-0.541731579018913,1.6914841506581,-1.1996505651311,-1.50167770436998,0.874702665628763,-0.306441870314583,-0.654953524360392,0.253058110883901,-1.80908461598674,-2.04226743199574,1.8003586224471,-0.298777523411371,-1.84324675017698,-0.092233758400738,3.02137356514224,-1.33559732495471,0.110816117250475,0.300951357237238,-1.22718779695927,0.0525515266082293,1.10756832651132
51.21,-0.96293189097165,0.144110322351512,2.22753871534691,-1.09112883218856,0.739967629414755,-1.36635835234818,-1.26116921096463,0.615369348743006,-0.53252405079258,-0.724174232927153,0.0565683339011593,-1.79885324421584,-2.01157826130719,1.81623976546364,-0.322384918464727,-1.8962527504874,0.00509207030890324,3.00243502537236,-1.53828902612247,0.0770751375191908,0.26147702007867,-1.22958386013404,0.0534396913215707,1.07847679483654
51.215,-1.06101613169599,0.302045590065837,2.70549483156326,-1.63595323482698,-0.191501805198392,-1.53563240491072,-0.97124835846327,0.655336027810241,-0.812105033716788,-0.79036148814481,-0.143438494710069,-1.78325693291565,-1.93098359244918,1.88391184333142,-0.510094371598466,-1.94115172937489,0.101166512567746,2.97561358913711,-1.62927496505159,0.0788076779873425,0.211548738897639,-1.23460188686332,0.0486585922439412,1.04784934706746
51.22,-1.3371128277751,0.323359934433918,2.77833315308009,-2.1626846480361,-1.08813637729522,-1.70166537173608,-0.755389210769219,0.805664747603907,-0.869511862125726,-0.854013232521827,-0.347722711901462,-1.76326159973182,-1.69064813041515,2.14295389061223,-1.22115967912197,-1.97947408879931,0.1955219812236,2.94090656838749,-1.64318054286916,0.0880602641807197,0.129544628262483,-1.24348989043599,0.0385810907084753,1.01649811663767
51.225,-1.19101552016586,0.117989963933997,2.19781272370502,-2.65900475419869,-1.93620141269234,-1.85802963216512,-0.694720264572336,0.851081719155438,-0.713395908936788,-0.915698872916859,-0.556899547089998,-1.73996942843681,-1.72937358288331,2.16514627662553,-1.22942521913913,-2.01289506756358,0.28782093895689,2.89835154291662,-1.57131702078718,0.110106233601357,0.0310927966964261,-1.25730603398119,0.0237848276304379,0.985179483862269
51.23,-0.552114597008359,0.299809271021611,1.80041504517478,-3.1144750775953,-2.72344601469165,-1.99801622220209,-0.727965739281462,0.771638377289177,-0.515470396030885,-0.976008420025732,-0.771368308435313,-1.71454510182543,-1.83136065588754,1.79992107734285,-0.79053239759796,-2.04313018932052,0.377829050817166,2.8480396436322,-1.51969375292045,0.150863887341365,-0.00149102006300586,-1.276881556876,0.00501983755315705,0.954571264788747
51.235,-0.17081186339276,0.537773257066594,1.62457731122767,-3.52105825860589,-3.43951664269319,-2.11501156860943,-0.74686575289558,0.728312610146844,-0.37325906688735,-1.03550748921286,-0.991260444893739,-1.68813946250738,-1.94084746535359,1.39614174951874,-0.496268107853861,-2.07183592525359,0.465384320143761,2.79012637299464,-1.5005297027363,0.196005520276926,-0.00534190087581423,-1.30279792096802,-0.0168295325986283,0.92525348092216
51.24,-0.0726975317793684,0.500023163906209,1.49893955034804,-3.87342515605151,-4.07632264405749,-2.20288536815221,-0.768749666907919,0.69541592054085,-0.16265397598721,-1.09469911158697,-1.21641018670767,-1.6618134635666,-2.01949415980902,1.04678472549915,-0.165380459829621,-2.10051837622475,0.550364938618186,2.72484127274513,-1.54411168084289,0.203258378324399,0.0204110537402869,-1.33537777487308,-0.0407819332139058,0.897691908233619
51.245,-0.200939230643171,0.261149290763023,1.2759214103163,-4.16903883466816,-4.6283413799265,-2.25637108971327,-0.782299774438649,0.637716035780835,-0.0167250275309254,-1.15399996751626,-1.44635094470801,-1.63646955947358,-2.09180590247044,0.803034823945583,-0.578276866648145,-2.13045867000466,0.632664130193276,2.65249328232116,-1.6269193105382,0.186024694220876,0.0746953731253957,-1.37468859876455,-0.0657952734752626,0.87222231397983
51.25,-0.361941951210161,0.317998217133345,1.10951787010143,-4.40802706225048,-5.09283781322539,-2.27140910429599,-0.745368707824398,0.381489262387559,0.0348626527230482,-1.21373352293964,-1.68033548552773,-1.61279895475061,-2.0423371334148,0.233554239847193,-1.20071184467902,-2.16266237078755,0.712175567560098,2.57346926020965,-1.69599466973046,0.145817203926087,0.118063719216834,-1.42055634001148,-0.0908042840332628,0.849039180973817
51.255,-0.492746817389055,0.729812665363989,0.931108158794167,-4.59286513479459,-5.46996468783238,-2.2454132868839,-0.744134400404386,0.17821683912989,-0.0443449461565247,-1.27413153354967,-1.91737288375614,-1.59124892297589,-1.98289297448642,-0.0660062201691635,-1.08407921806284,-2.19783257748205,0.788783528724109,2.48822867960847,-1.72209359505894,0.0733482134327097,0.173219540665762,-1.4725789169561,-0.114756728071242,0.828203699772033
51.26,-0.46044606875282,1.17174955048745,0.73443144535261,-4.72791203996372,-5.76272127716782,-2.17744127126799,-0.740228163797305,-0.13660604589017,-0.105647017732186,-1.3353348342531,-2.1562777988948,-1.57200804018435,-1.80424085258329,-0.176102714688591,-1.0522634183843,-2.23636132000658,0.862352344490888,2.39729640661312,-1.6898602981059,0.0323579811072587,0.203992312693248,-1.53013904828984,-0.136646939573368,0.809678280595587
51.265,-0.322002404471996,1.45510542604419,0.564132348782734,-4.8188695144529,-5.97675534683542,-2.06827936286502,-0.713933404905682,-0.411955845142271,-0.0912350488096188,-1.39740217222796,-2.39573342423154,-1.55500379596494,-1.67045908324923,-0.133499208882861,-0.967632494794055,-2.27833686806341,0.932726599284841,2.30124647741542,-1.64688803506195,0.0281244111579622,0.227735274020504,-1.59244467619598,-0.155550056564831,0.793349802310803
51.27,-0.242816845259551,1.59407340296458,0.435167637872532,-4.87223490485907,-6.12000649730235,-1.92044478849789,-0.695256801069869,-0.595735096120835,-0.0851139508384539,-1.46033639194995,-2.63436406566551,-1.53991145728311,-1.45808695580493,-0.104796467034391,-0.927974420453714,-2.32356792776959,0.999751922269527,2.20067367399026,-1.59918020650721,0.0265049986148578,0.224239386150974,-1.65860773883521,-0.170655369757594,0.779010948279446
51.275,-0.156611697288664,1.67997983410203,0.313897083684747,-4.89478947244041,-6.20221962503865,-1.7380806364592,-0.672265977189198,-0.534749366941463,-0.0772979146395593,-1.52410838437387,-2.87080367713397,-1.52618003640932,-1.29917127618339,-0.00576914026343281,-0.847936087482436,-2.37162304427886,1.06329565761384,2.09616900868044,-1.48616655358881,0.00322135515393892,0.207271994632804,-1.72771181312792,-0.18128989112733,0.766352907093562
51.28,-0.0570427644039008,1.73951646223013,0.202836530989322,-4.89315063061209,-6.2343737989911,-1.52673597628216,-0.623214318144197,-0.306945533139918,-0.0665585067274361,-1.58866034824137,-3.10375178837538,-1.51307669788787,-1.21229958635312,0.0936344436106936,-0.819747276368437,-2.42188060371883,1.12324816405082,1.98831423948275,-1.39844329451252,-0.0241472676453647,0.198314944766074,-1.79883244773993,-0.18692587792671,0.755015959752407
51.285,0.0177150830370156,1.79977652798201,0.0984709009879926,-4.87342073914696,-6.22807175537229,-1.29305435692551,-0.554854993653605,-0.0391291972469477,-0.059289600984493,-1.65390104231238,-3.33201835656774,-1.499739806616,-1.19216209732552,0.136043650527657,-0.834129935975157,-2.47358400316222,1.179517876768,1.87768375057337,-1.28846009645294,-0.0814836435322992,0.188760322113885,-1.87104675528111,-0.187179201435318,0.744653131447049
51.29,-0.0247508926791527,1.81799992664642,0.0592504459549984,-4.84094574547153,-6.19493690707163,-1.04439244158437,-0.520972231055797,0.165828705955602,-0.109653364802736,-1.71970665437807,-3.55455883116294,-1.48523077116013,-1.20469575296729,0.132158938548348,-0.824156032115513,-2.52589638485098,1.23203390345022,1.76483399012047,-1.19873190954463,-0.133650112345589,0.193206054896241,-1.94347130506557,-0.181814767086753,0.734960641928974
51.295,-0.143527238626926,1.78992925548261,0.0921992763921918,-4.80017165416381,-6.14606087303183,-0.788391644282131,-0.508196546126625,0.322272551909825,-0.198025501491085,-1.78592370708774,-3.77049660219269,-1.46858440992733,-1.24229247161757,0.126589205610973,-0.85634194437693,-2.57795303055393,1.28075071804947,1.65028388042894,-1.12062432903544,-0.176863483916488,0.193691240162776,-2.01531148729007,-0.170762753254842,0.7256880511783
51.3,-0.272317837530904,1.75331871270889,0.143863439094286,-4.75458095070057,-6.09153073789056,-0.532536754037806,-0.526349922091343,0.42278682129276,-0.235605045898947,-1.85236905545829,-3.97912925011058,-1.44886297564095,-1.28085573169418,0.0890667310946213,-0.899613287710824,-2.62891392801181,1.32564683681572,1.53450521169456,-1.09268453014601,-0.192911814287062,0.211944592037866,-2.08588673494442,-0.15413029330617,0.71665648648713
51.305,-0.370608648193489,1.7315937163274,0.20022799583941,-4.70668939499129,-6.04005132786633,-0.283730565105174,-0.568197043048264,0.526676812128307,-0.278226773941661,-1.9188253183792,-4.17991816213508,-1.4252145608794,-1.29423351854526,0.0383257145016004,-0.940301536541038,-2.67801587447835,1.36671400412219,1.41793045157042,-1.07500243049361,-0.181486956827993,0.247929351510716,-2.15462355384004,-0.132196344554902,0.707796818917734
51.31,-0.43252651021457,1.70949613752856,0.253743166608417,-4.65808848158954,-5.99867223169588,-0.0479114238260987,-0.578007359746359,0.610907035369084,-0.336864524437151,-1.9850365453211,-4.37246907871389,-1.39692779337396,-1.27351346912988,0.0181783085985245,-0.994328041303134,-2.72461842563298,1.40394248343012,1.30096721449688,-1.07875204400179,-0.153898055826082,0.274550594956364,-2.22103679594635,-0.105395302604262,0.699187381080318
51.315,-0.452175121521885,1.67357364638033,0.25627279471428,-4.60952975585624,-5.97262538220446,0.170254813694187,-0.58414838504142,0.716584919620775,-0.358198219320315,-2.05071679312666,-4.55651384812206,-1.36347370300827,-1.21145825365391,0.0223018169591939,-1.03130655601384,-2.76824062613662,1.43731638555171,1.18400488736134,-1.08514464579936,-0.120292198070513,0.321774287775795,-2.28472073828973,-0.0742996937527247,0.691052433086203
51.32,-0.451830585204175,1.60867851640005,0.258676101781313,-4.56103556328537,-5.96526093032485,0.367599866516523,-0.587448659890661,0.823871756895965,-0.349969060826379,-2.11556835668748,-4.7318901989038,-1.32453593975827,-1.10874551445396,0.0505146354789732,-1.06009611554805,-2.80858845178731,1.46681535151429,1.06741569404352,-1.09115418660348,-0.101884941264444,0.360765706714723,-2.34534572115796,-0.0396019447857317,0.683736013361152
51.325,-0.431868828474762,1.50584785253618,0.25120014019535,-4.51201305837098,-5.9780585283691,0.542604905764577,-0.599572095700879,0.894568819819346,-0.347715372852607,-2.1792924285207,-4.89851107149872,-1.28003400829488,-1.00225458534721,0.091986168486448,-1.09875846778729,-2.84557034270623,1.49240511346901,0.951564066361168,-1.09325120963942,-0.0946273715682703,0.401368110533357,-2.4026434185436,-0.00209481140109286,0.677700549944406
51.33,-0.42316569876449,1.41323644794945,0.228610105256482,-4.46137774065582,-6.01071080522115,0.695461488780186,-0.614039712629949,0.930824433414747,-0.341212802148199,-2.24159751795276,-5.05633180416106,-1.23013528703876,-0.87678889069196,0.138176923099194,-1.10851403455051,-2.87929994834322,1.51402414686161,0.836821894647155,-1.06932963813236,-0.0911102872129377,0.435979243233226,-2.45638563376532,0.0373445637815542,0.673531919979029
51.335,-0.418425636356379,1.31204502387915,0.212964522033802,-4.407705041085,-6.06128440216201,0.828016872095265,-0.650283435531357,0.958399316584093,-0.30581346529386,-2.30222289564322,-5.20532726292501,-1.17525178211917,-0.746194237737729,0.17868134992103,-1.0788950895255,-2.91009121189991,1.53158513592583,0.723578324114882,-1.02453692539946,-0.0723255138789308,0.440636447005467,-2.50637098728087,0.0777740545987496,0.671906599978002
51.34,-0.394543452395794,1.21863995030426,0.210989378062155,-4.34940455797656,-6.12644366369928,0.94361947881035,-0.697956744307348,0.951701692721628,-0.278706358583977,-2.36097666808841,-5.34547842018475,-1.11602482926767,-0.660418008856347,0.186721790734063,-1.04132492513519,-2.93845071721184,1.54499066702187,0.612244695156509,-0.956098087842636,-0.00772193619239857,0.404845785744109,-2.55241972167544,0.118222840496085,0.673528239509685
51.345,-0.372982730478866,1.15899099437129,0.225389139700043,-4.28490278477658,-6.20171450261287,1.04689747080719,-0.759682457047871,0.886213867967515,-0.303718946402294,-2.41778389054119,-5.47676656067568,-1.0532988521716,-0.579842669179018,0.201558994583645,-1.02121711459944,-2.96506909937443,1.5541591077993,0.503254599080705,-0.900741122867651,0.0867372137490046,0.359869625050574,-2.59437485188016,0.157742505936282,0.679043457321072
51.35,-0.373318248885741,1.14311997611679,0.261373200094881,-4.21281464497784,-6.28176623226957,1.14349329569229,-0.785763919264318,0.791813489423607,-0.338049521700789,-2.47273388112384,-5.59916786911038,-0.988083681318213,-0.51012958215446,0.19312946054457,-1.04313149572832,-2.99080732991,1.55905245301867,0.39705798658145,-0.853075277267781,0.171924963137094,0.307823920132233,-2.6321062233179,0.195457407972461,0.688958735676367
51.355,-0.409765945383076,1.19244585409423,0.333149074963563,-4.13206724883892,-6.36068538754791,1.23977450236699,-0.803864088384754,0.673226835648228,-0.381296816427383,-2.52609310859984,-5.71263137923027,-0.921507744586051,-0.443192632522061,0.167169570563338,-1.05910515115607,-3.01666192928324,1.55967830659549,0.294122329221141,-0.769063272965969,0.248383990739252,0.239641034972786,-2.66550790619013,0.230600488612265,0.703630409329347
51.36,-0.494654563354347,1.26494252071576,0.395158267354601,-4.04197503957707,-6.43224289292742,1.34252791289759,-0.810314491654759,0.59029853175122,-0.450366225045943,-2.57827995330391,-5.81704909588817,-0.854762971998686,-0.396361727414887,0.132361982367569,-1.06840479792962,-3.0437068600471,1.55606648512024,0.194943765193894,-0.692534960285039,0.282545909877905,0.195890563802173,-2.69449583136784,0.262538900865306,0.723316230944507
51.365,-0.634962602075173,1.36162112380527,0.458362363802505,-3.94231988683812,-6.49017927307888,1.45862483926106,-0.788593305373761,0.544900357713267,-0.523177572577018,-2.62985645841506,-5.91225158852903,-0.789043110948627,-0.359864749821315,0.0928847848206114,-1.07057903412848,-3.07304422653717,1.54827010604682,0.100044408229122,-0.605897911133802,0.296652280741555,0.149594070129486,-2.71901727298153,0.290801545736915,0.748162825695111
51.37,-0.752020282401306,1.44787783365461,0.508913223221577,-3.83344002864603,-6.5284972605376,1.59466149230344,-0.760625137273883,0.55251696635901,-0.569510963224878,-2.68155047828327,-5.99802449627723,-0.725480081152925,-0.328887344304523,0.0814533671082148,-1.06771857162568,-3.10577659839271,1.53640077243545,0.00994742911333024,-0.545808295050503,0.28236292055231,0.127836387863347,-2.7390554209411,0.31509866725301,0.778121754164174
51.375,-0.896168258000797,1.58721505822923,0.569655463378235,-3.71625664099514,-6.54171769900386,1.75661445340583,-0.759399273778723,0.631195627781003,-0.616719862224458,-2.73424260301124,-6.07410851908362,-0.665081849253911,-0.31092338192758,0.0869198014200058,-1.06228605381031,-3.14296539243726,1.52064157694925,-0.0748453782331501,-0.501596316457314,0.254220999809758,0.126205228042014,-2.75461554394057,0.335316821301301,0.812933008403438
51.38,-1.02329496727086,1.70309760717803,0.589920719467368,-3.59222274804863,-6.52507908207403,1.94953930627039,-0.79789843804089,0.725657418880594,-0.64545548153504,-2.78889833687828,-6.14018442757459,-0.60867626801583,-0.304204916583894,0.0514221681155671,-1.06614108694388,-3.18556437977157,1.50122277960476,-0.153861475782378,-0.482188447847249,0.219259075999872,0.127519609954329,-2.76571026745224,0.351496808238191,0.852196648328422
51.385,-1.19479245197076,1.83170533527393,0.560202191018971,-3.46325609317848,-6.47469388565552,2.17730150918653,-0.866825319547798,0.782581789980116,-0.663744469617411,-2.84650397327196,-6.19587545130309,-0.556865146995449,-0.299555037958792,0.0212820299355691,-1.05488357915609,-3.23436492580701,1.47840791149744,-0.226668202786385,-0.476182393885081,0.178550921508969,0.13148000409075,-2.7723551971722,0.363811973463411,0.895411981235316
51.39,-1.31813721628648,1.93912652617404,0.512554214631417,-3.3316685911336,-6.38766714128388,2.44233909752635,-0.960722445374005,0.764169310624135,-0.703008538460674,-2.90802191347416,-6.24076455581975,-0.509988992669814,-0.305232819724429,-0.0124518613803147,-1.05130531736469,-3.28996167328945,1.45250176368987,-0.292892916213635,-0.467941028757269,0.153497370959232,0.136812788683721,-2.77456635885081,0.372549463919611,0.94196191550394
51.395,-1.43326677338245,2.09111503884556,0.421076569483053,-3.20005633468108,-6.26216570722513,2.74548182185482,-1.04131963174328,0.72611843632161,-0.719264285677188,-2.97432793743052,-6.27440268855564,-0.468104790784159,-0.321691796792226,-0.0445424673432803,-1.03508844013734,-3.35271407300511,1.42384815295507,-0.352237475479635,-0.4520111072134,0.140358664703769,0.131901364443403,-2.7723556219434,0.378087726278447,0.991122431387279
51.4,-1.53515096495787,2.25542218062964,0.276301044602151,-3.07115843663265,-6.09743273309558,3.08583797738646,-1.10859592666893,0.67560811216038,-0.725107117760561,-3.04613325531259,-6.29631079388158,-0.430981038401106,-0.335133094325799,-0.0824682193270676,-1.04820118089762,-3.42270626561411,1.39281661130682,-0.404482982888465,-0.440768482111624,0.132846971809098,0.127532479431701,-2.76572658655727,0.380866406572562,1.04209924211189
51.405,-1.64484981279192,2.38918970251516,0.0635600160678257,-2.94771114030968,-5.89374728212712,3.46075196686686,-1.18661865155743,0.609668481471155,-0.7324595306177,-3.12391716179398,-6.30598676818503,-0.398109721684285,-0.346723883265619,-0.0954320049124841,-1.09387560536743,-3.49972072542017,1.35979588828169,-0.449493575116998,-0.447570437114996,0.110221763811693,0.129342954716303,-2.75467121769675,0.381349926032718,1.09404577435975
51.41,-1.72238958840333,2.52923278468995,-0.140970519809823,-2.83229244839657,-5.65232877143427,3.86584185081372,-1.26580412373551,0.561227915729274,-0.741174780209804,-3.20786238305323,-6.30291076771104,-0.368734141411594,-0.348784132548218,-0.106214024132177,-1.13361870772048,-3.58321725526447,1.32518658451434,-0.487216018201362,-0.465717128540045,0.0614268204913653,0.136102839306376,-2.73916899119708,0.379996660372571,1.14607784669011
51.415,-1.77702223128019,2.64576930662,-0.328683698539471,-2.72715883980825,-5.3752047423006,4.29511663788363,-1.34703379664739,0.511100907055254,-0.742935082229232,-3.29778633315766,-6.28654262592923,-0.341894366511635,-0.316400701561636,-0.148409941761879,-1.17771429667293,-3.67231123459137,1.28938466406905,-0.517667192879267,-0.495323461033294,-0.0207935008436945,0.141688811865444,-2.7191905289252,0.377244360644552,1.19731285482194
51.42,-1.83678605216043,2.7443993391642,-0.515279137556995,-2.63410078351402,-5.06507772317378,4.74116466030908,-1.41726370605167,0.507580035705907,-0.752560777354608,-3.39309232354648,-6.2563176633238,-0.3164898438267,-0.29187080339662,-0.227556330787272,-1.18695924432918,-3.76576770942374,1.25276904773983,-0.54091541672819,-0.512855974999488,-0.0665055083045319,0.13595486311438,-2.69470277222269,0.373499032328873,1.24691475118881
51.425,-1.91249412262447,2.83158173604425,-0.718174643534748,-2.55433162481953,-4.72520907209549,5.19540990994853,-1.49912743851617,0.519621304359014,-0.775705229778734,-3.49275739864792,-6.2116466475551,-0.29135319596476,-0.259807642081703,-0.334041253162859,-1.17194555744871,-3.86202189404362,1.21570224664636,-0.557066062878252,-0.516768973421172,-0.0959383495014996,0.117880093216996,-2.66567325409969,0.369110629509405,1.29412133184213
51.43,-1.95924120249907,2.83835484818703,-0.809020503688676,-2.48840092179664,-4.35931717627886,5.64843495028264,-1.58521199722303,0.487142398190018,-0.791200065717359,-3.59534484124583,-6.15191843867134,-0.265327378936941,-0.252659112006631,-0.437287269052897,-1.16938894810624,-3.95921458005733,1.17853553983855,-0.566253604978175,-0.529360846745698,-0.088143890871655,0.110538761131364,-2.6320742122099,0.364335737487504,1.3382598824338
51.435,-2.03986814090572,2.79768459374867,-0.929051823977398,-2.43612979497932,-3.97148045389644,6.09035330822214,-1.65220167706013,0.471684570021346,-0.831365166752271,-3.69902692339502,-6.07650459305707,-0.237341000449067,-0.194408343649142,-0.596133565074492,-1.09743716204713,-4.05522979706161,1.14160954629934,-0.568636327944428,-0.558829436687844,-0.0934105849291671,0.0992150207249951,-2.59389023332683,0.359303228602576,1.37876202504529
51.44,-2.11764729938177,2.72234493832651,-1.00170211011512,-2.39658480524232,-3.56602089049944,6.5111950333098,-1.71606794197732,0.471652200633518,-0.892218146992684,-3.80161905135901,-5.98477091923682,-0.206478354660922,-0.142517732585061,-0.676595097815825,-1.01180866489815,-4.14773552387585,1.10525088977136,-0.564388206789757,-0.585707703631122,-0.0870055543531078,0.0914412770314031,-2.55113926187946,0.354017454774816,1.41517366910352
51.445,-2.1905929543622,2.64284797767874,-1.02275736691661,-2.36811048900861,-3.14737606112286,6.9012727897588,-1.77961992022917,0.49868123694475,-0.959652643640966,-3.90064165027654,-5.87610035815422,-0.172040215550435,-0.110522758449355,-0.701598729968116,-0.853862115329084,-4.2342415384874,1.06977386743713,-0.5536897455152,-0.609720275817514,-0.0790788541468474,0.0745899899453606,-2.50390539313292,0.348400884498549,1.44715296031098
51.45,-2.33382729298506,2.56577923757803,-1.0039561874854,-2.34842146866288,-2.72002012963058,7.25152077444938,-1.85242563316563,0.545619039174733,-1.02693705154746,-3.99341997624311,-5.74992175443583,-0.133591266236494,-0.0438756905106979,-0.39984312155694,-0.361683823898091,-4.31218389333097,1.03549194242553,-0.53672562463481,-0.640009296517156,-0.0679808275835463,0.0653019061154129,-2.45236230133804,0.342320756215964,1.47446253380973
51.455,-2.48716566824761,2.49164297851844,-0.974582817466771,-2.33473136077936,-2.28843470829401,7.55380900881957,-1.93404002720504,0.600383350818008,-1.11661864328938,-4.07720156765129,-5.60573853670594,-0.090989748080514,-0.290639760398909,-0.909168838175704,-0.663956881531906,-4.3790197799655,1.00272919971915,-0.513687256345669,-0.689141573413449,-0.0592219817191884,0.0543267203006899,-2.39678043306334,0.335584320025267,1.49696534713284
51.46,-2.63899676388292,2.3602087898585,-0.935193947852912,-2.32391028503697,-1.8570690615407,7.8012099905096,-2.00794595413047,0.654379166161213,-1.20971046723858,-4.14927800465799,-5.44316410335136,-0.0443962723702895,-0.364633011993013,-1.03550481557338,-0.454770116336942,-4.43232347684654,0.971826122359765,-0.484776869821171,-0.71178556800081,-0.0571204410962646,0.0613633105143291,-2.33753181055582,0.327945039032548,1.51461465645065
51.465,-2.81498468042366,2.14339180557353,-0.864945353691018,-2.31267250605247,-1.43029245565055,7.98819252492148,-2.07429444423588,0.714711770460308,-1.29013828865883,-4.20711699264104,-5.26196495075741,0.0057391339878814,-0.423349454100141,-0.975038828898838,-0.0755605115660506,-4.46989019017258,0.943144601944466,-0.450214612053241,-0.739002426660437,-0.0383941104023819,0.0632145321173338,-2.27509421194062,0.319127860731102,1.52743232028186
51.47,-2.940272215366,1.98156213772844,-0.846098512776225,-2.29776142279214,-1.01236167339892,8.11075267228395,-2.05868658414571,0.769604862605101,-1.39455993917166,-4.24847839855639,-5.06209875746609,0.0587114052718283,-0.510579331263924,-0.995530757678249,0.132663758389178,-4.48982398964946,0.917065551081809,-0.410241835721437,-0.782392062853543,-0.0417740860668147,0.0720143033661277,-2.21004658377402,0.308855507846889,1.53549455396065
51.475,-3.01343836743421,1.8421739358525,-0.887369232035825,-2.27610988656876,-0.607379512515997,8.16648025913135,-1.97981552190334,0.837268839119833,-1.47471563046288,-4.27149161824403,-4.84374635638366,0.113611988995205,-0.664602082402622,-0.9753156019464,0.244292893410451,-4.49059081788795,0.893973227763597,-0.365118187660976,-0.802414932534454,-0.049531529473125,0.0915127925563695,-2.14305916441816,0.296877935953341,1.53892996637788
51.48,-3.01396318990755,1.6820651761901,-0.969371092379959,-2.24499772008633,-0.219240277707029,8.15453691071917,-1.83313384619837,0.868532368921128,-1.43847917473987,-4.27472260312776,-4.60734475077407,0.169391070497607,-0.854411498170463,-0.982955891931736,0.361409496859623,-4.47106503156157,0.874238172964913,-0.31512201413141,-0.82677340080355,-0.061461016889435,0.107534131797754,-2.07488507149143,0.283006972779244,1.53790848830429
51.485,-2.98024077019441,1.22455027360865,-1.00699440545644,-2.20220921968,0.148417867021414,8.07555571970852,-1.66629242915099,0.824647045747203,-1.48380287725453,-4.25724716827813,-4.3536159161928,0.22492585233183,-1.027623009733,-1.00822879576225,0.415875233071084,-4.43058588696338,0.858205522079716,-0.260555943095326,-0.859275821623172,-0.0720709100433707,0.124135583275692,-2.00635078841876,0.26714660733718,1.53261913571021
51.49,-3.02177982988075,0.458913325048852,-0.945513974909254,-2.14615892745204,0.492249071808351,7.93150192170924,-1.48524151518104,0.75305668244969,-1.6196993095808,-4.21870598711208,-4.08357900332115,0.279089678938612,-1.2053858992644,-0.985842721617227,0.448267068578962,-4.36900098607558,0.84618114823235,-0.201749918613637,-0.864317411446747,-0.101154633582687,0.142199110736694,-1.93834272076249,0.249313214085996,1.52325764412258
51.495,-2.84973027172104,0.432197485285349,-0.978039723160392,-2.07597284415006,0.809222385589719,7.72551818368808,-1.30541003037776,0.606233096973672,-1.57778544940618,-4.15932798665807,-3.79854150391524,0.330815150379522,-1.30309840011758,-0.8719637312535,0.572322467498124,-4.28668411012195,0.838412475918349,-0.139058607317123,-0.869654128204066,-0.127567170100534,0.166446283329447,-1.87179200266454,0.229646827631492,1.51002831672342
51.5,-2.71145238335683,0.743021325209358,-1.27509033163693,-1.99154334036985,1.09664382118665,7.46175050960345,-1.2200333625222,0.462729357067536,-1.53368228628265,-4.0799419487965,-3.5000834188265,0.379148160151238,-1.47259035667055,-0.737741829023858,0.746150652073532,-4.18454664584676,0.835071300860818,-0.0728635166934309,-0.899209819795727,-0.156481418851076,0.189368621690839,-1.80765530290392,0.208409729842608,1.49314042447455
51.505,-2.71050618412642,0.939883473003373,-1.46636852618028,-1.89356635455609,1.35219706605345,7.14515579070833,-1.14294611883744,0.37167698531667,-1.53241990671278,-3.98199051945191,-3.19004704306019,0.423292818188595,-1.63668327949654,-0.771232906551279,0.83346637764723,-4.06405590261499,0.836243930931759,-0.00358831599512199,-0.935703574640117,-0.182367186372654,0.217598680413724,-1.74688725357284,0.185967538982168,1.47278845410219
51.51,-2.70592932739097,0.899922208400718,-1.5082094643741,-1.78353493200153,1.5739888937194,6.78132732658795,-1.09258167999967,0.338462265794976,-1.54644684186365,-3.86751849895275,-2.87051623986802,0.462642919164082,-1.69222152942663,-1.01603860148855,0.751216726071057,-3.92723116762413,0.841922755590414,0.068289161845246,-0.987925346754738,-0.20784169154552,0.237689830894895,-1.69040645832052,0.162765216449358,1.44913410900622
51.515,-2.63879586532591,0.605995518730398,-1.43397401822494,-1.66365198016431,1.76058578148424,6.37637343455476,-1.06881892100254,0.305460966690732,-1.56971382272946,-3.73908556357502,-2.54376897996701,0.49679471595426,-1.60357176859731,-1.27604377158947,0.806572261446987,-3.77656686618378,0.85199077642708,0.142247343272322,-1.04660520915774,-0.226639488858373,0.25717723087523,-1.6390585848472,0.13931666835581,1.422309143734
51.52,-2.53223340370588,0.256283736241367,-1.34012328146499,-1.53667772421411,1.91105570547853,5.93682334591685,-1.03770849429599,0.205154201244257,-1.58042506250918,-3.59961498902067,-2.21222388370064,0.525542470870972,-1.35260585433842,-1.6328562350703,1.03925858852882,-3.61489363725697,0.866205473199617,0.217737600173483,-1.12658137761785,-0.243219421957532,0.263393625680294,-1.59357982640571,0.116198891959551,1.39242439438361
51.525,-2.37814546386049,-0.0503069994879836,-1.19711113128181,-1.40577909818161,2.02501725443785,5.46950734415525,-1.00697520048423,0.0691598410335737,-1.56953770414359,-3.4522572583988,-1.87840814727153,0.548862156744745,-1.09143935285177,-1.88359212674073,1.37057638503992,-3.44525490687304,0.884198279647695,0.294179776648323,-1.18970656363124,-0.255320820920457,0.260893686838695,-1.55456557451614,0.0940222821710268,1.35955765578446
51.53,-2.22130659786938,-0.243174560058678,-1.04300870962855,-1.27437500460194,2.10268128885723,4.98143220003993,-0.9998036329284,-0.121786051075275,-1.60412578517959,-3.30026571023537,-1.54493230730897,0.566885915658595,-0.893712449637707,-1.78122751513433,1.69503925459128,-3.27079498941806,0.905486851806234,0.37095068770914,-1.24771726364507,-0.290077748718847,0.250437769674553,-1.52244612514769,0.0733829265200609,1.32373192306221
51.535,-2.22713652184675,-0.46961708437235,-0.928276665451376,-1.14590665982504,2.14487749254861,4.47971420693687,-0.963645957734844,-0.254377654834384,-1.70288883284941,-3.14680219309176,-1.21444206941667,0.579866656230869,-0.761777525654557,-1.24179909485611,1.74243469833081,-3.09457650013451,0.92948254601614,0.447398698085667,-1.27896372553894,-0.326367372645914,0.241945599774403,-1.49746887189723,0.0548313225703979,1.28491718932912
51.54,-2.26004047656306,-0.507849225553605,-0.936853924848269,-1.02356729385843,2.15306044805949,3.97154552997353,-0.853810087536943,-0.317962115311027,-1.69741661595011,-2.99470731413548,-0.889560023819196,0.588136615476864,-0.762347875567733,-0.683068877074697,1.51108622481529,-2.91936174758794,0.955495826392786,0.522873129102048,-1.28207418344072,-0.334236041665225,0.242132747491532,-1.47968719904999,0.0388565873909291,1.24305165100899
51.545,-2.16421316773771,-0.258829233690567,-1.04091883769596,-0.91007941360166,2.12929329664843,3.46412887067861,-0.717452347426362,-0.282749091302685,-1.59881518298539,-2.84633457440082,-0.572845150761449,0.592070355497577,-0.798878194157987,-0.348937245302139,1.18685494243248,-2.7474569653914,0.982753691866115,0.596736961106677,-1.21483660619339,-0.342673767243741,0.233803712854434,-1.46895893346942,0.0258624294868342,1.19805811116157
51.55,-2.10790070609144,-0.0689013674476653,-1.12054641710687,-0.807511037254099,2.07621610938485,2.96458509857303,-0.505001364457391,-0.038806197020347,-1.48952429315659,-2.70343854857173,-0.266762267079557,0.592060229581409,-0.846794607071568,-0.386813431897689,0.930145661384039,-2.580608800711,1.01042596709189,0.668366703583254,-1.17213080642785,-0.367111236466734,0.229489034276262,-1.46496187477622,0.0161466659914656,1.149856667794
51.555,-2.04930911034912,-0.104685811061267,-1.09701760454944,-0.717110914991479,1.99700311938175,2.47985140649578,-0.382370489894898,0.19714399978962,-1.41986351818488,-2.56708843608332,0.0263514786186293,0.588506761070233,-0.795159440278736,-0.522665473971407,0.818994255022426,-2.41992384831982,1.03765327493415,0.737153278500356,-1.13291577684898,-0.374625922728119,0.2356523748005,-1.46722803142533,0.00990871261798876,1.09838329122078
51.56,-1.94769301661746,-0.2452834230866,-1.04705660394541,-0.639204527445864,1.89531295564849,2.016548595113,-0.35137567904174,0.330861737885883,-1.31615207325058,-2.43764357095266,0.304314833045755,0.581823543928204,-0.713231267614917,-0.59814250775204,0.756290598142877,-2.26584752217573,1.06357836093483,0.802500144947146,-1.09643094760998,-0.376618497828903,0.25359486567981,-1.47518089761404,0.00727796978864158,1.04361383103817
51.565,-1.72713459342646,-0.414284262840303,-1.01079325864081,-0.573183021784112,1.77523030724132,1.58081521843419,-0.389145445936553,0.356039856352273,-1.20004007635581,-2.31481311378765,0.565123167871471,0.572452149320255,-0.650534066671836,-0.633635765093332,0.663325954842106,-2.11822401631761,1.08738052412897,0.863816689947445,-1.0731636098446,-0.3617714352602,0.262508090539143,-1.48815669768886,0.00833755524378768,0.985593027673476
51.57,-1.51944771082366,-0.397272455068219,-0.987390321673708,-0.517598174327146,1.64117346503138,1.17813204152575,-0.499432358218523,0.338520869284598,-1.09378574795877,-2.19779565691002,0.806967918588621,0.560880242228288,-0.614144344123629,-0.65527653463835,0.569735246145699,-1.97643230933234,1.10831187514129,0.920505528137336,-1.09466235758334,-0.316921088565879,0.372011871417182,-1.50541208660724,0.0131226435269595,0.924464178828038
51.575,-1.45643717279091,-0.045554381765203,-0.85815874897678,-0.470362732729916,1.49775194001626,0.813146031460733,-0.672358734835489,0.341578114683852,-1.03080247667105,-2.08548408820822,1.02825215890683,0.547658072900343,-0.620413334729707,-0.610699273276475,0.490945431183993,-1.83958318578529,1.12573613481022,0.971935739722479,-1.03464883802725,-0.249720811387306,0.389720369850471,-1.52614000552372,0.021593925865394,0.860491327085213
51.58,-1.7630827169084,-0.069586430288365,-0.752858471905426,-0.429023054319883,1.34959624959885,0.489495558759394,-0.813725733578868,0.389580196209672,-1.04650767175186,-1.97669905456,1.22759687443523,0.533408161076185,-0.631964145776598,-0.623037198899194,0.57060544881383,-1.70674131815853,1.13916675648341,1.01740239848401,-1.02747190937036,-0.337954558287979,0.343991996113772,-1.54950639326979,0.0336078159289984,0.794073903514802
51.585,-3.59131265487575,0.0798784284761933,-0.124093652296022,-0.391058088631443,1.20118228721399,0.209655609179723,-0.922565470033853,0.602571952554114,-1.55786622642612,-1.8704076841833,1.40384370505432,0.518819821615874,-0.665408802522274,-0.359570471144604,0.243076840527957,-1.57713052999184,1.14829667817561,1.05609063152674,-0.953062823559943,-0.299404224457666,0.296907416514591,-1.57469578975516,0.0489038543148482,0.725756528293875
51.59,-4.20534001896608,-0.685381344998764,1.93673379691897,-0.354157880052734,1.05665081891368,-0.0251628152992265,-0.940592962076859,0.64361034609164,-1.69818999316311,-1.76588675591483,1.55606874004562,0.504622787169568,-0.660027042252788,-0.260240777404644,0.370538762620984,-1.45028296276497,1.15301208160883,1.08706969763487,-0.898699962458759,-0.259188327104164,0.294386876748918,-1.60094409530576,0.0671186447861979,0.656233054876777
51.595,-4.01363401173168,-0.884336857366539,3.91035358816036,-0.316435067200404,0.919630793753124,-0.215031847354875,-0.96938387718233,0.268193999413202,-1.82985208811007,-1.66279990839506,1.68361191034354,0.491544650290224,-0.786099553169755,-0.19075176238299,0.81497249426615,-1.32610310495495,1.15338743199266,1.10932436928684,-0.870230827022414,-0.252262731178803,0.303892504971601,-1.62755629362572,0.0878198069297686,0.586341659568303
51.6,-4.52046883448249,0.362558775292656,2.92695101364635,-0.276541653184482,0.793092940249452,-0.361238905853667,-1.06982791469749,-0.25369537975593,-2.03005044963092,-1.56118650533765,1.7861129680954,0.480264455336183,-0.823096504642269,-0.0398437559511703,1.86530971012184,-1.2048452561509,1.14966528588942,1.12180900025122,-0.84528902009314,-0.229534968592323,0.334872148252275,-1.65392537707836,0.110541070846744,0.51704671105815
51.605,-3.90600888524318,1.04747464500266,1.60153848362239,-0.233726382166595,0.67923347971113,-0.466160253910025,-1.22672642814633,-0.911064653277767,-1.85349231543792,-1.46141699016936,1.86354307631643,0.471368591419737,-0.451032132669754,0.215872576714246,0.942331966140427,-1.08705973392954,1.14223115186235,1.12350842049161,-0.80757741878858,-0.213342911886151,0.370140139336817,-1.67955653227453,0.134803620647421,0.449410112592596
51.61,-1.33947278668229,1.12831883536928,0.45356880868324,-0.18787927060299,0.579379972748411,-0.533114886739924,-1.95231711077155,-1.51608622739361,-0.529275375887226,-1.3641691976145,1.91622358387839,0.465308206038364,-0.241542376445551,0.722883730070339,-0.201556971368472,-0.973563027390925,1.13159166379588,1.11349865088575,-0.736413107167047,-0.1702739999297,0.451729117502798,-1.7040914995749,0.160124057058204,0.384555957455106
51.615,0.741339519544272,2.15218062538178,0.25732412593603,-0.13951900677282,0.493961845102479,-0.566192586040734,-3.27314388090008,-1.82768039924328,0.836222545394788,-1.27038670858768,1.94483376710306,0.462364819971372,-0.793244122872195,0.715746593106254,0.0192245084939038,-0.865393623152043,1.11835006730622,1.09101082797904,-0.71788949369577,-0.102416367954109,0.53430628805325,-1.72733178392803,0.186022799329651,0.32362864331122
51.62,0.918889182673942,1.81395780213097,1.11072569373609,-0.0896955297555507,0.422568019052647,-0.570039901891288,-5.1956933555055,-1.86055145200487,1.09468067936656,-1.1811923210918,1.95041487886635,0.462630544429791,-1.6583337209749,0.475355978961025,-0.218356820188699,-0.763726224965285,1.10317403072108,1.05550247391714,-0.732645291572092,-0.0313438723176636,0.590576585251579,-1.74924797575675,0.212034925176511,0.267755973328709
51.625,0.913308001532728,-0.121600721438231,1.68955328295009,-0.0398642192654931,0.364057406024426,-0.549632474074632,-5.42923697435252,-0.859173843178898,0.84774972415782,-1.09780342848568,1.93436654502311,0.466000055202075,-2.74383938147332,0.182273111339271,-0.984419039611038,-0.669790573464081,1.08676244844566,1.00672793265202,-0.821651845618531,0.0214754732848969,0.587159243233736,-1.76996482942947,0.237712696051,0.218024307436224
51.63,0.383837011726096,-1.30897051412193,1.61796717986909,0.00825180169427697,0.31671129780584,-0.510061088084613,-2.69438814165329,0.0170058657544844,0.782806623823975,-1.02145462594227,1.8984260771054,0.472176784752904,-3.32428018411529,-0.147191620587382,-1.40502540201056,-0.584799632482468,1.06981333805582,0.944794344307302,-1.01996417310669,0.0968067175925609,0.511513678732328,-1.78973278736651,0.262623471421795,0.175451450126391
51.635,-0.727231512617409,-1.00842711247942,1.34345934805055,0.0528200543343523,0.278426870008906,-0.456334589321393,-1.4567411658626,0.348744604256814,0.197923312223185,-0.953310334315107,1.84462677587051,0.480697479141572,-3.42857610137605,-1.14922908731719,-1.62118338564641,-0.509869107047591,1.05299103274279,0.870193402361521,-1.18757877303325,0.177915916498477,0.393492251395128,-1.80889423708685,0.286352487342381,0.140947947365308
51.64,-1.25619138204973,0.34205554462837,0.435594276806442,0.0920471870924494,0.246923098041042,-0.393212107996142,-0.742274872066702,0.131859754380502,-0.456411877210562,-0.894389845491281,1.77523641378816,0.490970507737315,-3.14123097988515,-1.77707885464525,-1.57791326552494,-0.445949494124983,1.03689753264358,0.783803901860777,-1.40290150775734,0.285212056460678,0.230519133755236,-1.8278454555022,0.308512243251918,0.115269888704921
51.645,-1.31503948287743,1.00928350665999,0.219149164423101,0.124296525869198,0.219936517723358,-0.325080285361076,-0.31568781603985,-0.505593989304174,-0.821906133163226,-0.845519731932089,1.69268261626211,0.502322252663722,-2.40397594539126,-1.64460011024839,-1.24822942345893,-0.393784083310218,1.0220528715491,0.686867030482406,-1.64053985648299,0.426120503870699,0.117640829773438,-1.84700051650438,0.328760044590162,0.0989654438659693
51.65,-0.998672232972798,0.703646997682576,0.564808331594203,0.148176526199647,0.195394609524758,-0.255869052780444,0.180805851091052,-1.52451215164689,-1.05187500916921,-0.807307258746053,1.59947441585674,0.514045865845277,-1.61358802442889,-1.145609817982,-1.09849202138285,-0.353886211913396,1.00888300993634,0.580941821690301,-1.93387785574251,0.623149396918987,-0.00137136519289154,-1.86675820858839,0.346822912397908,0.0923236627323705
51.655,-0.544652884387303,-0.389386564073411,1.25724827345492,0.16260176179638,0.171548002852227,-0.18898591693006,0.251739926891284,-1.63327052758499,-1.13918702881858,-0.780127453256999,1.4981278298726,0.52544390763187,-0.648108681985061,-0.56871541675394,-1.02733206704116,-0.326530026104625,0.997709820477545,0.467849243175944,-1.96637081620546,0.743147565611681,-0.050059943178093,-1.88746380317542,0.362526104043396,0.0953468742867393
51.66,-0.441334362390213,-0.356398086171599,0.89373712399263,0.166829595386177,0.147047221411834,-0.127260521633263,-0.199679490340549,-0.788196820438425,-1.1579186018868,-0.764116670201083,1.39109911263997,0.535860759500893,0.0561775586765395,-0.235390674976296,-0.901526966855619,-0.311748768427231,0.98874013436876,0.349611328779684,-1.7622599906845,0.822836648119854,-0.0722450945163541,-1.90936428487577,0.375822661194191,0.107759714811531
51.665,-0.697150533754606,0.666007433615304,0.491156362555232,0.160477884659812,0.12096954299574,-0.0729086070563585,-0.382287317761331,-0.0823083913935472,-0.873857469613743,-0.759170940045117,1.2807226394932,0.544709970130351,0.480131800401082,-0.169042352119,-0.946204942019643,-0.309337108999322,0.982059378160902,0.228383774170863,-1.50277024535953,0.792347947682982,-0.106566823641784,-1.93257209215532,0.386816976443861,0.1290344413453
51.67,-0.777359242815481,0.809498247550432,0.558924922180337,0.14352933644421,0.0928141734557344,-0.0275240469497046,-0.539011935818546,0.413272495101066,-0.24508028177327,-0.764950852114384,1.16915170216816,0.55150278389375,0.495447665786895,-0.13109430611934,-1.06080857820626,-0.318856520798199,0.977636981807988,0.106376027149952,-1.30141024096026,0.694802122295977,-0.14074067404886,-1.95705300735278,0.39576947463541,0.158403343693444
51.675,-0.578761473252474,0.324670912894717,0.888866943641888,0.116326815416221,0.0624758577549623,0.00790275511784704,-0.607340053897584,0.414223759840142,-0.0114145002511955,-0.780888943791653,1.05831024737829,0.555874817680517,0.349094098540724,-0.0670458330279261,-1.03385717331454,-0.339640140742054,0.975340497962104,-0.0142358144259324,-1.11201787597096,0.638417578695185,-0.111240537968741,-1.98263342685394,0.403077360255791,0.194863679218902
51.68,-0.411273554511399,0.201817920622072,0.863456919425425,0.0795588335960837,0.0301941756802153,0.0329469718389221,-0.515406570530166,0.205097787650253,-0.150861046701154,-0.806194334910457,0.949864676961095,0.557601903478559,0.117094124364365,-0.023089968013465,-0.931885790019453,-0.370795232499037,0.974948923284589,-0.131387320404275,-1.00898660589705,0.650742242924545,-0.0280817856260221,-2.0090106371594,0.409243136224303,0.237206943327983
51.685,-0.415092216707804,0.329544661891017,0.780630431402328,0.0342315866247069,-0.00352371688138947,0.0476995512463052,-0.431395762992863,0.0333060105292229,-0.444862681051338,-0.839857570031024,0.845214076862071,0.556602216880416,-0.0598879879743664,0.0701997741348238,-0.822473016633557,-0.411207886105601,0.976162809401839,-0.243186491869555,-0.989989991433293,0.658566984851584,0.0815688541387869,-2.03576148713033,0.414846487290903,0.284082814583702
51.69,-0.482782609758957,0.42575929673699,0.789131501988349,-0.0183711357749615,-0.0379939937849731,0.0527060974479459,-0.475897574844403,0.0160302649109005,-0.679073665704964,-0.880662042844082,0.745491310032197,0.552930600355972,-0.191903985192629,0.285082220626427,-0.764417443177126,-0.459554626237937,0.978617043945704,-0.347959925493663,-0.893180244702899,0.510483492322838,0.144228918751595,-2.06235745213349,0.420524429110763,0.334073146522292
51.695,-0.450267465131815,0.318828190868475,0.843267222263073,-0.0767376676990754,-0.072440628486808,0.0488892642044181,-0.603557202248229,0.0109976967779946,-0.694159043373919,-0.927206148661242,0.651568967061631,0.546769576918474,-0.308037144469583,0.457638102184125,-0.730911734004593,-0.514323846033762,0.981899896753668,-0.444292951067191,-0.933578794345733,0.452967694696934,0.250719489230178,-2.08819250344115,0.426939766276219,0.385755825221179
51.7,-0.471116049470628,0.2918663934625,0.839783110452341,-0.139193029802961,-0.106067374065203,0.0374587659006386,-0.732834598601195,0.00856831195368533,-0.566158734903698,-0.977943070494776,0.564065970383335,0.538414537837731,-0.616459401554405,0.762309367773247,-0.659030993807141,-0.573855268365016,0.985576887400343,-0.531071875458074,-1.08286192128002,0.344422387336478,0.398699697735953,-2.1126233707818,0.434711032532021,0.437754530861085
51.705,-0.515338640982975,0.339821082790255,0.803211159257165,-0.203976894610351,-0.138119811493543,0.0198203122501845,-0.993121446114375,0.0120492318615868,-0.389578238994606,-1.03123718095438,0.483358146634508,0.528250573595451,-1.04579869562841,1.12912001934453,-0.582720536040527,-0.63639770123266,0.989215301519053,-0.607520693681149,-1.43343841265985,0.211315613587738,0.522355150488,-2.13501379238283,0.444329299500301,0.488773957555906
51.71,-0.492907073205205,0.353831607067328,0.802051054254974,-0.269321557743726,-0.167934504099032,-0.00250998468647397,-1.20423953588866,0.00462907952720519,-0.295252608939516,-1.08542446497467,0.40959885159404,0.516723258435519,-1.47011076697898,1.34153895656273,-0.505316739438781,-0.700172389432366,0.992404666118997,-0.673216506662411,-1.52032853314929,0.156070127149559,0.453948255612308,-2.15477302402644,0.456108006701155,0.537628940640964
51.715,-0.455585456725496,0.31380975730381,0.81964215747262,-0.333523871006337,-0.194971747677,-0.0279842697983962,-1.47511804910683,-0.0142664384260783,-0.255495704840035,-1.13887172382755,0.342745917453273,0.504306829586648,-1.90841771914294,1.15539316035355,-0.431054573946593,-0.763436350543484,0.994771774962207,-0.728084806635703,-1.39701418480547,0.0872114658881949,0.309711345487563,-2.17138763421894,0.470161938022705,0.583273516283959
51.72,-0.424000207024577,0.306338511343797,0.833194757204504,-0.395009519550268,-0.218832266064869,-0.0550977842559505,-1.71127829545154,-0.0415986776428157,-0.277089287178929,-1.19003276662492,0.282590120801951,0.491473281327022,-2.22695268191448,0.560031129736995,-0.190653493795607,-0.824543182035719,0.995990890736761,-0.772380593166692,-1.45965786116044,-0.0304822408478617,0.268229279933131,-2.18444754214664,0.486400136733011,0.624824133760271
51.725,-0.406001813513868,0.316557063788823,0.833263916947485,-0.452384237787452,-0.239258443514381,-0.0824616450810457,-1.81781625067649,-0.078123852197021,-0.32339266117669,-1.23749595606931,0.22878641360806,0.478666170430475,-2.16874179575062,0.156809020340186,-0.40966075257071,-0.881994386738868,0.995789794771125,-0.80665338096204,-1.53081375826342,-0.0993614672390916,0.127877858553165,-2.19366324724989,0.504537378152792,0.661572804435494
51.73,-0.392359765648417,0.312240133774499,0.844783854510318,-0.504471052677968,-0.256122305771328,-0.108864761362507,-1.7635678094595,-0.141654297702502,-0.338658366503138,-1.28002255256052,0.18088646574499,0.46628007875451,-2.18277781577459,0.2002292541174,-0.474897675285287,-0.934480256717162,0.993952397390899,-0.831699035899965,-1.43901171553652,-0.0688681428663992,0.182841205671421,-2.1988718550525,0.524120857678354,0.692992368060918
51.735,-0.392314464454336,0.302801408942657,0.837252638422586,-0.550335162131389,-0.269406867141306,-0.133313797409948,-1.60389180429849,-0.209515838371656,-0.298799475040231,-1.31657703150803,0.138368593530908,0.45464530929453,-1.93557609996159,-0.0876387216608878,-1.14325790986056,-0.980911815776764,0.990318304201789,-0.848505371276475,-1.46077516417397,-0.0968965945859062,0.126771902865716,-2.20003163888944,0.544564102615759,0.718736039255119
51.74,-0.415925591164139,0.297826293140278,0.835299054851353,-0.589294409156488,-0.279186712807086,-0.15504932602305,-1.38243107373754,-0.271739982153426,-0.245245816834422,-1.34634645799888,0.100664641642411,0.444019108958533,-1.632676200023,-0.133932087800392,-0.800961781634353,-1.02044051884995,0.984780220311495,-0.858195391568603,-1.40272364271909,-0.104021846038964,0.122379596249811,-2.19720837533473,0.565184102295167,0.7386291088866
51.745,-0.446378425400531,0.288347054783304,0.834810449039466,-0.620913506380801,-0.285608612609261,-0.173545547163005,-1.14868359272941,-0.237619951278233,-0.197192477192901,-1.36874487987162,0.0671860323816281,0.434583878920101,-1.30912647347364,-0.0403477604262076,-0.0884120449711241,-1.05246143592573,0.977279411208917,-0.861969599321152,-1.37722882742585,-0.0909880759898208,0.133500533320938,-2.19055754156812,0.585238789341165,0.752651202129005
51.75,-0.448902346721062,0.266648773254262,0.835523969351986,-0.644988121685162,-0.28887192495856,-0.188502598381578,-0.997805299222773,-0.169995213376153,-0.218777144547151,-1.38340519235601,0.0373489767873866,0.426448826207221,-1.0259999506357,0.177976982640524,0.4391024776849,-1.07660342834744,0.967798388946015,-0.861045557157143,-1.23968835341848,-0.0682777864870151,0.157240239741389,-2.18029946918254,0.603973972334143,0.760916976109705
51.755,-0.454929335012372,0.246796018765161,0.850837918692283,-0.661528291819786,-0.289210877291779,-0.199829790103793,-0.886703392725976,-0.125060915748231,-0.246833020656069,-1.39016888716552,0.0105943547785801,0.419652368007158,-0.714320264079326,0.32586468470635,0.437744519962405,-1.09271721657038,0.956353235468044,-0.856596355463851,-1.11020429303001,-0.0572556081412723,0.162784894330529,-2.16668764834447,0.620687543519836,0.763661458800346
51.76,-0.452726567903078,0.237451957642679,0.84251044481029,-0.670739510196352,-0.286880232588932,-0.207612988191925,-0.833632833604751,-0.0819932171022646,-0.266355559897986,-1.38907704018224,-0.0135994034099955,0.414168291022355,-0.523236000512055,0.237899724408019,0.166002410107106,-1.10086336962352,0.942989961727486,-0.849697738181024,-0.956108758410339,-0.00668897462010312,0.143765581836872,-2.14998334491582,0.634793097096113,0.761220175362252
51.765,-0.469479482636114,0.245026744914142,0.836897091268304,-0.67297648881707,-0.282133439190978,-0.212067618715962,-0.830999267108267,-0.08808956399467,-0.26346666320278,-1.38033431167822,-0.0357022278351027,0.409920160092815,-0.38955195218804,0.102763733063173,-0.247203782620409,-1.10127192896897,0.927778778827654,-0.841287695301034,-0.845852562189286,0.0479646604743525,0.119599736044334,-2.13044387504651,0.645864720608931,0.754003537562844
51.77,-0.474095928708002,0.255675088925264,0.830140294820209,-0.6686535576866,-0.275182442879014,-0.213484995534383,-0.840254002631982,-0.105997690377025,-0.212630382731991,-1.3642209858363,-0.0561107280339586,0.406802495090846,-0.355422723318332,0.0800995780191369,-0.132145009837797,-1.09425066113766,0.910796609992788,-0.832132561573915,-0.791028862111587,0.0665798776854202,0.0989278796246718,-2.10831698531223,0.65366450571851,0.742483558437264
51.775,-0.466062940842863,0.260781464648275,0.833498376927118,-0.658190113851937,-0.266182647566609,-0.212193496790267,-0.840201100085286,-0.118445718075316,-0.196374412923513,-1.34103899042133,-0.0751332445179715,0.404694144031181,-0.487462368538089,-0.196469554729635,-0.385319191917356,-1.08012755586146,0.892118433718005,-0.822803417100424,-0.705659598420689,0.056215037712887,0.0702581503678637,-2.08382973358838,0.658152066587982,0.727186753066979
51.78,-0.446628632342218,0.259945352861455,0.842207355908171,-0.642068338054271,-0.255289286349963,-0.208549650203169,-0.859693125900659,-0.130585555714337,-0.163841818942673,-1.31118523032734,-0.0929987748781536,0.403454625358717,-0.579885670867342,-0.142787150721146,-0.355833790773751,-1.05931905169247,0.871842319915267,-0.813678105825336,-0.643946524751217,0.0497558829580062,0.052926730828958,-2.05717218513824,0.659470885301543,0.708670212021686
51.785,-0.433652610423454,0.253501784172108,0.852944312321325,-0.620891371534869,-0.242719095163796,-0.202927062990844,-0.87954876215039,-0.127953393022406,-0.13343997141695,-1.27523037504726,-0.109872283174236,0.402922755146209,-0.71990690748506,-0.24975808058153,-0.207161118267847,-1.03240397669796,0.850116175591115,-0.804964125612008,-0.59507304616676,0.069802806048023,0.0391417979613699,-2.02849778682485,0.657920804333801,0.687491481615239
51.79,-0.432042733975409,0.25140144739991,0.83986957078642,-0.59532302510452,-0.22874017661234,-0.195676140368705,-0.921601684476253,-0.164617067690218,-0.115392358782678,-1.23386319672389,-0.125849802327282,0.402931863929403,-0.849629626286278,-0.305294492309844,-0.159556151962846,-1.00006618966997,0.82712822490047,-0.796715176676545,-0.571919512858148,0.0955210939548641,0.0215425365865769,-1.99794787610929,0.653934122690443,0.664197497721854
51.795,-0.43533962139057,0.268278881945223,0.832851652011109,-0.56600675957886,-0.213631962577218,-0.187093343366278,-0.943049447265469,-0.192039942215096,-0.114657382812097,-1.18780190882077,-0.14094833871554,0.403323217149803,-1.05157464303397,-0.304137932064007,-0.0845298380261193,-0.963006784406529,0.803085236511936,-0.788841053819448,-0.565994168771322,0.129692667584681,0.0150600766544318,-1.96567208936414,0.64804507034038,0.639331933234969
51.8,-0.446449254773058,0.275171536182496,0.826458412845047,-0.533570799619971,-0.197672838311695,-0.177431813804681,-0.96891678057089,-0.195320072963098,-0.135617483386569,-1.13779192909456,-0.15511725064074,0.403943814524804,-1.24606220272923,-0.394330119957566,0.103845629262361,-0.921943948881769,0.778208231497121,-0.781136463481748,-0.563783980802812,0.180347759919971,0.0174598119935124,-1.93183230615789,0.64082870849926,0.613442546137976
51.805,-0.451137545215615,0.277658999516195,0.831148579407085,-0.49865827251887,-0.181143036716671,-0.166916529586363,-0.994972002989328,-0.180904439585214,-0.150636793805347,-1.08463013326832,-0.16825977419384,0.404640620390431,-1.40877517227808,-0.490224767689169,0.334571248412554,-0.877640066557642,0.752732891679815,-0.773323628930329,-0.589387744336787,0.225653858472038,0.0232050960846865,-1.89661116718657,0.632832814911587,0.587074411849894
51.81,-0.460044231459539,0.26275205996298,0.83890331361468,-0.461911927461784,-0.164319788544497,-0.155734598826961,-1.03684894108632,-0.172599395692285,-0.164361861750046,-1.02914242060323,-0.180243515539512,0.405262149982907,-1.52212675294097,-0.518616340098806,0.163984133999815,-0.830882001492039,0.726899760264522,-0.765083874239576,-0.623117210985179,0.260556289524936,0.0340023864681054,-1.86023071399259,0.624540118145654,0.560752684485809
51.815,-0.454032323322873,0.259102985511001,0.840806063106208,-0.42394120404311,-0.147468505230687,-0.144023042650742,-1.06917827700332,-0.160757304208849,-0.162608912154325,-0.972141899582138,-0.190904939564632,0.405663267465197,-1.47708165027387,-0.524771037116324,-0.0411061864427296,-0.782441493195059,0.70094140839143,-0.756079954070294,-0.673611410472688,0.297199399426811,0.0587595193414679,-1.82296499581733,0.616347817373601,0.534966416512133
51.82,-0.445787497810142,0.259077915990579,0.831815303973,-0.385308202713649,-0.130836792107821,-0.131871532469321,-1.08805865355698,-0.148768486797895,-0.166829665553433,-0.914404798634232,-0.200058306596943,0.405707044132743,-1.34339881633589,-0.541237653005405,-0.115140012788693,-0.733053369872984,0.675073600540041,-0.745981097629751,-0.728693221581514,0.31791473258764,0.0900081044633282,-1.78513962821987,0.60854267113833,0.5101578329479
51.825,-0.447068772192354,0.283087830169446,0.820232883651425,-0.346528862099772,-0.114651463113751,-0.119331791732062,-1.10097840593393,-0.124167827794949,-0.171742336541286,-0.856661703950511,-0.207508376188939,0.405263651281122,-1.18355921933057,-0.493647143813267,-0.0592920603890727,-0.683409374255079,0.64948919711936,-0.734488252000649,-0.784431076932746,0.312853877828299,0.132841998146442,-1.74712333557691,0.601283948522756,0.486715841540494
51.83,-0.45698393240925,0.288569022444636,0.820743951021851,-0.308077800530067,-0.099120955924272,-0.106422518666594,-1.09636027929258,-0.0979309173488653,-0.162328994470558,-0.799595916731046,-0.21306479233453,0.40420947825408,-0.960109939326321,-0.359015789443791,0.0403593629406643,-0.634158643561359,0.624354763288274,-0.721355559482269,-0.818455810323314,0.313302886380034,0.175275227504511,-1.70931942961385,0.594607555933973,0.464968406636982
51.835,-0.457863118975009,0.279812651117353,0.827781819687978,-0.270388833596514,-0.084437162784662,-0.0931337006472776,-1.06656371966742,-0.0903606103922273,-0.144510297291542,-0.743838803614544,-0.216553667425451,0.402428076403401,-0.817163268824829,-0.240851849217083,0.0874501517013416,-0.585904375356779,0.599808398291811,-0.706406184331661,-0.834869919751087,0.324681059199411,0.214115229844143,-1.67215219235798,0.588429543041287,0.44517607495485
51.84,-0.438972177237581,0.265643952105023,0.836848350027542,-0.233849428300067,-0.070766804888305,-0.0794444523705327,-1.04020382087811,-0.10307946240568,-0.123981702522557,-0.689952671336124,-0.21782172028683,0.399811207818021,-0.666348649662425,-0.191945988940951,0.0579949717313731,-0.539187833047604,0.575954859913078,-0.689537070467948,-0.866809649734608,0.366547290691716,0.239180188570537,-1.6360367371241,0.582531595618938,0.427535442639426
51.845,-0.428835221133279,0.263194870348438,0.835611735192322,-0.198798836607168,-0.058241584251039,-0.065349670850094,-1.01206126139052,-0.125023421296956,-0.101580924375411,-0.638414367143358,-0.216739158844974,0.396258998523232,-0.608099226797192,-0.228931796627387,-0.0411028577231232,-0.494472932574698,0.552861102448975,-0.670712874388255,-0.933534022968592,0.410344206626051,0.252706339580995,-1.60134699055835,0.576567353794804,0.41218553666354
51.85,-0.428109733553651,0.280495547685299,0.838604193630928,-0.165535866848975,-0.0469597262054018,-0.050876626139893,-0.99185496708436,-0.142848801958884,-0.0884860740392257,-0.589617224056201,-0.21320815643824,0.391681251102311,-0.600398434921384,-0.295694760491213,-0.170997672635936,-0.452148077139305,0.530558970633887,-0.649955404571434,-1.06799293611742,0.432244244285315,0.237614793636153,-1.56840275124368,0.57012070469198,0.399204315242255
51.855,-0.434183789098464,0.2803797819568,0.832400346468884,-0.134328304867904,-0.0369942605334586,-0.0360877932199142,-0.974821351518009,-0.154881975647256,-0.0764154044794172,-0.54388544011954,-0.207171363470217,0.386001855933959,-0.73758774059416,-0.240862374470657,-0.0662108497758429,-0.412538712385128,0.509055093007208,-0.627329577111139,-1.1573624615428,0.420386426432547,0.175075495795569,-1.53746978278205,0.562786519980633,0.388594711552056
51.86,-0.409274683184556,0.284904358795205,0.824307593342359,-0.105415626669531,-0.0283980349260887,-0.0210835563386999,-0.960321030210133,-0.161272730170326,-0.0635074091533653,-0.501485176638035,-0.198611805065374,0.379166347264857,-0.906102278990153,-0.177296094408601,-0.000667798539071425,-0.375915045510297,0.488343788281941,-0.602923719748547,-1.13955259024122,0.389202928357539,0.0961704432573151,-1.50875724286413,0.554236426269012,0.380267370902395
51.865,-0.456143297262047,0.279015636940594,0.833534400331161,-0.0790100965415202,-0.0212023853240842,-0.00601304110461342,-0.9304354141627,-0.173487830139569,-0.0460193432798076,-0.462631641834226,-0.187547633200907,0.371149823154839,-1.04177348877967,-0.181174123486711,0.00135662386014689,-0.342495517046891,0.468419736732067,-0.57683306603762,-1.05799914716775,0.277808907288859,0.0207628497628114,-1.48240821755953,0.544248313720923,0.374034880065063
51.87,-0.45556827377513,0.264821740988825,0.831315004752138,-0.0553074493952825,-0.0154160655800903,0.00891971151918519,-0.920932840524462,-0.163604761164064,-0.0538574955629985,-0.427505497626599,-0.174034423826329,0.361960845314855,-1.11936460538446,-0.286079984180028,0.138857303903678,-0.31246133922917,0.449288707970792,-0.549160676812783,-1.02404409669907,0.187401976573087,-0.00608864469172332,-1.45849151460066,0.532696821198995,0.369628297866609
51.875,-0.455495508320666,0.26748167170929,0.828506718703171,-0.034501097240787,-0.0110296566575394,0.0234654437750257,-0.90054439443029,-0.140794815791101,-0.0632424455943383,-0.3962759527389,-0.158174644294573,0.351641882898973,-1.16345791820545,-0.397240573570276,0.17207851804721,-0.285979386488255,0.430975721944818,-0.520030308159876,-0.969988921281974,0.175157729610848,-0.0284856395527994,-1.43700158332164,0.519528596223475,0.366722815151058
51.88,-0.456389251643753,0.275666186234005,0.820916556080399,-0.0167847630026122,-0.00801985724566168,0.0373438883702499,-0.893924286220443,-0.112597143974486,-0.063483691532691,-0.369111689039913,-0.140120849834605,0.340269927208359,-1.11621158615192,-0.449609038279432,0.107496940401672,-0.263212954856339,0.413529989507123,-0.489592335298248,-0.913116725280182,0.180812816055086,-0.0454225411244855,-1.41786220359292,0.504743591516007,0.364953405322064
51.885,-0.455647921999438,0.280542843591655,0.816668996726092,-0.0023520134740347,-0.00635115917263336,0.0502478488808226,-0.900952592399653,-0.0681872737113749,-0.0672870734086288,-0.34618367998115,-0.120069292003747,0.327954961806155,-1.03296715209153,-0.432668374880364,0.134680967893032,-0.244324412781464,0.397026573029054,-0.458014195942825,-0.884825103669424,0.168417218956479,-0.0417134323110991,-1.40093010322617,0.488401495241951,0.36392202173509
51.89,-0.44808041318916,0.289803526544789,0.825705801159845,0.00859661206182748,-0.00597805977114372,0.0618413490072092,-0.919046117668016,-0.028270513936681,-0.0638146487077455,-0.327672859021235,-0.0982497253600507,0.314833904982059,-0.906515463728307,-0.2626314373701,0.114964384360459,-0.229483217712023,0.381565830340009,-0.425460158762037,-0.873632299090013,0.146051292811989,-0.0360226468266272,-1.38600174109257,0.470662670547823,0.36320677339439
51.895,-0.444249958822743,0.295130558541074,0.822955794228053,0.0158495804319539,-0.00684522314111432,0.071765369401233,-0.943237241573821,0.00845216427027522,-0.0499797852796459,-0.313774780304975,-0.0749186095983137,0.30106368529816,-0.82586761882998,-0.183641028116903,0.18176834922516,-0.218871445915317,0.367270495340193,-0.392082049960473,-0.868725932352484,0.0847870714720153,-0.0307652108012867,-1.37282568869051,0.451813949803842,0.362380516081833
51.9,-0.430324025970694,0.295042345506468,0.824202758971683,0.0191864216410667,-0.00888322175499773,0.0796496368096236,-0.963732759894061,0.03973271327074,-0.028145641393983,-0.304694842964624,-0.0503607161317405,0.286813780305642,-0.784093410896694,-0.0988666894859269,0.201173106245891,-0.212681189740047,0.354278031065394,-0.358035104317836,-0.860179007886365,0.0425385233379769,-0.0251279061467636,-1.36111734542528,0.432234334005309,0.36104264664464
51.905,-0.422154730325317,0.296063756287353,0.827463943152852,0.018393420986562,-0.0119987683006339,0.0851293447654658,-0.982672128169607,0.0535586669600886,-0.00580978756084634,-0.300624200615385,-0.0248879038632046,0.272256600657491,-0.79026499749444,-0.0403245260478429,0.228455602615678,-0.211093739369719,0.342725573311048,-0.323493027705975,-0.838856027220295,0.0205004593581052,-0.0121263141952564,-1.35057337060077,0.412344572764288,0.358851679530067
51.91,-0.428520263458589,0.285465071798364,0.833497125513013,0.0133090914671806,-0.0160588966035274,0.0878805531812498,-0.995450052435151,0.0592689657002055,-0.00311893776649777,-0.301685775715498,0.00117542575077256,0.257558638982857,-0.826344353136513,0.00595134821029374,0.264966716764024,-0.214228454470899,0.332728854891931,-0.288642694874511,-0.838883074174766,0.0384245388169092,0.0149551614925385,-1.34089027941562,0.392582968895141,0.35554514857554
51.915,-0.435936478579669,0.288299277624356,0.824646603767047,0.00387564105966098,-0.020884212003803,0.0876617000916207,-1.00649563312621,0.050299446602509,-0.019594372351064,-0.307878134037747,0.0275102562666019,0.242873573853502,-0.867953312579992,0.00834008559268999,0.282922939741475,-0.222088486925994,0.324363105546659,-0.253677948930015,-0.849871899870742,0.0775867421295042,0.0474098464660145,-1.3317884443563,0.373377460534316,0.350950488411935
51.92,-0.4598296585208,0.30211192347442,0.813684159278541,-0.00983516521738332,-0.0262640052936785,0.0843327483922702,-0.996744550043011,0.0346844743977712,-0.0361597610547579,-0.319046678039739,0.0538168178087246,0.228336134775964,-0.909342651154105,-0.0165730478998702,0.288087781170438,-0.234532771914862,0.317652020054728,-0.218801933415379,-0.873854294535763,0.120815280728552,0.102673955426132,-1.3230328417263,0.355097663609794,0.344988101373474
51.925,-0.462055180702147,0.307509977499227,0.819803391241142,-0.027617806693402,-0.0319764131289152,0.0778615315283214,-0.980264513349689,0.0139350794857778,-0.0472351997766143,-0.334878036165885,0.0798216140204141,0.214056397654507,-0.940839784121747,-0.0404605522742752,0.265794950363355,-0.25127092409281,0.312562329442331,-0.184230711771669,-0.898154588040909,0.163137240654731,0.16062241512606,-1.31444179828815,0.338017385816424,0.337668771020755
51.93,-0.440921844703259,0.290224151660547,0.834324146378828,-0.049141321419963,-0.0377965146312781,0.068335919476173,-0.96623405508018,-0.00554698817405037,-0.0350179815804649,-0.354910268011233,0.105272405598456,0.200114742532601,-1.00610792028528,-0.0538905294269402,0.258795711086502,-0.271874575539368,0.30900097781774,-0.150199536506339,-0.9247439403822,0.194587050708995,0.214280888857285,-1.30588349471376,0.32230048962651,0.329093360720858
51.935,-0.422791321979459,0.282749750628534,0.837264799955072,-0.0739667255896801,-0.0435015947288008,0.0559680576062781,-0.971350102099347,-0.0154631077637351,-0.0173921858824158,-0.378553893366414,0.129930630554911,0.18655952912383,-1.09565060894606,-0.0370126953301263,0.272230329186497,-0.295798917247801,0.306816769284161,-0.116967075651938,-0.953104963048525,0.220713091690703,0.261255481372694,-1.29727037246391,0.30799958848834,0.319448197447728
51.94,-0.425660042176584,0.27503986613527,0.837155017391754,-0.101569178126399,-0.0488847442398987,0.0410777499051095,-0.980091718787022,-0.0222074197150809,-0.0145864299919243,-0.40511768674947,0.153571906953144,0.17340879302242,-1.16550544095817,-0.0178805362223455,0.286649273764173,-0.322407187921953,0.305807687233018,-0.0848110103275024,-0.969804903520861,0.232499742585675,0.276177315758061,-1.28855914497185,0.295063050640546,0.308989301928884
51.945,-0.438637954961047,0.280860721618797,0.829978352327278,-0.131360038041135,-0.0537686973708418,0.0240710719629676,-0.988967998398684,-0.0281544203599358,-0.0271375516477009,-0.43383627433226,0.17598828090567,0.160654849184441,-1.19648656996982,-0.00966895214801449,0.283387236033375,-0.350996155495729,0.305731249324293,-0.0540213438075798,-0.983162113922925,0.241071173091297,0.275181749946508,-1.27974687678614,0.283345361106942,0.298021847638301
51.95,-0.444743723353531,0.284106343335201,0.823701472338295,-0.16270573579476,-0.0580106131085476,0.00542530809896899,-0.996021574562107,-0.0449962399958501,-0.0391636303543213,-0.463897364760369,0.19698740248424,0.148271036798804,-1.19607463206098,-0.0419856445179685,0.231020418186776,-0.380821137527299,0.306316051131507,-0.0248949844861283,-0.996597500450357,0.24243038654525,0.251758839503805,-1.27085563187204,0.272618649906191,0.286876419486542
51.955,-0.440276288414724,0.295544475835619,0.831801707795593,-0.194948917116218,-0.061504344950083,-0.0143338688952417,-0.999080280608111,-0.0643295368294324,-0.0403526767950908,-0.494471433071122,0.216393562968265,0.136219975563984,-1.1846393370008,-0.063919996188861,0.186266472273241,-0.411122809840286,0.307275722275647,0.00227316914255279,-1.00237732139657,0.243729779301154,0.223802526206239,-1.26191908374979,0.262594575099758,0.275879655610458
51.96,-0.431144354223321,0.27413943339989,0.845974737866881,-0.22743461868422,-0.0641847584420684,-0.0346674599420819,-0.997306518413311,-0.0776934959418776,-0.0362600258162052,-0.524744793600868,0.234052216777595,0.124461680696538,-1.16860196041224,-0.0554724729097153,0.162576852132213,-0.441156848728345,0.308324528717891,0.0272042906908833,-1.00247392766836,0.23749387436179,0.192741196935842,-1.252979746283,0.252958962206954,0.265325129511565
51.965,-0.417789150489629,0.252943583132029,0.846919414202259,-0.259532158138079,-0.0660303098316995,-0.0550503675556651,-1.00059370539913,-0.0714473153732667,-0.0484596124737708,-0.553947809510719,0.249832821241035,0.112959479614694,-1.1471736130387,-0.0278272966936008,0.161102151471381,-0.470219515882851,0.309189718110979,0.0496496973669982,-1.00555000165344,0.222750080448348,0.154432198906233,-1.24408312893649,0.243404684370087,0.255458770626501
51.97,-0.432834367930712,0.268203720379602,0.840676959068847,-0.290648704674263,-0.0670662464690751,-0.0749779128198247,-0.995902538085204,-0.0593598274334882,-0.0707046550751068,-0.581376073248125,0.263625916122088,0.101682414646259,-1.1273761664658,-0.000693112890038447,0.134892356671982,-0.497667866714328,0.309618258004433,0.0693992334873738,-1.00892117990604,0.213795648054712,0.136569885240116,-1.23525775385932,0.233650817742585,0.246487184595158
51.975,-0.441450953824868,0.287069860522863,0.838785273458367,-0.320244898860239,-0.0673644331604465,-0.0939712001239666,-0.990911306730184,-0.045809224566694,-0.0863444220749909,-0.606414099714227,0.275339154313269,0.0906071044329642,-1.10535193559359,0.0265805221760785,0.109138071586024,-0.52294235165328,0.309384395095403,0.0862894262267302,-1.01197752095196,0.192969180245846,0.120826835341743,-1.22649400974097,0.223460767801322,0.238582170723263
51.98,-0.439402103826436,0.277666458663755,0.844106313984011,-0.347850816010562,-0.0670267263653777,-0.111600650441358,-0.990848805133966,-0.035082555111486,-0.0851186115981401,-0.628555664038961,0.284899952013124,0.0797243226943295,-1.09030093834263,0.04214948236636,0.0957232274730549,-0.545583868717141,0.308302471175738,0.100217163112887,-1.00905455855935,0.163893818392808,0.118353085671216,-1.21774247188702,0.212674431715374,0.23185127209673
51.985,-0.438929948835579,0.271797468745655,0.847578949465184,-0.373065320478995,-0.0661598410765775,-0.127508490266493,-0.997545642748841,-0.0223311459548847,-0.086184708523425,-0.647401862142433,0.292261287115813,0.0690475770161592,-1.08043223041584,0.05249318686333,0.0916376074686831,-0.56522833978319,0.306236124403535,0.111146714310861,-1.00411221508997,0.13820921569642,0.123700057952132,-1.20892933685146,0.201234681650035,0.226304711768487
51.99,-0.427756506966004,0.274824363186141,0.846868798149261,-0.395548292848888,-0.0648631960563444,-0.141414545487666,-1.00441675250537,-0.013200746488849,-0.0982818703305089,-0.662649203753484,0.297401765820677,0.0586157776194555,-1.05317459773695,0.0580940596637345,0.0925023772208181,-0.581593846635645,0.303098485506398,0.119101094534159,-1.01490861427726,0.132497451868604,0.136420482954167,-1.19996946844253,0.189185545151425,0.221857667732593
51.995,-0.417681958492511,0.279519699395267,0.851274625951386,-0.415031095632173,-0.0632312078784653,-0.153122374019982,-1.00456468713766,-0.010994860818613,-0.0996639162879794,-0.674095175204988,0.300320282644205,0.0484888854013487,-1.00946388444342,0.0480360266944919,0.00974670921942045,-0.594486879969442,0.298850574510499,0.124147594852366,-1.06443484451456,0.15008849431638,0.163356976275848,-1.19077130373586,0.17665175995058,0.218351625308401
52,-0.41930856717508,0.2777170421881,0.84962026760908,-0.431337770738243,-0.0613571255013906,-0.162530583990105,-1.01060110102996,-0.0148248396864377,-0.0946308410601242,-0.681652695947182,0.301031076230718,0.0387405022333153,-0.959515263435726,0.0470549960968202,-0.0418319060173155,-0.603817864768746,0.293499974959328,0.126386346614896,-1.13747418713637,0.175167831402831,0.180401067553938,-1.18124113169869,0.163813403350636,0.215572333420004
52.005,-0.430627015171314,0.290510846493302,0.844814683570076,-0.444380110008579,-0.0593262306647685,-0.16962713091225,-1.00974679375223,-0.0157892298397405,-0.0934906540742964,-0.685336370313026,0.29956531092871,0.0294514840506756,-0.934097213677078,0.0346562984922326,-0.0923030623222233,-0.609588969981872,0.287092944205833,0.125944714772795,-1.17841869603205,0.183805856869232,0.179090290543674,-1.17128769208498,0.150877916506182,0.213266943298368
52.01,-0.443453976767382,0.288396343309035,0.8344516661792,-0.454111605602326,-0.0571949481495686,-0.174458883586044,-1.00348401517137,-0.0127345810501636,-0.110119131947975,-0.68520670109361,0.295981729165416,0.0207074731426839,-0.941887455582614,0.0103576413694778,-0.119506973255333,-0.611840089417586,0.279698185070324,0.122979400506181,-1.14170072999261,0.161402467492027,0.153705373630501,-1.16082343032206,0.138052965349447,0.211163175775077
52.015,-0.464068298869972,0.269292228429311,0.833870968457039,-0.460497993420641,-0.0549821821693366,-0.177111325599836,-0.996142350001282,-0.0371662250649701,-0.154816469902589,-0.681332331995843,0.290369910069313,0.0125963091092176,-0.958834822648398,-0.00514694410363223,-0.14814884279775,-0.610612967181601,0.271394449691244,0.11767418840633,-1.06889830649578,0.148986899622855,0.126353280338024,-1.14976713230955,0.125527273304384,0.20898771620098
52.02,-0.466831518689529,0.26391604785101,0.829929992915898,-0.463556031122571,-0.0526955771909465,-0.177721615572631,-0.991604751143936,-0.0583921429112104,-0.200104915176172,-0.673825339926359,0.282831839001147,0.00519929642623049,-0.992702710585445,0.0095597522373335,-0.159700905324922,-0.605988871314958,0.262271968183187,0.110221711720215,-0.972939970450961,0.171826282096784,0.108663054310069,-1.13805322149722,0.113462592113034,0.20648087252638
52.025,-0.468694456214157,0.257853844200368,0.833606983143041,-0.463394351814553,-0.0503586849252759,-0.176485805575658,-0.984469532326181,-0.0808722747859873,-0.231715387687477,-0.662882144379607,0.273464767640858,-0.00141861994120082,-1.01840375712804,0.0199919945513741,-0.163334925423485,-0.59813191396051,0.252435086623814,0.100807690079129,-0.905500516178221,0.206706086079178,0.0831078318500641,-1.12563921124304,0.101989448842048,0.203406376770505
52.03,-0.472809631689877,0.249954351888301,0.829796051612552,-0.460190777730631,-0.0480070223695374,-0.17363122741624,-0.994772639657118,-0.0981001942042088,-0.24101819011065,-0.648760351490591,0.262364993197381,-0.00721209579496074,-0.999422870937641,-0.0143272681034796,-0.203370989464076,-0.587267655997404,0.241993729138211,0.0896137315598413,-0.922439261186482,0.212432137542384,0.0880830959153594,-1.11250450960888,0.0912001968696918,0.199558691071414
52.035,-0.474935375034409,0.250000260055286,0.827082596361071,-0.454149407914117,-0.0456741563642945,-0.169380033673316,-1.00328281622088,-0.105137652435272,-0.231467218821331,-0.631735729539434,0.249636577799511,-0.0121550008993657,-0.97684681211666,-0.0497159199737351,-0.230434975738694,-0.573641453999277,0.231052083917688,0.0768259435233608,-0.991694157083387,0.194960607740611,0.126548951677137,-1.09864592236477,0.0811477574220134,0.194770607896291
52.04,-0.473155598869721,0.260382864220007,0.826682702050727,-0.445478622901695,-0.0433872777849357,-0.163929388056549,-1.00812267394475,-0.0975671058619083,-0.221022889027863,-0.612080132298317,0.23539297993409,-0.0162404908195897,-0.972767540737829,-0.0768310627007613,-0.247959500922722,-0.55749765212838,0.219702010514433,0.0626401211963342,-1.0303073332849,0.165622752692037,0.168345908112821,-1.08407034156968,0.0718584865407979,0.188922321086356
52.045,-0.461757628749217,0.273623006756874,0.828898228694553,-0.434377405930818,-0.0411684961368384,-0.157451890291365,-1.0077452446678,-0.0794739513585224,-0.214195363109277,-0.590043583125086,0.219754427839143,-0.0194787221268875,-0.994995653876503,-0.0824267292233855,-0.243259071902689,-0.539062513627299,0.208018998237948,0.0472618727905611,-1.02057096401446,0.148887101249221,0.173018047047962,-1.06878600625682,0.0633432105302808,0.1819467292021
52.05,-0.450966920050216,0.274271342257408,0.833505578166685,-0.42102405482633,-0.0390371183867278,-0.150103701010423,-1.00064781344224,-0.0648635465975832,-0.200347900854825,-0.565838338618185,0.202843934097027,-0.0218922202356059,-1.0098273903053,-0.0877845622100232,-0.233347452744879,-0.518528480884144,0.196060447952687,0.0309008015358328,-1.00058737887369,0.147875160557423,0.165809564501741,-1.05279998568409,0.0555943747739029,0.173823942295448
52.055,-0.444380135468625,0.266548987074903,0.83740052269731,-0.405576256575378,-0.037008865705407,-0.142020672248922,-0.995541535039112,-0.065948209328702,-0.197751100801616,-0.539642288932033,0.184787219170706,-0.0235147426912771,-0.992036751040468,-0.100795345352081,-0.2312584435229,-0.496057357769934,0.183867435309528,0.0137712156797298,-1.00894999828079,0.169420417282836,0.175245247999023,-1.03611571867016,0.0485950993701178,0.164574430296755
52.06,-0.453330847490008,0.25798054350507,0.831562347851644,-0.388179885628636,-0.0350929355911558,-0.133303187259317,-0.98834967281022,-0.0772424379259789,-0.213457483220368,-0.511617817104126,0.165715572439075,-0.0243933236011819,-0.973035817398701,-0.10399064209895,-0.245397328113781,-0.471798693426265,0.171469100746113,-0.00389885586641161,-1.02945174517106,0.178714510926356,0.194605091653136,-1.018724801283,0.0423479016797183,0.154259271812222
52.065,-0.463047657353218,0.266486604418072,0.828039693825651,-0.368975452557328,-0.0332912869268282,-0.124008149621309,-0.989617684131272,-0.0904628381981457,-0.227971592710248,-0.48192645802494,0.145764106196412,-0.0245868941449894,-0.966867909746135,-0.0979702612051057,-0.269710062622838,-0.445903546076524,0.158888258320956,-0.0218684538811429,-1.05104588500245,0.163118825828124,0.219861335160931,-1.00060431092681,0.0368872619318808,0.142974350674184
52.07,-0.470134503708375,0.276920795499676,0.822536635820623,-0.348100847336426,-0.0315978561741757,-0.11415753994378,-0.983745253162391,-0.0988045148554634,-0.235347253265896,-0.450732762956758,0.125065980376148,-0.0241607051133694,-0.974552940784044,-0.0704404989944656,-0.299135768948161,-0.418527142934132,0.14614668198063,-0.0398968271266052,-1.04885440426992,0.157147513304043,0.234334613394615,-0.981722579158592,0.032264228929155,0.130831953373168
52.075,-0.467218518045821,0.269585965322901,0.828884540845017,-0.325695137485004,-0.0299954369607814,-0.103757294035567,-0.983088039165041,-0.10881770297136,-0.238358935766067,-0.418203648598896,0.103748143091438,-0.0231808791729275,-1.00365349180142,-0.0514913106097758,-0.304502404633054,-0.389827155002508,0.133268864207961,-0.0577559972196942,-1.03699143894672,0.16162723167879,0.23900389679156,-0.962044437220641,0.0285259193185134,0.117941113230178
52.08,-0.455971884827388,0.272698157582879,0.828160138867504,-0.30190523372248,-0.0284539467230835,-0.0928121714004315,-0.985335344574031,-0.10163634278135,-0.233722134892907,-0.384511691264144,0.0819306644383092,-0.0217120026280704,-1.02173173226983,-0.0846108085577871,-0.286183531217595,-0.359966265697185,0.120284699125437,-0.0752364627158739,-1.03214674206188,0.16480818338562,0.237958852494122,-0.941534063742335,0.0257082990667392,0.104397265937762
52.085,-0.457347476324938,0.262507121090334,0.832792045558701,-0.276893378103747,-0.02693038476812,-0.0813282206798735,-0.986811292990669,-0.100967016752866,-0.228888654624194,-0.349844572397389,0.0597289705843358,-0.019817290036543,-1.02582055217749,-0.0847439790708847,-0.294880002203057,-0.329121037359537,0.107232214859592,-0.0921471398738217,-1.02458404951767,0.178551446482157,0.238439062676263,-0.920158493176884,0.0238419429182858,0.0902793719996251
52.09,-0.464986223235857,0.257270839455525,0.828160718405822,-0.250838831188898,-0.025369494907833,-0.0693127960974927,-0.991402269338499,-0.0928602021340412,-0.23724878513304,-0.314409366346383,0.0372556755683641,-0.0175572900062072,-1.02657137777096,-0.107353264105343,-0.301856137309636,-0.297485502880017,0.0941598531289969,-0.108317171344712,-1.02237291456332,0.176270355906451,0.245184586925869,-0.897895742337364,0.0229507522589592,0.0756379116548174
52.095,-0.468067346415306,0.259845657655305,0.831493117812393,-0.223934023012222,-0.0237106097693477,-0.0567840287477705,-0.996352631134068,-0.0937786765497936,-0.235742327570252,-0.278426846559309,0.0146200213408078,-0.0149866516508831,-1.00960894914587,-0.139657167197938,-0.294447547329556,-0.265265020836487,0.0811268108595793,-0.123603850631462,-1.01562698146713,0.170584302144353,0.238414135884245,-0.87474683002897,0.0230349174747305,0.0604738619399448
52.1,-0.466398399416822,0.262388329084299,0.829984245669267,-0.196384312811769,-0.0219021612670791,-0.0437863573510091,-0.998454414998137,-0.0973663684284353,-0.230394365225989,-0.242126131183754,-0.00807303702797619,-0.0121538626295508,-0.993991076793085,-0.161790071594232,-0.284136318639006,-0.232671463655369,0.0682006429096345,-0.13789778673995,-0.99935193091869,0.176039539475544,0.228594007080805,-0.850740512917487,0.0240593594081157,0.0447381476695107
52.105,-0.456700145914604,0.267182150976447,0.827692821248986,-0.168411607438974,-0.0199163510577287,-0.0304048472018681,-1.00705892271517,-0.0942409200227817,-0.219701103051152,-0.205742342144456,-0.0307230604450674,-0.00910416940497527,-0.97450186489535,-0.189752353805091,-0.27530834832296,-0.199922187917099,0.0554530284430167,-0.151120145141078,-1.00182488851941,0.187263852140723,0.219930776179256,-0.825927457666345,0.0259609238078523,0.0283575621801703
52.11,-0.44865832909818,0.272763411336405,0.830791252036015,-0.140250984472268,-0.0177556073405613,-0.0167709945192274,-1.00300382058865,-0.0783560195798944,-0.209235095671116,-0.169508409049446,-0.0532325402459209,-0.0058820059238567,-0.964515387602815,-0.220677696672837,-0.265550393060943,-0.167233117561988,0.0429543613619745,-0.163215932485573,-0.992657406605855,0.190148006815721,0.223238571753464,-0.800371625285033,0.0286597612196943,0.0112626868155459
52.115,-0.453580753667185,0.272130986928266,0.834458126502074,-0.112134575863878,-0.0154479603746625,-0.00305398305773088,-0.996598383612637,-0.069342335941521,-0.199402475532717,-0.133636268870335,-0.0755018126223949,-0.00253273610266771,-0.949271226597538,-0.249139184713771,-0.270784152394245,-0.134801198138052,0.0307660793423592,-0.174143442268237,-0.993188592054018,0.196623589466048,0.216466462419186,-0.77414012917768,0.0320624986042087,-0.00659014308762096
52.12,-0.457561717116386,0.261966079367991,0.831223658944493,-0.0842780944924864,-0.0130403570643459,0.0105520923978447,-0.991825075118963,-0.0818389587370913,-0.201601799972973,-0.0983030589833912,-0.0974272994949225,0.000896005150459747,-0.938945698705319,-0.245643405410606,-0.272510502393496,-0.102791706101042,0.0189347228547263,-0.18386632996727,-0.984758922790555,0.196492848854533,0.212791555059725,-0.747296413945717,0.0360624209655146,-0.0252052857814884
52.125,-0.464787990074756,0.256229324485494,0.830680453396078,-0.0568875449525761,-0.0105998290051239,0.0238335010252896,-0.975011664862606,-0.106779334894287,-0.210455413452903,-0.0636611147593973,-0.118911224410891,0.00435400894011933,-0.935315039164412,-0.247604509803283,-0.261927758243075,-0.0713488223184473,0.00749328276018694,-0.192361176179588,-0.963416718421159,0.203130651789683,0.2029169251687,-0.719903974344778,0.0405376187832194,-0.0445521084868551
52.13,-0.460948338064322,0.246098522955204,0.836078393459321,-0.0301689359042954,-0.00821487531863999,0.0365623805766462,-0.970276816781425,-0.127183860018483,-0.212758504952025,-0.0298521041954386,-0.139873745786606,0.00778871380440139,-0.934440136835129,-0.243932315195762,-0.253721067817741,-0.0406101715897479,-0.00353595704122821,-0.199631558414418,-0.956571963318738,0.207415147109133,0.201315780455911,-0.692031174995052,0.0453417804868134,-0.0645745447345677
52.135,-0.464317467699169,0.249752177378727,0.83574882135447,-0.00431833915793546,-0.00598662213118017,0.0485054934643115,-0.969722108583147,-0.140051927008464,-0.214474257687265,0.00300239825082708,-0.160253645807826,0.0111465991531645,-0.933814891116964,-0.232629630184427,-0.241193880161938,-0.0106975163818491,-0.0141434912361038,-0.205708612766415,-0.951157438192817,0.211261993494961,0.191190506454588,-0.663748742882987,0.0502965338030095,-0.0851911851447597
52.14,-0.468685020402559,0.248938329635874,0.833753733739765,0.0204934588215728,-0.00401626470317919,0.0594301700458096,-0.966214333907531,-0.140341552645511,-0.216358267044663,0.034816465273788,-0.180002606098998,0.0143763485470861,-0.944308484893469,-0.207154765599973,-0.247115343754324,0.0182996315355042,-0.0243338495889788,-0.2106418927351,-0.944291067528615,0.202628342592032,0.185279433217658,-0.635126361827032,0.0551977776628048,-0.106296985882635
52.145,-0.462423731177379,0.252365224423505,0.834780147883423,0.0441249106596731,-0.0023965095798023,0.0691157522819113,-0.966731080547246,-0.125558165185747,-0.218801396422605,0.065537165022968,-0.199084172406945,0.017431771831642,-0.947630826222718,-0.172627121840717,-0.238676191218452,0.0463226684905061,-0.0341216344518121,-0.21449480369144,-0.943398177588856,0.189206959571435,0.181978505683666,-0.606231760393746,0.0598323065193072,-0.127774318850441
52.15,-0.456210751107873,0.263803581455115,0.83346923580458,0.0664650351955048,-0.00120235798548399,0.0773775493175331,-0.971247722609825,-0.0904062689705113,-0.216184572636499,0.0951338911538832,-0.217474934162663,0.0202733227375611,-0.95922786656766,-0.163158195274836,-0.227961546763618,0.0733342889972947,-0.0435265523335989,-0.217343263246772,-0.946242116257382,0.177092010332959,0.173518072293331,-0.57712906924612,0.0639949026259577,-0.149505355974114
52.155,-0.453621900902231,0.2700606454303,0.831058870785581,0.0874327423559016,-0.000479905843520805,0.0840858439337656,-0.979730131889564,-0.056554636034183,-0.205151562503751,0.123587828278246,-0.235162994795575,0.0228692338225686,-0.964067771186044,-0.146669268028641,-0.225145283130524,0.0993091266096878,-0.0525684881335148,-0.219271114853635,-0.94160389853438,0.171534015695519,0.163141745354515,-0.547877643523125,0.067505526519107,-0.171382626182482
52.16,-0.449872555203958,0.274371301145529,0.834838217044326,0.106962962228371,-0.000241927344137374,0.089166780246396,-0.994338985486372,-0.0300947854963638,-0.19372966145022,0.150871666608133,-0.252147395404242,0.0251966650527835,-0.963787096423891,-0.134060137065427,-0.225050135658353,0.12421499745356,-0.0612597180573456,-0.220365248533323,-0.939391658710101,0.169020713494495,0.158771372898803,-0.518534497675441,0.070228408916147,-0.193319183705493
52.165,-0.445414255012773,0.271985119151209,0.837741187057392,0.124995156213461,-0.000472801607541207,0.0926050311579627,-1.00515616650537,-0.0253352798791909,-0.182677282178173,0.17693109064379,-0.268441216158092,0.0272425474032029,-0.970763033593824,-0.126700496704601,-0.21135924718659,0.147995237640179,-0.0695987544550957,-0.220716426209456,-0.941031795810728,0.160987858907171,0.151091754856572,-0.489158264832869,0.0720846279000753,-0.21525250857332
52.17,-0.443154259926702,0.277910639661376,0.838346252087822,0.141484752266458,-0.00113278059745441,0.0944611193377964,-1.00851588811646,-0.0266933760050203,-0.175888341100283,0.201691011400435,-0.284073414273449,0.0290037696208217,-0.979203838925998,-0.116540190996558,-0.205979452067272,0.17057436147035,-0.0775725528634281,-0.220422399494267,-0.944058429630878,0.160504543860643,0.144071868530257,-0.459811638864454,0.0730520595211643,-0.237136893978948
52.175,-0.444117524018102,0.272399970612859,0.838859065810607,0.156431139994272,-0.0021538497692766,0.0948874556283615,-1.01074388003771,-0.0356110803697225,-0.172974234198617,0.225086363862725,-0.299083082042396,0.0304865244494411,-0.984429148749507,-0.10571941265023,-0.199176233981689,0.191887610956225,-0.0851658615160034,-0.219582864062496,-0.951189302555194,0.150123800709907,0.138281735690868,-0.430560618223536,0.0731585829783883,-0.258927987738721
52.18,-0.448109280096351,0.272759908913443,0.836507990339751,0.169903583313413,-0.00343684537862296,0.0941326816858632,-1.00680265245623,-0.0456829841922193,-0.172291570595955,0.247096006825704,-0.313510279146297,0.031704782981008,-0.993835674979633,-0.0986446159327758,-0.189534212799411,0.21191368312951,-0.0923713789116355,-0.218288324532348,-0.948465356405807,0.144186935838818,0.135710088876757,-0.401471563327044,0.0724734004966223,-0.280566369515272
52.185,-0.445594413827088,0.275677294008538,0.834023564466058,0.182031480484321,-0.00486920138045181,0.0925259678740969,-1.00881031386341,-0.0624706447632847,-0.174937569649334,0.267738678340681,-0.327397909199509,0.032676636690753,-1.00152571234626,-0.0877061997037087,-0.169959440966927,0.230669752245646,-0.0991915681585923,-0.216619768070776,-0.948969514818857,0.13545485189158,0.133078504891395,-0.372615282782918,0.0710981710857765,-0.301968491553682
52.19,-0.44936310285686,0.271750341894043,0.833428184514683,0.192965288018472,-0.00635659013898328,0.0904441147294236,-1.00864882094428,-0.0657283487730016,-0.171532672541384,0.287038368125316,-0.340802459014406,0.0334193897842985,-1.00853324862771,-0.0861530783367352,-0.165937777435865,0.248176146045554,-0.105633841044521,-0.2146589219364,-0.942266262953547,0.140691859708893,0.13425729541422,-0.344076650991805,0.0691577977325858,-0.323022940849112
52.195,-0.448923249366861,0.273067972178919,0.836265725691267,0.20287040003415,-0.00783353675542631,0.0882869416909542,-1.00666304155582,-0.0685494456250784,-0.164554339441419,0.305029377152321,-0.353792679377312,0.0339473847903721,-1.01458624182749,-0.0908715639901922,-0.158797048635356,0.264460804847342,-0.111713695311173,-0.212486675166806,-0.940302069709951,0.13833463078917,0.132540623982259,-0.315952330751471,0.0667886962919041,-0.343579258727677
52.2,-0.45191241685382,0.269247964027552,0.831599084683815,0.211940335480196,-0.00925157602344544,0.086456625093565,-0.999818467819947,-0.0706139451207034,-0.16513033591363,0.321786140464902,-0.36643937529277,0.0342717656301179,-1.01776059208935,-0.095401754827983,-0.155501028346846,0.279588863610387,-0.11746193366051,-0.210170196032156,-0.936560794507999,0.134870377363524,0.127504181097742,-0.288340223653111,0.064129964830913,-0.363435479142388
52.205,-0.456596649056624,0.265531245565319,0.829921859444817,0.220368593741254,-0.0105760982385459,0.0853204642460208,-0.989259887296765,-0.0708948699686004,-0.156105573719587,0.337407172227012,-0.378815747160504,0.0343984813134086,-1.01879378272537,-0.115475067532156,-0.152517567111139,0.293646981414281,-0.122921282662779,-0.207760400333335,-0.93435010774643,0.135511575656852,0.128875780959958,-0.261338076385704,0.0613205489871702,-0.38233908517519
52.21,-0.452934644209736,0.261765840122232,0.835185479309693,0.228312071664387,-0.0117852403431946,0.0851705440716559,-0.980367817727116,-0.0839671022681936,-0.150704937192808,0.351987786239793,-0.390998489612499,0.0343267828136288,-1.01621167034689,-0.141295032622214,-0.144758277913791,0.306716958850423,-0.12813967916527,-0.205292736780862,-0.92531344510576,0.141700722079779,0.136425364801762,-0.235043739567409,0.0584960804755901,-0.399994058005131
52.215,-0.45610215599993,0.250716117623089,0.839297188983404,0.2358897358502,-0.0128552212722346,0.0861976176623283,-0.975037190082279,-0.0859407803193499,-0.151702706638189,0.365629357943052,-0.403057502452779,0.0340513341732581,-1.00330111875156,-0.158705343585514,-0.134315014657582,0.318886321891186,-0.133169353448122,-0.202777278732402,-0.926782604362815,0.149248496671474,0.13524699661773,-0.209545913737131,0.05578628867012,-0.416065393665151
52.22,-0.451868833760961,0.246308234394523,0.843170409954294,0.243181258153493,-0.0137556964244355,0.0884790089446053,-0.971133480620424,-0.0935179096827712,-0.152255383546416,0.378439344392156,-0.415051183990386,0.0335651059874015,-0.998270287544798,-0.178590850083162,-0.121900710518118,0.330249669489357,-0.138063281782444,-0.200195203024632,-0.920900859886979,0.157196015444536,0.14565578679253,-0.184917066632393,0.0533185305661375,-0.430189719257895
52.225,-0.446466882788864,0.250414180690524,0.847871516181578,0.250206186002137,-0.0144579653886668,0.0919744739855345,-0.972314036189274,-0.0914707982101116,-0.145218503190767,0.390501915936373,-0.42703218189564,0.0328608608355236,-0.988368871431824,-0.181193867425221,-0.12382600140627,0.340880371948166,-0.142866328034406,-0.197507979060763,-0.918895446760719,0.159457014935995,0.147882814938701,-0.161215912539027,0.0512236973836695,-0.441997225617652
52.23,-0.447119549640612,0.254992614834742,0.835099059009947,0.256908088591702,-0.0149384185823946,0.0965240129447952,-0.984143553587494,-0.0858303084813914,-0.133242465189065,0.401854305045443,-0.439048279425546,0.0319324059528674,-0.987770299259777,-0.178343207808422,-0.126551618324877,0.350808010044337,-0.147607976657704,-0.194663409816956,-0.915670023651722,0.160896732215636,0.152248766577482,-0.138492366482196,0.0496343108443568,-0.451136497327178
52.235,-0.450998716239979,0.260939617051016,0.833798160510622,0.263149338082703,-0.0151904252435172,0.101856439956505,-0.986037687485034,-0.0800632495192393,-0.131388177312338,0.41246995516602,-0.451137757844907,0.0307748777867237,-0.970883706080897,-0.171288026813172,-0.139958401156818,0.360002476281929,-0.152297475738917,-0.191599476090283,-0.918547696025286,0.157803260091305,0.157817302738599,-0.116792737019764,0.0486702207276847,-0.457293304235893
52.24,-0.455883193809828,0.256217214973501,0.843162072432336,0.268721732260208,-0.0152336735357584,0.107615870821895,-0.985523398624519,-0.0809760156615464,-0.131407827209704,0.422254218006685,-0.463320790049834,0.029384675784256,-0.961534578601702,-0.160133175299954,-0.153709159666926,0.368370319039672,-0.156922440719725,-0.188244961025598,-0.924043328573867,0.164815822664034,0.156015938008776,-0.0961616240983588,0.0484256622109756,-0.460205391251969
52.245,-0.446264120982465,0.258014159766972,0.847080010766382,0.273384744194943,-0.0150918622614302,0.113395990804955,-0.986320907432016,-0.0908628780705401,-0.145380382612563,0.431076030806741,-0.47558317709924,0.0277617659733276,-0.950151770307089,-0.153397373260946,-0.162096533576681,0.375786985217118,-0.161453767413981,-0.184505510188869,-0.942152232008321,0.166158591947185,0.156445372137793,-0.076634657330345,0.0489768588693548,-0.459678558664368
52.25,-0.456464108485533,0.256544369040636,0.840599456992917,0.276900196439282,-0.0147765638431014,0.118775312424183,-0.985956245669599,-0.0988775363340753,-0.155610047359514,0.438795635390386,-0.48786581408688,0.025911082522919,-0.930385329630278,-0.138844708376228,-0.17561822553335,0.382124507166026,-0.165850701050724,-0.180253551596831,-0.961040349933836,0.172428041514423,0.154001137978501,-0.0582319024869939,0.0503913831591932,-0.455599067408059
52.255,-0.465449130901126,0.255630394459245,0.836849635532986,0.279036039274625,-0.014307538617342,0.123347037667859,-0.981747173314307,-0.0872242336197732,-0.158567131746891,0.445254001642642,-0.500067177994149,0.023839732644437,-0.921809722786315,-0.127422379326123,-0.183803846765921,0.387240058363559,-0.170061394105036,-0.175339706077012,-0.968829749555623,0.174258664253122,0.150226296961781,-0.0409616861386462,0.0527067682304203,-0.447938097572052
52.26,-0.4635852754615,0.262875965403221,0.839233014875622,0.279586151625157,-0.0137179894977442,0.126747715740328,-0.985149019614064,-0.0757689872715162,-0.167372211395191,0.450284876721208,-0.512037945148859,0.0215554873539464,-0.914557582655513,-0.109804294612801,-0.198154237926403,0.390987425059432,-0.174026998681022,-0.169594704222608,-0.977192525141804,0.167277892400296,0.150663775771848,-0.0248208259174328,0.0559136879653559,-0.436752448230452
52.265,-0.455332922215952,0.269471561233964,0.843184307112208,0.278423346765393,-0.013029359281073,0.128696200113776,-0.995466424883092,-0.0589493971077351,-0.16612803300727,0.453766543945262,-0.523564779509485,0.019068770962677,-0.909777315271987,-0.0944080807730953,-0.204124292618864,0.39326875050013,-0.177690594826436,-0.162807211320953,-0.97530072529482,0.159668142535816,0.149677196320841,-0.00978183415651791,0.059983999160065,-0.422183555532177
52.27,-0.456441905124617,0.27268062930432,0.840843467725289,0.275516060440275,-0.012250032921539,0.12902580345374,-1.00508009760239,-0.0486046463699529,-0.154666905423489,0.455630657349626,-0.534371645454798,0.0163922122746121,-0.909432577581577,-0.0830180534778191,-0.207615711649988,0.394042693860715,-0.180999384362465,-0.154718852861151,-0.969780975428518,0.149126133918753,0.148026119974457,0.00421564564756387,0.0648945126417932,-0.404455636610327
52.275,-0.460236969911856,0.26405087139932,0.833965120072777,0.270899509225238,-0.0113968674969987,0.127693528778855,-1.01650219749143,-0.0434748900101948,-0.148538138735743,0.455825323290569,-0.544141041120102,0.0135374936495709,-0.911283044738972,-0.0753049180862769,-0.20393129683873,0.393285904782963,-0.183900970466765,-0.145048226731136,-0.965716350849783,0.138766296913796,0.149449012413149,0.0172618177738426,0.0706105266077107,-0.383873172678571
52.28,-0.465729370466601,0.26317335911077,0.838220186418988,0.264650739668513,-0.0104986486510185,0.124768292661061,-1.0277585685128,-0.0438068841999326,-0.148116934098108,0.454295177693555,-0.552533101753228,0.0105140791737598,-0.91920663140444,-0.0715582129457679,-0.179484328582575,0.390971589804204,-0.186342271180016,-0.133512081546972,-0.970144098067199,0.130067056148816,0.145901735439524,0.0294727458288358,0.0770656575270094,-0.360817192434571
52.285,-0.465815318322979,0.264747095506973,0.845534528286483,0.25686386321545,-0.00958990813310084,0.120400826847472,-1.03020695663864,-0.0529148029310048,-0.143323078660955,0.450969524921823,-0.559200971592744,0.00732960119660803,-0.929395825551931,-0.0710705296015126,-0.163195326273796,0.387056652492084,-0.188268523160423,-0.119838476933543,-0.97749391477853,0.122007931454391,0.143317274144381,0.040985032893149,0.0841567656501799,-0.335741321638422
52.29,-0.453909815830624,0.264410759788228,0.847858147435271,0.247630741678115,-0.00870668778822295,0.114798052099329,-1.03190733465716,-0.0670240486540522,-0.12841730820477,0.445754333682915,-0.563805250694105,0.00399045697694805,-0.944804052707463,-0.0671273740165595,-0.148053402444795,0.381472762376715,-0.189622971236582,-0.103777570952247,-0.986113478709577,0.114408585813906,0.14518067785567,0.0519516869680537,0.0917470297151088,-0.309161660521712
52.295,-0.448498383392922,0.263024778516613,0.847406947814688,0.237049529738749,-0.0078752245477938,0.108215561762135,-1.03867683244786,-0.0811567224107129,-0.110554841132696,0.438551861150768,-0.566022670863196,0.000502721193261335,-0.96423081327896,-0.0660603971275964,-0.133704653181319,0.374144916982475,-0.190351834614513,-0.0851038286644569,-1.00374636574824,0.1056189782447,0.14154050917217,0.0625477057929311,0.0996788053216677,-0.281636121563126
52.3,-0.457007825869627,0.266351359539885,0.844686428171206,0.225229782908959,-0.00710194470297668,0.100943168429497,-1.0440278469109,-0.0811430693101405,-0.102412673099342,0.429278821245756,-0.565555898623965,-0.00312729320532479,-0.983865164974646,-0.0650835929283861,-0.1322308936169,0.365008570315423,-0.190408968449325,-0.0636184643925564,-1.02313174179371,0.0949739842963575,0.136208333368878,0.0729765186573932,0.10778793834883,-0.253742096846198
52.305,-0.462539357500396,0.265789471462419,0.841620404092528,0.212273248559845,-0.00637204858149491,0.0932732964130969,-1.03954870397343,-0.0872713264684409,-0.096529392455588,0.417860198403883,-0.562149056346051,-0.00689309560932294,-1.0124771277153,-0.0676688782876408,-0.0943261258788324,0.354002597614783,-0.189756035230045,-0.0391595959708645,-1.03982591306718,0.083041920054279,0.131152902079288,0.0834683052565904,0.115911773721449,-0.226058699850834
52.31,-0.465319070569282,0.258374969407713,0.839306444477104,0.198262546367609,-0.00564656655599281,0.0854743873528115,-1.03391034375786,-0.0961652917325775,-0.0844583231369534,0.404230004751974,-0.555600167795208,-0.010787888331979,-1.04099545804294,-0.0853045020443196,-0.048736318405644,0.341069421802873,-0.188363581440398,-0.0116099610808674,-1.05187748830712,0.0672686562105655,0.128196695896392,0.0942743955949356,0.123900602982321,-0.199149264712444
52.315,-0.465359742543548,0.25589142465014,0.835196542008764,0.183273332952807,-0.00485254622067492,0.0777815545327156,-1.02330175275166,-0.102121255115988,-0.0686669555938192,0.388354119695576,-0.545767767058017,-0.0148041325227179,-1.05231376147304,-0.101828592890437,-0.0257259480704455,0.326177300511472,-0.186215720684394,0.0191004634811786,-1.06220288537202,0.0425444336955093,0.119153573553615,0.10566097828624,0.131632586676226,-0.173542188780041
52.32,-0.467192875278766,0.257741777480278,0.831294355052076,0.167374740713358,-0.00388152523691114,0.0703891412214844,-1.01051252703447,-0.104636270880001,-0.0555162489068432,0.370236508298567,-0.532580066751712,-0.0189341394193035,-1.0549269382801,-0.102713365974638,0.00178403143839707,0.309326076141366,-0.183312206906164,0.0529854200593278,-1.07191426427505,0.0151249868815486,0.105971489526535,0.117901037865207,0.139016231841888,-0.14971655116297
52.325,-0.468284448008863,0.256398994841418,0.833207228809265,0.150609658194689,-0.00260085856583418,0.0634335361671379,-1.00102382188911,-0.101871013015836,-0.0401639918965387,0.349902686580402,-0.516045519375405,-0.0231720139328936,-1.05410670203402,-0.102570579245728,0.0358184469089954,0.290530385283928,-0.179667080988657,0.0899886456570129,-1.07853878023013,-0.010948394409238,0.0943774422784176,0.131264004367991,0.145981689674391,-0.128091018355497
52.33,-0.462806722600083,0.255741010090594,0.840177733623611,0.132990971463842,-0.000856050653644774,0.0569792571207286,-0.99363444233688,-0.095113596871395,-0.0212535304147529,0.327401932881465,-0.496254612495232,-0.0275154373833865,-1.04463309555206,-0.107374469502504,0.0732604009805414,0.269821904192102,-0.17531015983312,0.129980206002967,-1.0841200443153,-0.0380907309256362,0.0817236924096172,0.146005615845868,0.152477883596083,-0.109010186842763
52.335,-0.453085025177867,0.261035354164772,0.842540908983566,0.114496641662064,0.00153498243982443,0.0510148071390014,-0.989156736705431,-0.0834520493452387,0.000288450878363291,0.302803191543777,-0.473378483184982,-0.0319669444308788,-1.03194322265881,-0.110057022716574,0.112086422945652,0.24724573312833,-0.170286366543285,0.172757573851712,-1.0895997906098,-0.0632924435964032,0.0738796754616961,0.162358805993086,0.158477065088114,-0.0927406953198385
52.34,-0.446494907513266,0.26285377155132,0.843293079757006,0.0950485727284132,0.00477239326367177,0.0454581291888924,-0.986639827992719,-0.0698328094418554,0.0267491844405137,0.276163661957835,-0.447668033157767,-0.0365359339308828,-1.02684379894248,-0.110892696485531,0.149087533333198,0.222829799588648,-0.164650326674665,0.218046632379509,-1.0895098280185,-0.0859460695384905,0.0729414171612251,0.180526613989118,0.163984195042335,-0.0794736784633946
52.345,-0.446973791834983,0.255459152721018,0.847376786013245,0.0745219002251738,0.00904757759198391,0.0401763803897208,-0.984506797839817,-0.0611394026314782,0.0463710931486379,0.247526591240526,-0.419441800844886,-0.0412410358874619,-1.02928444448034,-0.112702528142663,0.18601495229618,0.196583489072054,-0.158466109017026,0.265514523446739,-1.08045252578731,-0.107371252057323,0.0669113671293813,0.200677177263397,0.169051187889363,-0.0693098631374847
52.35,-0.445984476445858,0.256037523008457,0.845658890801577,0.0527773668004307,0.0145174716986958,0.0350113412663157,-0.981300696426292,-0.0475009320054527,0.0570805351745078,0.216944372815352,-0.389069390845817,-0.0461100238886118,-1.03409196379627,-0.116209812882157,0.21997183301335,0.168521657290618,-0.151809344042664,0.314781468908141,-1.0557037768846,-0.126041251786165,0.0641501229332294,0.222932898068687,0.1737750220673,-0.0622481212483045
52.355,-0.451354802024378,0.262043921315177,0.844286926535183,0.029672322807953,0.0212950867191546,0.0298022630450416,-0.980203829905842,-0.0403953486900284,0.0654512271430916,0.18447725108032,-0.356965512111191,-0.0511767229547658,-1.04166389554893,-0.12471174238091,0.25077566070905,0.138664319164388,-0.14476305685291,0.365413497480129,-1.03420058328978,-0.127881242850558,0.0642086724227331,0.247352562831699,0.178268761573929,-0.058207789148562
52.36,-0.453565110837675,0.270045914238069,0.83862974307616,0.00506625535953608,0.0294469978629568,0.024408354739219,-0.975754858098034,-0.0325076472641545,0.0745825873852655,0.150186972405569,-0.323584839202205,-0.0564784830803622,-1.06258300563923,-0.128142408910176,0.274659596779226,0.10703107449323,-0.137413316655156,0.416914970731895,-1.01455889798483,-0.12781180195492,0.0715978320669013,0.273916523274051,0.18263099934304,-0.0570536615050539
