Header,foot_Accel_X,foot_Accel_Y,foot_Accel_Z,foot_Gyro_X,foot_Gyro_Y,foot_Gyro_Z,shank_Accel_X,shank_Accel_Y,shank_Accel_Z,shank_Gyro_X,shank_Gyro_Y,shank_Gyro_Z,thigh_Accel_X,thigh_Accel_Y,thigh_Accel_Z,thigh_Gyro_X,thigh_Gyro_Y,thigh_Gyro_Z,trunk_Accel_X,trunk_Accel_Y,trunk_Accel_Z,trunk_Gyro_X,trunk_Gyro_Y,trunk_Gyro_Z
79.135,-0.460025729243182,0.658309743816572,1.04611155393924,1.21194288091876,6.91766664629963,-1.79542466384144,-2.2376630084276,-0.202008266389658,0.496862147777168,0.260533638869353,3.82540656509733,-0.684211862943507,-1.59720994557755,-0.0530469679982385,1.74340946054055,-0.125785479096482,0.525187422324486,-0.469714760712702,-1.97078193560883,-0.0165301378586139,-0.0905526923844181,-0.285657647265078,1.44788726017546,-0.182984118009474
79.14,-0.452479226585682,0.664575206668312,1.03287534531287,1.32836604161734,7.64243578901247,-1.97144231235919,-2.24031641968916,-0.279472288965167,0.570267126593483,0.322782014717725,3.86999123419542,-0.63431317434103,-1.64493158913924,-0.131252714330042,1.74754452144314,-0.736740820922912,0.401688884534071,-0.355972870830185,-1.78200530904059,-0.0333991514063614,-0.0642334419638105,-0.336507884247086,1.31067116180783,-0.0929980197162468
79.145,-0.476925985736048,0.662141305015458,1.04164383547461,1.46619089826701,8.28423418701155,-2.16483151347556,-2.28866100487274,-0.339858999267875,0.56831126915204,0.394373476139675,3.90763948163047,-0.645078820910947,-1.56628523115427,-0.240222944098391,1.65995845869947,-1.10494339504739,-0.0322979668160847,-0.260001944163257,-1.63142403778129,-0.0124837756277691,-0.0228589061907639,-0.433861536256754,0.861730080078555,0.0213064907679176
79.15,-0.525390106546322,0.636372063136998,0.973498390456842,1.57465721669732,9.16427891964848,-2.4102760043823,-2.37401032091997,-0.391284610652704,0.581990365116349,0.436525444415075,3.99484581517783,-0.660085970198124,-1.49919148120623,-0.438443393519038,1.48520307956487,-1.36339040625142,-0.376989204398463,-0.203140894030616,-1.51407170516916,0.0103529525812181,0.00956488573267902,-0.582091576722241,0.355591320662661,0.0951023594634444
79.155,-0.6002692197836,0.63663242514844,0.911162347440672,1.72453441376106,10.1238680646114,-2.69152159873156,-2.47225195814043,-0.44956751853639,0.650093533381044,0.421148787863046,4.07907795829926,-0.667887733798763,-1.46656571270464,-0.761074647363614,1.42132635386533,-1.7746572132605,-0.566565713800877,-0.167617634161295,-1.44611437233034,0.0189940462597773,0.0355178779197063,-0.744743920145779,0.00156121108925663,0.111556269899962
79.16,-0.5985213769299,0.741966717635015,1.05363866895285,1.96846301541745,10.9983804248522,-3.07481452577492,-2.55550632437427,-0.522925579856528,0.880601041215454,0.475895155914718,4.02466700627974,-0.638773995832817,-1.43069784521479,-1.00212782515348,1.31119367801745,-2.34142913462342,-0.758659155050725,-0.21221466441929,-1.40453937073821,-0.00362067460070278,0.0676092550392172,-0.891759680835018,-0.133651342154535,0.088095677280572
79.165,-0.476328640422789,0.894287693056578,1.10046575991541,2.04462222854016,11.7743551137944,-3.51010532013244,-2.58726394915968,-0.555539637346576,1.20467945998203,0.861707805365213,3.68263052674501,-0.54336413338866,-1.49668625284185,-1.27381403037075,0.961320530568494,-2.07307037103995,-1.24619472786749,-0.29709599015057,-1.38417562641986,-0.0740412759172334,0.08393278826496,-1.03232580402921,-0.0397965045086792,0.0479327159294033
79.17,-0.533695708064841,0.822308348682582,0.75799297479396,2.05032653234426,12.5404052181703,-3.96147085420841,-2.47828046231912,-0.387035809141161,1.32486435245151,1.59835610339077,2.85923968749284,-0.377914825260055,-1.47591863508554,-1.42986411683159,0.687298804754537,-1.68132748335565,-1.68791198148751,-0.300012013283512,-1.35033729390379,-0.131151419050343,0.079217564836107,-1.24020115408524,0.147537129371308,0.0183477049984097
79.175,-0.955081761854079,-0.0415446079976937,-0.41878172309118,2.30987048733218,13.5638392736922,-4.50395587821503,-2.21248208811518,-0.110131517341122,0.856398846414018,1.94269554222811,2.28377268872863,-0.25493157593965,-1.47108200041169,-1.32875384919094,0.462509717654254,-0.945257407535907,-2.13362986246481,-0.398518313897587,-1.27757532736263,-0.179019777509058,0.0617549368375223,-1.42501781712812,0.243994382915686,0.00509475016872699
79.18,-2.41258791667673,-0.418606664784702,0.480183089524236,2.34476751239641,14.5806268037312,-4.91218972044791,-1.76687377068787,-0.0766043115151803,-0.110974545306127,1.59013155014066,2.35362702624176,-0.084543324251422,-1.50001179891692,-1.07871572288483,0.413518300967213,-0.261488327982918,-2.3440900617105,-0.635040209124149,-1.22159724656412,-0.222486467501551,0.0415057340834277,-1.56918016190793,0.1533414748124,-0.0755396856282898
79.185,-3.46450694500946,0.154735111218032,1.85122947950897,3.09482262022581,14.0145728081975,-4.49388479988059,-1.45777254854298,-0.319004234621932,-0.893929525048122,0.839562679653626,2.85197928506652,-0.126542616027132,-1.51083058525979,-0.722468266839796,0.270955737573214,1.00138818354601,-2.58311344416648,-0.999904702862655,-1.21989989694508,-0.219311966496917,0.00593794780552805,-1.53819177398457,-0.0184672704552359,-0.163746320178147
79.19,-3.92672980053599,1.68380215897481,2.29549705447737,4.03533726137922,11.627852119367,-3.84166501684626,-1.22880717451124,-0.44696399410026,-1.30023291767362,0.0564109267188828,3.48494409156945,-0.404756023753073,-1.58638638258403,-0.496282116130443,0.0253784076988859,1.94329639184232,-2.68594435507939,-1.14441486104162,-1.23373686612942,-0.205430693700121,-0.0451119110247034,-1.47018983837713,-0.123171840424765,-0.205252077994875
79.195,-3.84165624008782,2.7278893914013,1.62921851239293,3.58330672135551,9.91163248715115,-3.69395034516003,-1.15465019324249,-0.319946653226019,-1.22695200582188,-0.446563848356989,4.04334887004334,-0.639459346515016,-1.57591929743591,-0.355671658835922,-0.167867092998654,2.96761251563647,-2.83296440129707,-1.28091744819285,-1.25866071818971,-0.192890339356736,-0.0694781536688026,-1.32550229070177,-0.157799101229449,-0.253147479653891
79.2,-3.45499538105086,3.1350845192852,1.43563437839808,1.94614776100445,8.73515806943017,-3.70490101687409,-1.22454068645791,-0.0673503925095526,-1.15438401964244,0.0962580273039031,4.36565129835163,-0.758039843019701,-1.62268170485573,-0.160034113767514,-0.424147355445875,3.96231500013244,-3.00825024310595,-1.42434956826179,-1.28577962032219,-0.190290011967722,-0.100381723771524,-1.07108249289429,-0.0701640885498816,-0.284008615941567
79.205,-2.94356154609809,3.03725908570206,1.41653077620486,0.682619126376035,7.87938274546665,-3.69978228522383,-1.37312182163302,0.316795113717705,-1.12114906288018,2.11294729481546,4.34853032934648,-0.802677900152679,-1.70054373701395,-0.051392398280188,-0.483958863621582,4.67812540766598,-3.13445223694425,-1.53236469071898,-1.30048269435832,-0.192844374562158,-0.092062520300719,-0.768037861893447,0.071009958889064,-0.258676289956346
79.21,-2.30709328343906,2.73880501017052,1.64470260043727,-0.573630206154992,6.85455535571037,-3.53774874058533,-1.65533722996783,0.90517254991849,-1.08933550715198,4.25453004433788,4.12183659855775,-0.749314056663199,-1.78365545549393,-0.0170161980010797,-0.513433122909198,5.11469170704924,-3.27002906799316,-1.5259391997029,-1.31738407132492,-0.199778875488736,-0.056774007992069,-0.363757477282909,0.223868903098047,-0.17218073081536
79.215,-2.04708185281694,1.95294023281655,2.07271634170162,-1.07465661899994,6.03338659687224,-3.14721267423494,-1.91365143064958,1.38551988439742,-0.952004391297926,4.62882880420286,3.85644671063723,-0.703921074204351,-1.88325682000633,-0.0501583641520354,-0.460252600968667,5.16250461036912,-3.22073116324194,-1.29984279449615,-1.30227755806578,-0.208651706117615,-0.00512563035108306,-0.0279151935078771,0.278998909234133,-0.0643656930880114
79.22,-1.91625885199622,1.14581533542237,2.42935240685012,-1.30708987457256,5.1755971550206,-3.01882080452709,-2.08801051779516,1.62878941809906,-0.686548470474176,3.82101826507402,3.49743198524785,-0.697275549799813,-1.92999762104057,-0.0582092177130485,-0.399848019730455,4.82178007659313,-2.88049451016583,-1.02381961877631,-1.30145395444166,-0.222657856088714,0.0284004166571172,0.259036226113337,0.257491674461117,0.0713198461568445
79.225,-1.90269579986733,0.96809389507349,2.81676956794836,-0.769252818450193,4.33768339369127,-2.69378202262588,-1.96220749753592,1.28635032044846,-0.336988329404767,2.20008066149578,2.92208955071075,-0.756720517897206,-1.99958657594417,-0.0586007162483454,-0.33998995148774,4.22359230636514,-2.09029603374077,-0.773783433888747,-1.29322207692751,-0.257119684448423,0.0490544529764687,0.501991980936597,0.159678327786329,0.230135091435846
79.23,-1.85103594059871,0.531451594563237,3.64110977373583,0.4499192262525,2.76716826279622,-1.78762506845261,-1.59455295177246,0.591228256145971,-0.309863256936928,0.487109171644341,2.45284021929479,-0.79451180607884,-2.03585823738652,0.00842265768499177,-0.374022734649525,3.39839755801811,-1.05143683793623,-0.571732547448837,-1.29253529945008,-0.263052270112847,0.0573737860100244,0.645542723468434,0.0188531776231404,0.326450382693081
79.235,-1.54123154099659,0.443401198980249,2.97694586164733,0.200525099242329,0.772542224070169,-1.02867326384686,-1.32120039334073,0.00429124072598325,-0.602409280721273,-1.38013370855445,2.08208665739586,-0.860574589170326,-2.04052500391469,0.254946754536368,-0.348553728457516,2.9264710949073,-0.301454725923646,-0.354377496108037,-1.30753220946873,-0.251269583404461,0.0531438821505349,0.69996060936559,-0.166160365665228,0.388303341308693
79.24,-1.32650550960001,0.767756143347383,2.58812429440497,-0.16027249481386,-0.371804031047825,-0.299052037704124,-1.24823117436782,-0.219751476607722,-0.787979688822843,-2.48242017623566,1.87066749559633,-0.907965191941146,-1.92219945085106,0.604309614287523,-0.275497422965541,2.36494970589264,0.359940481011761,-0.100158290749412,-1.32174316823757,-0.248498108525057,0.0361164643237563,0.629084437410444,-0.472022680903353,0.444276861262833
79.245,-1.01704473137506,0.891478125134803,2.38735210368894,0.168548870768508,-1.35156805003218,0.16588871224088,-1.21422554846066,-0.131979618801665,-0.574127515772109,-2.90052811736467,1.54896299661562,-0.901939829328983,-1.82151061992951,0.909421895238473,-0.236293896987771,1.73522400847237,0.847634466348148,0.166486332675999,-1.39937755159161,-0.24829791679444,0.0455425185018625,0.548154245356153,-0.911392020687525,0.406700450709401
79.25,-0.493502655481531,0.949508999207432,1.81549065482647,0.372258727153196,-2.13555172233213,0.083833106740658,-1.17559773186724,0.0505631456853222,-0.22366441368848,-2.69029054374733,0.934116959464785,-0.833712670161392,-1.78938499853989,1.10291906791814,-0.14922462774268,1.11593164013201,1.17541635413679,0.675883527208093,-1.40556694762036,-0.21652611894595,0.0504959562697273,0.509730151160203,-1.48990123016498,0.241259214341222
79.255,-0.0300446227054833,1.07948497782658,1.37424982691064,0.0955209226833697,-2.58453877380613,-0.166064900067212,-1.06777999502382,0.265842735662161,0.0484995713470669,-2.16513291674949,-0.0209123353915712,-0.76800954592627,-1.88191451873252,1.03816842419323,-0.0388724369396002,0.050585651766959,1.47296630170865,1.34386641338355,-1.28933473694938,-0.110087245862992,0.033054105690626,0.32140177240564,-2.20266091209353,0.102517564777428
79.26,0.22818958686241,0.903169327203673,1.14594255317245,-0.0794020731457196,-2.95652811764763,-0.34143644551035,-0.897825404911543,0.43773825623479,0.126366790656436,-1.82505139361253,-0.535548584145974,-0.633586663169968,-1.89466916046093,0.918402913262031,-0.052668219069718,-0.687707451148476,1.58342334061548,1.56384588143525,-1.22532733447821,-0.04025133784714,0.0368954888890949,0.167138794079652,-2.4827546428128,0.145086653872527
79.265,0.374501492032581,0.604168021827986,0.938369622402009,0.0929612408802976,-3.12185064782583,-0.563247502918076,-0.695543360137676,0.507880997331741,0.192194831467757,-1.18311931920633,-0.560991950916702,-0.452754068201362,-1.87495360997063,0.674344338626841,-0.201204554131632,-1.58053606474787,1.77681301760898,1.5823244413688,-1.19445396616989,0.00123355871440584,0.0620600654141428,0.0379379824507104,-2.76432973804806,0.245944271491368
79.27,0.395739704137495,0.403762284646773,0.785056325312787,0.454477690526954,-3.12620626112361,-0.833344763748296,-0.559819567481701,0.501660816076613,0.22491303759153,-0.429181775576905,-0.434288024044105,-0.342032596385356,-1.82224710910468,0.333413066747376,-0.489162418224241,-2.47941331445925,2.11934263200019,1.4319778924933,-1.1001957100619,0.0392892772227678,0.0602990707683022,-0.0356781178903975,-3.01086565035427,0.239744437037639
79.275,0.285837530853661,0.379635072853717,0.724532973747339,0.803896104037905,-3.12380869164079,-1.04719074006593,-0.471449525932884,0.444792833945148,0.171900081270902,0.214742363728612,-0.346970185602017,-0.245365906114319,-1.75611771662942,0.083719648543622,-0.715345399933161,-3.10045491622612,2.42347169095162,1.18205261823568,-1.02482157233934,0.108784395104298,0.0645990646726384,-0.0405317294803407,-2.995340031047,0.23947290501139
79.28,0.0834317825576525,0.537171494181468,0.724434473480675,0.92584437604879,-3.24039793593928,-1.07716979318751,-0.387736363656731,0.319889280153238,0.0367447950097553,0.594316813927627,-0.363994916524316,-0.159472275756828,-1.78669660923203,-0.150793896793277,-0.739663345563362,-3.55535582623721,2.42298449698175,0.845766712830243,-1.03168859811067,0.176916190675154,0.0712482418674375,-0.0716564324213469,-2.62002837376828,0.349975958634814
79.285,-0.0557304711795314,0.709416738986542,0.734008064480384,0.859310848759068,-3.45273347748961,-0.879423195221557,-0.359153675298752,0.162416873864577,-0.109287753938615,0.751153187481251,-0.510660269999389,-0.101642175956072,-1.89478291329389,-0.419226192566663,-0.589063500100958,-3.4050857037785,1.95989847639741,0.415115701407567,-1.07457224673082,0.207730655525224,0.0839240298224799,-0.149968679208804,-2.11121765839989,0.455888947648537
79.29,-0.128873294939992,0.800217183844246,0.753383940170311,0.747656553920064,-3.66218921984965,-0.588069593536394,-0.366760344144448,-0.0225225237700926,-0.207455955067326,0.975012500402025,-0.766675751781274,-0.033349325087394,-1.88608160481558,-0.777268460376919,-0.550442390272448,-2.49353946815826,1.29113776454746,-0.430726685375822,-1.13060529106967,0.226500236269756,0.089247341027205,-0.227553587095594,-1.5472815080307,0.544288928930179
79.295,-0.146570684044265,0.799815516607916,0.76964772989219,0.630912144789519,-3.88670930023729,-0.224942711023507,-0.386562929484021,-0.141341464487237,-0.229907960936354,1.10228382414547,-1.00835660410059,-0.00666242842388601,-1.73364975495411,-0.626770685887765,-0.702437311321545,-2.45910563428188,0.799172189951905,-1.3356631639366,-1.1198091030257,0.229003587189679,0.079027272051102,-0.281614331878898,-1.15889181338804,0.605861050048789
79.3,-0.102245382372748,0.785532807890264,0.746954459249193,0.501821499458397,-4.13849847544239,0.118541925426329,-0.406687326546609,-0.259167880801344,-0.223776024132972,1.09685155973833,-1.46172734379077,-0.0256738021078164,-1.96829979709235,-0.231997173624409,-0.93554625139315,-3.44002825222774,-0.0668576815142729,-1.36935551434164,-1.09061159343316,0.212809496031132,0.0525952200057368,-0.446777610276412,-0.708454449238807,0.625062632485417
79.305,-0.0163923752259931,0.792097031172293,0.674648406111556,0.326088517744373,-4.4295214573203,0.450557885985156,-0.383174679515507,-0.31722079395574,-0.194164931699431,1.19052069727043,-1.85538030762376,-0.0108116211749985,-2.01062613497686,0.0674136159432838,-1.04235389039583,-3.44804088507976,-1.22234008766892,-0.863280305129219,-1.13424690083862,0.192152619234375,0.0572482574124839,-0.66814200531687,-0.345291364303907,0.631051204652251
79.31,0.07579269845534,0.782507681625774,0.570880508961474,0.0972796298536014,-4.62915592601686,0.72423265507081,-0.323788131427389,-0.243190787144905,-0.129920954266475,1.24288320081209,-2.22708604568609,-0.0191683939601618,-1.9134065788623,0.29735967419441,-0.878249623232735,-2.45053127038932,-2.07947084469437,-0.708010073820934,-1.15538111988793,0.190625947755075,0.0696784303310378,-0.812632563815459,-0.250350467134891,0.646503142132486
79.315,0.150633620890573,0.750189691907588,0.465720280680385,-0.19619033703813,-4.73965217716573,0.945025929524288,-0.285038417735785,-0.111122242316475,-0.0692734390774006,1.17374670653281,-2.5768682044659,-0.0685408671409884,-1.72881222222885,0.337679005883326,-0.74357744815337,-1.55718178766266,-2.91465996065951,-0.595580451898598,-1.1732741891512,0.194532735967262,0.0792824693453267,-1.00199999750949,-0.273994780935725,0.673913382983266
79.32,0.178070298606319,0.699656960477999,0.371945099968608,-0.519701673000548,-4.74632812902858,1.14782445619357,-0.214880837765626,0.0516657477485196,0.00481494035027004,1.11644077523645,-2.84336359551075,-0.0710561679537733,-1.47901281017086,0.211344906889048,-0.85355199713327,-1.31626605854877,-3.37056346272198,-0.266968228968828,-1.17710073575276,0.19507817298115,0.0899007874320092,-1.21001057055621,-0.406448536007216,0.737361374951297
79.325,0.159061858911736,0.646215683730856,0.34393266933574,-0.740150025283038,-4.70131864334006,1.31666227717258,-0.171430881961671,0.175587209707711,0.0266106997389297,1.1055060442912,-2.93322831626406,-0.0288136377475329,-1.24933920394959,0.150708596742851,-1.00496731185307,-1.42053355720012,-3.41458244757965,0.0691452605411596,-1.14337996097363,0.179993428229012,0.0879114061740593,-1.39105630977278,-0.538047187060389,0.787239491130777
79.33,0.106585070155271,0.588137801976558,0.393078192041089,-0.878316859967732,-4.65834387116791,1.48086014528526,-0.168552272296621,0.263995510076386,0.00746290719664598,1.06431365711002,-3.061355937082,0.0302235162928101,-1.0731156223844,0.147103729247196,-1.07392532178536,-1.55357021755416,-3.32140899853455,0.268414465273477,-1.08029028915211,0.153917254296189,0.0760038061061786,-1.56690232273275,-0.625691874843063,0.836332036007446
79.335,0.0361270791642404,0.53995414923452,0.488839918747479,-0.931894419283198,-4.66824989557984,1.64819658901167,-0.172105941104847,0.303637344917679,-0.0297122706581558,1.04733236058742,-3.29099791937008,0.089032950518221,-0.957564728912037,0.186769798649058,-1.07877581444473,-1.60513849086779,-3.21256592371263,0.316054315569331,-1.0087668246887,0.131370445603296,0.0647642011284202,-1.68903404385814,-0.663035960065301,0.877582118753987
79.34,-0.0465743570764139,0.519606545353328,0.574754634125675,-0.863272663473497,-4.76961983471679,1.81434370378505,-0.15209962422582,0.288278691676788,-0.0955087176425609,1.12009467735545,-3.51222627000504,0.135603832790519,-0.885870249449754,0.239659334615092,-1.08090885353364,-1.50940967413164,-3.09214459701717,0.262974528464082,-0.927878069729135,0.105730119858328,0.0572144222437106,-1.77118039498769,-0.639408964575793,0.900133744668059
79.345,-0.152149721533519,0.510190105344201,0.628895067009414,-0.75107287347163,-4.95146665128821,2.02289560289044,-0.136478912090843,0.257246224533844,-0.179553016784982,1.11284059206466,-3.75725784999196,0.147156989138534,-0.845461908883193,0.247899910871852,-1.07223306019026,-1.35297252131072,-3.00659376844217,0.159339228467547,-0.831794416354846,0.0597373806143192,0.0426983294510135,-1.85185796323281,-0.519580995811865,0.908149426233613
79.35,-0.232993020219049,0.533072465481164,0.642760551549273,-0.676299397056953,-5.16072176593432,2.22080110572152,-0.130351129428103,0.22406003352872,-0.206140294685637,1.04590498585171,-4.02733081658354,0.104577955994255,-0.810228383024924,0.254965031464138,-1.07055439673424,-1.36244051356232,-3.00836445608025,0.0725975795761692,-0.769395884593742,0.0243022827563298,0.0344362485038181,-1.87302802245344,-0.35899797302624,0.900144224738471
79.355,-0.279118563983937,0.579890185338568,0.627023708090565,-0.666074162286036,-5.37018619719734,2.40976923261761,-0.127258491976566,0.193837738852816,-0.194063043110871,0.97391285200035,-4.28438466089878,0.030098852025322,-0.770428154539576,0.307166759731822,-1.11445599285075,-1.46870292972881,-3.12131730627526,0.00611599144150604,-0.731062144841857,-0.00587820538894724,0.035303046301584,-1.83951584912508,-0.116835300410505,0.890137419239902
79.36,-0.290962516654236,0.615442878542016,0.586755364692733,-0.743511630878793,-5.55935361815466,2.60351022567398,-0.140414087890943,0.173521865688199,-0.176604000946218,0.820458443918613,-4.53201080189396,-0.0589726086834145,-0.732719755551027,0.354435947471393,-1.17530417668242,-1.55086730487102,-3.25494418924033,-0.0147126940851467,-0.701837793214065,-0.0426321192457668,0.0410614354721347,-1.77819175533611,0.161675793815825,0.90880332471487
79.365,-0.272537228969755,0.626841098672658,0.541029767884881,-0.893919173128793,-5.68410755638356,2.75548624745661,-0.173680259442633,0.171552939493657,-0.156118400431875,0.64514431790631,-4.75156631727165,-0.13305463253122,-0.693915947179694,0.378796913453684,-1.20368246758587,-1.58239799785554,-3.32860666563222,-0.0293906995484218,-0.690365672253478,-0.0845993012701295,0.0630979744780064,-1.7205137952633,0.353575581646589,0.930252677005113
79.37,-0.256024849950407,0.62417544568454,0.518203561596944,-1.0701004258983,-5.75082781749789,2.85965906377625,-0.222178785047329,0.176772784830417,-0.125735499305939,0.474245642530654,-4.9299255235657,-0.171826154158873,-0.629516030357733,0.379558757663192,-1.19086178982398,-1.64126988462111,-3.35981247810708,-0.0385861232894143,-0.695454258516076,-0.131391145652492,0.090537349115812,-1.63848778848545,0.508609542555366,0.940150908620291
79.375,-0.26732955991414,0.599049279229172,0.527577615104202,-1.23062489948002,-5.76978445053101,2.92259136421421,-0.290973512825728,0.173880457730856,-0.103249160784442,0.294368261744399,-5.102971959028,-0.179758230583332,-0.581145452272043,0.36307436474749,-1.16695775420825,-1.70442692223481,-3.36864311239754,-0.026569996793616,-0.705124169902171,-0.174100807690419,0.129236311217855,-1.54508903120642,0.597419352456381,0.933461899478589
79.38,-0.314359232433366,0.565928228396619,0.565618654054817,-1.35801622938354,-5.77223276716857,2.95935914747538,-0.372577925307254,0.154027230428169,-0.117131297636379,0.0755140212048649,-5.31114080256842,-0.156479663959579,-0.541593914924931,0.330181170927269,-1.15443728357714,-1.7636986400856,-3.35163740722314,0.0336335819819907,-0.7212781048364,-0.212007129303908,0.175721783355693,-1.44315213982706,0.593269195881993,0.902201520456825
79.385,-0.397377729808411,0.554905233533199,0.621847824049629,-1.42744628108994,-5.78453632104854,2.97747137058691,-0.461529234765563,0.10874115958627,-0.173007650440992,-0.181446287785757,-5.5934416329839,-0.102051045533855,-0.510091058971935,0.299054584586934,-1.15531386471378,-1.80926268485406,-3.309924874277,0.128322832551695,-0.731468167533003,-0.24184526779147,0.222365619194345,-1.33962743510402,0.479154327462156,0.834464977476198
79.39,-0.506171481273958,0.579102905779652,0.684953270163581,-1.43118827977735,-5.82663397572151,2.98804775207918,-0.540046906349458,0.0586665474677288,-0.242251993016946,-0.391705600760274,-5.93458000969742,-0.0354376554296344,-0.487583890797754,0.268763000607125,-1.15743952410383,-1.87353512278727,-3.2499875774477,0.245737934360969,-0.729057117300205,-0.246849442133748,0.2547083759273,-1.26098237305895,0.280463824256373,0.772655393577869
79.395,-0.626474203106925,0.634198891170141,0.741798266933115,-1.39712269692609,-5.8995874626539,2.9976437823554,-0.590579291274197,0.0254475529031441,-0.298718477303297,-0.51531772889256,-6.16209954507559,0.00174738744257342,-0.464105412561478,0.24438756198921,-1.15862195157331,-1.9820752618003,-3.19150595169986,0.342552319649358,-0.707504620654484,-0.229120532460655,0.273319740432152,-1.23016349156834,0.0498088203111515,0.773818612661038
79.4,-0.799035923366709,0.726826345830744,0.79284029712831,-1.32807636107427,-6.02944962726779,3.02803097354295,-0.649179546829659,0.00167476119115741,-0.364604968945038,-0.577120401375477,-6.36207194414089,0.0300158310244633,-0.444692262561888,0.228582410613458,-1.1754234595628,-2.08230287686985,-3.11381781548825,0.399855016663029,-0.695817053274165,-0.223681564296077,0.278304654878211,-1.23184618889438,-0.109026893131967,0.818601315064379
79.405,-0.990037035184561,0.846066199355651,0.81860685468011,-1.25866839439572,-6.18441808554002,3.08501995870012,-0.738520433240985,-0.00337162619017481,-0.44420086999174,-0.545293229107169,-6.54425795130663,0.0570886029308376,-0.413179509669385,0.216801036699894,-1.18916256726627,-2.18448162791935,-2.95638722321015,0.453766492723455,-0.657117808557046,-0.235785608069205,0.309454995468146,-1.25293787376259,-0.342579168476214,0.879603462687259
79.41,-1.18363087383262,0.959418774683454,0.791835246798692,-1.22433864156578,-6.35065281027241,3.17254315993619,-0.817194976567797,0.00514448245791782,-0.497071609277322,-0.480425573653045,-6.65283180904495,0.0893437568801028,-0.388995093322487,0.198489063309513,-1.20685474056222,-2.26961486359194,-2.68947259248697,0.493169249288245,-0.624409097041352,-0.231831358537464,0.24565274856788,-1.274500755407,-0.464923213016395,0.880316738766596
79.415,-1.37742634287189,0.995395505719596,0.689063294762949,-1.23727596099757,-6.53149286355533,3.27417318115362,-0.864384291400688,0.0255732191180216,-0.499558868422016,-0.322985870752802,-6.72866590007497,0.121870010297467,-0.374339322969322,0.170650439946697,-1.2370313726223,-2.30473198732669,-2.40860961015384,0.527607257382059,-0.604577293856219,-0.223653545667183,0.212312875244651,-1.30297249508219,-0.466703739593005,0.857344387898545
79.42,-1.50291215028353,1.02672970951894,0.550442760258342,-1.2608775049617,-6.65757459014583,3.34978319746138,-0.921128171746666,0.0585563247774779,-0.513322081232432,-0.142367338929027,-6.74229952307514,0.177772750357322,-0.370820002195024,0.119663101169636,-1.28672475063737,-2.38852922482011,-2.00583586965128,0.544507912353975,-0.584121333143396,-0.209795440744173,0.184986006069889,-1.35376769046853,-0.389394974751149,0.775094663614707
79.425,-1.52387931953124,1.15461938972166,0.455747384560232,-1.26720933867478,-6.66059968939665,3.36303232018365,-0.974519610551161,0.0910794074543393,-0.561992678762429,-0.0216308719398122,-6.71886626658921,0.268287904752724,-0.364073346785384,0.0513858362900256,-1.28633448297445,-2.42923609746766,-1.6224342421011,0.529279764035379,-0.581727388927616,-0.202271721870297,0.177207824007044,-1.38837724289868,-0.297139190930619,0.642140453173147
79.43,-1.51486125919688,1.3105130165319,0.37366406757586,-1.32927966553062,-6.61427073379634,3.22431661617825,-1.0311779548366,0.105532032901717,-0.669487493527828,0.0625839592584456,-6.68797725863525,0.38595046829679,-0.337456711092759,-0.0351253306057501,-1.24443866683613,-2.51148218148402,-1.26837563327696,0.483276375522247,-0.586681508252858,-0.191968615027914,0.184347553939958,-1.38594281277039,-0.241156829416301,0.475156644052188
79.435,-1.56557989924084,1.37728192041454,0.249922941167027,-1.41104859318456,-6.46263265488674,3.3830882618993,-1.08513366471225,0.112975014666426,-0.740691339205184,0.180242130015956,-6.67920495463231,0.497582381797354,-0.313466094308702,-0.132271271860057,-1.19547096178902,-2.62335728387054,-0.965254355099433,0.411938536882941,-0.600561450993761,-0.168568530637765,0.197901661733431,-1.35079060408625,-0.253188094617671,0.267567601759131
79.44,-1.66801690896598,1.40325657340872,0.140710634094848,-1.41708952148133,-6.17553118353263,3.67018653193099,-1.15093804972509,0.14170935484664,-0.74518338706059,0.315571664144576,-6.65791105811756,0.550172718426388,-0.300329167151757,-0.210933721026409,-1.15515280945541,-2.76179248802229,-0.741747946682547,0.326955878794728,-0.615848596212224,-0.115181469583278,0.212439244891258,-1.3112726624822,-0.299895022063164,0.117512674017239
79.445,-1.77962118991735,1.5346094291582,0.0266391569483209,-1.42302534713489,-5.84482382466304,3.81108668379438,-1.25155946068772,0.206162505008405,-0.729595924804205,0.311119967247127,-6.59718585365456,0.580749487700288,-0.290537504629316,-0.26594442964627,-1.09744598167766,-2.96692068927028,-0.569883082146802,0.260080846948802,-0.621015296498113,-0.0465940127088583,0.222251665743497,-1.30775741138653,-0.341344704431979,0.0677055927866062
79.45,-1.86033556975568,1.76717145984151,-0.115717064979667,-1.52799523890283,-5.52091743818669,3.93923994776191,-1.35555619996349,0.277332086216374,-0.728113199813486,0.0551399879394484,-6.53615771865741,0.638703868667979,-0.288453316630219,-0.297905887316363,-1.03440509598313,-3.19336547260162,-0.48062543331891,0.221322437392591,-0.631533400483983,0.0139814026358522,0.23284557539682,-1.38080737071585,-0.36567089673143,0.13969464585777
79.455,-1.91085299827795,1.97662253166175,-0.203945982114612,-1.72515308382629,-5.11612243659933,4.11662901554118,-1.43694439161221,0.342022902483128,-0.753016597955867,-0.367326369664609,-6.48644978072132,0.725171494631754,-0.278090493288784,-0.333579653163565,-1.00899076188929,-3.34797797089562,-0.516454194502893,0.201287199041983,-0.656450444064182,0.0360044249491517,0.245931478994902,-1.49040636332804,-0.39959840677495,0.270576329936961
79.46,-2.02635871899781,2.1813376227864,-0.158506968774995,-2.05942835123142,-4.47934389188627,4.45830897877545,-1.55363917668803,0.445460642806009,-0.841004975261709,-0.961171330337738,-6.41437230409322,0.874448426131504,-0.251875182675338,-0.409188454883902,-0.990331769783689,-3.41467505946788,-0.648274139726545,0.211214030253152,-0.694581030421993,0.014292797515379,0.265139845585685,-1.55689324991484,-0.501441575329184,0.365762663414391
79.465,-2.1733831716491,2.28493217250849,-0.019792836217345,-2.31286178987949,-3.97477693257306,4.81114586273795,-1.6584634056842,0.530203201569748,-0.948182164997109,-1.4450129930304,-6.3607585215706,0.993674431642963,-0.223751376789987,-0.521210084841883,-0.950468347711845,-3.41808518675594,-0.87390581661593,0.239012369677356,-0.732432126394017,0.012180381074064,0.276340906367591,-1.56752008811924,-0.685317220167937,0.388751615893989
79.47,-2.38773801792624,2.27922672883607,0.151282138755385,-2.43199446724907,-3.62726141594773,5.28536633135973,-1.75815182098994,0.593605580588558,-1.04304501390043,-1.98951197455654,-6.31384555103216,1.06568130086263,-0.179584174046843,-0.621069720460547,-0.833547913397964,-3.38777035267428,-1.14898935345363,0.255156348722397,-0.766834781893146,0.0328823922522769,0.257772959010362,-1.6412574239436,-0.838882806158155,0.456293434128453
79.475,-2.57138340250049,2.24123204802537,0.232749074412117,-2.48385929348605,-3.4019643738524,5.813747173082,-1.88890849904497,0.642531796784689,-1.13590763112928,-3.00052286144364,-6.2674151943225,1.09652803624345,-0.15059571614853,-0.712430768175837,-0.68274757471255,-3.39852207162918,-1.45939709688759,0.255340822961255,-0.800813453157743,0.0394252871744171,0.251587096413715,-1.72599592427006,-0.876284082413126,0.542568262071639
79.48,-2.65502978874498,2.19974318856818,0.17132461050978,-2.52071004949651,-3.26651224723838,6.24932663552917,-2.01472618989609,0.63861904958482,-1.21166339096264,-4.15977706725762,-6.28396773411057,1.07746650672409,-0.152007857620989,-0.750849559068412,-0.510390725260832,-3.43884965642688,-1.77382522097704,0.228575738618817,-0.832386512965167,0.0510483330339348,0.243215630824478,-1.83783742366261,-0.843476325108075,0.654796440927939
79.485,-2.68053543282761,2.14529495702759,0.0546591889761136,-2.58930045345668,-3.08882145902564,6.61631786245372,-2.09039691416568,0.580258155906981,-1.26382585472848,-5.21849512411554,-6.36027108492006,1.03086673060503,-0.171878572817671,-0.731850491724754,-0.366489187367812,-3.51655884505733,-1.98530472676631,0.196511207424405,-0.85515391786821,0.055968309721589,0.232181170082952,-1.97665067823804,-0.740248087826138,0.779126404769116
79.49,-2.65934167606312,2.01195891149478,-0.0717951994684537,-2.74479323376576,-2.85168553005212,6.9066314882254,-2.11319395105232,0.486637098659428,-1.27128339546326,-6.06348463956877,-6.42065568397477,0.970766605356919,-0.19899846194516,-0.691127017154258,-0.259797840310247,-3.59462979793626,-2.11473917580429,0.188864539768517,-0.864867040558375,0.0552049550472491,0.228966098616158,-2.11538404800348,-0.564489860622001,0.918455971778301
79.495,-2.60238493790244,1.65891463189215,-0.160437328322482,-3.00840268301181,-2.48457170705655,7.19042042546425,-2.08274964140422,0.349737217299077,-1.26395564464252,-6.79071219323629,-6.46542682800437,0.856786870249532,-0.268720402978917,-0.6498553230861,-0.144702002484539,-3.66456780851171,-2.20242130653013,0.220526288312742,-0.881815399288798,0.0520828281414503,0.236918241848568,-2.217012236501,-0.353808195042849,1.05333190398339
79.5,-2.5538318157196,1.22161753013216,-0.16639369726181,-3.13749325977902,-2.02489550771192,7.41196471458865,-1.97169492295577,0.22016789771167,-1.27020961833144,-7.33498134054741,-6.48621796719272,0.728169019689149,-0.351093430952902,-0.613097770218173,-0.0391479382855478,-3.80471613044255,-2.15590361288752,0.265390464206495,-0.896634360131714,0.0464999606523088,0.243039873821216,-2.26343846827411,-0.218767457082601,1.13641964308944
79.505,-2.523142644985,0.917330060582515,-0.163371323143934,-3.04396713489345,-1.57357393215179,7.4772596506136,-1.81788170887097,0.107562449326571,-1.24563565511037,-7.70070127151731,-6.4264980015333,0.56919232386001,-0.436200564351794,-0.569432612639159,0.0839220878084661,-4.02281715434876,-1.99783303096423,0.290144895204812,-0.910736313855749,0.039095498720993,0.260090681566241,-2.31369055975389,-0.0735229050971865,1.24407461762078
79.51,-2.50778086520796,0.787460452682068,-0.165305364248776,-2.89154828171568,-1.25411036551227,7.43312737300472,-1.69000402912437,0.0197410567979476,-1.23069195172136,-7.91213120390107,-6.2794533921295,0.406079632369341,-0.505336684162163,-0.523834765616783,0.19545693014697,-4.22430022874183,-1.76801619941668,0.255900669067745,-0.925830489604176,0.0279763550858409,0.267545200747617,-2.34845532256235,0.00538705624944101,1.33845755036681
79.515,-2.54712505404041,0.744245302026938,-0.164710194750857,-2.81717464113271,-0.91878871179251,7.2791996721113,-1.58156794191231,-0.0677704126861325,-1.23034375150966,-7.8670833942192,-6.02448478166971,0.211006929828345,-0.620647995595315,-0.484747961314499,0.27118224666533,-4.35047432283673,-1.48350274182657,0.238577250609171,-0.936418916844133,0.00444764995555113,0.282649830218463,-2.37588355265378,0.0379790258170145,1.40014893499812
79.52,-2.61245414866785,0.772908934280646,-0.131924650623118,-2.83936079818426,-0.611587385713149,7.03551880717514,-1.51024182741428,-0.125399206173968,-1.24488462013571,-7.55407369013925,-5.70871156950552,0.02819911014642,-0.766366371579357,-0.437425737976345,0.27939648582304,-4.41093444561176,-1.08705770904681,0.210558870162032,-0.939319772148566,-0.0136675957342369,0.289215064751717,-2.39975304673903,0.0369702938965464,1.44011709370035
79.525,-2.66882910631292,0.832290316506196,-0.0839754725709983,-2.92848752013622,-0.43492553652348,6.76330727231903,-1.4690557649576,-0.13849601629664,-1.27105190390759,-6.97293424654782,-5.34170420189464,-0.149360514090895,-0.919374599405318,-0.396213654242807,0.223680993492418,-4.40884503026371,-0.721305769079335,0.172202463916333,-0.938032069133461,-0.0391684510905412,0.291173568141661,-2.42757184156168,0.0041607809685628,1.47659789880897
79.53,-2.68761300768644,0.861294237310746,-0.0642596832374582,-3.06256178614999,-0.412681208022002,6.46710383314597,-1.45026435188226,-0.0869442757938193,-1.27884271651597,-6.05166769378671,-4.88639765844383,-0.298412277908349,-1.12798389536883,-0.375846353379752,0.122195107302228,-4.32648455902661,-0.383284152120356,0.117294452039791,-0.931502383808542,-0.0695389672628227,0.291660632505675,-2.44623529101537,-0.0377894719879026,1.49897795640892
79.535,-2.6278287667788,0.811836646669,-0.0862910077670379,-3.20131973551516,-0.505430705145302,6.10130748846841,-1.44854199688759,0.0108062234323909,-1.26244919501513,-5.04394083588235,-4.4536995707783,-0.341770222395727,-1.32617044574516,-0.398429060253632,0.0695669003320713,-4.21386700441477,-0.0806845173056467,0.066699695991577,-0.918630516610133,-0.10180996599251,0.283578072277129,-2.45415124053702,-0.0750399800396008,1.50990081388948
79.54,-2.49190566822146,0.663227938337623,-0.137384177675326,-3.26558793179889,-0.616912317694397,5.70829389545072,-1.45575958838541,0.12272224295031,-1.2444407235088,-4.19533241167424,-4.09147707817181,-0.262370073360333,-1.479012964848,-0.485979213309101,0.132792343099383,-4.12799997940173,0.137878890688697,0.0472967736423016,-0.905600699144452,-0.135861623578535,0.269878358044581,-2.45176399950893,-0.110126701354248,1.51536557882818
79.545,-2.32728186210438,0.424781821983622,-0.199278877720289,-3.17000684903732,-0.657398424763587,5.34504033526166,-1.4648991000672,0.23522741580248,-1.23447307866177,-3.33821964789771,-3.76974505000755,-0.100429617085508,-1.66649031949318,-0.676715649681459,0.398312828104793,-4.15346397227223,0.300250448205171,0.0477767999416491,-0.893271614286228,-0.16993518522101,0.258986140471945,-2.43858094642928,-0.1369029896174,1.50842956345895
79.55,-2.15924721834247,0.145677340457725,-0.241310533167502,-2.86076699179788,-0.641017125260081,4.92849146358766,-1.46325263667498,0.305915765046327,-1.24226565108868,-2.51483925867591,-3.54835375795674,0.0764019659330364,-1.91007152217711,-1.01768674622432,1.13674095422946,-4.67947883837957,-0.180165123244129,0.0131931283143933,-0.879790774283221,-0.204399620363582,0.250350485259165,-2.41920909564481,-0.151294720879298,1.48891331573684
79.555,-2.00803364707938,-0.106877683642561,-0.261557303241663,-2.29474580350905,-0.583529735930584,4.40768621171499,-1.44153556932493,0.325510001772999,-1.27044892307445,-2.08060670340963,-3.35471507753913,0.257162021541709,-2.03749262630481,-1.25667269142135,1.60878295452934,-5.55950901861718,-1.78979001339763,0.123900793082448,-0.860660121005745,-0.2345467243316,0.248371811327167,-2.38155364469878,-0.154224328417937,1.45250114984197
79.56,-1.94295138004008,-0.293506810005776,-0.276022992959054,-1.60147953908482,-0.519076476310355,3.86316727056825,-1.3778379217812,0.313103994509277,-1.32468719282389,-1.84872855378628,-3.18914791919229,0.41027423850468,-1.76586171368441,-1.17950964265705,1.12072250117336,-5.93846494953579,-2.64600688838144,0.514674991771152,-0.82754018155254,-0.254025994835725,0.250115528215069,-2.32315217987012,-0.129192689334454,1.40362811016994
79.565,-1.98441106786068,-0.413384719799638,-0.306264453245236,-0.726496046937009,-0.457229196615666,3.22192085279248,-1.27014518273855,0.279361892494662,-1.39343572928694,-1.71785367089671,-3.03728735643184,0.526302949783528,-1.26954425454033,-1.07450323565755,0.882256146989271,-5.91991877248055,-2.1835998231484,0.751128413330632,-0.810041058136491,-0.262208278172616,0.252463881431621,-2.24838545349744,-0.0525029875889422,1.34966706155891
79.57,-2.11803137917929,-0.372644671938836,-0.350078210521374,0.0468990056410531,-0.455664429286346,2.60101137473354,-1.13004138778323,0.238452310255729,-1.41815045141216,-1.6282261029366,-2.87674210488027,0.608680704268362,-0.828403765743217,-0.955989823271549,0.946110755105082,-5.57732733538173,-1.42649890377511,0.804352189402242,-0.827612286028446,-0.274750351043341,0.26831349753495,-2.16074099321831,0.0276619369653217,1.27532342713063
79.575,-2.25634637762294,-0.196607174755984,-0.399791123075596,0.461728721777135,-0.525789639371867,2.09888648073437,-0.970954022188203,0.201385662595262,-1.40837843614519,-1.55615502397215,-2.67045609392912,0.690477089874008,-0.551857886483644,-0.785305483909877,0.920169829054535,-5.19776850522268,-0.695606076034829,0.917743811675679,-0.838454298083329,-0.276965026074996,0.289476971004166,-2.05983007813523,0.0709654483897457,1.19327564335864
79.58,-2.32691253245923,-0.0169247432539981,-0.477666467605668,0.581401031571268,-0.653181959289471,1.66289055816336,-0.798331214246019,0.169689127034817,-1.39469056458063,-1.46408632642494,-2.37426252738064,0.795791583573513,-0.478760044289718,-0.616840354309519,0.818891681726443,-4.96629206922865,-0.211898507628477,0.988187253965266,-0.839458929659475,-0.269544332225751,0.306294473246589,-1.94263647489701,0.0885482764532849,1.12640187952242
79.585,-2.31900465993574,0.0939777446654003,-0.591681823413465,0.461742298123012,-0.774593154394197,1.29683860339462,-0.634096503483676,0.12634037554379,-1.37441191701046,-1.33812899819418,-1.99538123497421,0.914831480739107,-0.459106753992039,-0.515802256040306,0.782935325754278,-4.7915568125047,0.0303437380074348,0.866015881310903,-0.852130527083447,-0.27428856443582,0.320929183879824,-1.81137130555806,0.105944502069647,1.05858189251559
79.59,-2.2303573379499,0.0996405550920279,-0.701260582276072,0.198335572467441,-0.794697607746542,1.05941065098826,-0.539158943767676,0.0614150064368319,-1.34565080003976,-1.15225218403305,-1.60748039849597,0.980256612098147,-0.470741026657269,-0.537877039279124,0.844278740275458,-4.66578434212913,-0.0480518601620408,0.602725669837859,-0.868823990972699,-0.28366680471198,0.337398280413914,-1.67639102157693,0.120886753990963,0.971200041038357
79.595,-2.11469629298941,0.0754720866940076,-0.796099177682041,-0.09673613913927,-0.718843567610196,0.872146331911361,-0.512648005534786,-0.0132820336598609,-1.29624261829617,-0.85215563838741,-1.18542260382111,0.967777109227542,-0.500221942794205,-0.589718323934674,0.893916380724037,-4.4929633323672,-0.35396821109231,0.309575545655071,-0.891924680076711,-0.275255079067457,0.353910111093225,-1.53661680141383,0.106082890083115,0.862056188695995
79.6,-1.9836816913504,0.0205248861689468,-0.852043715185416,-0.369745610119782,-0.501702726226092,0.723604207027491,-0.543779104084053,-0.0612164457789729,-1.22373929346508,-0.624574582274212,-0.863496664990617,0.858774302761653,-0.518944158624838,-0.585247546582315,0.833365127661868,-4.0523822302558,-0.744522053324497,0.0272099141590174,-0.93107105151856,-0.257539187311004,0.367801158610333,-1.42346718960508,0.0527997992318644,0.690008294031836
79.605,-1.8822583860267,-0.0315885945401606,-0.878156198447525,-0.57635797060141,-0.17725945977587,0.566620761406244,-0.603102492746023,-0.0811161849932041,-1.14211920374453,-0.410992877440131,-0.470415297362322,0.681906518371654,-0.556862899197844,-0.55552515908097,0.825540902151292,-3.48538407520963,-0.922006344306337,-0.1802366473714,-0.953391796109888,-0.237705909918745,0.378046055147959,-1.35793788815138,-0.015869725077278,0.52070808955781
79.61,-1.84114687134684,-0.021837185821241,-0.864240660274789,-0.651662783977778,0.141518978271137,0.437881484375698,-0.678610400661536,-0.0561094210687957,-1.07899733500029,-0.259815841322534,-0.0247300108555985,0.487852944653608,-0.624950300747862,-0.485044404645743,0.760152190419917,-2.85805164149642,-0.908415753851739,-0.332958279752446,-0.960514877216032,-0.208815843917187,0.385879267633636,-1.32356769046542,-0.0944377519323088,0.406809111985667
79.615,-1.82523105870641,0.0289738130213225,-0.815779820714092,-0.715169307295677,0.459128021348405,0.338906131486895,-0.749101779771739,-0.012782018153075,-1.06179044646255,-0.219223813865513,0.329362635228225,0.371562250379441,-0.703342798871876,-0.386029137130977,0.655908936701426,-2.13561847464505,-0.685346683021985,-0.386514479741223,-0.960247678607998,-0.186995403824507,0.388706731061205,-1.30063288769245,-0.178844929358648,0.352426071201062
79.62,-1.80217274328219,0.0746393412943739,-0.742382945123939,-0.774122120826689,0.73345929403077,0.286917513184802,-0.829940468629877,0.0384682245361565,-1.05849030454333,-0.234826436901919,0.71520779066351,0.264772133194919,-0.786738600163728,-0.294992161183717,0.575124486961477,-1.43204184726416,-0.389790525664961,-0.355190356613034,-0.947590003433602,-0.17049034482455,0.385217876131658,-1.27929949998853,-0.252205591825104,0.334521018857273
79.625,-1.73985503907217,0.105689052753166,-0.639764785200968,-0.803659548209978,1.00274067593565,0.267800519763112,-0.875309587357324,0.0744818047057089,-1.04681740245705,-0.323526176530584,0.957084806699778,0.220612374123389,-0.876150462177811,-0.240976173120686,0.478644994559191,-0.948215379079048,-0.231592169917393,-0.258316707740561,-0.925359317901447,-0.150268644829252,0.371931280972856,-1.24490898916739,-0.303212813773684,0.328681341415322
79.63,-1.68243904840387,0.136033662398386,-0.536641922579003,-0.78274377043806,1.24092824235215,0.257026360133983,-0.9015734865372,0.111367923106,-1.01069523418344,-0.487244456075418,1.13657862086148,0.190870495023727,-1.00141651358493,-0.183510650517559,0.357676039939378,-0.852691607324023,-0.114510483930777,-0.118206485054433,-0.908422391861737,-0.134145366570103,0.36156391988724,-1.20791932314977,-0.307920506135384,0.328590222289179
79.635,-1.63257209666008,0.226145205248739,-0.402158384669406,-0.721439102323797,1.47592935011581,0.258161623560076,-0.898502209882678,0.132647635409182,-0.950247422383424,-0.674588543682259,1.21961491773943,0.164944628170087,-1.11417988171761,-0.182341792020634,0.372220192938734,-0.941131031618468,-0.00849590652170797,0.0560628388164851,-0.90749324750712,-0.128107783040662,0.351884450033716,-1.16754502829079,-0.262461609158939,0.320840433973342
79.64,-1.59129372119103,0.28475405129968,-0.306213211748703,-0.709781372387698,1.63523782313002,0.283719652092178,-0.874849818700185,0.144713678982868,-0.90058163917779,-0.977318788404569,1.29021212958319,0.115885579797724,-1.19711579632686,-0.246289535234418,0.412319270729362,-0.97745152011418,0.0304338329930417,0.331067007620443,-0.911574125072078,-0.10927694453806,0.344692464994297,-1.10906219916052,-0.191104949178881,0.296513346049505
79.645,-1.53217842078889,0.340763636227111,-0.224646966674951,-0.722647448876634,1.77811847581712,0.334415218910116,-0.847369946828905,0.148029540235445,-0.838960014487179,-1.45979676601428,1.42272169826534,0.0430222082857404,-1.23126709430438,-0.151986191099965,0.200486402373513,-0.745125751933497,0.00780013747950919,0.714700007487081,-0.953427256523864,-0.119315786011795,0.363251984828275,-1.04703138480678,-0.128010403994092,0.262031332936851
79.65,-1.4474458020439,0.371941972220507,-0.126362117102157,-0.76680790519626,1.94620659058562,0.400623588911965,-0.839643734822233,0.134042495746533,-0.799418431975869,-1.84757505509005,1.55489556631621,0.00623399104492602,-1.1819454363049,-0.148401174384492,0.109746551829265,-0.464095319952881,0.240685870065285,1.01028575891885,-0.91857912772565,-0.027972167853747,0.358256001572899,-0.969742222912696,-0.133611057603162,0.380765347932928
79.655,-1.38283646844697,0.378138874277811,-0.0615058277461111,-0.798911322143369,2.07314970424502,0.454021652468905,-0.862863176487543,0.0868235929816496,-0.754650093176954,-2.25972805102339,1.71432135424815,-0.0159424201087166,-1.11974753528488,-0.205724119008133,0.0550543787395068,-0.176434812420033,0.12101255097041,0.967641523021176,-0.953791489784051,-0.0586501033547865,0.357058405335529,-0.925094513270059,-0.219202278008001,0.418076401690235
79.66,-1.31376698220238,0.381049699051981,0.0555897145354627,-0.842712829686352,2.27562322851095,0.517323771270669,-0.902418115958759,0.0243823621701838,-0.710532924614359,-2.61299109178007,1.86778638614231,-0.0254777647084061,-1.063000710314,-0.284839135553987,0.0150487461024244,0.35632915379449,-0.228434781557669,0.572365049539736,-0.944704604538158,-0.0596356293110697,0.329220755062331,-0.931802415700563,-0.201314574556431,0.380065018219484
79.665,-1.29067587694734,0.376105073519785,0.158812599755227,-0.825655733611485,2.38883920732085,0.561851968247212,-0.948267357787365,-0.0300290906962315,-0.685705149654158,-2.77946326032398,1.92449932156804,-0.0156504706726915,-0.9216664855116,-0.31735062888918,-0.162334883331341,0.87762975944946,-0.63615125565647,-0.0836376730772553,-0.942679317294205,-0.0305162343583896,0.323725136284217,-0.917105545764232,-0.0982520414051807,0.3803044923489
79.67,-1.26410838595536,0.381060854710407,0.309618233508141,-0.757002328271299,2.49259716867095,0.617853734526585,-0.993073945758993,-0.0963705211735538,-0.634512987382052,-2.87302312410734,1.96883535691782,0.0106045797109395,-0.873909482080215,-0.0549478965350562,-0.19400878375927,1.11649645423358,-0.548518744637484,-0.653120027053917,-0.937621223657352,-0.0093820322907475,0.342449481040876,-0.874429637018708,0.0216485165788225,0.412477505819697
79.675,-1.19117786011086,0.394617299949976,0.448138170113791,-0.659814148566476,2.527990962706,0.662740671639984,-1.02901784384183,-0.157631029267914,-0.586645506820314,-2.90753916257868,2.00208514695153,0.0557918976346377,-0.761187229289697,0.409228692907016,0.0432268116359331,1.70640423278121,0.379077514192932,-0.511136456582465,-0.949489462371173,-0.00837466182811215,0.366471132010419,-0.849348221431926,0.0315256405521151,0.442526571251207
79.68,-1.10997720219271,0.406973212296577,0.621121954520419,-0.62250262461173,2.51373484980721,0.712210241530856,-1.05528376865301,-0.232887670165159,-0.505364219855392,-2.87307349189275,2.00514966031655,0.108547835486891,-0.508167931262165,0.778529277583693,-0.0105181799390219,3.13313084052112,1.794367949782,0.348701014065996,-0.951408285678105,-0.0107549699715402,0.398793560468828,-0.813270590142947,-0.0127346429124904,0.480233776888097
79.685,-0.672763989134336,0.454459204829684,0.938156480634182,-0.551417147181074,2.54612775525087,0.845306865590148,-1.08713872733845,-0.324358896127195,-0.330213816399375,-2.69647303496813,1.95264868660289,0.18204949644603,-0.310784053266959,0.910996161449107,-1.07576446552825,2.91660663103112,2.0364524767307,0.548675096175417,-0.938976290363586,-0.0214942119261818,0.426185553379475,-0.797742584748271,-0.090506294578122,0.520706185251975
79.69,-0.30937887583166,0.607443957816238,1.34665670383861,-0.70391534028497,2.75200037971392,0.98364446815794,-1.13293905953528,-0.48179920450191,0.213435226894999,-2.41986078739429,1.79586433045302,0.223485346389169,-0.225853994669657,0.722203377975408,-1.21643696757092,1.73997735657226,1.43590103652296,0.161109551993898,-0.920596739032023,-0.0303835762901772,0.436640099657799,-0.829279942460692,-0.0908013848230881,0.552591646128269
79.695,0.488735916522718,0.346123936650065,1.89939876015982,-1.6377459127401,3.33982750293676,1.178895207059,-1.41394494550874,-0.868802932697196,1.99480495211283,-1.66381968213771,1.14695553399041,0.224417622366035,-0.0607160023409776,0.252715603651416,-0.688187155765011,1.2616596446333,1.42046321180403,0.291832911725476,-0.866941082229313,-0.0577512867973436,0.444366690171599,-0.896727132624375,0.0606966035915046,0.569233363741226
79.7,2.16456358257898,0.481908406429698,2.69550696637729,-2.82805384039092,4.42352003124276,1.11906433306268,-1.76254716104785,-1.42732317740163,3.57131401666658,-1.10195363942008,0.30784613875612,0.0545376930560687,-0.129153412444096,-0.0887426983095798,-0.34397109239674,1.27368298636008,1.75866351673563,0.670124635107113,-0.853022772800953,-0.0549503105661496,0.503768656482927,-0.981229480875355,0.405974858206168,0.597999107066808
79.705,3.74461504310116,0.0701589954640744,2.98772087920466,-4.37936899739349,6.10515813668333,1.74036966650065,-2.35491568434356,-1.90646736978839,3.72852677573637,-1.71920338821461,-0.568758202619777,-0.594990315681149,-0.682654408276724,-0.109650138258892,-0.0448881264044575,1.71509930012293,2.34140783869932,1.24732582532045,-0.8856505144837,-0.0370092531540955,0.591381742226753,-1.02218255896328,0.530929547299047,0.610395371413159
79.71,1.69049033308547,-1.95997347417326,4.03883084498856,-2.19338990876896,6.49325287791805,2.02774364135088,-2.65738243187434,-0.40268113903379,1.6680376008491,-2.24924372432614,-0.471869473268578,-0.728425734560898,-1.50506616301781,0.138031937259964,-0.000313993724343212,2.59558150958778,2.89267157908502,1.84928863368394,-0.938747285353596,-0.013029674234813,0.688238949303402,-1.05126963384167,0.510590940404265,0.628643019271054
79.715,-2.7807548431287,-1.94777134314977,5.39393835257242,0.058485935674432,2.88333721593745,-1.04200889317755,-1.82284801783299,0.765329446856416,-1.17518757217592,-0.819924639195002,0.421841685028324,0.491164326432713,-2.44079093524584,0.215880774751297,0.0688693576228353,3.48470112030271,3.32069229379405,2.57264835769908,-0.996641457437887,0.0136976770994454,0.785895223922928,-1.06124968237776,0.197471408774618,0.632061071879965
79.72,-5.36957454019907,-1.00499231257657,3.56638556876623,0.355418316774698,-2.29205313593589,-3.7580663207492,-1.27541034531044,1.03667611970081,-1.87218133860186,0.932603517696577,1.85327824225517,1.04733690680939,-3.2422068515601,-0.0642586592704949,0.275909936553225,3.54618339327864,3.5381950375748,3.09871132532564,-1.02440263054462,0.0287108835557838,0.83582957255236,-1.06686280286499,-0.157132370885518,0.608201029239231
79.725,-4.35794621424037,-0.667831972730048,-0.174436676658915,3.62843814346199,-4.69720317270738,-5.22723782419357,-1.2126820888215,1.0997656627993,-1.23528788534177,1.20744002661886,3.19986064611362,1.07425902525266,-4.04127312780557,-0.680336384249542,1.01229023022331,2.84646294588625,3.33174093738137,3.55768420753876,-1.07732312110492,0.0740507869044335,0.874320766862872,-1.02280837529457,-0.49647131048447,0.536518287328656
79.73,-2.16264131231798,1.23222179831447,-1.68365086645349,2.17082451203818,-3.07577500516042,-5.30078703910389,-1.42287378696789,0.214044854430601,-1.14223026734845,-0.709307943512062,3.37896467980768,0.595906315860042,-4.44213496477346,-1.46545635732994,2.93084362147361,2.38412819271727,1.76887828459976,3.73850867363134,-1.16584051179176,0.133075465401522,0.871412083258679,-0.941882671655676,-0.656902583065295,0.505137450110727
79.735,-0.797847984614684,2.55548122456578,-0.958639260417953,0.647808834891662,-0.70075313738283,-3.71066453783834,-2.0527590816097,-1.24266024000397,-1.4577857706166,-3.48156702718012,2.30008956749171,0.305290127227669,-3.11318630695817,-1.19957503901702,0.855876704937955,-0.611526828428294,-1.2364332862338,2.90054058451614,-1.27620770718042,0.168887468409736,0.825182541437786,-0.846238613101172,-0.737501498798623,0.518033301794789
79.74,-1.12054581369558,3.97447444131447,-0.247056044739477,-0.369444627785496,0.308475035196402,-1.38390682662688,-1.97329591710046,-1.70077696987669,-1.47750407627167,-2.96973231084045,1.78528172319521,0.192346218021752,-0.970089118552824,-0.433606060897386,-1.00375504129842,-3.61650986767038,-1.14279803426914,1.88864325414232,-1.42939505595312,0.129150692405258,0.664885697710937,-0.767678160681645,-0.614764729082797,0.500908029631509
79.745,-1.21242170099437,2.84632578524035,-0.314085643683165,-1.31258684355086,0.590973765974009,0.518627532660674,-1.85661206282176,-1.62420480458546,-1.26064908643966,-0.547056956961536,1.80759917756997,0.00301650762769932,-0.0878129161946271,-0.26630827015733,-0.976096550284299,-3.27891975725519,-0.237513133135253,1.32140973024652,-1.57599552236184,0.0886030729259339,0.480765605186644,-0.778716600227202,-0.280606498972,0.422271977556111
79.75,-1.03453675643835,0.50098732502662,0.611551817696569,-2.59433560595721,1.02894907263065,1.33702762647342,-1.84476600499629,-1.00624667608126,-0.492959608662166,2.38919228211047,1.71619380933455,-0.00848910416267797,-0.195482275621392,-0.357541920219159,-0.60952790798808,-1.99184180724184,0.356169131736279,0.837167878467323,-1.63311755839338,0.101664177024019,0.280978808884091,-0.835367567879671,0.0490027366081598,0.397917681116083
79.755,-0.716337503489511,-0.900032190116773,1.84783363627016,-2.25796843556213,0.83923890077813,1.21666143991913,-1.66573826256438,-0.392164086028939,0.0825615398140543,3.4209427565804,1.36796508540446,0.249301747214834,-0.475094262151046,-0.475816012864902,-0.449364694369847,-0.769893585023424,0.80010894578247,0.560155508178863,-1.77507476468222,0.137727006920946,0.0974915726183767,-0.955545221865761,0.167622872693041,0.4343268205325
79.76,-0.253661645526546,-1.80567973879319,1.92849363336232,-0.834852052059617,0.307314501812812,0.680196035475294,-1.06923517063035,0.199637131839865,0.277211958965249,2.21790767073987,1.06087713058679,0.468376875216591,-0.582633520893359,-0.618015382872128,-0.43869470126947,-0.120031347247312,1.04949481390231,0.801862521027608,-1.83193496527191,0.152472623592752,-0.0721139491701022,-1.06223993301402,0.0494838216899249,0.427673755884153
79.765,-0.201030791244616,-1.60071425152398,1.48602844107167,0.399375883296246,-0.14129392888045,-0.205298920602009,-0.542190638919104,0.279129123996697,0.164564443892869,0.511909254721816,0.852249148226738,0.644050616430331,-0.571942491326667,-0.617337578930366,-0.489402980227463,-0.100100553394959,1.10350359773003,1.20601043666106,-1.7989655952709,0.16656651211548,-0.211096568764572,-1.24006243058625,-0.250461208047354,0.467830556016982
79.77,-0.591269978126256,-0.346986265348505,1.04012341035762,0.952125641721227,-0.355016265994013,-0.789953577369829,-0.157301023402074,0.0917958023177614,-0.0827328972745414,-0.66249329750631,0.772805269856589,0.783116271345857,-0.548714470313227,-0.583777919084676,-0.579493820598994,-0.225577990561688,1.00871273955144,1.53642590007259,-1.68324444461569,0.176698897692096,-0.308803577459149,-1.27155245320994,-0.401615907496,0.510046155754422
79.775,-0.847243417253179,0.759637772399542,0.504971565706925,1.10848629061419,-0.318030846582502,-0.676186125836968,0.0671405509910135,-0.212715822224351,-0.472659105026164,-0.907563908304311,0.816854977654699,0.762856594457919,-0.563819165814918,-0.573648358671691,-0.667704775096545,-0.62009607861714,1.00227107172004,1.72096269096677,-1.55950424202198,0.165277447794974,-0.320923572234383,-1.09342957705734,-0.303644101938584,0.451196155116815
79.78,-0.925231932312559,1.35941654713402,0.24120354864045,0.726811397190282,0.0916554560934489,-0.055745372672868,0.00666187669464123,-0.322232621977232,-0.5896910486923,-0.643784048465434,1.03167054464276,0.621692151508334,-0.553334824885355,-0.626880207225891,-0.621403537409919,-0.707553276895327,1.29159990425231,1.72139823332977,-1.3689049513571,0.201487702036014,-0.238578162862418,-0.622911806830994,-0.0128190928768935,0.321238391591775
79.785,-0.81427760384439,1.1374596611896,0.399775204681521,0.0742250398385358,0.371079363863738,0.550289031795671,-0.353251973915979,-0.226069473488061,-0.510771145821586,-0.166427436713503,1.25701128099072,0.525904247521087,-0.516371684566684,-0.610166677477537,-0.614390451110875,-0.487896543117812,1.81549671859048,1.57309886869817,-1.27981773158871,0.247235327634302,-0.131186479776115,-0.0752871146443738,0.262540621154834,0.233472001153453
79.79,-0.601270784134591,0.479295911625311,0.756162041540226,-0.350289746150181,0.465601131025085,0.77364098369483,-0.674517902389377,-0.044114793436629,-0.394467203697917,0.199289550520037,1.21061024587664,0.550916400200779,-0.443530315264791,-0.42281516310771,-0.738395583824629,-0.316127025638164,2.2982744567437,1.26048338627672,-1.21877473546805,0.266672624954763,0.004274693807582,0.451592675124381,0.505587748869667,0.213685245358963
79.795,-0.475910245516965,0.029619441248901,0.977708548223875,-0.262843465583222,0.3709967791649,0.700904032495668,-0.885089662900077,0.0830893781858791,-0.297705527957424,0.223187253940758,0.990786959978091,0.537327168814871,-0.40433290609774,-0.135468612526572,-0.838154401529024,-0.152325404814164,2.54004399670552,0.922693405139268,-1.20818644307914,0.229834715466208,0.128984502205408,0.803667357122945,0.658880155435463,0.268925686626463
79.8,-0.411220428832623,0.00387475667431988,1.00150300445509,0.0258632196795548,0.23254079159448,0.470344817507015,-1.02822223529133,0.129569948848283,-0.275477613416594,-0.109259460539357,0.63476272620117,0.397614831072126,-0.523800223333895,0.285990249132379,-0.987609115162253,0.199131322542812,2.32017425879898,0.488264246613287,-1.19374413424291,0.169231008816371,0.236314569053835,1.01272632250446,0.762834684614837,0.337338437251546
79.805,-0.407938573363751,0.223719872698685,0.894403109732142,0.255741017966591,0.132612560743946,0.264867442004,-1.22558358644546,0.139161983164782,-0.2744716929365,-0.50701134701725,0.325519530493336,0.243008843108645,-0.698555342855279,0.664459890976536,-0.983861288575651,0.508101560288121,1.88002209068598,0.0132470786537338,-1.18620145016198,0.0969925086484072,0.315528936019836,1.06316637992859,0.882647893600538,0.434767522324711
79.81,-0.463947411918178,0.473175276158485,0.756910742283109,0.287297269417525,0.124090403466737,0.214170552907922,-1.38421059233632,0.14329372696535,-0.304483421293245,-0.799396810272853,0.164343713094151,0.151945177977894,-0.950371440829841,0.77469366208396,-0.978089948722604,1.08689648977838,1.3110838090781,-0.476949146936942,-1.21507948893909,0.0586305714943941,0.3552084070095,0.983826359054277,0.981944246561925,0.527439109848352
79.815,-0.550264185958538,0.574047039917986,0.693751886628571,0.137186152140553,0.162318804813274,0.270537802055491,-1.51784315477683,0.152795169420343,-0.316728895567727,-1.0801005370745,0.0899960488579198,0.120845230064555,-1.2754543743218,0.78970697833657,-1.10218682708272,0.656216958038382,0.926007778785108,-1.04770274839133,-1.26524485139345,0.0169198970285671,0.393173711716669,0.734312188262348,1.09434964105622,0.659022899845336
79.82,-0.552664335783137,0.447178931354456,0.75329625098912,-0.0398789950268286,0.19072193681534,0.358410910698385,-1.56277541384562,0.103922181948441,-0.263032663910315,-1.31780771408406,0.0863766803087386,0.187426420304861,-1.52891458228631,0.66405957885726,-0.90848794055156,0.270207027257481,0.491993661966463,-1.33736454295307,-1.27955648251991,0.0187225707403073,0.425474613322113,0.497579402259196,1.12950488769678,0.743780281961277
79.825,-0.508798218970892,0.337655913774821,0.809938605450623,-0.0899951602141404,0.181576225212974,0.379477663312474,-1.52222311230761,-0.00261465249915214,-0.17696095813199,-1.62689678853652,0.0278426342106836,0.252578121379166,-1.64521155947255,0.408552256934549,-0.683298593515217,-0.071585661578108,-0.277181085673369,-1.54264209549932,-1.32345024104885,0.0413647742889561,0.464226941738358,0.1086479490835,1.08957462228904,0.892950089720372
79.83,-0.411867889155352,0.244051095442754,0.870119395329977,-0.0901709024291939,0.149658455474735,0.351804195408116,-1.40157085133585,-0.188799360447456,-0.0858237379141059,-2.16455996178589,-0.164274107004581,0.293157311586844,-1.63106101733457,0.0178872224636872,-0.352066043032027,-1.12869912493985,-1.27450983103399,-1.66340122903851,-1.33642339413158,0.0566655513569875,0.521530721703247,-0.56490328896528,0.781713524945806,1.09093886672273
79.835,-0.359774120960762,0.198327302901134,0.886196988879694,-0.0994860153165949,0.117724302926979,0.286633563234274,-1.26672885708111,-0.305139413134409,-0.0554585832918569,-2.44674779116616,-0.322380759852376,0.292935218274112,-1.4687926282771,-0.17446187844494,-0.107785720048027,-2.01261876055951,-1.57587655037454,-1.59812299765477,-1.26343309043607,0.0580983049856314,0.542652530380817,-0.991722268519077,0.468530796592771,1.11588941002795
79.84,-0.355882234935658,0.221931959313574,0.869319984688967,-0.11153469190812,0.102266522124291,0.233617535738945,-1.11421336632552,-0.402852943188037,-0.0502849441021676,-2.39996303943292,-0.443498977985583,0.302338786957773,-1.23817113190151,-0.206096714141854,-0.00794219991706406,-2.85105245161932,-1.53304962145382,-1.50601668296744,-1.09076210743949,0.0961520614370123,0.549244817625688,-1.38189131276378,0.220545569076895,1.04259818687965
79.845,-0.348965392169248,0.287135034143442,0.835854856327889,-0.149520066013858,0.0871071962647632,0.192455162227324,-1.00219059738977,-0.429631319544143,-0.0619875947166816,-2.18167487753666,-0.467372151464403,0.318622110038816,-1.05086516031709,-0.124711790109538,-0.0414022094546272,-3.17310558687717,-1.32254747775393,-1.42249332849909,-0.926423851330955,0.153632737758404,0.531333182572466,-1.64889589643481,0.15926622433168,0.972964747880419
79.85,-0.381536600615906,0.317586215851092,0.815608943149093,-0.198013717941024,0.0801510602815603,0.179803965135748,-0.947127190684165,-0.416671644404251,-0.0851314093055109,-1.83862449595429,-0.402212277533857,0.355693287354403,-0.889588299049151,-0.0454929893050711,-0.0383535789512703,-3.37619931482014,-0.916420708298639,-1.27871498939213,-0.761558673019052,0.213823654703295,0.501761554582019,-1.83259433314405,0.196664333903857,0.920130263093392
79.855,-0.426325406357775,0.306916369680915,0.817815116316971,-0.218060165643692,0.0786609831961556,0.174208115615645,-0.884950179958166,-0.369577126828432,-0.113705257862793,-1.44698049933553,-0.318763599285968,0.394724527308688,-0.84460189382755,-0.0656051503265714,-0.00336121727370451,-3.44581950454,-0.600875122316012,-1.17740288021365,-0.615848450759037,0.264399468792396,0.457717032083853,-1.92487453388752,0.29184795393032,0.902175764665806
79.86,-0.487297910566191,0.241738020655649,0.841806248949753,-0.197664285317048,0.0808220340242192,0.182930303010682,-0.870113017713562,-0.323256967735965,-0.144844064831916,-0.926273013232645,-0.205195223082719,0.443173559237198,-0.891663272257712,-0.270997922962694,-0.00794102472295227,-3.31373237510938,-0.368176916950822,-1.15024853845656,-0.519345438437974,0.289647155829241,0.422702734687834,-1.93884752819253,0.37034640035356,0.887645196582452
79.865,-0.52343786773068,0.191278949530693,0.864845288650426,-0.124365410082303,0.0864261712163412,0.186315879690934,-0.906681439958365,-0.31867581070547,-0.173296772450409,-0.474779570868996,-0.154464217578513,0.485970765063612,-0.918801376352955,-0.512048384156193,-0.127690000622511,-3.15860102011572,-0.27593908309011,-1.1886702600253,-0.443332032912604,0.318830012280762,0.379868814178809,-1.88662069299085,0.414212276388222,0.87487150677707
79.87,-0.53363828513761,0.201422575428815,0.849287676528509,0.00881456785925075,0.0892772454617659,0.181618716489681,-0.955223878575151,-0.325911948061704,-0.172476354123038,0.0381385903838706,-0.145787689258311,0.535785393569748,-0.883347576211124,-0.687753280679874,-0.281584550120376,-3.04956720158072,0.0406425225318283,-1.11574882402732,-0.380159638594285,0.345024954601191,0.316705361555697,-1.81236854427787,0.447133809558312,0.872077345848083
79.875,-0.519502917217562,0.248451651023174,0.822293825653537,0.130317566590215,0.110624998031432,0.191906760840634,-0.989020375831857,-0.31101290229097,-0.149131698488312,0.461618735154735,-0.181165046122978,0.571243031905335,-0.810879102903668,-0.669651523218018,-0.305842901343502,-3.14161096293407,0.590706864471718,-0.707191142388869,-0.351217310321366,0.356506209189709,0.249378326180209,-1.7551853102617,0.482050226543087,0.882992586722008
79.88,-0.494930537025483,0.293559841081348,0.808775205972706,0.216175481513512,0.127999047059982,0.211501707298128,-0.992519766697751,-0.270753911764902,-0.101601644647234,0.831114655142434,-0.238338215730476,0.589166664805089,-0.75906004902597,-0.552567520298602,-0.228169838232115,-3.36126939602072,0.9819098332392,-0.0978916667756576,-0.348565349554496,0.35515508090244,0.194884962763029,-1.69849208218274,0.523986971673067,0.90159564143281
79.885,-0.452983364582471,0.304172217739435,0.814102515033917,0.250443884627376,0.153550838061237,0.249822635829953,-0.976761871782417,-0.212578264987162,-0.0484336098752335,1.13930152561945,-0.278089401117151,0.594565340386782,-0.767567927276973,-0.443935249826429,-0.143187242668375,-3.52971094669616,1.01719489132833,0.447110917708158,-0.369174363098503,0.351485560227445,0.15403896045065,-1.64347313524386,0.581833790679523,0.917389798105513
79.89,-0.413287213603968,0.290923644339482,0.821358621492444,0.264324348058528,0.153509043972992,0.268589587656106,-0.964352196130821,-0.121304001950553,0.019321790196231,1.41760895664888,-0.267226867535079,0.591030860853649,-0.803387598777234,-0.397573440561305,-0.0956814528997947,-3.55805551571408,0.804241821213716,0.828136263758943,-0.423964881947977,0.337442303817181,0.132759801354637,-1.58775663643745,0.623096686355307,0.941430930193943
79.895,-0.374654461839325,0.279742462644638,0.816053625940029,0.250287240038942,0.14768365576707,0.271237924438917,-0.962524037959447,-0.0427245805849406,0.0586150951243571,1.452700114916,-0.226752095680097,0.571849141079678,-0.880083105921693,-0.419725893380144,0.0123592491917891,-3.29434407108555,0.656211890787399,0.908319159112212,-0.456353981951138,0.314002342857456,0.130159819464135,-1.52174917494758,0.662153325733495,0.961556456856614
79.9,-0.348834593248855,0.300454301439287,0.808261278481675,0.218114364133239,0.12160838389758,0.247713977168605,-0.961860091448438,0.022562688454336,0.0861156579488953,1.3272350412714,-0.187097943705152,0.543010312355281,-0.955628078499759,-0.45579759455271,0.121686169615644,-2.74613416902449,0.610038642787177,0.8630472215118,-0.475554787921327,0.267581261176806,0.135377964821628,-1.42307473435533,0.697630368683918,0.974774814731764
79.905,-0.331115673817396,0.342483091552139,0.792752513982876,0.159792667851965,0.0830834163179651,0.213020334302462,-0.954102595958318,0.0660885894547163,0.102322575585462,1.082150344499,-0.164866177037764,0.50245712032216,-1.01607270968357,-0.442375157432748,0.107485079860519,-2.09025089289679,0.730759125655408,0.747238581092181,-0.495089395492833,0.212761179831037,0.144742644121686,-1.31310205595615,0.724625569541573,0.953224046229916
79.91,-0.345841708769612,0.369745276746095,0.796717035245139,0.0552963273810308,0.0511212824337553,0.169962918827493,-0.960294114975351,0.10218423488082,0.10838916020621,0.839908852905053,-0.142310000961011,0.482073767499067,-1.03741710211611,-0.388519356865216,0.0852298585558049,-1.58701381931836,0.890342947936912,0.636253495878708,-0.528966872314024,0.165449336881453,0.159018544067565,-1.18069845120279,0.746000345513871,0.857024961730253
79.915,-0.362540962078556,0.345406831109167,0.802508284383603,-0.0233671452842895,0.03473025544913,0.133171414164468,-0.963837936772236,0.154193974488169,0.107744898924279,0.556604613660232,-0.133989334106445,0.471519794815295,-1.02710127766624,-0.277725621051321,0.0983173062873332,-1.10682561400329,1.00926242752604,0.501995642474193,-0.584792383134792,0.130643551275986,0.170206567081969,-1.07878576898072,0.774629000413164,0.761817507889469
79.92,-0.391481335435522,0.323250331266854,0.810331555498635,-0.0778423799160785,0.00851360431833975,0.0895508679474734,-0.981354686061249,0.178667346819974,0.105893700853102,0.30036864933866,-0.138088555951363,0.478271517078862,-1.01269550155208,-0.186512697961361,0.126920230272829,-0.753135275648236,1.00613743012378,0.421456993869167,-0.650255089851327,0.114441733804742,0.17316895539631,-1.03513654992136,0.795308071525157,0.69653086923181
79.925,-0.423090787714448,0.331423364108404,0.826431393240794,-0.14011130086171,-0.00403302408626103,0.0370116114805345,-1.01430494437857,0.188261243564516,0.10130391647189,-0.196511549176185,-0.206074862090484,0.494673595852096,-0.965117726497743,-0.0419015229703194,0.154332760609381,-0.474719851255821,1.01121967031903,0.40214102080454,-0.736669926407767,0.0928549931376088,0.17814047920099,-1.01908659704078,0.810000344071973,0.624975713166601
79.93,-0.481887832133912,0.29541447920539,0.855999898643293,-0.134125556837804,0.00906445860605051,-0.00180494022369386,-1.03206636542079,0.146979682861557,0.0898158583598483,-0.637742162545119,-0.296410645848276,0.521682311700316,-0.910164377607142,0.0421932729749531,0.178058864989444,-0.262521086173542,1.04581422960823,0.406208355675804,-0.814320117308766,0.0522813090102328,0.16492906632842,-1.08271258533143,0.799107526230521,0.525180580532468
79.935,-0.516951176775273,0.243850322963387,0.838237405575877,-0.0687476152197909,0.00458131949966677,-0.0470489089276526,-1.04059943784074,0.107411218620687,0.0581985840060478,-0.891357739399914,-0.352877975558135,0.530170454106573,-0.876854570526025,0.0806040426844495,0.18940153735133,-0.176186728114503,1.07314451991312,0.395940724903637,-0.868043816222758,0.0305231155996828,0.159353392607088,-1.13158447136791,0.760378140192808,0.436847200036083
79.94,-0.520766613485227,0.267302405357146,0.820073599703924,-0.0299373556527203,0.0105707469538045,-0.0694185004467616,-1.02986856772664,0.0341693598382966,0.0234089108458072,-1.16764971909263,-0.39592262644251,0.49065963678546,-0.871802003486411,0.114656179504474,0.213378102080178,-0.176797825704223,1.09718351925663,0.35298865051633,-0.961543368354245,0.0047393818882654,0.143091340971423,-1.18966438191392,0.688573294564633,0.300315027085356
79.945,-0.50745220770412,0.312121033862997,0.804726108511178,-0.05806007364154,0.00346690741669224,-0.0561394190217804,-1.01285647545312,-0.0558432990997013,0.0142082186922296,-1.30749516664313,-0.372135830523692,0.439677603159032,-0.922620613393046,0.119249871556082,0.229924235556913,-0.32356576063486,1.05452485193906,0.262691426487281,-1.08527250834154,0.00184324998991074,0.145828729036736,-1.16163465446919,0.608956507576698,0.203822181533305
79.95,-0.464343054380924,0.318268306277132,0.82112487329215,-0.0911527031621073,-0.000241883330771488,-0.0333763150604927,-0.999486510708989,-0.108492401753842,0.0302424512217913,-1.31417269724967,-0.35688465157434,0.384125301116622,-0.982028415853874,0.105962738671319,0.220280248159645,-0.495984282082363,0.997291724779371,0.192932485079174,-1.20012635695522,-0.0123976598464616,0.148597816075088,-1.05335323798718,0.539752235704906,0.182403992339914
79.955,-0.428502440035806,0.294878664544902,0.830341606990603,-0.0918178117849798,-0.00845412504169112,-0.0268545534557994,-0.992150433800019,-0.12464397753999,0.0528130805548454,-1.22397159052251,-0.337893746566606,0.330627115417376,-1.03449620837265,0.065400487365434,0.196348433736469,-0.635782618198305,0.919647209495515,0.122228642073194,-1.30442646008615,-0.0356416036307712,0.154322667733203,-0.912809849271588,0.477704375902873,0.196978290963838
79.96,-0.412326363647865,0.283580404544288,0.834457481346252,-0.0677944099827484,-0.0137929046040418,-0.0344556519275548,-0.982940105216995,-0.116101888626721,0.072917129959586,-1.03977404580273,-0.322734087681807,0.28577089982005,-1.05569627844246,0.0247396857837358,0.161450685373365,-0.676131517046392,0.843519086915843,0.0876540465149279,-1.32401577482189,-0.0535662586485921,0.149321581904744,-0.77146394707272,0.424826346411701,0.219905031357288
79.965,-0.415102147761454,0.28052722819155,0.826609019067836,-0.0391329857203556,-0.0380875553597151,-0.0580904939815649,-0.971745362006992,-0.0966168640254242,0.0698268324230794,-0.806021250869012,-0.2927304893285,0.256610821777697,-1.05879595811705,-0.0241502324194958,0.125776211547853,-0.641721002930185,0.758904817449206,0.0851568657659123,-1.30726838735519,-0.0661936476402806,0.138449144548642,-0.641787960344613,0.376133656800599,0.229170034854998
79.97,-0.428470885230513,0.294728830314539,0.818804666770384,-0.00681511181494866,-0.0683502511993176,-0.0766675796781272,-0.971488826781215,-0.102127123365897,0.0557308216720508,-0.594206010915268,-0.25845688472243,0.262123548842649,-1.0316217161765,-0.0949141287992822,0.0889801767663833,-0.528981445364327,0.678659552711818,0.127901704466573,-1.24891029725326,-0.0737615216133784,0.130051133725558,-0.51526209929932,0.326096241337796,0.203104759465717
79.975,-0.445932827516081,0.309318885084674,0.825707369935626,0.0246701389109221,-0.0744722468468006,-0.0785699600015126,-0.969459439028615,-0.117006493489146,0.0465231311184535,-0.337390182680665,-0.234551566290832,0.262762174770515,-0.993299174694831,-0.169040338137131,0.0861904076285342,-0.40373294700126,0.680006129374793,0.214619300988853,-1.16572405141659,-0.0659857142024644,0.12430967867397,-0.398539453179897,0.268536535009806,0.136905642962669
79.98,-0.466047906877862,0.277690323106492,0.832211151553139,0.040326747999129,-0.0782759944748003,-0.0714509127770854,-0.981721318470341,-0.131842159422091,0.036787547953497,-0.126812538485899,-0.188803927878098,0.291545634868092,-0.956770204380267,-0.234054104398189,0.0905425157040551,-0.264513073880593,0.756422639527982,0.347593348401084,-1.09396764819574,-0.0403872242971344,0.12056583294758,-0.288648379200287,0.215038547409492,0.0371593661707924
79.985,-0.49213258123333,0.262543787277749,0.834133865995163,0.0686774277267612,-0.081846658757366,-0.0695689864243894,-0.981103556634485,-0.153772666011818,0.0396866886286331,0.0805068826524779,-0.147574222679534,0.310012485980987,-0.928123553215738,-0.265452558330306,0.0841458222508154,-0.181543128161993,0.88233299118591,0.480984309396215,-1.06098298388585,0.00258586925351932,0.134838770355096,-0.171150437341138,0.152214730716067,-0.0504449138920295
79.99,-0.502108513299512,0.26355258372729,0.829320579938949,0.0920251057505292,-0.0885312048214388,-0.0771184733340159,-0.981377521941739,-0.143006441272265,0.0352617618962461,0.327072894405197,-0.114619038806029,0.309480366233269,-0.893701735929237,-0.272513060604005,0.0846003844259847,-0.134743264140859,1.07584922621037,0.593196167951963,-1.03908449376727,0.0462213735502491,0.15263118735436,-0.0626243643683115,0.0640049551266263,-0.12504532189982
79.995,-0.49233155659443,0.283656812517139,0.808870339919219,0.110479473917168,-0.0814545228662116,-0.0639562374697566,-0.981870340536174,-0.0982305156939789,0.0590513161034908,0.441285247186018,-0.1011322692015,0.291154944987785,-0.888882904897372,-0.254765900848879,0.111443769309425,-0.186653331974589,1.24110795052261,0.651304016311781,-1.02755400337544,0.0864621736787834,0.174372868235431,0.00775873137579658,-0.0386958125536922,-0.168297792780858
80,-0.48792097954247,0.303385181446124,0.806445682844023,0.105900655000185,-0.0757310062010394,-0.0444962466009958,-0.980229959350264,-0.0394920759648749,0.0811601686447102,0.445854267471346,-0.0600110727013141,0.283159152522344,-0.916777816047595,-0.224309580454614,0.13586065852778,-0.223474776219919,1.37696744908474,0.685342465616222,-1.00738185911036,0.12250310272389,0.186880135560145,0.0266735461327924,-0.0985982245681248,-0.184232289684412
80.005,-0.465285992449682,0.307535693721707,0.818835923332474,0.0776088238143903,-0.0693619115319335,-0.0277248297260982,-0.978586135223948,0.0201028294712901,0.0905064153620559,0.384119437508783,-0.0213773491739061,0.271139550168195,-0.952742330238909,-0.215071491787485,0.157600883120576,-0.210584406439715,1.47607240653825,0.698364192843552,-0.958517297614876,0.165192317394569,0.201207058023495,-0.0505625648513139,-0.030941017092776,-0.173103457238794
80.01,-0.448276473139967,0.29476901470889,0.826144258923866,0.0552635893343772,-0.0673275314691012,-0.0231543176442375,-0.964386327157906,0.0570550617080553,0.101428592537431,0.269899487989853,-0.00979683283309375,0.249470753003417,-0.974303600928318,-0.20982675464091,0.154834501333171,-0.19543313954174,1.53051431070205,0.681716725457554,-0.89348500480455,0.19499451285471,0.218178538522404,-0.15740795479897,0.122670522995546,-0.16592755509572
80.015,-0.435803445326374,0.28193792394544,0.824663178546537,0.0363511615426703,-0.0790454401830271,-0.0259096161350464,-0.956721918462909,0.0693553630428989,0.110406508928974,0.147164051632372,0.0306247664371644,0.236078967689168,-0.990566554885211,-0.207365730134394,0.149218859513091,-0.173164910540957,1.51198250293898,0.677691161632538,-0.855567274205105,0.220372866969069,0.244054653164584,-0.252743127077489,0.290390342848381,-0.157754389579475
80.02,-0.434200894818828,0.295067429240036,0.815910991579116,0.018376289944867,-0.0977080731095462,-0.03626599162817,-0.954878599581944,0.0634732350493356,0.117144518356417,0.00232734932612931,0.0456651649210387,0.195324205164145,-1.00380870663061,-0.197426019415486,0.14345057122209,-0.135068694001384,1.42095187206875,0.678062344327354,-0.836606125592802,0.252388948984025,0.282432782097199,-0.356807458907071,0.432616784553227,-0.145592699613287
80.025,-0.441878797771428,0.325414533937168,0.805836557747934,-0.0118321101740011,-0.101001113326068,-0.0358656438259355,-0.955791446829209,0.0462471525723283,0.105369760488121,-0.112024296790599,0.0759812970094061,0.167883076278614,-0.997730769857948,-0.179533586128748,0.140816341864865,-0.105415089208714,1.33750070807034,0.674844291232852,-0.831639332735507,0.299356046308111,0.323569048115571,-0.435060635843059,0.468512680505357,-0.123230083753877
80.03,-0.448082851848983,0.35476511125822,0.815872392220338,-0.0605293484808435,-0.114256307763575,-0.0318379695992662,-0.962283629158511,0.0315719886736356,0.0951219490570403,-0.174257106290891,0.105454318703732,0.146780245719303,-0.976840373251152,-0.155356783230751,0.145076068761292,-0.0259177662744542,1.21506776155821,0.638663256827677,-0.832525531928882,0.343361732883748,0.344998679540836,-0.500830412518587,0.426417455602163,-0.0939085025375167
80.035,-0.448596457672405,0.342059008355339,0.81767801904278,-0.121590497655121,-0.125568377825461,-0.0374889480975362,-0.966659980127702,0.017145029769663,0.0861555463927707,-0.193675348200953,0.143192099689997,0.139922333613251,-0.947721465474557,-0.140835915179077,0.147568315079579,0.0631074389157747,1.16438214844465,0.590999899734964,-0.837521062497572,0.374700914140084,0.360000536676529,-0.556071121651083,0.373274502842554,-0.0429665059278059
80.04,-0.436271033599058,0.298779714352631,0.811719562194657,-0.164359634265466,-0.137807624989504,-0.0387411522323233,-0.970507103990867,0.00964649229068514,0.0685510730697432,-0.174403547617338,0.177198607388506,0.133406023501417,-0.917801436951796,-0.122686548316934,0.161493283252072,0.192296422803486,1.17957290298309,0.542175367126776,-0.858000118260401,0.398162605981196,0.358892729028986,-0.594300204067539,0.293421083506838,0.0157635136978384
80.045,-0.439612835377824,0.306643952221192,0.816633898244004,-0.186104697874291,-0.152428908694293,-0.0508326672725527,-0.977638709427539,0.0107591710171217,0.0735826839870447,-0.133674699653636,0.20236437407327,0.115889336101034,-0.907002602816644,-0.114694791563104,0.168090430337746,0.288946010275808,1.23363137505628,0.504823364153201,-0.873952472287622,0.398456105848002,0.334942936458287,-0.603507370643396,0.243120186261535,0.0524554977525527
80.05,-0.440825585725095,0.31551106155874,0.808922229605725,-0.204021949231799,-0.167437669811213,-0.0528033844413334,-0.981139881916812,0.0271018096658721,0.0773665247923436,-0.113147121240042,0.227779231719265,0.0967013037714038,-0.927437015627148,-0.0899284468823918,0.158809135259928,0.382324130468778,1.28706429659455,0.436442659219389,-0.879328541563982,0.388475133301726,0.318049264567649,-0.602855623218407,0.216291189643731,0.076765886976979
80.055,-0.427508057604698,0.325762657664766,0.805477949238067,-0.227701603409101,-0.180366831818267,-0.0655205972187413,-0.971837641563204,0.0407792186678495,0.0735769803494642,-0.0854734814507117,0.244407834760969,0.082318337220298,-0.967763517436644,-0.0634512185291571,0.137284994957452,0.426134952044584,1.32921084890906,0.361180659436713,-0.883834827225707,0.371830874094288,0.296509070411018,-0.586303554384765,0.208794243124746,0.110060916068307
80.06,-0.400264040814337,0.344072284943077,0.815513085993376,-0.254362464449042,-0.204477559166041,-0.0796887853927314,-0.962627865268075,0.0483597129400809,0.0830765966477399,-0.0446792776158528,0.25677927472676,0.0619466447946034,-1.04709449032118,-0.0390816206601205,0.0977853679773927,0.462806722625069,1.40079277644573,0.288223581010695,-0.893431875872859,0.350612806380483,0.274400345927758,-0.557892409814589,0.232095681135457,0.151984014097362
80.065,-0.392069159470787,0.332742728384825,0.82830160009913,-0.273844371410501,-0.205560598920683,-0.0957152721010567,-0.960736368182721,0.0538704161884848,0.085261633452503,-0.010463280007961,0.26844310492887,0.0434695006395296,-1.18205821447922,-0.0112029475161664,0.0254565486857571,0.485616571083183,1.5046279320249,0.210194199115682,-0.904672252978583,0.332407635538753,0.252340769650889,-0.528827261593615,0.253220539672677,0.202351299638762
80.07,-0.415681577054101,0.304219054313583,0.821249774828588,-0.279360909959366,-0.210750357421208,-0.119773218434434,-0.960802530009304,0.0639564702142094,0.0585942386977243,-0.00233588073054655,0.283719026119626,0.0219438314303096,-1.26886597370671,0.01323141768853,-0.0368059269062124,0.487507814225071,1.50113505893776,0.147050866336362,-0.921578663621532,0.306500513399001,0.233989971149052,-0.483619738703028,0.282754720243062,0.253485265351122
80.075,-0.444102933651501,0.288790357447706,0.822416208327418,-0.285203712248435,-0.203978606324905,-0.130755612594604,-0.971637573433948,0.0410961067561497,0.0220961415605728,-0.0228153816954606,0.296127254838434,0.0107154216595446,-1.32802335565027,0.0564214260235235,-0.0960743239287306,0.456823709983958,1.35861016433147,0.0703721422911849,-0.931937853302444,0.287498202316177,0.227053591196257,-0.432886205875154,0.30176096210367,0.280590303612362
80.08,-0.470352867681307,0.291934211218173,0.826029197106313,-0.29432745509724,-0.200778597683738,-0.134875112927504,-0.983879004974268,-0.0250994481662677,-0.0198350281084337,-0.0639816937777106,0.30295189105431,-0.00752189284719142,-1.32835557526789,0.103073859786977,-0.124944718457062,0.427499368412956,1.10390425969998,-0.00120523529267021,-0.94745650871269,0.266961723411727,0.210939731681588,-0.370406181504263,0.313008019271163,0.310571014212397
80.085,-0.474559154965866,0.291858253014142,0.830060397298702,-0.300454096829717,-0.189201465748175,-0.125567293666227,-1.00590677163159,-0.0775831211399908,-0.0412817635483321,-0.0669938599675658,0.306521974160455,-0.0337717099702601,-1.26775814544045,0.133060932071921,-0.136671788810221,0.391795583665707,0.747131711788146,-0.0963563778867023,-0.966641151825978,0.253537211840341,0.203428027721163,-0.305589277413839,0.320962727053221,0.330714044268027
80.09,-0.472699429590379,0.287080780784295,0.818002991333333,-0.305221539972689,-0.18364949889922,-0.114707512819954,-1.0247987558944,-0.103511270657537,-0.0412143202140021,-0.0225014992117434,0.314280312359836,-0.0512819245877711,-1.17814508384989,0.12830357602503,-0.137394635661608,0.355611696519786,0.431924187960565,-0.175454190574612,-0.988853331089876,0.238277149866899,0.191099422155591,-0.235717213329912,0.308684319650247,0.337689144028132
80.095,-0.461919007040877,0.27580300482889,0.836808740636077,-0.317163781498102,-0.16754440544192,-0.106499995279966,-1.04055581368037,-0.094636866806869,-0.0343864111955745,0.0396865496183821,0.317937844064434,-0.0631097775023255,-1.06505700366479,0.102430816757544,-0.141413310006416,0.279656217004856,0.113499264010588,-0.271981619730965,-1.00872901972092,0.229398836632464,0.192533445321523,-0.174114201298561,0.26505170568113,0.353785352888235
80.1,-0.459581878707436,0.25650600752329,0.853892568403656,-0.320350952656302,-0.159417020215315,-0.109320402668567,-1.04556956108774,-0.0756183722567034,-0.0252423325010952,0.0634547351353607,0.292488352144943,-0.0626863688230515,-0.977498528399307,0.0668335426475457,-0.143883455607201,0.205067917460672,-0.0718602202860484,-0.348843263632566,-1.02740950338918,0.215015587361685,0.191370358336578,-0.135629928130978,0.218158874337528,0.355143566420141
80.105,-0.454670201327915,0.247663520436209,0.846386228044714,-0.32664259768986,-0.149700229946731,-0.105574726696052,-1.04530319138524,-0.0468524499690045,-0.0150868333744742,0.0568280870400945,0.275666836673395,-0.0623643297450981,-0.895083130120379,0.0149746667785114,-0.163356819623757,0.114616316406638,-0.206628839755841,-0.446569796862174,-1.04632155816024,0.206994879881383,0.194936904438284,-0.112839546488508,0.145112178849102,0.361549890482813
80.11,-0.460052033369055,0.259910320426151,0.842230558354889,-0.270351828530372,-0.145102858543396,-0.109968065839957,-1.02784766667018,-0.0387691396919825,-0.0174870337018643,0.0291356032788576,0.274774530554437,-0.0641599658101553,-0.850889865529178,-0.0170263783612346,-0.199046383654222,0.00129307253498343,-0.217869680943207,-0.528845454363452,-1.0650347260278,0.192797846297385,0.201274564822516,-0.0967765195950394,0.0781769740659542,0.347858415204954
80.115,-0.468487700221507,0.264308763236167,0.832966098757668,-0.241706194365764,-0.132717316206787,-0.100312232328452,-1.01291477460099,-0.0467181299383119,-0.0231593395369636,0.0121434988549892,0.273759806199632,-0.0656359351317255,-0.838972939442779,-0.0368741230037882,-0.208170529256153,-0.0685881618054068,-0.179914396224209,-0.586763631268378,-1.07548181204343,0.181248510856509,0.209945842347743,-0.0918400489546233,0.0133788405960369,0.320071908995933
80.12,-0.475241414150937,0.259346111244689,0.834518326514151,-0.22296148870427,-0.115336764702392,-0.0898769211385519,-0.992926942228903,-0.0620523478324123,-0.0336071516516419,0.0297582112850905,0.281289251719912,-0.0685997178646759,-0.85527969905382,-0.0731510359352181,-0.199794879021838,-0.115716346314971,-0.110280856719545,-0.630602663464698,-1.07302622711244,0.173139063100324,0.214260870834624,-0.0930284550215877,-0.0339096302932584,0.27425514935817
80.125,-0.472617312888066,0.252818704461211,0.838255785474352,-0.202824652957029,-0.103404464460706,-0.0759603090820053,-0.984153249249917,-0.079459096455485,-0.0394432763523727,0.0591017932221429,0.29051989190683,-0.0811274617734845,-0.893034202076296,-0.114625805199001,-0.171997469625331,-0.155575123527006,-0.0371235431617938,-0.67194902719952,-1.0720323731395,0.177347032089078,0.21415493426539,-0.0927263516450411,-0.0458340690845362,0.216878968301261
80.13,-0.464326520525064,0.244866785379878,0.844933836879788,-0.177523374920173,-0.0935708138993223,-0.0593309367331429,-0.984368407977416,-0.0962086548206695,-0.0337987436632413,0.0884463188034602,0.293828971324686,-0.0984533454141638,-0.921573416453243,-0.144872382282969,-0.161443512784015,-0.171652020278907,-0.0142133012413979,-0.698741086905622,-1.05760273134288,0.176399149121717,0.217214090739495,-0.0932719409942199,-0.0413325317027215,0.171249205951632
80.135,-0.462631651873367,0.248992022645856,0.839984099050561,-0.15512223819349,-0.0727808981631946,-0.0443073298503626,-0.986190085961283,-0.107453235289557,-0.0307889484094111,0.102676652249623,0.302097641053867,-0.109983543025756,-0.955776597113903,-0.147411345497608,-0.144588691254058,-0.146996099591317,-0.00793466967823811,-0.73211426423601,-1.03485252700533,0.186486369213039,0.218454754669785,-0.0897854899312924,-0.00927830547517164,0.129401170148433
80.14,-0.458601632867507,0.2534887440051,0.841497405779918,-0.133158945633471,-0.0579749897886594,-0.0280687907027737,-1.00084044313056,-0.107656429512,-0.0240305730471026,0.102544463230163,0.307872631182552,-0.112262861074641,-0.970300644368772,-0.155155469533466,-0.132034100477087,-0.0888793459033277,-0.00167299720037037,-0.745287957210553,-1.01739314498905,0.192402242398084,0.230654750997642,-0.0932464828759236,0.0241694139088239,0.108781773697106
80.145,-0.454363774508956,0.252339837928783,0.83980615086574,-0.120037728533585,-0.0429849996801186,-0.010971453825442,-1.00629531286492,-0.106063368309541,-0.0258153585435068,0.112638158877534,0.316573429707625,-0.107154686297626,-0.977508852394054,-0.160154059849122,-0.119913346917912,-0.0359338440435963,-0.0337315809032623,-0.751590225550915,-0.998146129723452,0.192822619844921,0.245667822716681,-0.0841010657805097,0.0487740786921541,0.0983910262055257
80.15,-0.452993341801901,0.248539082617506,0.848328541537285,-0.110329473558338,-0.0272100752363187,0.00399378560368192,-1.00485018748224,-0.101445457630611,-0.0237568839891261,0.118045785462162,0.327440688388727,-0.103229745757927,-0.972268175639488,-0.161451440967251,-0.114029617696525,0.0100987774408188,-0.0706222304482233,-0.733254531942916,-0.981591307849947,0.186038841604341,0.255222331209573,-0.0761092799317423,0.0550686139694238,0.0963013470172882
80.155,-0.446526798961508,0.246650325406545,0.848356400591475,-0.103255790740541,-0.0132383717145517,0.0174100496951454,-1.00852052930078,-0.0993843959219303,-0.0239034753093022,0.114265673858108,0.325734201835178,-0.100314636848698,-0.960245880263086,-0.160494806003601,-0.0996697503066895,0.0446097854852769,-0.114352076201994,-0.670639245826164,-0.974887709667148,0.181342745955576,0.268202933511924,-0.0692414285131725,0.044799541726403,0.100275332184001
80.16,-0.449892091895854,0.248234104133194,0.844868397448798,-0.0874824223712614,-0.00286482214308884,0.0296879125866661,-1.00175855510167,-0.0862492011186123,-0.0244141723244831,0.0953422945852214,0.337259148934742,-0.092631333373572,-0.942773982166949,-0.150553553512145,-0.101941803272515,0.0597455678939364,-0.162126656076863,-0.580291736700676,-0.957624364365814,0.17413948593955,0.283233089277129,-0.0652345730624468,0.0347666615159016,0.102909479632027
80.165,-0.451067805653561,0.25507719435217,0.839189413669689,-0.0816226855840271,0.00914727479770889,0.0418467800189174,-1.00134248659751,-0.0767649497605834,-0.0309366958922193,0.0808063355138157,0.351031227870208,-0.092435804451977,-0.926228079921639,-0.144446193478216,-0.109809546132615,0.0629631334370498,-0.202786618557985,-0.458532326202605,-0.953422304138038,0.163053920549528,0.291746914014174,-0.0528164100117493,0.0254223931069294,0.0962701377344574
80.17,-0.455438663443051,0.264519035341533,0.83212767815779,-0.0757220930249111,0.0189363093239297,0.0498741420237987,-1.00038763195779,-0.0648631287129728,-0.0394603989721861,0.0640243791538467,0.349163357909551,-0.101697165301837,-0.91380260480233,-0.143847322027054,-0.118230221775058,0.0441886380488452,-0.216072249179097,-0.341228201500816,-0.953800948636125,0.15632033221335,0.294704235956418,-0.0421422333446007,0.0117971020016827,0.0853342953083142
80.175,-0.456078615181463,0.264181540811392,0.834052050981051,-0.0708733326439973,0.0234909877181053,0.05371393631331,-0.998124818834127,-0.0571379314693223,-0.0440290203273715,0.0492728436669941,0.342308494449176,-0.110738939558941,-0.905840553244382,-0.143461214140384,-0.126904729044702,0.0356269471051359,-0.21616299075638,-0.243291530945571,-0.946285621804976,0.141514891381922,0.301611422400527,-0.034415954423025,-0.00897244645974705,0.0705256079955187
80.18,-0.456154129363787,0.266423179335922,0.830286460016705,-0.0677917450666428,0.0285347432649062,0.0637036519632671,-0.988152286884185,-0.0471123781536133,-0.0449532373359738,0.0429572676268353,0.348378377430713,-0.119186758067175,-0.91152415419528,-0.144631863252864,-0.147100347907913,0.0459590191969377,-0.199880160991173,-0.163940048071301,-0.950293632893392,0.137462382137932,0.30946730288802,-0.0273162378852561,-0.00407142540939338,0.0491364713450254
80.185,-0.44564046268739,0.270504409860019,0.834956374365207,-0.0650754838504927,0.0306847149579003,0.0566494485025089,-0.988641197530306,-0.0358919559697697,-0.0470581653220959,0.0462847775127365,0.349755782705545,-0.125082817461023,-0.93035182995078,-0.158235118546994,-0.152400534446753,0.0719076842069626,-0.145156923268093,-0.0977940865097529,-0.949034397874272,0.130199483818273,0.312320379091177,-0.023292386489261,-0.0311802077292983,0.0300684697661668
80.19,-0.442394504236067,0.271706541188225,0.835154638126861,-0.0563429228351078,0.0277144932525931,0.0454485058009717,-0.990703835047562,-0.026423676534042,-0.0466779247977649,0.0523984096076553,0.346572573275545,-0.136991763697838,-0.940346352773226,-0.156699466338054,-0.158292520328428,0.0832016907095757,-0.0762177162107915,-0.070347786682785,-0.954992476269668,0.12399105053281,0.312017753663751,-0.0197146310751238,-0.0562244855469349,-0.00106266016011473
80.195,-0.445032846882614,0.271596285303528,0.837294180348194,-0.04959072429484,0.0228216510428672,0.0347166832143651,-0.994155933636055,-0.024260893389969,-0.0417450280924364,0.0536742100192964,0.333079656173167,-0.15003840583593,-0.953002987341778,-0.158258406369092,-0.150165414948179,0.102689044756741,-0.0092496317485409,-0.0579176968999501,-0.957431662861933,0.115500319225947,0.31318065721919,-0.0144028981909156,-0.0816080503064238,-0.0418209584513739
80.2,-0.449211847735434,0.279761612982849,0.832949791067243,-0.0437838940069922,0.0165868505303007,0.0256708011876288,-1.00514758671433,-0.0209737427956771,-0.0387733104339258,0.055848984643196,0.327164988215577,-0.161944539942675,-0.972211709118499,-0.158615016331239,-0.136921726923549,0.103823189685077,0.0728704245145134,-0.0611311475449197,-0.95168388628137,0.109803688923855,0.309636499542746,-0.000287672087257097,-0.121389123205687,-0.0935542453139558
80.205,-0.44848825198344,0.280979008556001,0.8293442645231,-0.044774275116108,0.0170904288560419,0.015682708720284,-0.997612755495834,-0.0217895656244124,-0.0375179728053444,0.0598593652248383,0.332479699144047,-0.164087027311325,-0.981432048601791,-0.160858326824089,-0.114352945815255,0.105177934413661,0.137897098423063,-0.0776797848382364,-0.946047529568019,0.100370088805075,0.306171787729966,-0.0090692714989391,-0.146599039934911,-0.136651049751353
80.21,-0.453270610689386,0.27873212562118,0.832119606681301,-0.0463112833719984,0.0122941096865207,0.00466674788351924,-0.985069384468867,-0.0251550860206056,-0.0337251948766502,0.0670154468428893,0.339274870055002,-0.167100113341268,-0.993976206363853,-0.167545420138729,-0.0990783099658882,0.127018788030206,0.205922715115767,-0.0839216650181687,-0.934637346747007,0.0862663054699207,0.302435568329558,0.00825976979000956,-0.180982112444764,-0.198430595902572
80.215,-0.443434698137026,0.269022439715561,0.836321104579022,-0.0462359808863902,0.00772636728275459,-0.0101407694495308,-0.977648022772514,-0.0324863521073187,-0.0272460606584068,0.0848363161280962,0.342879029559368,-0.179154852698101,-1.00919704095679,-0.174627086274594,-0.0914764351131779,0.143516250188133,0.300957308618732,-0.0976532952367341,-0.923315016250381,0.0727793656040485,0.298547191732634,0.0235466061769352,-0.206175093954746,-0.257069190608075
80.22,-0.440165850053651,0.262847968737096,0.835354716805713,-0.0454802013257288,0.00362282835633987,-0.0210260581619486,-0.974769511915811,-0.036704190483013,-0.0182135898005211,0.0845183206644269,0.355974415669841,-0.189292475969272,-1.02427775345842,-0.18567265492376,-0.063140766923027,0.166445340566461,0.405319192776705,-0.107669797102269,-0.90984640069416,0.0617447156020282,0.29780181881283,0.0442369323688357,-0.214195258059236,-0.314913042087451
80.225,-0.437368183168391,0.272053588693709,0.83854914160401,-0.0406250165903637,0.00423333103417661,-0.0266371653695088,-0.968012663140737,-0.0476593057319594,-0.00252620222931837,0.0830715596675873,0.370710755559704,-0.199267287954924,-1.05787783894835,-0.211427098463147,0.0487586591076282,0.194779900936966,0.492148032326889,-0.102882450604122,-0.89864201152404,0.0592297709109547,0.295371243899929,0.0702844177586466,-0.220265382099263,-0.3652826095301
80.23,-0.430462820998067,0.274738685521365,0.839496142725288,-0.0353912695979203,0.00869712088237457,-0.030793943057196,-0.968562212125552,-0.0597200926472178,0.0138029437314812,0.0704059076001553,0.389774709152939,-0.209152556200067,-1.04822415441011,-0.229038757632677,0.10579594581894,0.447964269945931,0.499998613716265,-0.0664177491881347,-0.894660634788767,0.0575060680321427,0.297150312366497,0.110456531588,-0.2243712246418,-0.430878977258102
80.235,-0.422551333430558,0.263722344633869,0.849557284534549,-0.0310572755845376,0.0167910837477634,-0.0410243281870206,-0.974485649569891,-0.0651863882266561,0.0198129478727772,0.0592251036480737,0.409124114716099,-0.212592976789112,-1.05282910569699,-0.249366704579061,-0.0652963900866028,0.479107102560694,0.583138353549855,-0.0480790187987674,-0.891236467025116,0.0458170483884296,0.298498483067447,0.137137033705491,-0.227122843602775,-0.466305936031
80.24,-0.41407456922071,0.260506876377199,0.863839274811384,-0.0202569513322865,0.0375400620267429,-0.0407919101838142,-0.988252673300522,-0.0704431493620016,0.0220991159189679,0.067450547744477,0.417060142986535,-0.222989369825635,-1.0686903993672,-0.220203615437109,-0.104711813911943,0.40568458829456,0.606908344783436,-0.0502718456642713,-0.881858408273282,0.0383700866263608,0.302410328410603,0.163750486009783,-0.220789043336864,-0.515270064891842
80.245,-0.408639403298813,0.251078679346904,0.871411644922956,-0.00134744076295817,0.0683432035092996,-0.0441193876166796,-1.0086768274158,-0.0726116074896814,0.0206896533257037,0.07779520929088,0.431288348611873,-0.229249103240257,-1.08451400492613,-0.228822424422382,-0.0518995150274503,0.415790299880756,0.498895205187895,-0.0147561020774908,-0.885107887743469,0.0364879206012046,0.310732208263479,0.19182752294285,-0.210241744268385,-0.55805582536714
80.25,-0.420238198423779,0.246693176994625,0.867080598215489,0.0274769450679527,0.107034374100572,-0.0480295870284226,-1.04273319727481,-0.0581696721870532,0.00623208142464162,0.087945390001544,0.456463273971348,-0.239814812283527,-1.08846730996714,-0.228551414372173,-0.00364205909949264,0.394228968905005,0.432789501074673,0.0715114109350099,-0.900297366043726,0.028315070692383,0.330468230714635,0.232717640991938,-0.216903856103956,-0.598961629254837
80.255,-0.435125493475273,0.26486174023073,0.858142152082583,0.0448628835187304,0.143030307379477,-0.0459101785070723,-1.07109958926345,-0.0295186643810333,0.000739243438226255,0.115481143094621,0.481767845035973,-0.264158479482709,-1.10244913719358,-0.203205063981413,-0.00855390580839588,0.387151048056899,0.410244754554894,0.164971845665958,-0.916192710938673,0.0174722007852268,0.351106224873085,0.254392008210281,-0.247272594461808,-0.624343026175507
80.26,-0.436719584143318,0.286866150602341,0.857165337386652,0.0583965832205734,0.166360547311783,-0.0488710866129966,-1.08773907914498,-0.00704976982956196,0.011334880850384,0.135350015449982,0.507682418596921,-0.298861353149187,-1.1206999407912,-0.173798481581745,0.0451195203237089,0.430735094034403,0.367436967352758,0.245412363449509,-0.937260731992196,0.0166772530571161,0.370129851647789,0.262125550972501,-0.289217364825586,-0.635200187189738
80.265,-0.421800969979667,0.285873967961507,0.857332867600503,0.0706898823624084,0.190923311580682,-0.0672729003891243,-1.10149691560041,0.020651812637488,0.0250630095770136,0.14049120247364,0.527235160616619,-0.337065455949086,-1.13760696844984,-0.145882103561282,0.0923502043443076,0.506161575509091,0.333506090840441,0.327960493787574,-0.97381214083167,0.0120488571981007,0.382478974019666,0.267794271120743,-0.342336275083302,-0.638841055039122
80.27,-0.412854969714672,0.279826879338659,0.857802247799143,0.0851736376697884,0.205472061946061,-0.0943966981099702,-1.09596540744612,0.036554743870873,0.0405322591175362,0.122377654134615,0.558098801264872,-0.370299147630512,-1.15947862589868,-0.130365515796104,0.109488662438634,0.580334941300581,0.292297102889624,0.403698458995676,-1.0300755842682,0.000939733157816065,0.374223002936151,0.273975536257817,-0.385777521548941,-0.636212437916133
80.275,-0.412309756146366,0.281773763609739,0.859134010463608,0.102589619769763,0.219836572435149,-0.122324713947707,-1.07281650847241,0.0371547017256776,0.0462902264915956,0.102924711456159,0.574767646216825,-0.399458539685756,-1.19955894364796,-0.11837238233895,0.128238857492642,0.63387306130396,0.256279376759459,0.462657046291463,-1.05431837782551,0.0363226419757512,0.337118170731778,0.349198427706979,-0.340947526219426,-0.681509208461751
80.28,-0.409481490460663,0.287490670918793,0.855046972905648,0.110559495982737,0.232058976212471,-0.158306184190599,-1.04282432014092,0.0189614509468461,0.0524503150190831,0.0706318019671906,0.598750202174274,-0.412590944387481,-1.19500433538096,-0.113193305480658,0.119554527925974,0.684976414899675,0.224096311489738,0.511049043955874,-1.19013618116167,0.00878677152546035,0.316471027458284,0.377715039193642,-0.301119181817012,-0.537966651807604
80.285,-0.414122501833408,0.292940606037924,0.849859781958251,0.118512470823371,0.231966229876256,-0.1941102308646,-1.00804897207612,-0.0237244149844099,0.0513264542914253,0.0733975658643606,0.638420236059535,-0.419577502236957,-1.19033109749642,-0.133026694316436,0.133279445925698,0.83123952744258,0.183049478557618,0.6141066964393,-1.33106311609392,-0.0452608943184397,0.259186284260724,0.479629786223408,-0.401102071002108,-0.520038391028048
80.29,-0.427417780364386,0.288126372928691,0.851833996208936,0.117649560708387,0.247376907732129,-0.222791910058671,-0.978326928077546,-0.0602105645456381,0.0426950682468012,0.101206931800293,0.682235297624969,-0.418756535474618,-1.18725462799343,-0.166794824469615,0.147778078898228,0.845719551502489,0.152146551297078,0.65524827774875,-1.39955388321085,-0.0739954684175269,0.163460011810479,0.535863654737912,-0.428024677963803,-0.578173771954568
80.295,-0.440089050027153,0.280313462309582,0.848870933828024,0.122542019140542,0.262374797665008,-0.248925942585722,-0.964805175780529,-0.0892314940464464,0.0283793270223495,0.161523874224469,0.730935477741721,-0.419079419389257,-1.18773189477293,-0.16708088548446,0.153772691304889,0.645029711533192,0.0582005552075199,0.585134500331963,-1.42973087124817,-0.0725920454466869,0.0650455909467383,0.556534885337039,-0.277383863698009,-0.599763401476136
80.3,-0.44895954440368,0.278469060583097,0.844929888598828,0.131682622849313,0.276278148012405,-0.26061602106659,-0.965096763528962,-0.10557424169398,0.0230408765752192,0.209052946014893,0.776032837750408,-0.421110184017343,-1.17595408860197,-0.175379986962489,0.171439339732192,0.493243278388073,-0.0505097612656248,0.536727767140928,-1.40271975282988,-0.0852778315196924,0.00938645729932401,0.511521427383198,-0.113084888047892,-0.553272062954913
80.305,-0.443077332133151,0.268403967195679,0.849622079293162,0.140332941684583,0.304843576412842,-0.263800459954068,-0.974805380341333,-0.120815259785338,0.0231344045377077,0.261991250911976,0.825671857093341,-0.42026188542278,-1.13506837503214,-0.207403557877512,0.190701404324351,0.531545971071819,-0.12476048849775,0.548150707566707,-1.33221588712036,-0.0978506214869639,-0.0136072104130202,0.439991200438121,-0.0172558472276535,-0.508723783826234
80.31,-0.443285190573232,0.250475989524795,0.859052332264119,0.15904360287137,0.337572234726712,-0.269146357695174,-0.993369637797917,-0.133647202050608,0.0237230703060775,0.308446567959316,0.871168613418653,-0.420984744112137,-1.08904479549249,-0.247940551698074,0.206901540135457,0.632354779829457,-0.184310034691631,0.546899555856958,-1.23859602195021,-0.0931488075005658,-0.0136663961451142,0.344430734647796,0.0205516883840367,-0.463565882241636
80.315,-0.453078530643079,0.243153086881655,0.864484593318557,0.18723450541217,0.368558900795324,-0.266905183661516,-1.01328166992834,-0.13748052649986,0.0244613508793275,0.359743053471408,0.919713756147988,-0.421864569187164,-1.06245004485903,-0.266474484528811,0.211592741438321,0.707697169196538,-0.236805010998081,0.517398622754553,-1.16162226507885,-0.0718129276947629,-0.00029037048177274,0.255267972759526,-0.00683096386760814,-0.422246463439888
80.32,-0.448327101721583,0.24350963528573,0.864082871014978,0.204472994876309,0.407107528389173,-0.260359037196709,-1.02679817745281,-0.138908223845542,0.02140565472067,0.414818948340315,0.967248032082794,-0.424558559290599,-1.04818063105625,-0.269710838888788,0.22601481025935,0.780129852932905,-0.26688804005934,0.479489836464029,-1.09691523332534,-0.0341675119731763,0.0113975539834084,0.172371705855989,-0.0280209802023571,-0.368248920745822
80.325,-0.454144870371936,0.246427564887987,0.860400727677631,0.235992724936279,0.47086490446082,-0.2481145148189,-1.03493446500537,-0.132012190769573,0.0230484470852798,0.49056943101863,1.02120476289039,-0.447010384227161,-1.04451853426144,-0.271678531057829,0.253660552193521,0.922838896283927,-0.304726587320939,0.447638286036364,-1.05192614580609,0.00163486942275396,0.0308466317922244,0.0603916209725024,-0.010491474067447,-0.286913972283522
80.33,-0.455292633467163,0.241889602312696,0.871124844929174,0.268133943687778,0.514376172285362,-0.24048468473592,-1.04642047758272,-0.130471004357864,0.0163366349156266,0.535661116643994,1.06235448090228,-0.46204668331713,-1.03985210923981,-0.277385122849707,0.274117894447528,1.00596882477935,-0.341667235750678,0.409485432554176,-1.03200071989405,0.0222164105335473,0.0524599952308936,-0.00570424658598147,0.0164840980316076,-0.252763437346333
80.335,-0.45960116147615,0.240685214281381,0.862400194480284,0.296365333457288,0.563147523013766,-0.229506024489799,-1.05389612127177,-0.133255169835853,0.018036499942491,0.57281361854764,1.10249875150235,-0.479205483380418,-1.04985107991061,-0.272438346322724,0.292909825591203,1.04156894277755,-0.403577389558223,0.342154473058557,-1.01999803482521,0.0466795983172145,0.0691966522644765,-0.0680130056249602,0.0628633498163914,-0.223501276585229
80.34,-0.449970100910262,0.251039403052447,0.867487002395933,0.321286882442092,0.608366116603444,-0.215438000993034,-1.05411387035903,-0.137771854745559,0.0298816950405096,0.615638692048036,1.1676360472251,-0.49732861076468,-1.06306070316419,-0.260095950588421,0.322499015991391,1.04455033186827,-0.485801851073006,0.242924591615194,-1.01034159490317,0.0672113865769233,0.0827488577891011,-0.105625121362734,0.113137917655496,-0.225801624549237
80.345,-0.45693104766419,0.217380208765031,0.846154400826479,0.360856744906679,0.657218975289475,-0.219618844709723,-1.05696000304444,-0.141729679244549,0.0498344246934347,0.662727531262973,1.2282990242172,-0.521270221766775,-1.0804543214404,-0.249937571925635,0.357357989995483,1.05321154260511,-0.565462305184063,0.135195026343906,-0.995523544621756,0.0960440308473896,0.10383937785313,-0.104757260501327,0.15684628665825,-0.248249072320634
80.35,-0.454462941068811,0.244700187772201,0.880322822633868,0.428386999752367,0.697453187813733,-0.250610544140368,-1.07116392743963,-0.129114440749381,0.0601051982244247,0.706698796106772,1.27690577598612,-0.547255566165156,-1.09068362892549,-0.237460339079806,0.382933120005631,1.05781519412994,-0.605981914661876,0.0468903587731994,-0.983816336283757,0.129529778522126,0.122405687957626,-0.0632465673565053,0.19198224264722,-0.288149973060495
80.355,-0.465493828855873,0.281136887153461,0.880958760049156,0.4092245790049,0.748148173544715,-0.316737218283414,-1.08248110063042,-0.10917101919534,0.0531363410576348,0.725616285732763,1.32618856447248,-0.561217618807052,-1.09181260872818,-0.226326125902421,0.38889197806477,1.10484015808294,-0.626713856693481,-0.0525966975637669,-0.965196563310405,0.15106740255623,0.136196788193627,-0.00806464829718395,0.220868387486195,-0.333691474282779
80.36,-0.44017935540229,0.24638817368436,0.854294658109831,0.45089449735117,0.808154542546751,-0.284151740301423,-1.09955619478171,-0.102441353492516,0.0443385632982677,0.70368074125059,1.38446272729614,-0.575025578125364,-1.09800240785101,-0.220206224756795,0.385532954927538,1.16498256126129,-0.642358001905968,-0.119461040720103,-0.934973121463949,0.16637744567813,0.143304940830018,0.0899223815149689,0.25414615395332,-0.378614942111708
80.365,-0.466568131817057,0.251260861832813,0.855248177732075,0.521244517667438,0.855335917276897,-0.255257900059806,-1.09722127968282,-0.108533581015191,0.0264897181232138,0.660922220241217,1.44099838535314,-0.569073344713046,-1.10267113488334,-0.209928587541853,0.384356829736268,1.22179146877261,-0.671829272700563,-0.178822914830391,-0.906770338702948,0.172012374134753,0.157195665211236,0.175335436181473,0.275370026861044,-0.403439904485556
80.37,-0.470479748575359,0.326120067357292,0.864334618117635,0.551702305387004,0.907995712727329,-0.283092628230953,-1.08841084206229,-0.117125243950255,0.0153751923133058,0.653138199733238,1.47104001660907,-0.560260791219211,-1.10820144334122,-0.199771440974917,0.381586137638913,1.29481432478604,-0.714945029891783,-0.209445300052616,-0.877667683980015,0.169248455680756,0.171711083498828,0.266598216563845,0.289184613499809,-0.413145273923874
80.375,-0.434131387658134,0.273221507355547,0.833463466128933,0.544535815526645,0.966700956098152,-0.340601141122852,-1.08257743867823,-0.125784998403086,0.0184024990507512,0.639652715554354,1.49979791784157,-0.549501120286243,-1.11715542733059,-0.187306032774798,0.379026724225222,1.36314705096453,-0.766320617741181,-0.23303620780794,-0.84626663633396,0.148229621818019,0.181804103598831,0.356554515675527,0.276286966218951,-0.40569682747841
80.38,-0.457483558610887,0.342284502116538,0.885373337907884,0.63584602680829,1.02517918062744,-0.415022714529635,-1.09413101668347,-0.13177697148963,0.0259813535529039,0.624323517746057,1.51758552405404,-0.557661002972476,-1.12324539083277,-0.17995649534395,0.377147640852974,1.38624812495854,-0.817954598289718,-0.240643244825004,-0.826277429012118,0.127664362741107,0.188357513290857,0.409569760206567,0.257897203907192,-0.389566401607069
80.385,-0.469492140604863,0.374812351396749,0.852678151435877,0.605467589007892,1.09383817298306,-0.407678272451647,-1.11870669605714,-0.133727995452603,0.0327102222883442,0.619045754551473,1.52131433299397,-0.581077690138255,-1.12777207974736,-0.17353367279535,0.358601547648952,1.38812773614303,-0.883194915193833,-0.258668054596591,-0.802968974638246,0.0927255690289867,0.194628940446127,0.466884828053052,0.209278200638805,-0.360063092068559
80.39,-0.473959401808012,0.336903664100188,0.840836009332351,0.649898000105772,1.17077866902447,-0.420768574396576,-1.1413592921426,-0.153688020316411,0.0399374492541375,0.514009909523961,1.51874925687354,-0.604673830037353,-1.13039444549537,-0.164263126869761,0.336806365036654,1.35850791714676,-0.927167972204823,-0.27837163595818,-0.783817057463677,0.0657609260306196,0.206202136957688,0.483200385280108,0.162719244734381,-0.329196420424572
80.395,-0.476878347766622,0.345708865297315,0.859606276368205,0.646129610277199,1.26545459793098,-0.451759809177931,-1.1475227570155,-0.165684684019579,0.0190478805306347,0.389766855908181,1.547657913849,-0.624192775980055,-1.1317027772471,-0.162802870152007,0.318969133982297,1.31042272167489,-0.944341803128747,-0.308942241587409,-0.762505990467601,0.024690697907701,0.204296762005007,0.47859850704938,0.126604746756232,-0.306708870447435
80.4,-0.475416301793217,0.372982218628953,0.863790516131252,0.641290702881364,1.34584345989261,-0.485428628382211,-1.1545552350659,-0.152942455644324,-0.0180204257919202,0.328457961887456,1.61634587752417,-0.634919587562879,-1.12741016458892,-0.174861300617486,0.298529304980741,1.25808157999864,-0.94815300558763,-0.341163333101814,-0.75086244199418,-0.00868676390542967,0.197648274477423,0.460581803016133,0.10569998538601,-0.294425053112935
80.405,-0.476315467991067,0.393198293886079,0.857645561133678,0.644358145280002,1.41675843622453,-0.557278109138474,-1.17535273924438,-0.139359636420946,-0.032900704566662,0.34997378873401,1.69202716221557,-0.632336792924344,-1.13956460567097,-0.19556698857211,0.277906887724431,1.15565043881886,-0.927353812665831,-0.365122993682541,-0.739868316674473,-0.0429120396831108,0.194509529994786,0.425995592004044,0.0924571021437016,-0.290569694376424
80.41,-0.477511693822759,0.442840731339239,0.84214219192743,0.552048811554101,1.51958674365964,-0.687722183016825,-1.20343766363715,-0.135651292165296,-0.0342356537637865,0.371466283150386,1.72194372541622,-0.643170346090357,-1.14866488840484,-0.19210553278751,0.264760789817932,1.07316866161302,-0.917379264048527,-0.385537227743485,-0.730806190337354,-0.0655165520927462,0.194112195484378,0.393383400328777,0.0872933429443576,-0.297996902900331
80.415,-0.497498919603597,0.468710482204307,0.856679812995786,0.472092183412634,1.59757529760419,-0.788293639930085,-1.2268651753278,-0.114021305248715,-0.050627264459047,0.32863459671455,1.72158592088312,-0.666489928685114,-1.17413342132679,-0.191188050253472,0.236628776562317,0.991646524695537,-0.877057204909038,-0.403172362764754,-0.725241838969948,-0.0892850064595817,0.187498826902046,0.360902413295675,0.0827894256136621,-0.319208027288745
80.42,-0.538816103061928,0.449937620259902,0.839046472172181,0.456424448418402,1.71999547441675,-0.883378965442069,-1.24613520151949,-0.0911883835147411,-0.0899359397406665,0.289883415408303,1.70330740413625,-0.684714144120621,-1.19394850940696,-0.166228687991902,0.203551037671359,0.925215737136555,-0.776023109939796,-0.404290523429621,-0.721450032446293,-0.119686060492016,0.186605372580541,0.346525731915537,0.0844837551650471,-0.341506258215279
80.425,-0.567787922951465,0.442211206249128,0.818279364514047,0.456092205071025,1.82873127606915,-1.01883518995711,-1.27485410295552,-0.0662726917958064,-0.133721973192837,0.303003042822125,1.69197983339299,-0.683990166167729,-1.21018165129362,-0.143517921764649,0.189432467066617,0.847857275345522,-0.585029830343109,-0.374516499472474,-0.719383279832492,-0.143318960440592,0.190937656788227,0.345672616471882,0.0810524076223373,-0.367297970119274
80.43,-0.596995685299257,0.480943801876444,0.804268178485511,0.429276521587661,1.92933733676555,-1.18861304985357,-1.30104096140446,-0.0515326059227254,-0.121302764529531,0.357643108041351,1.68657815585261,-0.65633511073026,-1.1707921269382,-0.161635049276635,0.246794066435638,0.658233768229005,-0.198093850971347,-0.333029024876685,-0.730335977923821,-0.169581768476644,0.186615185808968,0.357412923993399,0.0826779235819862,-0.400084880487559
80.435,-0.602458099781317,0.475183403366177,0.805201029140748,0.363182042468268,2.0203013881261,-1.36552103249188,-1.3243281210093,-0.0464080166983819,-0.0856990959368006,0.420837910582742,1.63227060096553,-0.625852092149702,-1.07515564997143,-0.2169628566027,0.179289177782296,0.37004382046898,0.298629404035573,-0.300346826057104,-0.750174576794835,-0.200028019023618,0.183861639092484,0.389779836536446,0.0924759222939066,-0.441423810726335
80.44,-0.607163369945418,0.473164261412662,0.798117634200211,0.312260211249435,2.0911895220281,-1.48279199398719,-1.31884805121379,-0.0380372887409613,-0.13689715547802,0.454257850057299,1.54613171515831,-0.59049790634935,-1.00265906083677,-0.248504915406169,-0.0622603852549947,0.165571349318707,0.470657912089119,-0.267251301959531,-0.7653565891443,-0.219656702331727,0.179270083813543,0.421804125379959,0.118220015848166,-0.476947391407727
80.445,-0.62263240074629,0.493161587680664,0.781021148710864,0.25888566157734,2.1585903868909,-1.56034127243294,-1.28428481421511,-0.05699573459471,-0.258712126772451,0.482315932111862,1.49047287071871,-0.534685584408284,-0.966433165339626,-0.251095027000346,-0.282247837708932,-0.137452127692306,0.475859105714686,-0.191876400552826,-0.792424850591788,-0.242422888887835,0.173724315655408,0.471919125733454,0.172668276793328,-0.520256639933539
80.45,-0.680306383628291,0.501224876568218,0.763569918341208,0.108293752638032,2.22704681526111,-1.60908898064771,-1.22645406551401,-0.10293973634361,-0.36187693537669,0.478066207818867,1.51493335128717,-0.473752947517985,-0.999795841997447,-0.226823935778263,-0.397796189302826,-0.441014092919806,0.383321281228934,-0.0828766382800752,-0.832211820299318,-0.263763154681731,0.170473135865317,0.548190267593076,0.255309975541394,-0.569093690052794
80.455,-0.733986095848896,0.496259808635109,0.738589665975492,-0.0269963419937169,2.27420762735844,-1.62749090414265,-1.1876650389413,-0.12046312951246,-0.375387321495573,0.47056291154583,1.542687683774,-0.441428433105411,-1.03872296334288,-0.141120963065521,-0.554447682863174,-0.413233630920413,0.340297398711326,-0.0546539688907456,-0.879226651153148,-0.274498909157418,0.178542507575392,0.624062332751596,0.308102653704149,-0.617428779815852
80.46,-0.733350113110394,0.500473056017148,0.706555337655077,-0.150606375089422,2.34880732206473,-1.62260919634216,-1.15391219855428,-0.126258804193488,-0.366775593640436,0.526686677548194,1.49839812937564,-0.411060201758487,-1.04030205323058,-0.0230154945689101,-0.690418209076833,-0.105992392471555,0.119600705860429,-0.0920490672609797,-0.924337437859491,-0.2782903276253,0.187028066431333,0.694217950787863,0.307869541786931,-0.661042364060026
80.465,-0.719180923908095,0.5065194156995,0.703196587860911,-0.220589650225062,2.44650841020836,-1.61093354462052,-1.11307831987324,-0.101837420426539,-0.352330661591199,0.612215766448301,1.42225845696484,-0.367698988542049,-1.04224282859432,0.0236291145810833,-0.537374767360147,0.203958708884861,-0.247184740325635,-0.11780928730873,-0.971018478090384,-0.276808960810165,0.188370469629462,0.744226383393682,0.281247618485908,-0.728186951339645
