Header,foot_Accel_X,foot_Accel_Y,foot_Accel_Z,foot_Gyro_X,foot_Gyro_Y,foot_Gyro_Z,shank_Accel_X,shank_Accel_Y,shank_Accel_Z,shank_Gyro_X,shank_Gyro_Y,shank_Gyro_Z,thigh_Accel_X,thigh_Accel_Y,thigh_Accel_Z,thigh_Gyro_X,thigh_Gyro_Y,thigh_Gyro_Z,trunk_Accel_X,trunk_Accel_Y,trunk_Accel_Z,trunk_Gyro_X,trunk_Gyro_Y,trunk_Gyro_Z
88.3,-1.80528258921967,-0.335910431874267,0.287193343186368,0.0328236188919447,1.6614238936463,-2.24500211945458,-1.05684942124006,0.291015211381559,-0.792256758905412,1.52277542572899,1.80090347890764,0.074715641028791,-1.05285090995138,0.118637837984615,0.0817909673152701,1.38539513320909,-0.0179296145270902,0.941024686707451,-1.07278713361559,0.121373008786014,0.509541603654234,0.045725349156259,-0.117520016053476,0.502638198039018
88.305,-1.69126400115605,-0.253521512591541,0.488409973186253,-0.0855108092596422,1.56620919499263,-2.21811810974315,-1.08645547745681,0.284390226232518,-0.677405373048241,1.39168458888927,1.93359893044019,0.0512637521536462,-1.06534388451984,0.0873240859256641,0.0808477887990884,1.22486357235933,-0.0462617899886329,0.885260395544675,-1.0919590336941,0.125705613895672,0.536280953682127,0.0528615965689039,-0.0591789622104257,0.477376214092818
88.31,-1.57415914392425,-0.186728148679777,0.676687295508317,-0.204817341367775,1.4400154119824,-2.16196559399318,-1.11416824605488,0.271387475623096,-0.565772701462866,1.24005261844546,2.04338384526959,0.0217614478174597,-1.07820992611045,0.0679748096197287,0.0783480170983799,1.04507002297761,-0.0740329588185267,0.82231491057056,-1.11113448288772,0.130828918105899,0.557101624578968,0.0597411253905747,0.00536103020020018,0.447612255262087
88.315,-1.45690925874155,-0.133709132798937,0.848245483284249,-0.322244337890431,1.28724621620417,-2.08062266246722,-1.14036142742833,0.253990075427014,-0.459097101115633,1.07285743706133,2.13222920124511,-0.0135431962644055,-1.09100058194046,0.0596701008337913,0.0747011303791575,0.850865368665335,-0.100599543596047,0.753853584339595,-1.1297830345587,0.13621529011394,0.570627100902105,0.0665738694288513,0.0748252736585006,0.413458171544942
88.32,-1.34242424834618,-0.092231229012369,1.0001199001276,-0.434805254144145,1.11323147666217,-1.97843089430438,-1.16552369913471,0.234132647586241,-0.359035074488359,0.89552928912621,2.2022636241512,-0.0539884806645837,-1.10329141453273,0.0609719400462172,0.0704692266154417,0.647602045168222,-0.125392644885657,0.681569093784733,-1.14740349084653,0.141264972265459,0.575751064368205,0.073668275851639,0.14770504981467,0.375319785623363
88.325,-1.23389667743301,-0.0604881037421276,1.12862833427214,-0.539551281417988,0.923981449608628,-1.85976920348532,-1.18925788725708,0.213447702863611,-0.26865858516349,0.713696764777192,2.2556805452604,-0.0985549458768434,-1.11473943461272,0.0700516814160039,0.0663012965446695,0.440888401411687,-0.147957193220097,0.607118589561803,-1.1635658631131,0.145429933884098,0.571748120997717,0.0814281941157256,0.222325136427875,0.333884706132689
88.33,-1.13411684556753,-0.0369251853508664,1.23081558689339,-0.633785349817589,0.725877251123026,-1.72890532076782,-1.21085571706024,0.193235901568512,-0.190991790217861,0.532895617416744,2.29464997042286,-0.145949362989187,-1.1251219340442,0.0848312903564118,0.0628821665064495,0.236297005001647,-0.16797272613995,0.532055873410569,-1.17792678579958,0.148287905688027,0.5583725376627,0.0903319209297182,0.296949499825034,0.290060304452324
88.335,-1.04483769542803,-0.0198990115734727,1.30594233991372,-0.715215515685177,0.525360144599324,-1.58985720823187,-1.23009983053668,0.174480622981228,-0.1275090680234,0.358324314633991,2.32123740910913,-0.194704349190397,-1.13433139025159,0.103133735835298,0.0608481109554807,0.0391141292263771,-0.185261922053812,0.457781820521438,-1.19024575849315,0.149514691305062,0.535810226039798,0.100908613089908,0.369896430097397,0.244912152591966
88.34,-0.966877660254353,-0.00788556296490033,1.35481750305656,-0.782013439178063,0.328657726835618,-1.44625038829164,-1.24700103869728,0.157792764605348,-0.0786580607236305,0.194681900735218,2.33733293724245,-0.243283766272692,-1.14234821099691,0.122804423268444,0.0606872619581287,-0.145832382354805,-0.199795617526875,0.385521477431897,-1.20040492451011,0.148857677614788,0.504522217995019,0.113724105514867,0.439613010148385,0.199633618304295
88.345,-0.900288246624772,0.000382884349169888,1.37927422568111,-0.832841988126064,0.14154452358919,-1.30122882444385,-1.2615699015028,0.143461485355187,-0.0442329244858841,0.0460487858746322,2.34458988096401,-0.290183932852581,-1.14922099897273,0.141810895919428,0.0626879123709083,-0.314305672076517,-0.211691073697138,0.316311317048057,-1.20840611183265,0.146192833183785,0.465147998993062,0.129366739880351,0.504705204876496,0.15552042509531
88.35,-0.84452286543059,0.00591409326695515,1.38201345029658,-0.866886876945922,-0.0308803090592493,-1.15744622980094,-1.27379473546603,0.131569420003864,-0.0234314750820036,-0.0842180094900487,2.34438001903627,-0.334018798006378,-1.15506427035826,0.158346394874336,0.0669602349067721,-0.462780047900797,-0.221195177479477,0.250981900806401,-1.21433103263396,0.141637783795453,0.41856236179368,0.148423879579895,0.56396135588617,0.113907733804377
88.355,-0.79861958511177,0.0094991468200274,1.36638016776841,-0.883886986884525,-0.184393890965826,-1.01711513836532,-1.28363927630826,0.122082415512175,-0.0149619990181066,-0.193577266051571,2.33777257213398,-0.3735814995376,-1.16005229222775,0.170906411816823,0.0734757575483933,-0.588548433112509,-0.228649673414677,0.190135628277237,-1.21829363821973,0.13558401862198,0.365956268357984,0.171446320309271,0.616406752088787,0.0760588196771419
88.36,-0.76132736196865,0.0117941263021444,1.33604336788384,-0.884128869291039,-0.315790288262126,-0.882055795657237,-1.29103655839792,0.114888917426077,-0.0171956682673431,-0.280355188936468,2.32553487068321,-0.407886114010687,-1.16438160782086,0.178319251865725,0.0820645443810969,-0.689786342615768,-0.234452362899202,0.134137112823744,-1.22042019647264,0.128570436214734,0.308767594489644,0.198905550011636,0.661365622799283,0.0430697071442885
88.365,-0.731229551102929,0.0133787657525605,1.29467968139344,-0.868379353806578,-0.422938737951415,-0.753708734713034,-1.29587609882678,0.109823471341073,-0.0283264663400621,-0.343731576976218,2.30815338837655,-0.436195094051727,-1.16821915185336,0.179768597561021,0.0924060588577015,-0.76554784365405,-0.239028986633372,0.0831280008257527,-1.22084238283623,0.121144740725357,0.248516856810267,0.231155831898899,0.698481643708817,0.015839711688005
88.37,-0.706905205698578,0.0147555866836006,1.24575295716147,-0.837792286088883,-0.504782132959054,-0.633142680277719,-1.29800010873934,0.106701014246239,-0.0465021769341207,-0.383686561965217,2.28587777274862,-0.458031388493215,-1.17166750490946,0.174826087527051,0.104064719847548,-0.815720881502326,-0.24281097731161,0.0370532382598757,-1.2196784962601,0.113835995479853,0.186687454141963,0.268404148572785,0.727698940710138,-0.00493525972363174
88.375,-0.687069988128981,0.0163278315023019,1.19237024926514,-0.793823721695718,-0.5612956317353,-0.521083083869557,-1.29721715999283,0.105341008428167,-0.0699255834378028,-0.400934616748293,2.2587846986398,-0.473174560651687,-1.17475200676091,0.163465110293508,0.116551247972845,-0.840968707322921,-0.246211562282943,-0.00431366205145507,-1.21701486043047,0.10717265090741,0.124664699715122,0.31068550612186,0.74922777220213,-0.0187864624147898
88.38,-0.670651327152428,0.0183860940470681,1.13717807696191,-0.73815464642588,-0.593402409549254,-0.417945861418935,-1.29332907979991,0.10556722342418,-0.0969331289784449,-0.396846327270066,2.22685066567847,-0.481644562805376,-1.17741847168706,0.146042258007911,0.129371894816818,-0.842657160731174,-0.249602052888658,-0.0413474008888457,-1.21290401686702,0.101660957564128,0.0636946543688102,0.357850034566095,0.763501968158471,-0.0255054203476082
88.385,-0.656817890595316,0.0210861838869745,1.0823042949331,-0.672612102359407,-0.602844584670558,-0.323869023472431,-1.28616063819228,0.107192734964422,-0.126052783837385,-0.373347490960714,2.19002413952807,-0.483676544389156,-1.17952131246726,0.123269907112155,0.14204746937919,-0.822756770849273,-0.253293377056953,-0.0745450588539895,-1.20737434171532,0.0976786283828892,0.00484572521216575,0.409569096793827,0.77112555586621,-0.0251628648552897
88.39,-0.644979105583787,0.024421819670423,1.02937060929482,-0.599078286284091,-0.592025774968383,-0.238752972074976,-1.27557740548551,0.11000966369212,-0.156022799436689,-0.332783473505214,2.14829539546511,-0.479688688437446,-1.18081909153188,0.0961734258705141,0.154126897840937,-0.783707429836065,-0.257527803698334,-0.104486852395951,-1.20044540756581,0.0953728034246789,-0.0510055488040144,0.465351639425698,0.772808045038158,-0.0180796495693973
88.395,-0.634759086656006,0.0282249082711052,0.97958878316641,-0.519425026700381,-0.563852172410766,-0.162316678410908,-1.2615094379912,0.113808123313577,-0.185755021424274,-0.27779061339061,2.10175540240252,-0.470248352107784,-1.18103825003875,0.0659947471044525,0.165250754221533,-0.728288344013945,-0.262473777185555,-0.131800660774211,-1.19215622160788,0.0947991932516208,-0.103130039995479,0.524557265457429,0.769308371751256,-0.00478542063883908
88.4,-0.62596282343732,0.0321966166408735,0.933885610901479,-0.435533917910847,-0.521578566104272,-0.0941748575238657,-1.24399601757975,0.118416085247336,-0.214280340615041,-0.211237784944039,2.05062387686585,-0.456039152926162,-1.17997164211617,0.0340875993729564,0.175234160964308,-0.659556332762935,-0.268206770315944,-0.157172656332539,-1.18259704446478,0.0962196619125082,-0.150894865567138,0.58641884803485,0.761407093774095,0.0139254812316383
88.405,-0.61852525577961,0.0359565931291444,0.892975246827553,-0.349357509612639,-0.468654540428504,-0.0339305236384737,-1.22320625656185,0.123713435267274,-0.24071884458734,-0.136200736631646,1.99525054238584,-0.437824213041047,-1.17749483921364,0.00188575496924006,0.1840647791897,-0.580813084414129,-0.274680308950933,-0.181387699945411,-1.17192383062249,0.10011620843683,-0.193781284437356,0.650096464721116,0.74988360924295,0.0368608371163641
88.41,-0.612433342199889,0.0391078804790527,0.857382902020126,-0.262923795146184,-0.408583094321541,0.0187532296873167,-1.19942908674508,0.129608596908396,-0.264271529024465,-0.0558913336413576,1.9361151771396,-0.416407151046305,-1.17351041642676,-0.029097121789479,0.191823321337019,-0.495523687667246,-0.28171129126334,-0.205336577371229,-1.16036919919125,0.10687374632074,-0.231423170875854,0.714744634531093,0.73547334663541,0.062378008550376
88.415,-0.607641517880197,0.0413131627763218,0.827462940205671,-0.178284434595146,-0.34479469696078,0.0641271567151944,-1.17306879226798,0.136015213769993,-0.284211889306485,0.0264505715588939,1.87382779645961,-0.392598480132164,-1.16792643999982,-0.0573135567847638,0.198629018097662,-0.407196848603211,-0.288986359111544,-0.22998446184859,-1.14827021280869,0.116547279243781,-0.263598454077244,0.779558270976208,0.718822781920951,0.0884562389557046
88.42,-0.604009756081645,0.0423717708459157,0.803421111988971,-0.0974574762291871,-0.28052680442559,0.102364563776679,-1.14464060827581,0.142850653201925,-0.299874907664388,0.107658873746113,1.80911449941616,-0.367187626831417,-1.16067972771058,-0.0812547027033382,0.204632427785772,-0.3192720755013,-0.296077666406306,-0.256339761639274,-1.13609228243776,0.128878321442755,-0.290210025701883,0.843798986514683,0.700457280789958,0.112802461077599
88.425,-0.601284656986521,0.0422722289750601,0.78534189337255,-0.0223742763664637,-0.218718170363241,0.133594574930595,-1.11475216806139,0.150053394792559,-0.310653157329522,0.184723833537299,1.74279071019026,-0.340918279693965,-1.15175967250332,-0.0995173496369097,0.210008998293018,-0.235027066058336,-0.302461374376017,-0.285435798867887,-1.124426479923,0.143393448933794,-0.311281493620526,0.906820139653444,0.680751608785175,0.132937791497324
88.43,-0.599118047046596,0.0411983075509412,0.773214550473684,0.0451622683904734,-0.161930323867838,0.157940153038278,-1.08407606723148,0.157610728482454,-0.316004213324663,0.254851299799247,1.67572789063157,-0.314468437374991,-1.14123012103389,-0.110879774067738,0.214939242498963,-0.157509650408329,-0.307537141988928,-0.318318573493744,-1.1139631169345,0.159482676904508,-0.326932211786062,0.968089628978077,0.659905310582397,0.146272176409325
88.435,-0.597102121800117,0.0395057133502602,0.766937227085238,0.103497325338618,-0.112294281608418,0.175539547350823,-1.05331717380562,0.16557109221541,-0.315485198055589,0.315496738689255,1.60881387532743,-0.288435919207373,-1.12924644373706,-0.114388373132145,0.219587492218337,-0.0894958488272704,-0.310647362693887,-0.356038204824775,-1.10544394302599,0.176447555052299,-0.337339669523024,1.02720126533492,0.637936322507322,0.150175991980136
88.44,-0.594817183436806,0.0376805839518012,0.766292754677316,0.15114713438606,-0.0714812540976455,0.186569560395378,-1.02317589181825,0.174025903019566,-0.308827450974686,0.364391579834543,1.54291137498422,-0.26332846930677,-1.11605670831928,-0.109445210519078,0.224079436840895,-0.033457222811568,-0.31110034981007,-0.399637182835669,-1.09959277300639,0.193499267098677,-0.342726237674281,1.08387762703535,0.614688786482494,0.142063313240808
88.445,-0.591901324569717,0.03625365993754,0.770910491676053,0.186843594406964,-0.0406959787143057,0.191276160643604,-0.994315987574131,0.183075997077431,-0.296036547322728,0.399580108625941,1.47881962175699,-0.239557616578548,-1.10200137252021,-0.0958973128000463,0.228483932961279,0.00848010851397865,-0.308202523596596,-0.450125316831417,-1.09703284303385,0.209739359725971,-0.343357108479986,1.13797224348679,0.589847230035653,0.119507719696497
88.45,-0.588130266639382,0.0356797453880135,0.780218947224344,0.209587284802728,-0.0206820727980296,0.189984489789314,-0.967340762298868,0.192789343452334,-0.277497879494858,0.419471321090841,1.41723833798513,-0.21743422848425,-1.087520894597,-0.0741173002860054,0.232814706655725,0.0345894109492189,-0.301299311966136,-0.508442306540363,-1.09820122674957,0.224180333919721,-0.339532491266946,1.18946749393027,0.562962133860566,0.0803858929694744
88.455,-0.58349120108877,0.0362282519975965,0.793398045218974,0.218704433228512,-0.0117283476154227,0.18308842567064,-0.94277503906172,0.203153297078722,-0.254073430722471,0.422905820955104,1.35873500640279,-0.197164292628077,-1.07316117663598,-0.0450583388063784,0.237046535897308,0.043609879182176,-0.289823216169749,-0.575414186029406,-1.1032671044543,0.235798493062626,-0.331581659784157,1.23846049811686,0.533488372745026,0.0230306989114595
88.46,-0.578246514654292,0.037906544872409,0.809363695132077,0.213908158853898,-0.0136764578019237,0.171034029694956,-0.921053836629501,0.21404266967249,-0.227165226266975,0.409232784385831,1.30371919330106,-0.178845688746582,-1.05957251129209,-0.0102773138745033,0.24112712434924,0.0348205906421157,-0.273346728312604,-0.651704281407201,-1.11206148264497,0.243592003842299,-0.31985211791631,1.28513762436342,0.50083504795772,-0.0536148036876186
88.465,-0.572965719503647,0.0404306763789188,0.826801802691515,0.195359135980922,-0.0259388731600809,0.154293856610812,-0.902517023565116,0.225219156258977,-0.198715215794868,0.378390218119251,1.25242353495299,-0.16246569885975,-1.0474968831303,0.0280800031164939,0.244967388316614,0.00811649602983878,-0.251635685229186,-0.737758119997046,-1.12403505359701,0.246627776951167,-0.30470248462821,1.329744628085,0.464428027213525,-0.14984908435671
88.47,-0.568496832403609,0.0432742419559674,0.844244651031296,0.163721717151505,-0.0475314571164808,0.133332962713924,-0.887412165172223,0.236363907789094,-0.171116967129986,0.330983618989868,1.20488886803583,-0.147900249497224,-1.03773450784626,0.0673572395291119,0.248405431576039,-0.0359169905871034,-0.224699972918979,-0.833740872406819,-1.13825540355446,0.244094269585146,-0.286513333950911,1.37256259519377,0.423775817733038,-0.265070074801861
88.475,-0.565873178477746,0.045817482594948,0.860195889280505,0.1202112963409,-0.0771182511309925,0.108584822935471,-0.875915211674306,0.247147066044747,-0.147022668457072,0.268351956479705,1.16095510905044,-0.134916472658215,-1.0310923417532,0.104561921945714,0.251163000181544,-0.0959406515886516,-0.192835822339525,-0.939467947483486,-1.1534399755515,0.235426494477746,-0.265688993608949,1.41389097262303,0.378531882604446,-0.397657868937754
88.48,-0.566157241352949,0.0475755455540025,0.873300904563483,0.0666253559013176,-0.113070195531158,0.0804555703469124,-0.868166711953283,0.257331720305517,-0.129046801474442,0.192601385084618,1.12026131140618,-0.123178308652311,-1.02831638221891,0.136631178219658,0.252794873283398,-0.169827038118848,-0.156648478598509,-1.05433533101345,-1.16803457794686,0.220482060338039,-0.242644315999531,1.45402922403504,0.328559002489184,-0.544925963459031
88.485,-0.570218023510778,0.0484435016297605,0.882513818854106,0.00534552479457485,-0.153535794189052,0.0493586824516191,-0.864303901120047,0.266878953152513,-0.11940423843543,0.106592404123571,1.0822553481309,-0.112257996975602,-1.03000138180053,0.160744739154389,0.252622747815215,-0.254668376107176,-0.117049321374012,-1.17725349565777,-1.1803549260095,0.19967414950345,-0.217807948832058,1.49325273504478,0.273991253147583,-0.703152424386038
88.49,-0.578478761447584,0.0488746925462459,0.887227854637023,-0.0606975336177351,-0.19651063860253,0.0157765481210993,-0.864469930731785,0.276018508966552,-0.119543064235312,0.01387918238029,1.04621146028102,-0.101657798151719,-1.03649162968932,0.174631027382358,0.24968132519184,-0.346829610888965,-0.0752294111144051,-1.30659192405835,-1.18878403755071,0.174064144741533,-0.191654102809296,1.53177770378087,0.215280568219198,-0.867680997558198
88.495,-0.590713718888298,0.0499215664835277,0.887375579643262,-0.12812197903851,-0.239907424214171,-0.0196758287023312,-0.868792383804718,0.285274939106365,-0.129835123125079,-0.0814166674500167,1.01125363630961,-0.0908472504722075,-1.04780022259644,0.176816462624234,0.242707306273834,-0.44206716163306,-0.032607734334119,-1.44015472883037,-1.19199398339687,0.145445641010993,-0.164763739654801,1.56972039781825,0.153216741618918,-1.03311002782718
88.5,-0.605940504603403,0.0531323784524367,0.883451881311732,-0.193281908188647,-0.281643192932045,-0.0562170935407009,-0.877333043212823,0.295404745037322,-0.14941624976364,-0.174820150479888,0.976386692930623,-0.0793207343157202,-1.06354686623626,0.166798706487467,0.230204400779765,-0.535739047648675,0.00924756022440754,-1.57520626088662,-1.18914353239182,0.116357680153117,-0.137890296371627,1.60707428131808,0.0889066943597107,-1.19358572933982
88.505,-0.622423590809532,0.0603104046317106,0.876388380101868,-0.25249792156045,-0.31973562096049,-0.092872641539928,-0.890017822474894,0.307187165269217,-0.176265973239883,-0.261767652255743,0.940543183254495,-0.0666679041190332,-1.0829114031891,0.145131189673078,0.210628062846104,-0.62307303542581,0.0487111592937901,-1.70855269930062,-1.18000768927565,0.0899456022472889,-0.111967728655487,1.643705729927,0.023709459489374,-1.34317382467704
88.51,-0.637831400900852,0.0731063180860456,0.867319687387816,-0.302270302180776,-0.352383430634881,-0.128431402070904,-0.906560903594253,0.321118385960343,-0.207522763954183,-0.337863288860051,0.902651713004447,-0.0526430355290972,-1.1046407980248,0.113373478345207,0.182677373754329,-0.699436809260951,0.0841870574896799,-1.83668345296015,-1.16502313088712,0.0696636710225821,-0.088034976454458,1.67934790734837,-0.0408569818114849,-1.47626351871922
88.515,-0.649567411881859,0.092493576572532,0.857345221531951,-0.339486423075276,-0.378029704708679,-0.161434209029272,-0.926402819535205,0.337131843617577,-0.239953444227338,-0.399120769330965,0.861722895252457,-0.0372262935853743,-1.12714427619496,0.0738870758851806,0.145622526573835,-0.760604426127345,0.114185162080823,-1.95597745025172,-1.14524631852379,0.0588657818033387,-0.0671066349803391,1.71359653676919,-0.10321926633784,-1.58797187225436
88.52,-0.655210237541668,0.118304860126307,0.847330875449675,-0.361640589389592,-0.395419970048961,-0.190241195394572,-0.948684733857878,0.354426401911507,-0.27049004987395,-0.442198599760968,0.816943948025833,-0.0206693630477157,-1.1486617600023,0.0295299694052253,0.0995991535456282,-0.80302358729285,0.137390544597455,-2.0629681444883,-1.12222237355429,0.0603372355911757,-0.0500311353983503,1.74592526962071,-0.16185425512463,-1.67451953605244
88.525,-0.652958154495636,0.14900996264762,0.837765927728383,-0.367029845723536,-0.403652014937629,-0.213167952341932,-0.972276718158474,0.371452796347162,-0.296736879231394,-0.464600494310851,0.767770767054203,-0.00350956869871691,-1.16746779961475,-0.0166770664432031,0.0458042397796137,-0.824049314066409,0.152723586159417,-2.15464339841613,-1.09777339058511,0.0758261209497339,-0.037370286306934,1.77572304431973,-0.2153958452777,-1.7335376680777
88.53,-0.64198376865237,0.181824243846782,0.828719967206726,-0.354877152906745,-0.402207797038814,-0.22865781414941,-0.995868065007447,0.386102507409737,-0.317325791351806,-0.464805072993974,0.714003618184648,0.0134620778811237,-1.1820784995321,-0.0618724093835683,-0.0134839432706285,-0.822099651441276,0.159389747739657,-2.22873762943352,-1.07372979893914,0.105637236730593,-0.0293088130587961,1.80234817504508,-0.262737759579852,-1.76425845673087
88.535,-0.622612452622918,0.213143322839796,0.819931122916808,-0.325361931940604,-0.390966354492786,-0.235462162166067,-1.01811064139274,0.396089102172189,-0.33201971790441,-0.442313267866486,0.655830307102377,0.0292800589535642,-1.19142839900811,-0.103636880973951,-0.0751155143828565,-0.796713346009933,0.156920458967115,-2.28395777490226,-1.05165229487854,0.14837933108007,-0.0255955023300965,1.82519666884639,-0.303109631304031,-1.76753917205603
88.54,-0.596274847519329,0.239210979989464,0.811001083876851,-0.279560409819493,-0.370200050508169,-0.232798536969822,-1.03778613714931,0.399437428094271,-0.341539094036879,-0.397619290097453,0.593822698661478,0.0429171287857113,-1.19498217779554,-0.140190539937533,-0.135492690396902,-0.748510890785408,0.145203703144473,-2.32008898535235,-1.03261128539583,0.200986050148786,-0.0255403329010239,1.84378120493997,-0.336103597345435,-1.74569316842176
88.545,-0.565254557756431,0.256852094984305,0.801632981441512,-0.219314429509764,-0.340556762624809,-0.220459056358809,-1.05395735377354,0.394951240198844,-0.347172951342947,-0.332121674087253,0.528883995515652,0.0534078134824084,-1.19275846572348,-0.170448930164249,-0.191109296820936,-0.679077455703343,0.124499780607164,-2.33795329673519,-1.01707947501444,0.259073209250501,-0.0280848203996961,1.85781092489922,-0.361647415736577,-1.70215266341859
88.55,-0.532297232713417,0.264075084170339,0.791818538552762,-0.147057166419036,-0.303031133864521,-0.198850107074823,-1.06606390308191,0.382512105996262,-0.350312768057602,-0.247997966841096,0.462159047074533,0.0599586920843394,-1.18526495340356,-0.193926706489037,-0.239050455058399,-0.59079912812018,0.0954380588112477,-2.33923482619802,-1.00496208962836,0.317575704933805,-0.031948376433698,1.86724832163929,-0.379936920331528,-1.64103707361141
88.555,-0.500173578507696,0.26037653135901,0.781891791875828,-0.0656109758012832,-0.258918348930192,-0.168951413064328,-1.0739380407093,0.363108809485927,-0.352070872978028,-0.14804988916207,0.394925881172532,0.0620299107767177,-1.17336657072913,-0.210547821608701,-0.277318426246573,-0.486670471302897,0.0589891726128045,-2.32622592939243,-0.995745180843366,0.371497077687537,-0.0358363269635389,1.87231134535242,-0.391360134317287,-1.56672211991674
88.56,-0.471308673417056,0.246684268252745,0.772460963428617,0.0220286237907622,-0.209740859515398,-0.132209825482251,-1.07775222596552,0.338620478808218,-0.353074658594818,-0.0355154791487133,0.328485592021784,0.0593810295267967,-1.15812702502903,-0.220463689998092,-0.304945410242314,-0.370079534330633,0.0164088395911736,-2.30155985720154,-0.988692299546536,0.416547174930728,-0.0386315861059386,1.8734137155778,-0.39644557761045,-1.48348178235868
88.565,-0.447541117159275,0.225036504841498,0.764284415993106,0.11288753552324,-0.157158176625086,-0.090405293508593,-1.07793967958359,0.31145299666899,-0.353441072795758,0.0861292837714707,0.264066169985923,0.0520770682054515,-1.14066169704096,-0.223942701951471,-0.321921167600573,-0.244596355569054,-0.0308411361978498,-2.26796862779316,-0.983015138268017,0.449517591587804,-0.0394842186923251,1.87107721136258,-0.395830459124989,-1.3952248917788
88.57,-0.429984552272642,0.198155500181035,0.758104669575887,0.204179418415989,-0.102870892620982,-0.0454943429957503,-1.07510441838273,0.284110538123802,-0.352887084994175,0.213364054988278,0.202750428020726,0.0404599693944256,-1.12201881831937,-0.221320904811516,-0.328983900371253,-0.113778105141071,-0.0811849890574941,-2.22807945906157,-0.977991599267502,0.468409249974154,-0.0378206077942349,1.86585447593461,-0.390224059540097,-1.30531689411832
88.575,-0.419006457222123,0.168974249424293,0.754509826088081,0.293458722954591,-0.0485145463417638,0.000575784784145911,-1.06992673647047,0.258823485331362,-0.350886929477628,0.342818992750893,0.145431966497235,0.0250970927245967,-1.10309827982551,-0.212997438349094,-0.32737802133407,0.0190184371372943,-0.133031484047107,-2.18425713375037,-0.973039133264528,0.472403440196363,-0.0333508072235759,1.85827560616546,-0.380363789418676,-1.21647663669794
88.58,-0.414370587336907,0.140176302975133,0.753921103192605,0.378690486193938,0.00442474215470315,0.0460111697471032,-1.06308563403851,0.237361138239482,-0.346803629159783,0.471408818378857,0.0928005064896167,0.00670541038174492,-1.08461437683435,-0.199473593172026,-0.318672065962113,0.150756962600385,-0.18486556708139,-2.13849583318469,-0.967750514639831,0.46173777826358,-0.0260782967195244,1.84882093182003,-0.366976154897105,-1.13074250599117
88.585,-0.415426106094153,0.113910022473901,0.75659746037589,0.458196775614663,0.0546369693232496,0.0892171905284715,-1.05519777342444,0.220963371742913,-0.340020930943142,0.596358984545524,0.0453499144111875,-0.0139408052933192,-1.06708863034259,-0.181388856288557,-0.304590367840949,0.27873128393978,-0.23531887089446,-2.09236099368448,-0.961896606062165,0.437525083906086,-0.016268722161821,1.83791675862964,-0.350745160821387,-1.04949781163557
88.59,-0.421238826189767,0.0916998567094749,0.762571998916144,0.530600553176319,0.100998530848795,0.128823661882922,-1.04677948974164,0.210284022570731,-0.330092484753901,0.715217361517738,0.0033961951761016,-0.0360867732055022,-1.05085796439005,-0.159515664374615,-0.286818682215769,0.400563141969345,-0.283221816655139,-2.04697828627137,-0.955407035489534,0.401539085036082,-0.00438971208511314,1.82594278644566,-0.332287562486253,-0.973537805569397
88.595,-0.430732162184732,0.0744292261763198,0.771646988625583,0.594813220772418,0.142593606096596,0.163727274897234,-1.03823470303188,0.205423626390133,-0.316820404853146,0.825891366076234,-0.0328994815179673,-0.0590488614950623,-1.03610199160644,-0.134743366222552,-0.266872112855778,0.514229273392215,-0.327640851317011,-2.00305758525523,-0.948340070199284,0.35598521992994,0.0089398853510639,1.81325086208196,-0.312138665122513,-0.903160438752228
88.6,-0.442845536099158,0.0623874530836003,0.783463970375878,0.649983997753685,0.178714034128957,0.193088501561058,-1.02985366782092,0.206076096605285,-0.300243892414234,0.92663762269209,-0.0635036416180795,-0.0822534912092841,-1.02288428589636,-0.108058111214789,-0.24604657040318,0.618044372595407,-0.367892757942722,-1.96093851933967,-0.940846625097183,0.303295094990063,0.0229926893336468,1.80019945127159,-0.290749593665953,-0.838271717931124
88.605,-0.456625044279557,0.0554220137893635,0.797533000707886,0.695429494789136,0.208843859477369,0.21629193357065,-1.0218241327241,0.211664073157505,-0.280621054938713,1.01601775421863,-0.0884846242254068,-0.10525795184535,-1.01118700468017,-0.0804855188880968,-0.225379740897128,0.710614296309527,-0.403536200188352,-1.92065103620254,-0.933131436527887,0.245959050643105,0.0369855567339798,1.78719192833352,-0.268495303789007,-0.778500536971945
88.61,-0.471239587530684,0.0531318660017954,0.813217014723098,0.730619587360263,0.232660587402856,0.23293180328484,-1.01425061740443,0.221408701874566,-0.258428342299827,1.09288951950773,-0.107990755302462,-0.127744675629051,-1.00092483500692,-0.0530023939727747,-0.205615210413981,0.790828542871651,-0.434349935652818,-1.88198282080952,-0.925415951165051,0.186367594619976,0.0501436483509075,1.77470391745517,-0.245688888878297,-0.72330872622526
88.615,-0.485977947945196,0.0550119804427589,0.829739681780423,0.755233335715052,0.250049750305373,0.242839355856678,-1.00716636211058,0.234376446919655,-0.23434566967472,1.15645016706065,-0.122229572225619,-0.149495907359941,-0.991942936848813,-0.0264569473680873,-0.187208489821064,0.857907149512136,-0.460305225473532,-1.84454109424845,-0.91790901144765,0.126663668640528,0.0617560291840886,1.76329877345119,-0.222595922589519,-0.672075272644893
88.62,-0.500265318804387,0.0605166164530971,0.846248239556502,0.76924260709259,0.261110510550988,0.246123803976792,-1.00053981810323,0.249558110432562,-0.209198113050067,1.20630038312124,-0.131446466895039,-0.170362695473506,-0.984027606432165,-0.00153862493644702,-0.170378993873104,0.911468063978876,-0.481535876358132,-1.807805279163,-0.910787979449396,0.0686528819341314,0.0712250858441572,1.75363493390094,-0.199450166196367,-0.624150512830212
88.625,-0.513692007761121,0.069068127833344,0.861910807495975,0.77294652729962,0.266140749729616,0.243172057082957,-0.994289051187936,0.265984035282613,-0.183857496971204,1.24246599233193,-0.13590781808718,-0.19024005201125,-0.976943274150091,0.021201293510727,-0.155181460640483,0.951551047596008,-0.498303602260603,-1.77117720376856,-0.904188324094378,0.013782328512543,0.0781289087737673,1.74646162986734,-0.17646264958774,-0.578898241389736
88.63,-0.526014109463882,0.0800669124048567,0.87599051515393,0.766931385245721,0.265607218161122,0.234589061567531,-0.988300343596322,0.282801132613078,-0.159159585759698,1.26535638396124,-0.135892301761373,-0.209051204727063,-0.970462036100468,0.0413396737733808,-0.141563664488443,0.97857732184688,-0.510959438235376,-1.73403065864368,-0.898198623169164,-0.0368524479711227,0.0822623025031578,1.74259863262277,-0.153815794956914,-0.535734227178168
88.635,-0.537116049133233,0.0929238635440838,0.887869832420609,0.752019978566184,0.260108373862723,0.221130011519703,-0.982444730191355,0.29927066599284,-0.135876084151833,1.27571184836863,-0.131684557549172,-0.226735642732959,-0.96436986007606,0.0586055146486212,-0.129392435941359,0.993296913455558,-0.519908848763361,-1.69575559216813,-0.89285401538195,-0.0824845975523653,0.0836409213724169,1.74290360686762,-0.131657237551561,-0.494153443241758
88.64,-0.546974400416898,0.107063990180994,0.897079331643068,0.7292524711201,0.250337666164927,0.203662280763648,-0.9766017747638,0.314756248598591,-0.114691198671262,1.27457526911852,-0.123569129901394,-0.243237394647496,-0.958486295250639,0.0728726404785498,-0.118469187189398,0.996759110044054,-0.525584213478908,-1.6557970160812,-0.888131838391001,-0.122611337441898,0.0825090396434103,1.74822965359777,-0.110096699717549,-0.453749235720007
88.645,-0.555657608985954,0.121878085450961,0.903388226547834,0.699832129141505,0.23704265281762,0.183108834460427,-0.970687229982136,0.328770155531939,-0.0961267662872578,1.26323197311253,-0.111832253197579,-0.258501895761045,-0.952708014225656,0.0841010349308668,-0.108569540508857,0.990249748505772,-0.528422280617317,-1.61369704241238,-0.883961553562187,-0.1568963732896,0.0793286829940722,1.75936779834049,-0.0891957099485174,-0.414240090093738
88.65,-0.563309610211664,0.136719565761801,0.90686211741264,0.664986367116556,0.220957755768055,0.160337334342522,-0.964668080117625,0.341000990735051,-0.0804832097560098,1.24306600179632,-0.0967705979816874,-0.272487637789157,-0.947022983648913,0.0923256290219175,-0.0994848572063504,0.975143361692594,-0.528844952222985,-1.56914198944541,-0.880244683491817,-0.185117985978759,0.0747046863420575,1.77697562771255,-0.0689616607656263,-0.375508481930754
88.655,-0.570038893840375,0.150996790825091,0.907724546797906,0.625860790578066,0.202739857907685,0.136081799335072,-0.958560488960349,0.351202940533365,-0.0679029366177256,1.21544074482296,-0.0786953347610987,-0.285176821461262,-0.941458536809354,0.0977524671350744,-0.0910281735645343,0.952780171520017,-0.527248081514502,-1.52199549772588,-0.87688518175359,-0.20723741608982,0.069278161308106,1.8015160465892,-0.0493645013656475,-0.337620546655551
88.66,-0.575802156684084,0.164238776133841,0.906121472027388,0.583580273590581,0.182981507048108,0.11098466013669,-0.95241982497183,0.359033358790509,-0.0585089632670225,1.18175637969099,-0.0579259735919316,-0.296569349925032,-0.936020627356778,0.100835334726877,-0.0830252398630704,0.924522499870161,-0.52400560623282,-1.47229931066801,-0.873823544209279,-0.223491761635097,0.0636596872351295,1.83323440279408,-0.0303788834285773,-0.30078151508987
88.665,-0.58045451805667,0.176037507745535,0.902104521153125,0.539388021031478,0.16228405744084,0.0856931277247745,-0.946341308440445,0.364061646452428,-0.0524436792447388,1.14360625236085,-0.0347810570234298,-0.306672010641004,-0.930714486122591,0.102172015728003,-0.0753159566892073,0.89191124844967,-0.519482878383795,-1.42025726264595,-0.871032085764568,-0.234308030416317,0.0584429765804878,1.87215883303607,-0.0120259040270766,-0.265254758366756
88.67,-0.583902725366425,0.185967756328898,0.895854942158243,0.494643519439991,0.141279636241229,0.0608673811797058,-0.940476482445228,0.365950908232374,-0.0497514059925694,1.10278425798687,-0.00957772086799275,-0.315503805726966,-0.92562039829621,0.102304555408529,-0.0677620348191021,0.856672580095744,-0.514040921099774,-1.3662327854718,-0.868474069296206,-0.240088338645152,0.0542374763896789,1.91807891652793,0.00562489745216303,-0.231334338963436
88.675,-0.586139738429468,0.193622226795172,0.887792286400818,0.450662932856173,0.120575972746657,0.0370925250808265,-0.935033843613252,0.364560087885811,-0.0502807688118435,1.06110714799966,0.0173607489792339,-0.323113812914763,-0.920902464460452,0.101657708996373,-0.0602559450480002,0.820540171550243,-0.50802795466934,-1.3107542507849,-0.866095308005826,-0.241150823512351,0.0516144737522673,1.97050924384942,0.0224827754601975,-0.199377168287276
88.68,-0.587201958245879,0.198688276068891,0.878393122121812,0.408611710549322,0.100714938591509,0.0148295022665588,-0.930215787166494,0.359875206697022,-0.0537877891504564,1.02028109326195,0.0457039308377701,-0.329589433789925,-0.916734934986193,0.100610168465756,-0.0527273710999007,0.785124549491958,-0.501772864663513,-1.25449626333991,-0.863859307929358,-0.23786358604373,0.0510015716782766,2.02869145888314,0.038443305996009,-0.169805137096416
88.685,-0.587185445619229,0.20096984338505,0.86806231738046,0.369511421610652,0.0821790618809431,-0.00556008076959282,-0.926162468950696,0.35197401872107,-0.060037980340435,0.981891668987505,0.0751230448258142,-0.335051301031425,-0.913255461048462,0.0994898257999853,-0.0451410823656613,0.751907799969632,-0.495585852652761,-1.1982362537853,-0.861760715781065,-0.230713005556181,0.0526459648721748,2.09164539694257,0.0533738941738444,-0.143051741882345
88.69,-0.586259590282829,0.200423242205499,0.857248518368019,0.334215329990736,0.0653804921063205,-0.0238088072542472,-0.922976245898537,0.341106433801538,-0.0687126713206944,0.947354829025216,0.105298300994187,-0.339648309565072,-0.910578427878575,0.0984856198629882,-0.0374815953452597,0.722199375190207,-0.489755061605681,-1.14281256737246,-0.859797414378795,-0.220222448006204,0.0566383007152131,2.15823467600183,0.0671141341388239,-0.119523331361124
88.695,-0.584634767610427,0.197214990911704,0.846474312532032,0.303331679361198,0.0506179856400868,-0.0397656206774208,-0.920732868212012,0.327724465134419,-0.0793583852814643,0.917795986436148,0.135920864537317,-0.343552005832089,-0.908797576075136,0.0976363321634755,-0.0297356846935533,0.697020648413338,-0.484534379886028,-1.08908762510939,-0.85795423167887,-0.206901798133093,0.062908866294103,2.22723374819547,0.0794935452252068,-0.0996019560402774
88.7,-0.58250468722083,0.191734623934451,0.836201443051507,0.277200386246107,0.0380619926203937,-0.0533858033119264,-0.919453658643611,0.312410697056165,-0.0914596295178696,0.893986653707185,0.166694578682491,-0.346942282280461,-0.907956396024358,0.0968961665976087,-0.0218905358187547,0.677048353535924,-0.480130819272987,-1.03790308090383,-0.85622012252991,-0.191298587840402,0.0712033152741181,2.29740356348065,0.0903418247521912,-0.0836421812679771
88.705,-0.58001096546549,0.184552291868045,0.826753833422346,0.255932103016467,0.0277792291826632,-0.0646964214342938,-0.919092507649776,0.295806642713222,-0.104499042829695,0.876364800039418,0.197338409662723,-0.349988553614625,-0.908029033769446,0.0961697629686451,-0.0139386001672753,0.662641674486583,-0.476696836526964,-0.99003117359428,-0.854601159126408,-0.174035853292633,0.0811013696994659,2.3675672403375,0.0994892902276908,-0.071942124094856
88.71,-0.577249064273,0.17635889955086,0.818338341522206,0.239457086654979,0.0197557475357102,-0.0737652384937571,-0.919542507438888,0.27857421064953,-0.117983177243401,0.865074287307615,0.227586797602953,-0.352833873206047,-0.908928583691777,0.0953111987844458,-0.00587550900743971,0.653886836131297,-0.474325711536487,-0.946135838230333,-0.853111536559905,-0.155780159661365,0.0920793738855903,2.43667109127748,0.106771666481937,-0.0647157837981328
88.715,-0.574274879573575,0.167907500612599,0.811082386878033,0.227566552774512,0.0139049654914714,-0.0806723613100132,-0.920656088170788,0.261364194423205,-0.131447968774998,0.859997284275387,0.257188783107718,-0.355584656613002,-0.910525779132829,0.0941384769406166,0.00229836966622617,0.650632777832554,-0.473049399983649,-0.906745816985223,-0.851764609621057,-0.137191521435478,0.103569875602871,2.50382698799924,0.112042361416934,-0.0620817161697904
88.72,-0.571105098770556,0.159943705878476,0.805046247434976,0.219945658603567,0.0100763789488866,-0.085488486878427,-0.922267216594417,0.244781765405262,-0.144461710544805,0.860786510857438,0.285909067161215,-0.358306813979884,-0.912665551568025,0.0924668184521438,0.010568515654909,0.652524899530846,-0.472840681108724,-0.872235121930591,-0.850575582540043,-0.118894628385256,0.114997270978717,2.56833717981673,0.115184645386223,-0.0640595960735514
88.725,-0.567723610670781,0.153137253013362,0.800226396393391,0.216199125300788,0.00807356050249645,-0.0882670216301539,-0.924210829150583,0.229353685304736,-0.156636199197052,0.866903620987472,0.313531499348642,-0.361027249808229,-0.915182178974499,0.0901365990451086,0.0189027733704636,0.659043327552841,-0.473619644672076,-0.842810300530072,-0.849564778184212,-0.101460630395886,0.12580627767027,2.62970391144737,0.116119147645164,-0.070568552586342
88.73,-0.564095267461003,0.148032403353634,0.796568377200304,0.215873752758364,0.00767632385100875,-0.0890456245670536,-0.926339432633145,0.215503826350423,-0.167641971165319,0.877662937180943,0.33986369865258,-0.363738498468493,-0.917914873698284,0.0870281159409821,0.0272554755532681,0.669545147323464,-0.475262666305839,-0.818506137631307,-0.84875609759884,-0.085384370448875,0.135494015529659,2.68762648852062,0.114809175070257,-0.0814308357921773
88.735,-0.560182385355339,0.145015046515778,0.793983214837479,0.218478912082601,0.00866011432293708,-0.0878532229830921,-0.928533681465055,0.203541448086545,-0.177222896901931,0.892276802614686,0.364741641651996,-0.366405472339378,-0.920721182154009,0.0830652037001646,0.0355678760408158,0.683307034383387,-0.477612905967461,-0.799190500269899,-0.848178020627814,-0.0710626756152658,0.143634117012011,2.74198463025011,0.111265500715545,-0.0963816402575065
88.74,-0.555961435951735,0.144298176156066,0.792357856054551,0.223504423752613,0.0108114281742665,-0.0847243323455032,-0.930704148151894,0.193662604715975,-0.185207585887947,0.909901535010249,0.388032615341689,-0.368973590956431,-0.923483422908225,0.0782140452984217,0.0437642972739265,0.699567432655893,-0.480491961463692,-0.784578936349715,-0.847865612252723,-0.0587848695535834,0.149887202723866,2.79280693762031,0.105548404702062,-0.115080812152528
88.745,-0.551437912808796,0.145932826649661,0.791563574644316,0.230437034111166,0.0139384862269004,-0.0797163345891898,-0.932786856699429,0.185960099388968,-0.191511930315676,0.929681859023002,0.409638004390115,-0.371376828574625,-0.926106393571549,0.0724873855840347,0.051752053589751,0.717566663084579,-0.483711236827429,-0.774254432079679,-0.847853325236135,-0.048734651833971,0.154009488861944,2.84023453237055,0.0977670244424223,-0.137124436215841
88.75,-0.546653508241134,0.149836050178117,0.79146153234585,0.238776297899326,0.0178754059256067,-0.0729204171357794,-0.934739291581109,0.1804369121707,-0.196134021307928,0.950789261177591,0.429498785577426,-0.373544890304781,-0.928514486734359,0.065949941315561,0.0594249586426372,0.736580838662427,-0.487081867803435,-0.76768633667812,-0.848163999796773,-0.0409900192493966,0.155868914611646,2.88449176713054,0.0880788894748466,-0.162058100099052
88.755,-0.541681814915991,0.155820920201026,0.791900029634541,0.248049255768058,0.0224856849647848,-0.0644656071809864,-0.936540138586684,0.177021904508814,-0.199147503147662,0.972454325937621,0.447601097766999,-0.375409367302583,-0.930655566129225,0.0587147572965317,0.0666648299861127,0.755949661753896,-0.490423387132159,-0.764250824602707,-0.8488065983481,-0.0355155683443598,0.155463366528555,2.92586097601614,0.0766902362776035,-0.189393172440722
88.76,-0.536617106340431,0.16362106209959,0.792712976229766,0.257824144132218,0.0276701747821454,-0.0545211280128339,-0.938188610810218,0.175583984004962,-0.200693223345898,0.9939965575898,0.463977852123746,-0.376908512980762,-0.932504792248546,0.0509345902817092,0.0733430809033464,0.775101664202464,-0.493571398274202,-0.763256779469692,-0.84977907033842,-0.0321591302444578,0.152927940453883,2.96465293290024,0.0638560601895898,-0.218624539855515
88.765,-0.531561380548879,0.172907669260832,0.793728884472736,0.267724449306922,0.0333740457675357,-0.043298568028051,-0.939700401149062,0.17593963557308,-0.200966496989293,1.01485283061553,0.47870640270822,-0.377990441724415,-0.934060790314065,0.0427949413784404,0.0793266360535827,0.793578354447654,-0.496384094569111,-0.763974883297244,-0.851069548051241,-0.0306670037168644,0.148525495393249,3.00117338665017,0.0498791509768496,-0.249247189888124
88.77,-0.526610375388329,0.183302748459115,0.79478177302193,0.277442586268728,0.0395880619347525,-0.0310529692193143,-0.941102887648723,0.177855274257952,-0.200202226538355,1.03460283960326,0.49190376249451,-0.378615327072615,-0.935337747204053,0.0345047338757106,0.084485948791075,0.811055988131252,-0.498747811058584,-0.765665541133765,-0.852659028452388,-0.0307190493060396,0.142629550845883,3.03569307544763,0.0351076594961205,-0.280768368566417
88.775,-0.521843353436093,0.19439465836162,0.795720938089429,0.286750987326386,0.0463471941537269,-0.018080106680253,-0.942430042046141,0.181047390056649,-0.198662868033654,1.052988732224,0.503719547858604,-0.378757552634687,-0.936356687780897,0.0262847383233758,0.0887033865144742,0.82736223934261,-0.500582131168186,-0.767604325909096,-0.854524832120545,-0.031970881043945,0.13570397072008,3.0684267618156,0.0199318366159668,-0.312712945000213
88.78,-0.517328597889646,0.205754801184413,0.796436018862546,0.295510797398601,0.0537231217118198,-0.00470487634396789,-0.943716676704287,0.185185168362682,-0.196629681448258,1.06992682361748,0.514328588287078,-0.378408276236777,-0.93713711455015,0.0183614152967243,0.0918813592307506,0.842485408029403,-0.501844668679607,-0.769104730574432,-0.85664099097728,-0.0340852835525665,0.128270025334792,3.09952318958529,0.00477812801002143,-0.34462355105166
88.785,-0.51313815862599,0.21695067202895,0.796888678621842,0.303675751232368,0.0617995562546547,0.00873728773130598,-0.94499862056655,0.1899031289749,-0.194393183425692,1.08550749715352,0.523926078511424,-0.377578572085709,-0.937698543526902,0.0109511456717813,0.0939472659133796,0.856571930071148,-0.502535156068647,-0.769537835922789,-0.858983846852598,-0.0367483423372633,0.12087241913291,3.12906273426515,-0.00990273049685199,-0.37605965454421
88.79,-0.509351908408177,0.227552088659347,0.797112766766979,0.31128246220838,0.0706415778242749,0.0219169847769417,-0.946322353063509,0.194821852473279,-0.192239781289493,1.09997680515984,0.532720756549694,-0.376303725579129,-0.938074148677052,0.00422023733258544,0.0948532000603236,0.869905900035753,-0.502698811136027,-0.768352315743091,-0.861550723423574,-0.0396919377557855,0.114067271964114,3.15705465576792,-0.0236483444645171,-0.406596051779108
88.795,-0.506068898570424,0.237127532667946,0.797194528812084,0.318419974756376,0.0802836966259763,0.0345201735193355,-0.947753513805676,0.199566606602021,-0.190441074897903,1.11369560621066,0.540923734863635,-0.374649953801501,-0.938320009030751,-0.00174613533217838,0.0945746196937363,0.882866950935583,-0.502429733370291,-0.765092919633993,-0.864378140238902,-0.0427296964922807,0.108403014158661,3.18343748079112,-0.0359898077153129,-0.435814958552354
88.8,-0.503447206578716,0.245246227538358,0.797274478064018,0.325183710403478,0.0907266410891118,0.0462513486135936,-0.949370873341619,0.203779849427231,-0.189261350688681,1.12707989359417,0.548742517550251,-0.372722841948684,-0.938510418774583,-0.00694631056859076,0.0931209890186289,0.895869724620611,-0.501873633767951,-0.759410566810899,-0.867537949959042,-0.0457656191225874,0.104357543534217,3.20808972517087,-0.0464570872508317,-0.463293591745062
88.805,-0.501736218621084,0.251510151575897,0.79754957917214,0.331632495143884,0.101917261773175,0.0568406099262459,-0.951250492852945,0.20713864464528,-0.188977787761011,1.14053569237088,0.556381973729952,-0.37067248463418,-0.938731463502205,-0.011468058615657,0.0905581511239484,0.909297526524189,-0.50122640991863,-0.751070921257864,-0.871109649963596,-0.0487473709962006,0.102282561212026,3.2308422668869,-0.0545979248481986,-0.488603744763446
88.81,-0.501264834341989,0.255594800803575,0.798234628679256,0.33775924934572,0.113724660362719,0.0660552705365794,-0.953459956815299,0.209382542199939,-0.18988243088416,1.15440092843738,0.564042309794173,-0.368690780064005,-0.939083887831594,-0.0154936266425784,0.087027584152369,0.923443525924711,-0.500725577002856,-0.739967888635776,-0.875144202699152,-0.0515896654689975,0.102403682185693,3.25148656466337,-0.060000103670401,-0.511333782542471
88.815,-0.502390171327306,0.257271533615757,0.799505715320934,0.34347432590549,0.125945224394003,0.0736962332604292,-0.956059295018137,0.210334906092292,-0.192251672338215,1.16890564891367,0.571912956876136,-0.366999608382208,-0.939681788094606,-0.0192642362426985,0.0827572264309982,0.938472551127291,-0.500634128485601,-0.726131204966086,-0.879633813824667,-0.0541197385183724,0.104815207421476,3.26978232948831,-0.0623034991307838,-0.531130636809549
88.82,-0.505429133988252,0.256438997147352,0.801488299337264,0.34860548947388,0.138331280903821,0.0795792225386193,-0.959081968739183,0.209923165727945,-0.196290824219174,1.18415736797583,0.580166149604325,-0.365831426364891,-0.940630849966931,-0.0230459041799144,0.0780388583224243,0.954410093662219,-0.501218853654426,-0.709723560895259,-0.884506029656106,-0.0561091532686223,0.109459404979909,3.28546229173449,-0.0612163449311443,-0.547749646909056
88.825,-0.510605892247888,0.253158481278441,0.804304927539411,0.352896356544876,0.150599540838993,0.083525277922074,-0.962505347178818,0.208205817685726,-0.202076489149559,1.20011737211468,0.588946149002148,-0.365413114989633,-0.942001396576728,-0.0271597475239776,0.0731599371900904,0.971123332650215,-0.502730471119035,-0.691032439629591,-0.889647043337861,-0.0573814201777385,0.11618053956818,3.29823953850496,-0.0565318974051869,-0.561079439862016
88.83,-0.518022649957647,0.247638343344338,0.808107892097503,0.355980853908445,0.162405282163153,0.0853650212823177,-0.966249039340425,0.205359163886162,-0.209537263539237,1.21654188190636,0.598352578066978,-0.365962756353634,-0.943820504200201,-0.0320031369490664,0.0683656895641274,0.98826770463392,-0.505392230470429,-0.670455050873348,-0.894920843162299,-0.0578609134929861,0.124787805823644,3.30782711741048,-0.0481172571631069,-0.57112766555496
88.835,-0.527623748503491,0.240188728378165,0.813042357124547,0.357371342438642,0.173325514440234,0.0849416875478758,-0.97019894214147,0.201614894684389,-0.218475199991676,1.2329490959622,0.608424880935765,-0.367686940331758,-0.946079365281673,-0.0379771552045166,0.0638945220804284,1.00525989783633,-0.509390815232809,-0.648476938384828,-0.900167120644062,-0.0575142869020122,0.134991242127207,3.31395554489503,-0.0358963332702309,-0.578007116145401
88.84,-0.539152051055691,0.231207377046834,0.819195940813237,0.35649851736443,0.182878139201645,0.0821108655182398,-0.974225526309494,0.197214587585246,-0.228583337732664,1.24866222735017,0.619131088633989,-0.370765305309522,-0.948739582293059,-0.0453948634649089,0.0600075797131194,1.02132736422442,-0.514861954910783,-0.625649280908662,-0.905211403833234,-0.0563137007043684,0.14629778800362,3.31637443408655,-0.0198647804565931,-0.581945212361245
88.845,-0.552136229329517,0.221181024325447,0.826589463223938,0.35277540806686,0.190554856166373,0.0767470328728825,-0.978191669731897,0.192411153155254,-0.239443055083952,1.26288715967371,0.630358700322703,-0.375331417665201,-0.951738220966154,-0.0544510090726955,0.0569573940082105,1.03559278368527,-0.521875960333914,-0.602563848823094,-0.909907353023399,-0.0542965102487753,0.158006515548602,3.31485153657021,-0.000122096036945046,-0.583286891779928
88.85,-0.565925737437079,0.210658056737574,0.83518819184858,0.34564580860378,0.195850661371274,0.0687505032741799,-0.981963054991394,0.187486054197286,-0.250525378487158,1.27477561939175,0.641910135092923,-0.381461610837899,-0.954997683810359,-0.0652241457565643,0.0549316889315741,1.04714369218721,-0.530429780413805,-0.579821415179028,-0.914189255816115,-0.0516614062992081,0.169284017919365,3.30917996906328,0.0231078465792031,-0.582466518156753
88.855,-0.579753157507852,0.200197473271205,0.844897622570833,0.334609256029492,0.198292835270287,0.058043146099969,-0.98542069617012,0.182738410832302,-0.26122877133723,1.28346809671311,0.653507443668522,-0.389173229381024,-0.958434349880739,-0.0776752252187531,0.0540230259145638,1.05508067592571,-0.54044658520311,-0.557993522726181,-0.918107004835279,-0.0488338929278044,0.17924247462585,3.2991888407548,0.0494762993240789,-0.579950538940177
88.86,-0.592801457765363,0.190330691977737,0.85553011523876,0.319245622261372,0.197475111644572,0.0445668652780047,-0.988470197538512,0.178440529702399,-0.270962118493562,1.2881421737863,0.664806503410698,-0.398427509795211,-0.96196368933475,-0.0916446486804378,0.0542436826808178,1.0585690223739,-0.551781509415568,-0.537584799137277,-0.921834003175392,-0.0464681082930692,0.186976178072797,3.28475214494696,0.0785204503298318,-0.576165877177425
88.865,-0.604270583871205,0.181554754041443,0.866765958515764,0.299260726164872,0.193103691329182,0.0282981303585432,-0.99104677037558,0.174807914351678,-0.279232764294247,1.28808633044522,0.675416938053416,-0.409129984623891,-0.965509699142443,-0.106863340906064,0.0555569185604405,1.0569136293027,-0.564229596914964,-0.519005904183393,-0.925659368260924,-0.0453977831809166,0.1915758796508,3.26579055540364,0.10967050690328,-0.57143585789953
88.87,-0.613451302612871,0.174342332184572,0.878146878632462,0.274538944838156,0.185047799506749,0.00927018144769691,-0.993111826476662,0.172013451489112,-0.28570155668797,1.28277797737594,0.684923736745998,-0.421128320716125,-0.969013285186184,-0.122981577383385,0.0578821021834838,1.04963610370108,-0.577534034397508,-0.502560804755996,-0.929972625833013,-0.0465888618931359,0.192181909008157,3.24226349854339,0.142253492855478,-0.565930030534897
88.875,-0.619814248774139,0.169128867087912,0.88910444389916,0.245179819867619,0.173375168962509,-0.0124094741066002,-0.994644783626016,0.170214981061608,-0.290212667613389,1.27193870277208,0.692912683172801,-0.434212364639401,-0.972429742248498,-0.139588951052325,0.0610790174486028,1.03652739829375,-0.591396048734696,-0.488440269743169,-0.935233004550818,-0.0511110319162409,0.188088731724725,3.21415788454375,0.175512018762155,-0.559617900178328
88.88,-0.623099408302868,0.166255975566552,0.89899542911432,0.211512373706012,0.15836694092784,-0.0365618397588754,-0.995639751830699,0.169556449409616,-0.292820478848528,1.25556758905337,0.69900586536808,-0.448118038745887,-0.975721667630132,-0.15621540572921,0.0649466126550134,1.01767705827458,-0.605487401610376,-0.47671066575123,-0.941928731944418,-0.0600948855487842,0.178825936071234,3.18147935865028,0.208649250455408,-0.552224771187296
88.885,-0.623375278623706,0.165928142856146,0.907123157034342,0.174092362615271,0.140520886035064,-0.0629640612959009,-0.996103362248879,0.17015529140315,-0.293821280911043,1.23396310483012,0.702904208838767,-0.462534148449016,-0.978859880513266,-0.172357961784008,0.0692477838533406,0.993488926559179,-0.619465494500413,-0.467305194737703,-0.950536882496862,-0.0746363126668361,0.164168381259649,3.14424519534615,0.240877836039166,-0.543200441802031
88.89,-0.621048206319045,0.168231298527296,0.912766610402157,0.133692104017613,0.120547265136771,-0.091382313942374,-0.996059139147233,0.172107108441075,-0.293764692420074,1.207733321524,0.704423019268344,-0.477108195490774,-0.981840478593668,-0.187561777094623,0.0737527415754692,0.964683577300645,-0.632987135047353,-0.460032205591024,-0.961470101507756,-0.0956345842399801,0.144156093027342,3.10247731593394,0.271456357532541,-0.53172029009861
88.895,-0.616815601248237,0.173144856634021,0.915245119119454,0.0912818118501926,0.0993543401710255,-0.121598870322032,-0.99556704053779,0.175484187082804,-0.293407125423951,1.17778261187026,0.703510490081083,-0.491449271904266,-0.984705064936589,-0.201489408279435,0.0782824166484263,0.932278535515955,-0.645716661521208,-0.454593493771751,-0.975019755590125,-0.123636120299029,0.119142580854484,3.05619758444752,0.29973989467282,-0.516737985928218
88.9,-0.611588793391192,0.180499160066109,0.913979114848727,0.0479953830329072,0.0780234020333615,-0.153447462725404,-0.99472976608533,0.180311727495265,-0.293630558082369,1.14527806624544,0.700252326877281,-0.505133389802625,-0.987536678876263,-0.213910413198972,0.0827173570469845,0.897549994954255,-0.657332917398782,-0.450601257008196,-0.991336290589177,-0.158790915358635,0.0897575591532045,3.00542936893053,0.325239049231752,-0.497070244477905
88.905,-0.606431387132803,0.189958159936198,0.908526156907519,0.00508673931468132,0.0577760572129125,-0.186865291449546,-0.993679035916689,0.186559713129397,-0.295379038559958,1.11161596205633,0.694871165723099,-0.517713464628888,-0.990444442711632,-0.224665325408062,0.0869872737030711,0.861993961545411,-0.667539426328715,-0.447599028819816,-1.01042830785358,-0.200862331878894,0.0568127466908209,2.95020682130088,0.347643607811565,-0.471471972114596
88.91,-0.602495546911014,0.201067878233764,0.898651861112629,-0.036115194232999,0.0399279760460312,-0.221940832047077,-0.992585014559185,0.19414956135504,-0.299591048556353,1.07838443904997,0.687721721465739,-0.528728382917458,-0.993571039469268,-0.233666641992203,0.0910990326656027,0.827283832653768,-0.676071541940519,-0.445086054017683,-1.03213506551956,-0.249163061422652,0.0212693599681007,2.89058739491586,0.366823852642718,-0.438717114736842
88.915,-0.600915047804521,0.213294036518182,0.884415339616991,-0.0742542943413868,0.0258218969612226,-0.258937859588801,-0.991678817733681,0.202945400934814,-0.307100564781198,1.04730649577481,0.679275123228196,-0.537709220992783,-0.997105815463191,-0.240897870675066,0.0951759208451707,0.795211301614777,-0.682696350320096,-0.442536471610607,-1.05610714983219,-0.302498594689617,-0.0157846889741539,2.82666062054805,0.382839627980151,-0.397718199405542
88.92,-0.602682531987119,0.22601908728078,0.866183953147472,-0.107997066726757,0.0167523959846868,-0.298311795183686,-0.991243741610082,0.212750379773192,-0.318543740875622,1.02017664281898,0.670089650539198,-0.544186212332184,-1.00127356934776,-0.246384657720031,0.0994413129516929,0.767623395391531,-0.687211067005927,-0.439416789250848,-1.08183903094789,-0.359241187731002,-0.0532175304819138,2.75855217958023,0.395936318689102,-0.347649076868251
88.925,-0.60855582755762,0.238561514209149,0.844599785270324,-0.136079704219399,0.0138987340928683,-0.340734188311041,-0.991588804433645,0.223332057960927,-0.334294013067161,0.998806763900411,0.660772044097263,-0.547697312467008,-1.00631253600987,-0.250173508207894,0.104170912776039,0.74636964062036,-0.68944357271178,-0.43520734814931,-1.10871941425547,-0.417462552146699,-0.0899339154373687,2.68642683572816,0.406512911150775,-0.288028057003797
88.93,-0.619003381106923,0.250235794924939,0.820547250912357,-0.157350733275734,0.0182622487075703,-0.387109427815828,-0.993025049099882,0.234460827848491,-0.354421736361638,0.984972053393022,0.65193450906913,-0.547796175004057,-1.01245634698714,-0.252325354523955,0.109659426226417,0.733250526485321,-0.689252097986502,-0.429423968490509,-1.13606434949462,-0.475042122883196,-0.124911944294243,2.61049113958847,0.415080163328392,-0.218771165172604
88.935,-0.634182870577119,0.260407643573027,0.795102499400923,-0.170808761907045,0.0306039349370844,-0.438573101657167,-0.995837680708609,0.245943252538038,-0.378679125107209,0.980351397933952,0.644151971762298,-0.544058558525598,-1.01991067181781,-0.252896716418043,0.11618918759895,0.729961937841076,-0.686522626402133,-0.421634766020199,-1.1631473785148,-0.529786123226502,-0.15723096332386,2.53099620756889,0.422220296505135,-0.140225583507844
88.94,-0.653951336946059,0.268529467511986,0.769443729389866,-0.175632918915071,0.0513923877829778,-0.496480331647435,-1.00025448872851,0.257646756272003,-0.406521142567081,0.986471973847789,0.637926475617735,-0.536087969553777,-1.02882498555469,-0.251917108990664,0.123987664714676,0.738044453647661,-0.681166521603408,-0.411469351480378,-1.18924230117983,-0.579574225741645,-0.186109086964737,2.44824387926221,0.428545660804377,-0.0531698253679746
88.945,-0.677909112299774,0.274178546819884,0.744752786578819,-0.171201526469084,0.0807741191351035,-0.562384033992118,-1.00641656771135,0.269519209014858,-0.43717393580419,1.00466643690103,0.633660709920672,-0.52352093685137,-1.03927574000673,-0.249413956780662,0.133199597288872,0.758845047418052,-0.673120425898021,-0.39862251473051,-1.21366384441089,-0.622471150961273,-0.210918342709916,2.36260067364754,0.4346569621832,0.041223832980225
88.95,-0.705475575177225,0.277108137413201,0.722170074270073,-0.157095773546119,0.118555236277739,-0.637998974837849,-1.01435168999867,0.28160753243986,-0.469725012730497,1.03604237168303,0.631632640069218,-0.506028336247461,-1.05126121906219,-0.245483401890192,0.143902481350552,0.793491210391335,-0.66234543472019,-0.382862026728155,-1.23577315313109,-0.656746162769736,-0.231161492971797,2.27451546642556,0.441112120809913,0.141441777448196
88.955,-0.735967636452105,0.277295849189047,0.702794863132512,-0.133096313943519,0.164163893254746,-0.725150228781647,-1.02395415791408,0.294065499460987,-0.503180595945597,1.08144940623591,0.631971235604688,-0.483309719995182,-1.06468995433936,-0.240321106268553,0.156141129162208,0.842863462684414,-0.648820070888937,-0.364041608834906,-1.25495370152434,-0.680850330469377,-0.246460758825082,2.18452490622536,0.448413552609462,0.24566380079212
88.96,-0.768643666097849,0.274955170455629,0.68763097857106,-0.0991835231350037,0.216604214720223,-0.82569960483873,-1.03497788386263,0.307135347489743,-0.536496062550906,1.14143367869422,0.6346464198125,-0.455086825133109,-1.07936178779696,-0.234183421475036,0.169923495807334,0.907554967449462,-0.632530216188368,-0.342105708220238,-1.27061847707992,-0.693471796011322,-0.256586201790242,2.09324485081643,0.457003319285597,0.351786865437372
88.965,-0.802736021808472,0.270498806712642,0.67745679465556,-0.0555322335343896,0.274454934900567,-0.941458760186615,-1.04703934656545,0.321109154213258,-0.568643857676242,1.2162071374166,0.639475240904352,-0.421102534706001,-1.0949606400178,-0.22735454553403,0.185182169820568,0.987844235188415,-0.613465656749811,-0.317082983039393,-1.28226473543803,-0.693669917598115,-0.261477368080743,2.00136975604964,0.467255518035786,0.45748132473447
88.97,-0.837516620659353,0.264495860104196,0.672725008462472,-0.00248806110354649,0.335923728930705,-1.07410679347286,-1.05962619206657,0.336290245484681,-0.598718607215928,1.30565817311313,0.646135196554243,-0.381122078665401,-1.11106576566933,-0.220156134436715,0.201758846095894,1.08370709243031,-0.591624367909988,-0.289079610602929,-1.2895200962474,-0.680965524504753,-0.261242369468766,1.90968789154517,0.47947023688455,0.560287194811305
88.975,-0.87237866685575,0.257653394420069,0.673543488069912,0.0594663643727956,0.398921988793274,-1.22510747111602,-1.07211562311093,0.352962896868488,-0.626019233544179,1.4093852280529,0.654184038447358,-0.334933498402944,-1.12717341629527,-0.212957022698434,0.219423520810281,1.19484967699573,-0.567018460174507,-0.258276565394372,-1.29215589307514,-0.655349077766039,-0.256172099639562,1.81909661959605,0.493870534073126,0.657716829182731
88.98,-0.906891077338538,0.250799163868405,0.67968962448969,0.129743090004865,0.461143794262751,-1.39561831719001,-1.08380393808412,0.371369353017247,-0.650083622214583,1.52673051122014,0.663089153858985,-0.282349088058113,-1.14272441494702,-0.206161038043381,0.237896567907587,1.3207394838094,-0.539679148440793,-0.22492783926883,-1.2900951727147,-0.617269763254797,-0.246773809266501,1.73060736028267,0.510593962571695,0.747347632432717
88.985,-0.940812887766555,0.244840580288933,0.690627737583145,0.207673709639057,0.520155870399399,-1.58640336444451,-1.09394331475188,0.39169399656758,-0.670684586169522,1.65680897185933,0.672263126517301,-0.223209711824888,-1.15713774578756,-0.200191539174903,0.256857810375112,1.46062970749425,-0.509661395504022,-0.189359751192257,-1.2834274675628,-0.567633985772855,-0.233788848965949,1.64533869085718,0.529674274455576,0.826911046129566
88.99,-0.974072255423515,0.240713757163888,0.705538867911891,0.292522107359144,0.573500700881925,-1.79776342741569,-1.10178480228607,0.414040971330612,-0.687801492722508,1.79852685205228,0.681099395330997,-0.157393980234723,-1.16984455031449,-0.19547552189799,0.275956672184421,1.61357147947695,-0.47704891924754,-0.151972893343243,-1.27241224388148,-0.507788158878654,-0.218174658892778,1.56449466872611,0.55101881471525,0.894381634038856
88.995,-1.00672693158063,0.239344327968088,0.72338757660313,0.383494115356512,0.618808298603455,-2.02947446433808,-1.10662995663284,0.438402374122824,-0.701573153486557,1.95059880642311,0.689005739318818,-0.0848310783402057,-1.18031749762171,-0.192412130705423,0.294840505193192,1.77842378161604,-0.441959693788386,-0.113242507686006,-1.25745184997256,-0.439447975117571,-0.201063702295166,1.4893298086261,0.57438990906121,0.948058922270579
89,-1.03893083349818,0.241592615165474,0.743043886979923,0.479745562145326,0.653899495553328,-2.28073062006454,-1.10789041917847,0.464648023134557,-0.712213650513185,2.11156134550961,0.695438427618819,-0.00551519406282441,-1.18810307910242,-0.191338336231023,0.313184511131034,1.95385994865064,-0.404549113060784,-0.0737077473609208,-1.2390469476318,-0.364571258727618,-0.183712416345488,1.42111100125266,0.599393675787482,0.986619982042346
89.005,-1.07084969606199,0.248175023983931,0.763357972223082,0.580358066190496,0.676865295878457,-2.55012389963682,-1.10514072193988,0.492491001580533,-0.71992890635923,2.27974500114862,0.699936285530402,0.0804730650359615,-1.19284368041859,-0.192496116527993,0.330712069115237,2.13833311292976,-0.365008539143128,-0.0339482229089853,-1.21776378777037,-0.285261259499097,-0.167428239511372,1.36108247907704,0.625476457472657,1.00913139881329
89.01,-1.10246648151548,0.259642710336044,0.783073093303756,0.684335135176816,0.686170090392258,-2.83562772760814,-1.09814083840391,0.52136980064623,-0.724915505907169,2.45327665060526,0.702141683299441,0.172943709083126,-1.19426022586244,-0.195976198395796,0.347225330333537,2.33007164942125,-0.32356868339241,0.00543981918979448,-1.19421044828826,-0.203768727051971,-0.153471823341724,1.31042083561792,0.651932701281785,1.01506151544084
89.015,-1.13343678519787,0.276414552556771,0.800775007343465,0.7907093875635,0.680816592302603,-3.13452098271544,-1.08683069613119,0.550413958033712,-0.727365247855001,2.63022048409742,0.701799985366091,0.271591003676425,-1.19213092053251,-0.201683348553437,0.362614371989254,2.52721397775862,-0.28051552611714,0.0438585948583007,-1.16900649954323,-0.122485017316612,-0.142965427160987,1.27016656855235,0.677927992789409,1.00433087366734
89.02,-1.16315542737809,0.29873936644615,0.815117135783975,0.898652130480514,0.660471547343274,-3.44334134873821,-1.07132328997278,0.578633195009598,-0.727345432857346,2.80871028370951,0.698751222758453,0.375993118916378,-1.18631774460956,-0.209383062865898,0.376799336312758,2.72793547589579,-0.236202532552475,0.0807231860667529,-1.14275296996202,-0.0438072959841286,-0.136836453772813,1.24114865816875,0.702532931759336,0.977352687554809
89.025,-1.19088862160533,0.326593724646788,0.82511685690858,1.00743056917923,0.625452237126516,-3.75798150395021,-1.05190340526841,0.605123302884857,-0.724663710570895,2.98688772637994,0.692929190396327,0.485592764387669,-1.1768041481909,-0.218764958490457,0.389668546799627,2.93038113947361,-0.191041949492993,0.115485381917025,-1.11601144445475,0.0300473802987601,-0.135797378927615,1.22393140155789,0.724758043908257,0.9350050446163
89.03,-1.21575883816396,0.3596672005044,0.830183543831398,1.11628986046191,0.576633819918464,-4.0738709386853,-1.02902573117774,0.629067058271274,-0.718904085878866,3.16276081375913,0.684362442257621,0.599671038675573,-1.16369575131068,-0.229442889571798,0.401106499226381,3.13251885300636,-0.145482036265372,0.147661219708194,-1.0892920994538,0.09715566161842,-0.140319814593258,1.2187840791383,0.743583241759625,0.878554189363615
89.035,-1.23661803632743,0.397487272463362,0.829914667949933,1.22444215734623,0.515403679863796,-4.38611347936666,-1.00330381121035,0.64963302798481,-0.70959136690345,3.33420583962905,0.673160251312494,0.7173498854653,-1.14719879843418,-0.240925700472981,0.411072858781254,3.33213993511623,-0.0999868903177547,0.176850412551684,-1.06304658565719,0.155919911804058,-0.150556153827497,1.22564976324471,0.757995185288487,0.80957847513583
89.04,-1.25204262983596,0.439545549400615,0.823989769801514,1.33118954424863,0.443681250631558,-4.68955389791299,-0.975462457076052,0.666015424616757,-0.696297464165031,3.49913027962682,0.659481195731865,0.837630470904284,-1.12759987732082,-0.252631240740044,0.419599516512472,3.52702570509845,-0.0550242324614124,0.202746135667169,-1.03766121609094,0.205076921869727,-0.166276786587289,1.24411319788766,0.76704846800797,0.729913100339809
89.045,-1.26054268136305,0.485297427296881,0.812291947997042,1.43601839915676,0.363879820758764,-4.97888395973121,-0.946253707961687,0.677623441158183,-0.678646332446061,3.6556011797265,0.643506605860745,0.959436645584714,-1.10524858059284,-0.263946317996583,0.426693227716009,3.71508101523191,-0.0110492790046647,0.225139557825714,-1.01345739616649,0.243719372975311,-0.186927097742028,1.27339874062584,0.769925819159332,0.641594320046669
89.05,-1.26079109267372,0.534114030741788,0.795012289236796,1.53857434721371,0.2787489703111,-5.24884853993588,-0.916379880899401,0.68420390147003,-0.656341076576348,3.80184673712756,0.625433261943171,1.0816440712629,-1.08053656770095,-0.274277306079578,0.432262812533657,3.89433929865782,0.031522280841714,0.243917720482891,-0.990707894483072,0.271299070431229,-0.211758542788783,1.31240801947474,0.765962995325669,0.546785873270946
89.055,-1.25173872910204,0.585303821267038,0.772580769132061,1.63861208617975,0.191186606518434,-5.4944719697764,-0.88644660236859,0.685826994306347,-0.629261134405469,3.93624748918039,0.605474214685058,1.20310910830885,-1.05387378368652,-0.283081068874682,0.436118252836845,4.06295674063535,0.0723400319560925,0.259049681717744,-0.969650462261519,0.287594751644833,-0.239905608664796,1.35977631795991,0.75464281142117,0.447711895752495
89.06,-1.23269171253544,0.638170765488192,0.745562122132119,1.73598551163736,0.104083620179049,-5.71124212621079,-0.856945052331672,0.682834943573115,-0.597553192896006,4.05738234127005,0.583858477373345,1.32270764837681,-1.02567632667243,-0.289914750911402,0.43801228460133,4.21926330161962,0.111135285286801,0.270567203960974,-0.950468619807342,0.292701357418644,-0.270354471180769,1.41393472491979,0.735593660902308,0.346608133416112
89.065,-1.20339137581003,0.692033599340045,0.71461584134684,1.83065215347953,0.0201903935345717,-5.89525743164334,-0.828263986208392,0.675789540657467,-0.56166674594323,4.16408594111498,0.560830326524583,1.4393785698667,-0.996377168422868,-0.294501519409518,0.437708513133946,4.36182892638096,0.147732902922044,0.278553637392032,-0.933265226368598,0.287061804562208,-0.301888436090003,1.47317576243741,0.708626736355975,0.245665621236513
89.07,-1.16404988252375,0.746199651168489,0.680473706423027,1.92267034281713,-0.0579954739019148,-6.04334843240513,-0.800712022905288,0.66540307132359,-0.522339093218234,4.25548869416176,0.536644156951286,1.55216510766975,-0.966447516542096,-0.296770128889727,0.435043451705528,4.48951502205153,0.1820597357485,0.283133137572921,-0.918082411069322,0.271477243130567,-0.333139293288334,1.53571261535085,0.673791658218371,0.146958185332968
89.075,-1.11532122973809,0.799931532595217,0.643907486239633,2.01218680469378,-0.128309469699189,-6.15317456571962,-0.774515627862753,0.652456785857315,-0.480533895551447,4.33104073068002,0.511551205707064,1.66024836642027,-0.936395682420491,-0.296842898607563,0.429946406942778,4.60150893992985,0.214144945754791,0.28444476158737,-0.904940576819595,0.247041250025792,-0.362719101739507,1.59972529821518,0.631401447648034,0.0523763744263542
89.08,-1.05825093973602,0.852432016098312,0.605723410447061,2.09941805718559,-0.188979977008536,-6.22328093246724,-0.749815621864335,0.637717380039363,-0.437360170653528,4.39052498990735,0.485786764026404,1.76296799978874,-0.906734118858499,-0.294988728042984,0.42242962531251,4.69734478821783,0.244108713205568,0.282614978595723,-0.893838369347581,0.215021334439041,-0.38931059226593,1.66340836631696,0.582025749134299,-0.0364116301124673
89.085,-0.994225224787713,0.902834515591379,0.566778043963148,2.18462836467684,-0.238677713279284,-6.253106823158,-0.726700412440911,0.621858063193289,-0.394005056436092,4.43405875585094,0.459565034385105,1.8598284612673,-0.877950205514957,-0.291584338919374,0.412589700921731,4.77690997415441,0.27214056373378,0.277746348879375,-0.884728190633372,0.176763627924683,-0.411685980063919,1.72503110820278,0.526479624993199,-0.117972856894638
89.09,-0.924884616841613,0.95018693057751,0.527981194682132,2.26810658407057,-0.276538985876019,-6.24295575088679,-0.705244504117904,0.605386659514151,-0.351665313360064,4.46208202646833,0.433075356721714,1.95049394963417,-0.85049811654116,-0.287085803788797,0.400624350244064,4.84043658930481,0.298471905890041,0.269918411837687,-0.877508461557131,0.133639714671562,-0.428720219071154,1.78299814541143,0.46581892548656,-0.191113283564025
89.095,-0.852013923325175,0.993442870473283,0.490297000547048,2.35014252622443,-0.302166922146405,-6.19393474775409,-0.685528324345343,0.588597530882409,-0.311473455832093,4.47533307012214,0.406477397255591,2.03477326158637,-0.824795670609662,-0.281988759357448,0.38683303315867,4.88847718747074,0.323345112534946,0.2591929419797,-0.872044118932387,0.0869991447177398,-0.439452233460767,1.835904084379,0.401325960472162,-0.254875859585521
89.1,-0.777426449892377,1.03147328863834,0.454717145354852,2.43100145712748,-0.31562390923962,-6.10787316906397,-0.667650471573831,0.571566176048059,-0.274434721973336,4.47481161192321,0.379896474192221,2.11259578957279,-0.801234290021972,-0.276804397270163,0.371611897460385,4.92186439229108,0.346981648945829,0.24561648727082,-0.868203135384112,0.0381649841162102,-0.443153920512312,1.88258106855103,0.33446576311823,-0.308529565041893
89.105,-0.702834951846304,1.06310506991937,0.422200894253674,2.5108956769164,-0.31739213423299,-5.9872415126655,-0.651739099238013,0.554176302427407,-0.241366167968854,4.46172844762655,0.353410064637952,2.18398642240129,-0.78020201815681,-0.272053366796096,0.355460950157256,4.94165619952729,0.36955790604689,0.22921232723491,-0.865883111287905,-0.0115167654109995,-0.439352466616294,1.92212408639085,0.266824303482193,-0.351574056919926
89.11,-0.629743402063635,1.08719206909072,0.393654004557906,2.58995514494604,-0.308302682519597,-5.8350711338583,-0.637957868087755,0.536153351854208,-0.212841232004533,4.43744450593966,0.327026379078713,2.24904288469637,-0.762076227857991,-0.268220719382847,0.338964927210763,4.9490723113895,0.39119259394581,0.209968722634242,-0.865010439937525,-0.0606967837656252,-0.427823434825026,1.95389426811056,0.20004634751756,-0.383766193585515
89.115,-0.55938846207303,1.10270500178591,0.36994482905089,2.66820906253827,-0.289474125422984,-5.65485220362691,-0.62649893711329,0.517099932803219,-0.189165057841941,4.40341474301879,0.300672492230482,2.30791235330137,-0.747181938393517,-0.265681198745414,0.322736714701554,4.94543488971906,0.411938678400325,0.187840941194652,-0.865524668923611,-0.108136456210817,-0.408583780539378,1.97752371528013,0.135774907040234,-0.405129918946141
89.12,-0.492710212552491,1.1088145859753,0.351891832226698,2.74558576021893,-0.262269819510061,-5.45040860319162,-0.617565425169817,0.496548813657751,-0.17038141030546,4.36114521397767,0.2741959162991,2.3607689513071,-0.735763914124868,-0.264664575874896,0.307367399994631,4.93212159871657,0.431777083076999,0.162766998068209,-0.867372755615921,-0.152783684365983,-0.381890837033595,1.99292833477843,0.0755908554481111,-0.415936788231831
89.125,-0.430341582465969,1.10494653773009,0.340220795933632,2.8219232246418,-0.228255223984325,-5.22577158028542,-0.611347804434723,0.474039206566313,-0.156286292966352,4.3121547738127,0.247367860499822,2.40779684331964,-0.727985875537209,-0.265264804683013,0.293395786539955,4.91052457500649,0.45061738408604,0.134681189814159,-0.870512524826118,-0.193757432170437,-0.348246100349486,2.00031512136046,0.0209510353830229,-0.416683048881532
89.13,-0.372627859021794,1.09080061813099,0.335519097335204,2.89697371873946,-0.189150926882344,-4.98507777823662,-0.607999143005695,0.449199468777397,-0.146441142728586,4.25792900688452,0.219885463557527,2.4491790618744,-0.723928309490228,-0.267439733229488,0.281272084035429,4.88200399056532,0.468309867257812,0.103518866389334,-0.874911270278792,-0.230315740803581,-0.308406154702746,2.00016830434326,-0.0268736573968627,-0.40807922508093
89.135,-0.319672516563097,1.06636337785555,0.338188780972806,2.9703988411524,-0.146778899859356,-4.73250079510496,-0.607610513945526,0.421812676876721,-0.140208334902928,4.19987346652728,0.191380129264531,2.4850905023744,-0.723568819470603,-0.270997111436045,0.27130231442262,4.84784222663802,0.484665117272322,0.0692176426015199,-0.88053701655362,-0.261890944039368,-0.263377922753684,1.99320674370395,-0.0668601132195757,-0.391037752844842
89.14,-0.271421027057291,1.031913544174,0.348441473978992,3.04177194195871,-0.103005548285233,-4.47219137449624,-0.610189125528665,0.391866442333578,-0.136814340670409,4.13928464373186,0.161435454345015,2.51569448882219,-0.726770518784159,-0.275631382734622,0.263594898494691,4.80921605293497,0.499472475813506,0.0317245613290879,-0.887334184161466,-0.288160934545901,-0.214321822649977,1.98033431425736,-0.0982829506594113,-0.366630342568396
89.145,-0.227766800224089,0.987960617844564,0.366360060663957,3.11057203398116,-0.0597140163587962,-4.20822682359936,-0.615652996795602,0.359570696187945,-0.135413980270789,4.07731122138736,0.129610198060798,2.54113714615026,-0.733304796933074,-0.281013143689916,0.258058177449494,4.76716075191727,0.512522267529103,-0.00898619591686767,-0.895191171187171,-0.30903328415726,-0.162405797761591,1.96260899526553,-0.120715562221294,-0.336031125375535
89.15,-0.188587370164211,0.935162649690854,0.391907896648274,3.17615385895564,-0.0188089176327144,-3.94458660768174,-0.62384252837302,0.325291439196347,-0.135161348334147,4.01489059131834,0.0954595740346028,2.56153697747997,-0.742873362752128,-0.286828149876527,0.25446443152513,4.72251090061729,0.523635299871118,-0.0528973408508012,-0.903941490924807,-0.324558481941205,-0.108807927251545,1.94121662297659,-0.133994071689683,-0.300485935888202
89.155,-0.153703795839964,0.874323495333119,0.424822309148705,3.23775646601608,0.0178080080961636,-3.6851069499114,-0.63453093289656,0.28944110131995,-0.135301453918781,3.95273514041314,0.0585534234845239,2.57698380329015,-0.75510033238307,-0.292750351208526,0.252527276828186,4.67588910696579,0.532679373554989,-0.0999471690016097,-0.913396009154039,-0.334893112134897,-0.0548434302185516,1.91742126865567,-0.138211244100112,-0.261287909740277
89.16,-0.122882488667439,0.806399464433482,0.464554024549553,3.29457780166238,0.0483151152941764,-3.43338844200506,-0.647434878379314,0.252442493345428,-0.13522978601603,3.89139468433399,0.0184932355223268,2.58755459894073,-0.769537983947174,-0.298447202176637,0.251932524457263,4.62776974463284,0.539565260957125,-0.150034061499928,-0.923354848052948,-0.340289296087359,-0.00197799915460627,1.89249397179517,-0.133735615832672,-0.219729222806061
89.165,-0.0959070580628832,0.73242298615373,0.510350425753464,3.34583191076114,0.0710447845787315,-3.1927247267536,-0.662236703142951,0.214765523771322,-0.134483429161243,3.83130396205561,-0.0250702625363488,2.59332744011835,-0.785709784352285,-0.303629609870522,0.252328000241128,4.57852898903936,0.54424419764826,-0.203014159433836,-0.933596039623125,-0.341036730739032,0.048289702763049,1.86764806158838,-0.121201364701179,-0.177057921741352
89.17,-0.0726232235634931,0.653423627587966,0.561359146632683,3.39074427212523,0.084519046157417,-2.9660873571543,-0.678611696916804,0.176931595814864,-0.132718625139282,3.77276931845747,-0.072419378760537,2.59438042861571,-0.803151029313924,-0.308079945212657,0.253329149475832,4.52843413039813,0.546717339849008,-0.258696265570432,-0.94387343864966,-0.337407294416412,0.0945425038860807,1.8439965737677,-0.101470112894273,-0.134465730135917
89.175,-0.052911568341704,0.57041708574606,0.616646277612795,3.42854216133978,0.0874709015868853,-2.75611513612423,-0.696251790564739,0.13945227986425,-0.129716115846311,3.71595041010699,-0.123755513748125,2.59078723078541,-0.821416688357605,-0.311633483522214,0.254555731379447,4.47762685228782,0.547043637173444,-0.316840192345875,-0.953930611622997,-0.329679128285629,0.135522673458575,1.82251547946031,-0.0755812808657867,-0.0930848775133708
89.18,-0.0366412848881623,0.484418602876432,0.675162239218507,3.45848194005792,0.078883971393387,-2.56507877795107,-0.714880565019362,0.102767725566465,-0.125388579386224,3.66088517939132,-0.179189357422891,2.58261956635103,-0.840068282244221,-0.314137978404322,0.255656829318347,4.42614816171571,0.545332738854607,-0.377154798972825,-0.963523720928357,-0.318215585937248,0.170168708126545,1.80400276572074,-0.04469756666774,-0.0539592657596448
89.185,-0.0236592757613725,0.396457773310665,0.73574333632211,3.47989310649005,0.058051604749515,-2.39484054400081,-0.734258539123675,0.0672366733639583,-0.119767420093692,3.60754036378486,-0.238731675512776,2.56995299401564,-0.858677342012647,-0.315442600996355,0.256319474832732,4.37398698059291,0.541726894032729,-0.439294145873162,-0.972438804240923,-0.303491293065157,0.197640978013234,1.78905115569298,-0.0100614752466543,-0.0179926382097468
89.19,-0.0138015560464972,0.307597419144478,0.7971733418131,3.49221115795086,0.0246214775711195,-2.24681576705358,-0.75418541981269,0.033154367161335,-0.112973460976971,3.55584101702489,-0.302287405500918,2.55287027811391,-0.876853722438191,-0.315424114881198,0.256285763329356,4.3211082408448,0.536388241449028,-0.502858027261626,-0.980491320096769,-0.286042317346895,0.217386054694274,1.77804143883485,0.0270477236917283,0.0140834472557417
89.195,-0.00689178311388768,0.218930959283354,0.858235135787086,3.49499593618919,-0.0213891348712719,-2.12193696334686,-0.774498955323762,0.000759735377813871,-0.105181841839196,3.50567154160046,-0.369656569548602,2.53146125433502,-0.894256586386964,-0.313991723907569,0.255358228599399,4.26745394705893,0.529495151112231,-0.567397376397583,-0.987521010087893,-0.266448635283748,0.229180763739455,1.77114479126529,0.0653723833912654,0.0417125358129375
89.2,-0.00273420558408419,0.131558874198924,0.917717826222502,3.48794313932545,-0.0795850390521982,-2.02063444319626,-0.795068295450787,-0.0297626913484946,-0.0965908916576568,3.45687601958955,-0.440536641046276,2.50582079578309,-0.910574220447765,-0.311053047787782,0.25337860092011,4.21294273723287,0.521237209294494,-0.632417077548119,-0.993394270506104,-0.245379355218121,0.233099354624787,1.76833404089778,0.103729860628444,0.064522193163765
89.205,-0.00111872864028558,0.046572303492871,0.974417334815965,3.47089094447354,-0.149181195339875,-1.94283760849666,-0.815783754756397,-0.0582723174802845,-0.0874037462319846,3.40926568457789,-0.51452116027238,2.47604639298007,-0.925508901882612,-0.306490570960935,0.250209750049524,4.15747515376386,0.511806628020362,-0.697374160823467,-0.998008155875715,-0.223616184976619,0.229463242098451,1.76940837732127,0.141044700830513,0.0823470070397435
89.21,-0.00182913854760096,-0.0349520029168222,1.02715846300563,3.44382149363084,-0.22899738669062,-1.88798777374323,-0.836541879658864,-0.0846618154372975,-0.0778237549154349,3.36262344524199,-0.591098769097887,2.44223625650689,-0.938788632441696,-0.300183443643675,0.245742389251545,4.10093596398243,0.501391058889514,-0.761677747568455,-1.00129202636713,-0.202016003826022,0.218833727388485,1.77402404798315,0.176370981398818,0.0952463977901923
89.215,-0.00464660453607606,-0.111960903398984,1.07484348244619,3.40685798778877,-0.317473502176314,-1.85505369906568,-0.857232137663754,-0.108856049208572,-0.0680551971960945,3.3166982638324,-0.669660392895871,2.40448798816067,-0.95019677477216,-0.292056114636265,0.239921660084709,4.04318726455779,0.490170831406848,-0.824698268742477,-1.00320743829462,-0.181434824083136,0.202029705644203,1.78171936342876,0.208920920168662,0.103503413015458
89.22,-0.00934792694096068,-0.183452752009029,1.11650829543468,3.36025557087523,-0.412712242505448,-1.84254819200771,-0.877736388134703,-0.130821574847113,-0.0582994549189673,3.27118675512716,-0.749515907313012,2.36289699507745,-0.959597049057172,-0.282105033815422,0.232773260285166,3.98404963193991,0.478321476956538,-0.885786944394229,-1.00374823649808,-0.162653503473334,0.180109045995262,1.79193070624703,0.238102165658044,0.107597883019124
89.225,-0.015691167723972,-0.248521043175755,1.15135536285096,3.30438518978735,-0.512536048684196,-1.84855307393959,-0.897940401823772,-0.150581547794954,-0.0487422140756097,3.22571143416482,-0.829914668912413,2.31755413304099,-0.966935290421633,-0.270382510936468,0.224405314877409,3.92327946593046,0.466017343797718,-0.944298373754423,-1.00294632493682,-0.146345748262498,0.154280487069111,1.8040095384933,0.263546196763131,0.10816328633725
89.23,-0.0233967791847898,-0.306393457965275,1.17876215002022,3.239714129295,-0.614540463900125,-1.87075738687629,-0.91774401826258,-0.168225083602041,-0.0395417827378797,3.17981042627835,-0.910064887429572,2.26854268803456,-0.972225517002521,-0.256967190438238,0.214987247215732,3.86055587314401,0.453429690826002,-0.999609358531469,-1.00088269904462,-0.133081044200733,0.125787341130874,1.81725255006852,0.285108338218377,0.10594754519256
89.235,-0.0321476508699533,-0.356454266435537,1.19829317701982,3.16678620409051,-0.716144245452074,-1.90650511345729,-0.937062447976956,-0.183901015654916,-0.030830304529775,3.13294020818146,-0.98915148676628,2.21593532944218,-0.975546265159953,-0.24195657850884,0.204732896046356,3.79547889324357,0.440718907460514,-1.05113431734797,-0.997693186705062,-0.123305217196859,0.0958329007216082,1.83094353890975,0.302841454474086,0.101782758023891
89.24,-0.0416068832817471,-0.398253323009397,1.20973772396533,3.08619884750953,-0.814650227686099,-1.95285037465338,-0.955827778969995,-0.197797944719048,-0.0227180755874168,3.08447846999753,-1.06635548863836,2.15979225053666,-0.977055896306153,-0.225481178001378,0.193904286065608,3.72756806417739,0.428027661207705,-1.09834363287124,-0.993561744252294,-0.117269879744031,0.0655615796377249,1.84438909150273,0.316963777032433,0.096546133822151
89.245,-0.051432591437729,-0.431506358052216,1.21315476450134,2.99857527233344,-0.907326085365367,-2.00662084811383,-0.973996045032978,-0.210123259751038,-0.0152896983068922,3.03371902146646,-1.14087711991416,2.10016155440917,-0.977003582947908,-0.207709526203987,0.182817891968539,3.65625446808058,0.415479643862772,-1.14078914900885,-0.988708690345197,-0.114967983409713,0.036039988658021,1.85693189695073,0.327833592268601,0.0910979898872039
89.25,-0.0612878048159198,-0.456087169269083,1.20889330709054,2.90453767467763,-0.991498022842624,-2.06448650392612,-0.991552522272626,-0.221083986981452,-0.00859712217774497,2.97986856878622,-1.21195928694208,2.03708207064381,-0.975715673936373,-0.188830057060396,0.171828516089159,3.58087536187688,0.403180204256312,-1.1781308247404,-0.98338275435158,-0.116138204969245,0.00819936667719107,1.86795041770128,0.335919996454728,0.0862122650037215
89.255,-0.0708589664280121,-0.472015608983098,1.19758642735144,2.80468564996923,-1.06464776002728,-2.1230315448547,-1.00850903583498,-0.23085979590824,-0.00265546099197144,2.9220537023119,-1.27890634662244,1.97058800248945,-0.973570321040843,-0.169034431051324,0.161296327486773,3.50067909900802,0.391215186476401,-1.21015620444373,-0.977852705456594,-0.120313257137237,-0.0172200402731433,1.87686289324839,0.341758847054531,0.0825207708798084
89.26,-0.0798778256690078,-0.47944950888173,1.18011919759338,2.69957479153923,-1.12450990712969,-2.17883404106141,-1.02489638198635,-0.239569262786548,0.00255967192059738,2.85933057231184,-1.34109850683013,1.90071449057154,-0.97097937199291,-0.148526210928379,0.151553524677678,3.41483350916729,0.379650553430828,-1.23679236405471,-0.97239490343013,-0.126873377590038,-0.0396695012665478,1.88313677858568,0.345904448602769,0.0804717175635741
89.265,-0.0881373433610396,-0.478682822378763,1.1575751493025,2.5896912413797,-1.16915646038946,-2.22855793971195,-1.04075791313799,-0.247246230134358,0.00711067124864395,2.79069228833032,-1.39800577562308,1.82750316637157,-0.968375946516374,-0.127550488063664,0.142877739940927,3.32243345966961,0.368533928033213,-1.25811028585657,-0.96727934944753,-0.135106965431998,-0.0587433453733654,1.88629623308101,0.348895975155617,0.080305615146111
89.27,-0.0955230666126475,-0.470149493725093,1.13120921346787,2.47542643630216,-1.19706398523906,-2.26905129803997,-1.05614430398594,-0.253836082279212,0.011087692822796,2.715077484696,-1.44920249509492,1.75100720370697,-0.966196210406254,-0.106407176793451,0.135487953838751,3.22251095811731,0.357896008834202,-1.2743192635213,-0.962750775438826,-0.144247652562918,-0.0741539823644216,1.88592312505535,0.351248407292748,0.0820554296499353
89.275,-0.102060328767544,-0.454420287465641,1.10244609018643,2.35706045024468,-1.20718909933033,-2.29744785818128,-1.07110626791856,-0.259196234050519,0.0145975566410961,2.63138460381138,-1.49437682327983,1.67129923654456,-0.964849659819191,-0.0854089177226624,0.129562257822634,3.11405187613897,0.347753119544789,-1.285757186155,-0.959008742506508,-0.153463934241104,-0.0857951302672511,1.88165383136915,0.353445144107648,0.0855486178646353
89.28,-0.107922582452143,-0.432168442048826,1.07281853445386,2.23476442121832,-1.19904856641779,-2.31127671736147,-1.08568413654642,-0.263093275124421,0.0177564541509631,2.53850581373901,-1.53333123563287,1.5884886031737,-0.964684279295857,-0.0648262828937516,0.125239177969753,2.99603327285325,0.338111586702282,-1.2928825633986,-0.956202825984923,-0.161887061266816,-0.0938118851488689,1.8731773971766,0.355899401553701,0.0903951827089147
89.285,-0.113389591963611,-0.404117719142198,1.04385168085296,2.10862862904632,-1.17276154817065,-2.3085611165321,-1.09989952995472,-0.265227071164656,0.0206732327170251,2.43539261668401,-1.56598047499887,1.50274520125728,-0.965956659501195,-0.0448936170932511,0.122598155603546,2.86749355968974,0.328967954835963,-1.29625718485114,-0.954437088730685,-0.168742454181471,-0.0985430483569669,1.8602355123024,0.358909492804858,0.0960034950340915
89.29,-0.118807502653752,-0.371011658465664,1.01698805242663,1.97871293302408,-1.12905134392334,-2.28787540999594,-1.11375546744944,-0.265299930678561,0.0234171569160997,2.32114441355754,-1.59235090529135,1.41432031197713,-0.96880895852,-0.0258422771398863,0.121668285749245,2.72762643099833,0.320301545785177,-1.29650604242564,-0.953761619657419,-0.173480929228407,-0.100395668067468,1.84263112977406,0.36265719323563,0.101655728041342
89.295,-0.124572653427669,-0.333627229851855,0.99356065512863,1.8451183402355,-1.06923292468929,-2.24835373988126,-1.12723485293411,-0.263087794159443,0.0259949086430093,2.19511158825343,-1.61257625129059,1.32356374033878,-0.973253794435603,-0.00789935925349243,0.122458886050239,2.57588955367245,0.312063321195445,-1.29426187894232,-0.954163350894115,-0.175796278487723,-0.0998321260613755,1.82025446036475,0.3672369704445,0.106606525819184
89.3,-0.131139962191319,-0.29283413101595,0.974768164287837,1.7080557043405,-0.995192743990163,-2.18968600883117,-1.14028390520724,-0.258445693438352,0.0283623924301234,2.05699132919211,-1.62688815069119,1.2309347368839,-0.979177180191867,0.00871857265110556,0.124948611269208,2.41210424412825,0.304167131182432,-1.29011523972266,-0.955579629177516,-0.175571169052514,-0.0974662528114684,1.79311423638679,0.372663856340122,0.110162140721933
89.305,-0.139036543045134,-0.249634183288496,0.961629650073635,1.56786667938152,-0.909357817751634,-2.11214973148404,-1.15280071950875,-0.251270043783116,0.0304432092280346,1.90687236533474,-1.63560374782495,1.13699877087598,-0.986359485622814,0.0237943480057312,0.1290601586001,2.23650151256243,0.296490900705532,-1.28457797917301,-0.957910250659676,-0.172849613153972,-0.0940665319217736,1.76135947196442,0.378856534821503,0.111735833298643
89.31,-0.148826126415824,-0.205121397473149,0.954911835615166,1.42502269894821,-0.814634030834575,-2.0166486033959,-1.16465284244882,-0.241518713572083,0.032111848434261,1.74524873166175,-1.63911040945994,1.04241919474095,-0.994495892053069,0.0371263240931149,0.134696575554977,2.04973742247891,0.288886690039613,-1.2780482176324,-0.961007337348757,-0.167849258861491,-0.0904160930064324,1.72529725467452,0.385645731666497,0.110894445552252
89.315,-0.161036656358197,-0.160424706705829,0.955066698801654,1.28016251011497,-0.714296379267446,-1.90469200492649,-1.17570468545943,-0.229282424373913,0.0331637308203832,1.57306170324564,-1.63784801427869,0.947955595282627,-1.00321222907665,0.0485800949517678,0.141802128618641,1.85293719209635,0.28118954815328,-1.27077463201806,-0.964674322682134,-0.160955122993105,-0.0872104689356697,1.68540973593128,0.392815917668471,0.107400047947165
89.32,-0.176109322954018,-0.116690975462,0.962213076778575,1.13415165376613,-0.611852190386634,-1.77832925017585,-1.18583324918863,-0.214818009747926,0.0333123235615633,1.39175578972626,-1.63229016117424,0.854461356115455,-1.01208997682488,0.0581314156608324,0.150373877679076,1.64775014371566,0.273224647813302,-1.26283823025118,-0.968692659492596,-0.15267279558797,-0.0850604336604936,1.64235710701656,0.400136876969753,0.101230265554952
89.325,-0.194338449194209,-0.0750683206619971,0.976107569008579,0.988121140545012,-0.510895847014952,-1.64007104532925,-1.19491268155047,-0.198541902175619,0.0322249677572189,1.20330301388802,-1.62292597189387,0.762869807632907,-1.02070205136103,0.0658788249362585,0.160431954810573,1.43636759084035,0.26481797101847,-1.2541630003171,-0.972857481386275,-0.143574986524625,-0.0844960663946995,1.59695658147826,0.407369376029664,0.0925675862388843
89.33,-0.21580138992704,-0.0366646444955325,0.99609787050948,0.843479063868568,-0.414947054121382,-1.49278550979143,-1.20279448662674,-0.181018738151833,0.0295619707640497,1.01018447068056,-1.61024484126125,0.674166403376991,-1.02864916709537,0.0720403032739235,0.171983592744131,1.22149299759771,0.25580921477375,-1.24455231035645,-0.977005348086404,-0.134250665845012,-0.0859363460223842,1.55013815315976,0.414258936150652,0.0817663970840222
89.335,-0.240347099719226,-0.00250942205101267,1.02112787239535,0.701903609643014,-0.327271794266484,-1.33956777357232,-1.20933319563869,-0.162940916046611,0.0249788913148225,0.815342522151929,-1.59472412369135,0.58935107674619,-1.03558832888785,0.0769497674233426,0.184993588698681,1.00627936297727,0.24606374726911,-1.23374338080344,-0.981025324828416,-0.125245002026628,-0.0896581064241951,1.50288082964146,0.420523678524068,0.0693048398457924
89.34,-0.26761646422215,0.026466833227095,1.04977753882788,0.565322385957934,-0.25070153428567,-1.18360467085083,-1.21441194235311,-0.145093993212646,0.0181333092349471,0.622118417022081,-1.57681718382392,0.509397065095367,-1.04125138115578,0.0810386429506554,0.199353840072391,0.794251079132574,0.235482898527603,-1.22146836770785,-0.984852836485267,-0.117017913832781,-0.0957526204218984,1.45613714819615,0.425841228816403,0.055727175728449
89.345,-0.297058787586292,0.0494545729014097,1.08031788372601,0.435862440787793,-0.187464636526549,-1.02804555639518,-1.21794443281487,-0.128308865819749,0.0087230862581446,0.434160192471248,-1.55694100929437,0.435204431321002,-1.04545766627064,0.0847790285059967,0.214850967747271,0.589197095558976,0.22401256594036,-1.20750803589693,-0.988457234817414,-0.10993654176986,-0.1040755397694,1.41075995694412,0.429852065103672,0.0415931451070125
89.35,-0.327965218213499,0.0658035782825177,1.11081060144844,0.315759585727391,-0.139043419330317,-0.875876677072086,-1.21988015738747,-0.113411146197676,-0.00348054895798905,0.255284220194349,-1.5354657671255,0.367547598223045,-1.04812063303685,0.0886055328284397,0.231159585851347,0.395020603500464,0.211649503500751,-1.1917298523562,-0.991829136081307,-0.104261543589316,-0.11426178517762,1.36744392956891,0.432184710171865,0.0274426646231583
89.355,-0.359522141080826,0.0750682029814614,1.13924915002187,0.207249054102728,-0.106081071555477,-0.729799287380813,-1.22020787196222,-0.101171175687579,-0.0186152682333115,0.0893133352007993,-1.51270851753451,0.307027602693627,-1.04924349379972,0.0928521049088709,0.247867959477265,0.215570365902003,0.198444908086545,-1.17410980696161,-0.994965763099314,-0.100119630490304,-0.125810409721737,1.32668829071919,0.432485624037432,0.0137668511420054
89.36,-0.390865068412587,0.0770542763561621,1.16370591567421,0.112452718326127,-0.0883549271112516,-0.592125624465101,-1.21895314937143,-0.0922409295586768,-0.0367023961343469,-0.0600880611718254,-1.48893119884693,0.254037484374231,-1.04890727813133,0.0977152544883069,0.264508337200298,0.0544749507834169,0.184505902951704,-1.15473937497038,-0.99785844576816,-0.097496346311533,-0.13816184616462,1.28878077187109,0.430444662346771,0.000982358967564628
89.365,-0.421120728757318,0.0718743204933436,1.18246587316712,0.0332612692896832,-0.0848086905065805,-0.46470213238209,-1.21617471923455,-0.0870815612409783,-0.0576121142061774,-0.189581209196134,-1.4643434862222,0.208742025281587,-1.04725851829104,0.103237291287973,0.28058089280314,-0.085020159019325,0.169995023803507,-1.13382158554017,-1.00048731243596,-0.0962504734766006,-0.150741395294454,1.25379598127222,0.425818256927202,-0.0105874092521351
89.37,-0.449456389074657,0.059991525843669,1.19416951713719,-0.0287797660604651,-0.0936388811913924,-0.348856878298912,-1.21196055850005,-0.0858940701949554,-0.0810328492165843,-0.296314289319195,-1.43911085193374,0.17107285323765,-1.04449461157891,0.109304093776711,0.295572245938051,-0.200205196573162,0.155126961393903,-1.11165833751814,-1.00281851632505,-0.0961422782322368,-0.162984341334793,1.22160485662388,0.418450284366291,-0.0207231821110747
89.375,-0.475149010598621,0.0422232716600968,1.19796228512069,-0.0725759643315741,-0.112447891240643,-0.245380618266233,-1.20641940536852,-0.0885559905178789,-0.106446745287063,-0.378073646010786,-1.41336459082342,0.140737656766503,-1.04084363631285,0.115658036983008,0.308966678821328,-0.289045171180195,0.140162011822689,-1.0886254086681,-1.00480092949314,-0.0968789784991751,-0.174351633844938,1.19189922705037,0.408293520576119,-0.0293083687667798
89.38,-0.497639528938064,0.0197208755912773,1.1935843417182,-0.0975832670840635,-0.138458855500024,-0.154556682545616,-1.19967107317462,-0.0945821291090797,-0.133119729005133,-0.433424295736688,-1.38721060423109,0.117241778599842,-1.03654421959424,0.121935931224953,0.320264164622894,-0.350306006352606,0.125396694918884,-1.06513579783159,-1.00636919533437,-0.0981526397086265,-0.184369812496465,1.16423075157553,0.395430204365745,-0.0363147947907759
89.385,-0.516384827894429,-0.00597657778635871,1.18151062539065,-0.103875752432003,-0.168749648944398,-0.0762268687832326,-1.19194942066139,-0.103126179765059,-0.159920068390576,-0.461810736522391,-1.36073825736795,0.099925076572713,-1.03182975575183,0.127734333964458,0.329015870370454,-0.383640280589582,0.111152535529862,-1.04160165556514,-1.00745550991491,-0.0996432194549922,-0.192709418373145,1.13805325332384,0.380075154523149,-0.0417874348302233
89.39,-0.53077430382371,-0.0329632431170431,1.16292829459439,-0.0921515781399461,-0.200462194183795,-0.00986361778447353,-1.18363124680933,-0.11304229462266,-0.185274559477909,-0.463584004071579,-1.33403064787884,0.0880131430072129,-1.02691331790804,0.132672115983576,0.334853455821237,-0.389600433510545,0.0977628049459104,-1.01840396830736,-1.00799921637401,-0.101031352618717,-0.199219502044813,1.11275769018414,0.362550566730628,-0.0458365976333098
89.395,-0.540723593396117,-0.0593682321690642,1.13904016705491,-0.0636997344257998,-0.230980439973111,0.0453551060279416,-1.17481495855701,-0.123019874121216,-0.208001914182834,-0.439980542934281,-1.30717061743493,0.0806699935297263,-1.02197157370185,0.136423894396242,0.337491397037573,-0.369606209463088,0.0855564711811923,-0.995861535831787,-1.0079475193045,-0.102075029019264,-0.203854365265324,1.08770742277582,0.343260249817756,-0.0486212713953224
89.4,-0.546863082638357,-0.0835787470531805,1.11079858023448,-0.02036520290686,-0.258082201669374,0.0904560394745462,-1.16523353153195,-0.131689094291142,-0.227611658126735,-0.393094033078308,-1.28023642756548,0.0770416547871758,-1.01713335326927,0.138748937524087,0.336729742031275,-0.325907362070209,0.0748396395932566,-0.974187991762939,-1.00725825409341,-0.102672071890809,-0.206611418505266,1.062286288193,0.322691126011247,-0.05030786479407
89.405,-0.549812558092344,-0.104023123006349,1.07948481466119,0.0355129134764632,-0.280043244193778,0.12658145900168,-1.15475798982189,-0.137689771553398,-0.243454455084437,-0.325807809967064,-1.25329157987685,0.0762946710437634,-1.01247809153687,0.139534319477567,0.332482564814401,-0.261510186476593,0.0658760799847996,-0.953454624473358,-1.00591109957788,-0.102815074492939,-0.207589551606867,1.03594392776268,0.301408499821746,-0.0510295114189948
89.41,-0.550009011490506,-0.119225491351001,1.04668399751181,0.101217229476234,-0.295677680365663,0.15492180143025,-1.14346844304221,-0.139801164224437,-0.254633611217169,-0.241655746242745,-1.22637448764148,0.0776525333050903,-1.00804096154707,0.138819886507731,0.324806578890402,-0.18003713616269,0.058869648977685,-0.933579325793315,-1.00391304402241,-0.10251376057188,-0.207054309959919,1.00821865365774,0.280013442116606,-0.0508738373512411
89.415,-0.547959206614364,-0.128045863373506,1.01389921519921,0.17378817651782,-0.304337125768022,0.176661367236452,-1.13145715324701,-0.137061414031744,-0.260431850604791,-0.144651891732645,-1.19948522323822,0.0804239598635151,-1.00381768738788,0.136789522350683,0.313905518428529,-0.0855588179655514,0.0539512209307086,-0.914330880418045,-1.00129280538698,-0.101781156462114,-0.205410243894618,0.978747491537412,0.25909232650298,-0.0498871332153328
89.42,-0.544238677437779,-0.129770689723072,0.982429240727204,0.250156199293293,-0.305883332268574,0.192926859708383,-1.11880574099758,-0.128837858982243,-0.26039748258659,-0.0391147267962411,-1.17256925352522,0.0840210428922716,-0.999768462041655,0.133752326290478,0.300118576769252,0.0175775345474646,0.0511712608910391,-0.895337279341049,-0.998099326416215,-0.100651820263226,-0.203150385219004,0.947275011336823,0.239181288816826,-0.0480771259892349
89.425,-0.539439076405952,-0.124151123364953,0.95327846768092,0.327280126144586,-0.300622258119609,0.204747637007286,-1.10558708261157,-0.11488456231767,-0.254386375544868,0.0705303011314898,-1.14550491428467,0.0879696629238007,-0.995827013916942,0.130118155540644,0.283904046794124,0.124939884576366,0.0504976383483034,-0.876104405664751,-0.994403615824707,-0.0991769725860625,-0.200813068921612,0.913655098390027,0.220732898060962,-0.0454147177897432
89.43,-0.534130776660872,-0.11140549518245,0.92713236528266,0.402286207384538,-0.289207911004698,0.213034491529028,-1.09187929813645,-0.0953644121193191,-0.242577606494006,0.17996072469221,-1.11809769178359,0.0919118389356418,-0.991918668335856,0.126354255749291,0.265822415421493,0.23221486658031,0.0518181904072243,-0.856045252108099,-0.990286407879931,-0.0973954933753191,-0.198893753760878,0.877843074909288,0.204090572589878,-0.0418397446738555
89.435,-0.528847145370722,-0.0921919403333622,0.90440271492077,0.472588610531702,-0.272545569563455,0.218570072072295,-1.07778159326988,-0.070815881623668,-0.225445261955109,0.285149541554446,-1.09008066931024,0.0956004915419357,-0.987980850138025,0.122925917405879,0.246512579232335,0.335394308203815,0.05494870385603,-0.834510919308104,-0.985821505803183,-0.0953059590248811,-0.197753905641975,0.839883926989697,0.189492188533307,-0.0372739786711466
89.44,-0.524071115022457,-0.0675536247300755,0.885295286138443,0.535969077384464,-0.251708888179363,0.221992655822688,-1.0634140513933,-0.0420593571791026,-0.203679649828024,0.382513290518211,-1.06112392491397,0.0988876378663144,-0.983974948574486,0.120231166051646,0.226646117303228,0.430918308720963,0.0596450720381635,-0.810824298547668,-0.981083129686926,-0.092865991459414,-0.197627722439028,0.799898590086419,0.17708974066208,-0.0316397739909313
89.445,-0.520214973501032,-0.038817916367155,0.869859063321042,0.590588986416756,-0.227872688694213,0.223756956385343,-1.04890444743298,-0.0100731266507829,-0.17809326672342,0.468984208420411,-1.03085533574757,0.101705811792573,-0.979888158881571,0.11855034474866,0.206867976497979,0.515742865512839,0.0656158293198103,-0.784323415698663,-0.976172029071284,-0.0900211753539775,-0.198700915887246,0.7580687983194,0.166951124307231,-0.0248781361773545
89.45,-0.517574377610426,-0.00743921182704593,0.857979127871023,0.634963333812212,-0.202252478474216,0.224096220809573,-1.03438444762635,0.0240780556591496,-0.149586813677179,0.54203163762018,-0.998889860342111,0.104048049026009,-0.975731340014772,0.11804620652049,0.18775533926785,0.587357416403157,0.0725349884210642,-0.754411062749192,-0.971229562324211,-0.0867377483344737,-0.201152747473838,0.714623046186234,0.15904039148667,-0.0169605674939581
89.455,-0.516264650636366,0.0251626271670535,0.849338218557605,0.667987723215697,-0.176029004748596,0.223046210304059,-1.02000458019221,0.0592350025975194,-0.119178060995566,0.59972847244412,-0.964862290074199,0.105954258001479,-0.971538220597024,0.118804478398904,0.16980536619468,0.643848809945615,0.0800595099281101,-0.720599343971428,-0.966426333185567,-0.083015073034029,-0.205121786618592,0.669823893194413,0.153197721399687,-0.00789169286217967
89.46,-0.516212181547881,0.0576916616174909,0.843460848096474,0.689035243494115,-0.150260928706801,0.220540656480504,-1.00595369463654,0.0941642598410032,-0.0879833488147191,0.640880796673817,-0.928459321911545,0.107502256562463,-0.967371377465302,0.120838891000719,0.153432548171167,0.684030064555807,0.0878520579414552,-0.68254070474339,-0.961935151135478,-0.0788692252556925,-0.210630662227881,0.62395484616329,0.14914051511605,0.00229445520535551
89.465,-0.517235598911781,0.0889936573645234,0.839873169632355,0.698006439824402,-0.125830083357629,0.216497852378729,-0.992464438274849,0.12768751204998,-0.0570944101825181,0.665089254782121,-0.88944880555529,0.108794433727231,-0.96333294895936,0.124030506765075,0.138960376449172,0.707501941527405,0.0956017207581593,-0.640047045164869,-0.957908078264123,-0.0743003405620385,-0.217533927337767,0.577304143645362,0.146494718714147,0.0135329063988959
89.47,-0.519122621282426,0.118074755138895,0.838215018453262,0.695250575605719,-0.103445551696024,0.210838484975042,-0.979799957184998,0.158812599659223,-0.0274644772871294,0.672648715380814,-0.847704753446576,0.109938408024042,-0.95956249716263,0.128093273935681,0.126606613929141,0.714553065158949,0.103035706346416,-0.593104180925702,-0.954474046934117,-0.0692896457876254,-0.225537664051007,0.530146039264596,0.14484108263822,0.0257147957513483
89.475,-0.521620403026508,0.144140551704337,0.838184610940417,0.681456531918143,-0.0836597489833804,0.203484898395587,-0.968230953024835,0.186740997848166,9.32982122915823e-05,0.664405080149522,-0.803225382634104,0.111030278833156,-0.956212908934343,0.132634873056802,0.116467547115757,0.706017386567751,0.109925244566039,-0.541879538601287,-0.951753295291787,-0.0638504405431062,-0.234268525540882,0.482728785119696,0.143748681066694,0.0386819709990433
89.48,-0.524416649078326,0.166614284330081,0.839457961549465,0.657613631698848,-0.0668510213850165,0.194395106656141,-0.958016415253005,0.210822522091193,0.0248692519365692,0.641693491648817,-0.756141859140362,0.112144370307844,-0.95342663802631,0.137237585293781,0.108522806639083,0.683213583975009,0.116091066700742,-0.486716427828275,-0.949862148189211,-0.0580687272388471,-0.243320299817032,0.435275545514996,0.142788532183778,0.0522463125893051
89.485,-0.527192117756722,0.185130403361248,0.841711179607804,0.624990127298273,-0.0532066383740878,0.183605750392916,-0.949389659703231,0.230558549608913,0.0462585892424612,0.606290667453422,-0.70671606482885,0.113326772033573,-0.951330667691064,0.141492231324031,0.102672955722274,0.647898300416069,0.12140721166859,-0.428119490984863,-0.948896842467738,-0.0520726837699832,-0.252268826140446,0.387983528379042,0.141546354688943,0.0662118253355892
89.49,-0.529680706215968,0.199524285869696,0.844664407279531,0.585080931604402,-0.0427399431664842,0.171259965051882,-0.942543014308211,0.245627906914953,0.0637797565506805,0.560317528324426,-0.655327607333407,0.114592717757826,-0.950035693414862,0.145011595940992,0.0987753271167432,0.602168222053886,0.125801526299774,-0.366740733773177,-0.948921960825992,-0.0459833146876569,-0.260707339623713,0.341007003040286,0.139636886350776,0.0803757470121558
89.495,-0.531671680223909,0.20982025183101,0.848104652177027,0.539541424828031,-0.0353207939697383,0.157619033908517,-0.937620947653656,0.255911209784646,0.0771227999088014,0.506123052828286,-0.602455206319072,0.115927765199892,-0.949629929025908,0.147428197340962,0.0966573146450278,0.54834266628112,0.129252713549141,-0.303365784447239,-0.94997261421009,-0.039903886390709,-0.2682746608985,0.294442963908843,0.136704455919834,0.0945215507120979
89.5,-0.533030732266578,0.21620152479207,0.851897168234026,0.490099819675137,-0.0307054447853489,0.143042232781429,-0.934712017851702,0.261519727385339,0.0861807793316545,0.446150210887735,-0.548657890040322,0.117292119782661,-0.95017580040137,0.148375719883956,0.0961328882498398,0.488829020885706,0.131783848520157,-0.238895364603967,-0.95204764969976,-0.0339219193745505,-0.274623448686599,0.248337387748931,0.132423508694896,0.108414838757991
89.505,-0.533739052771559,0.218975501980741,0.855935211728698,0.438441888044954,-0.0285738271187224,0.127935496205037,-0.933823056927457,0.262780897933061,0.0910023522963088,0.382773587982452,-0.494553195139153,0.118628581824868,-0.951699655611998,0.147517956101264,0.0970102459486825,0.425960794997027,0.133453421019413,-0.174317827102714,-0.955101508994646,-0.0281294596373758,-0.279394924253715,0.202696611928537,0.126519910939822,0.121798309692702
89.51,-0.533836661554855,0.218566549289796,0.860046304739607,0.386131272954278,-0.0285545266493708,0.112717279160047,-0.934860878294442,0.260154121942656,0.0917349628526893,0.31818490848883,-0.440785447968905,0.119871464265556,-0.954167857418743,0.144634615897509,0.0990632035517013,0.36188486019535,0.13434594354707,-0.110661863945047,-0.959058991664715,-0.0226791177264011,-0.282265924926364,0.157495102591994,0.118798282597284,0.134409481744043
89.515,-0.53336122139345,0.215501615813729,0.863968256559779,0.334609148009303,-0.0302210365213994,0.0978288700863924,-0.937639466670166,0.254165109790874,0.0886009649955573,0.2543825284533,-0.387989112872304,0.12095341821789,-0.957481942931583,0.139648001622884,0.102021346745472,0.298554181061562,0.134564133536224,-0.048932912217226,-0.963829090049258,-0.0177773401887385,-0.283007289978523,0.112694523679524,0.109151299876741,0.146030124801199
89.52,-0.53238113164016,0.210363065194514,0.867432683563541,0.285193538440206,-0.0330980344892032,0.0837347993080975,-0.941906957659143,0.245419145133586,0.0819060822167867,0.193164017729914,-0.336761894741005,0.121812631391718,-0.961507161246474,0.132547331460813,0.105619959850139,0.237723048912873,0.134222378671901,0.00993464845901067,-0.969290621066999,-0.0135767207248598,-0.281483787470478,0.0682705150937786,0.0975538888044992,0.156511289066793
89.525,-0.531016093052125,0.203739012628433,0.870224823530477,0.239022780268874,-0.0366939739228937,0.0708779415837727,-0.94737205117367,0.234608810843999,0.0720529642815351,0.136052658345575,-0.287651785412316,0.122402580503782,-0.966093463172992,0.123319462764472,0.109636834015319,0.180874587417808,0.133440851457379,0.0650972406926337,-0.975280002889383,-0.0101266461955293,-0.277609862782491,0.0242265484279722,0.0840612360239032,0.165749472111496
89.53,-0.529395042790331,0.196186796407334,0.87216783569399,0.196996896709767,-0.040522558605611,0.0596302962657477,-0.953713387378012,0.222460615401582,0.0595275182816886,0.0842299670296116,-0.241150693718083,0.122698116450438,-0.9710666780871,0.111950963592575,0.113864269363884,0.129155240398512,0.132338420677092,0.115820590763691,-0.981609852955886,-0.00745326688743114,-0.271319571945678,-0.0193973184624011,0.0688205864303484,0.173673298636782
89.535,-0.527640128304364,0.188203699859138,0.873144362011525,0.159749337532929,-0.0441147023418595,0.0502702188117679,-0.960586996287626,0.209674593053889,0.0448714818615117,0.0385127042941875,-0.197686936530268,0.12269213369206,-0.976225685177301,0.0984789961417009,0.11808120284868,0.0833555814458396,0.131021528257722,0.161510575617533,-0.988093270954552,-0.00560216065670199,-0.262607912056323,-0.0625054297659606,0.0520826464733898,0.180271337041997
89.54,-0.525902986529984,0.18019976466327,0.873163357922459,0.127641504957544,-0.047059325774956,0.0429729328180479,-0.967652405481175,0.196887434915085,0.0286460597700517,-0.000644726710333702,-0.157611549782436,0.122389580032027,-0.981373113997073,0.0830503268636776,0.122085557841058,0.0439144681754193,0.129574625611753,0.201735359800838,-0.994547657030069,-0.00455527440818112,-0.251605568214816,-0.10493815558645,0.0341828548098368,0.185607032975454
89.545,-0.524365168120582,0.172481904059411,0.872367190047921,0.100780351496492,-0.0490596053631421,0.0377991993104468,-0.974608344961746,0.184642716195648,0.0114012224678072,-0.033123745773602,-0.121184324100067,0.121807404663202,-0.986348447800406,0.0659230429116667,0.125740760698205,0.010943420660777,0.128060126939746,0.23622213079998,-1.00079599102149,-0.00418896705818034,-0.238562657174705,-0.146492173283135,0.0154977674074675,0.189784011475174
89.55,-0.523177237381581,0.165257208195326,0.870970121799402,0.0790467317998495,-0.0499561845845545,0.0346910647745862,-0.981210623425447,0.173365266922525,-0.00632992669419456,-0.0591005933638588,-0.08857247040548,0.120975095320784,-0.991027636484883,0.0474076711440115,0.128971634176237,-0.0157346247644287,0.126522000300879,0.26484089582706,-1.00668605236549,-0.00438004138455429,-0.223744262327698,-0.186942896702685,-0.00358299927784414,0.192910835272505
89.555,-0.522414606736917,0.158642633986997,0.86920859014515,0.0621200198886045,-0.0497149547634264,0.0334858334157645,-0.987275134007984,0.163344534405168,-0.0240351678493383,-0.0790075940881535,-0.0598599558644089,0.119927944834816,-0.995312001915933,0.0278316646879075,0.131739806261188,-0.0365463433823069,0.124984065511516,0.287593421108165,-1.01210792077106,-0.00509822972422301,-0.207368918507221,-0.226043326833871,-0.0226606497441998,0.195108725426029
89.56,-0.522084856967378,0.15267322268842,0.867325241814648,0.0495123956097291,-0.0484062510104472,0.0339411719325445,-0.992686431849168,0.154724871247019,-0.0412520280099465,-0.0934837171451805,-0.0350569690495793,0.118698790922919,-0.99913755490421,0.00755073591136672,0.134051556153397,-0.0521183400046674,0.123448342059986,0.304602609303702,-1.01698994070053,-0.00635842778762023,-0.18962853798798,-0.263518047699476,-0.0413314968433242,0.196525082873315
89.565,-0.522146571662113,0.147318472042737,0.865553722387851,0.0406242352118087,-0.0461823703462151,0.0357646945572899,-0.997402395243358,0.147509456477115,-0.057599986127897,-0.103303367112031,-0.014108239283039,0.117315125136576,-1.00248549314691,-0.01304501593081,0.135969776724987,-0.0632077225873138,0.12189971667074,0.316090986621239,-1.02128948411117,-0.00814363495488083,-0.170726537349636,-0.299074114892768,-0.059203028364616,0.197316458838045
89.57,-0.522515060972452,0.142509825681017,0.864091755192695,0.0348063431809373,-0.0432518992735358,0.0386474994138714,-1.00144219950359,0.141584583288332,-0.0727940639455645,-0.109299795366975,0.00309796750846952,0.115798529311178,-1.00537413243322,-0.0335525964708664,0.137592027349777,-0.0706278741360631,0.120312581185576,0.322355284406821,-1.02499388226351,-0.0103962617763261,-0.150895783488765,-0.332415799671261,-0.0759152261687143,0.197623851056792
89.575,-0.523064772015789,0.13817036225895,0.863073949426192,0.0314180976865669,-0.0398506609833416,0.042298701107387,-1.00486924088672,0.136754880159625,-0.0866481709833165,-0.112293761149828,0.0167193453193584,0.114163479212793,-1.00784574124292,-0.0535868774927272,0.139014067303652,-0.0751785443058063,0.118655744249009,0.323745934162359,-1.02812332022403,-0.0130297480294323,-0.130402669970178,-0.363249680209766,-0.0911597244224628,0.197562515104528
89.58,-0.523645112493969,0.134233580912147,0.862563387468918,0.0298808735687936,-0.0362102847926599,0.0464767141685095,-1.00777905120974,0.132783346758014,-0.0990675364989984,-0.113027273992057,0.0269477353366613,0.112416451666114,-1.00995965775153,-0.0728019719373431,0.140309198146171,-0.0775801376679056,0.116896306068606,0.320651527730029,-1.03072141281419,-0.0159173739958597,-0.109537810495533,-0.391284562351843,-0.104694508739801,0.197221116299265
89.585,-0.524118738416819,0.13064435942448,0.862572278665166,0.0297151490781408,-0.0325311725481335,0.0510050433123731,-1.01029445797972,0.129442791487317,-0.110021353786665,-0.112115716191519,0.033999901785799,0.110556937252841,-1.01179326847451,-0.0909137568630929,0.141537323303884,-0.0784256478795524,0.115003595993159,0.313491468748505,-1.03282596632434,-0.0188606146872331,-0.0885704250653519,-0.416226988449404,-0.116347139247301,0.196659988313347
89.59,-0.524401584535558,0.127353120599092,0.863089331830869,0.0305415738784666,-0.0289637473487911,0.0557568127218511,-1.0125587743741,0.126563839626432,-0.119513409751233,-0.110042035631098,0.0381106607250078,0.10858224457336,-1.01344100322696,-0.107728383972735,0.142759558882949,-0.078174085779332,0.11295441176031,0.302715398673596,-1.03444196950905,-0.0215759122811556,-0.0676952369192472,-0.437774399837798,-0.12599284630648,0.195896232083597
89.595,-0.524460120782281,0.124327603495396,0.864076221239816,0.0320565406048133,-0.0255996178024562,0.0606232782409388,-1.01470001936986,0.124037172458018,-0.127579277769608,-0.107181710770958,0.0395272327712348,0.106492699607948,-1.01498296004545,-0.123123715148869,0.143997057411318,-0.0771744419503154,0.110737055277855,0.288804902552474,-1.035560331113,-0.0237873170400285,-0.0470727747555591,-0.455612346227018,-0.133519633667963,0.194891401930101
89.6,-0.524263836647944,0.121587779251001,0.865439849008519,0.0340319272888921,-0.022480280154115,0.0655185315264496,-1.01677742423577,0.121773713672632,-0.134300690925203,-0.103802802170263,0.0385119474098786,0.104288534011468,-1.01643409605694,-0.136980000834436,0.145157011539108,-0.0756646732138047,0.108347946891309,0.272282843848336,-1.03620607910052,-0.0253813979930838,-0.0269429491975752,-0.469409859420054,-0.138825740176676,0.193590634776146
89.605,-0.523758876539348,0.119218363317324,0.867028021318154,0.0363498492999318,-0.019618309874709,0.0704292158606361,-1.01877174887933,0.11969254047105,-0.139799599268984,-0.100031815663148,0.0353504726279304,0.101960627039832,-1.01773959599147,-0.149158823907814,0.146041238250284,-0.0737370366404617,0.105783033984859,0.253724030412086,-1.03644210978862,-0.0264234654498566,-0.0076359365921215,-0.478815524221729,-0.141853356869702,0.191999782985439
89.61,-0.5229012074294,0.117325476401915,0.868660828825563,0.0390189732588749,-0.0170079042043834,0.075434464309671,-1.02062455719166,0.117760912283946,-0.144208654446671,-0.095840359019151,0.0303498795475043,0.099489380156156,-1.01882430725068,-0.159548344106895,0.146436038638274,-0.0713255593991692,0.103035892136988,0.233746870703853,-1.0363275932041,-0.0270237497601558,0.0105316322342587,-0.483476286695299,-0.142604530381005,0.190219716473526
89.615,-0.521697915339908,0.115994304269289,0.8701690879614,0.0421462538510219,-0.0146232127134038,0.0806571279362437,-1.02226463536309,0.116027704977237,-0.147643400961703,-0.0910737036732133,0.0238272536076589,0.0968540325700618,-1.01962644901544,-0.16809723858588,0.146170532532456,-0.0682366644063075,0.100104528031378,0.212987214737712,-1.03589505536344,-0.0272512362043201,0.0273129493291639,-0.483079167549509,-0.141127047972119,0.188422868940315
89.62,-0.520209962310712,0.115294640899323,0.871427795203855,0.0458854339495753,-0.0124255009475189,0.0862074650224932,-1.02360412415813,0.114616818753951,-0.150179582838335,-0.0855086699040801,0.0161002684859426,0.0940402915213448,-1.02009116540529,-0.174826098018087,0.14512519645313,-0.0642095093181201,0.0969959194993016,0.192070486723299,-1.03515560272222,-0.0271456916767169,0.04250668752401,-0.477389221195683,-0.137502090455764,0.186821912158978
89.625,-0.518543363361321,0.115279019395125,0.872387723372649,0.0503707883809964,-0.0103858021600527,0.0921592478518111,-1.02453349971164,0.113706072357607,-0.151833443296883,-0.0789427498600168,0.00747999906738966,0.091040662319151,-1.02016100379105,-0.179825501679134,0.143234481146905,-0.0590077504030326,0.0937228047749645,0.171583126256923,-1.03411348239044,-0.0267396543955775,0.0559024803902765,-0.46627113491472,-0.131846508797797,0.185644150509608
89.63,-0.516842460643734,0.115947228026387,0.873075802025308,0.0556403739836902,-0.00851647762652698,0.0985248582106066,-1.02493580559957,0.113496439422014,-0.15257128010563,-0.0712951556068747,-0.00173432778513007,0.087851089573356,-1.01978459127716,-0.183227011709289,0.140485936688452,-0.0525238717909925,0.0902968008065451,0.15204102215403,-1.03278266372948,-0.0260709953432834,0.0672637220923548,-0.449701069912897,-0.12433587005861,0.18510322104741
