Header,foot_Accel_X,foot_Accel_Y,foot_Accel_Z,foot_Gyro_X,foot_Gyro_Y,foot_Gyro_Z,shank_Accel_X,shank_Accel_Y,shank_Accel_Z,shank_Gyro_X,shank_Gyro_Y,shank_Gyro_Z,thigh_Accel_X,thigh_Accel_Y,thigh_Accel_Z,thigh_Gyro_X,thigh_Gyro_Y,thigh_Gyro_Z,trunk_Accel_X,trunk_Accel_Y,trunk_Accel_Z,trunk_Gyro_X,trunk_Gyro_Y,trunk_Gyro_Z
35.495,0.582643100356887,-0.0882228953351788,1.75839072966301,-0.530875928939015,0.910630323993549,0.54956782080013,-1.1293084267803,0.000878825652769635,1.30242213257326,-0.801843627707812,1.48827627091376,0.454888714213004,-0.616561041871868,-0.499481445377521,0.0468732950753648,0.390340182462553,-1.24728274828578,-1.25275351693173,-0.839913683292838,-0.0152194758381247,0.519436245136063,-0.599559843540192,0.103818551670633,0.25885819167642
35.5,1.38430003733345,-0.190527845900865,1.86045891129138,-0.245110879119059,0.855134776203608,0.253533340274715,-1.39576648583411,-0.0114329248279666,2.09232121968577,-1.07383943331038,1.52010850785627,0.53524065680371,-0.777773065964634,-0.620889675144894,0.0020785810155884,0.481187043940424,-1.37927310410885,-1.5201193596775,-0.825348295668921,-0.0117175856634356,0.544592011611544,-0.590913330551165,0.116355316267934,0.270760229241252
35.505,2.16618177423692,-0.264226459425413,1.7777011872261,0.259079159785291,0.939335151415338,-0.25852934718622,-1.78895851930514,-0.197966384546726,2.89111128638395,-1.51746389733951,1.12850156834248,0.637081354698226,-1.02470962696916,-0.720712705489568,-0.0378507107011969,0.571698201914906,-1.43109512711916,-1.78011629274992,-0.814136451215137,-0.00848902732326495,0.5772400753206,-0.506100957429704,0.13198602506873,0.268299788893987
35.51,1.78882008902712,-0.27860303277463,1.70054851032323,1.02305910245887,1.51736439312113,-0.704496104662995,-1.88870888468381,-0.611506990968395,2.03810751395921,-1.50907952137213,0.136342118174252,0.541353729569105,-1.38330449007613,-0.745057466021243,-0.141976442549984,0.546864846568822,-1.40184266567946,-2.07930144005695,-0.832996189186729,0.0155399445487931,0.562846746859107,-0.388060325923596,0.174397375239846,0.262505628828553
35.515,0.28075737521731,-0.142527838492746,1.42955044972131,1.68422732612129,2.16328709538809,-0.604190510889227,-1.61152847706467,-0.796434612120207,0.939057284272036,-0.463213622662249,-1.07962907736849,0.0811167235113542,-1.75929564544052,-0.616152343824362,-0.357117220021014,0.445858416264042,-1.30501715752724,-2.3690645686491,-0.883264121384549,0.0543396145176186,0.536330205622315,-0.256691088066709,0.232328814989149,0.244572574515162
35.52,-1.21018727489505,0.144412743728963,0.73967472568869,1.55735833882215,2.17245289978242,0.0593626092210672,-1.31827307632515,-0.496544407766064,0.435807200361032,0.648318821592595,-2.31656178636379,-0.372477235752314,-1.96296109062851,-0.305019282037274,-0.625449290446786,0.313251488064278,-1.15287669256909,-2.4777061411146,-0.954432232296193,0.112147000038617,0.518989230328144,-0.14105918178972,0.313836448393276,0.210661149322778
35.525,-1.42058835739266,0.265572693500717,0.0844532286075133,0.70544292041298,2.07164636705474,0.489409042000012,-1.06016391717659,-0.212895030819296,-0.325535281742401,0.258458977038764,-2.42395738710275,-0.476373363444371,-1.93709488273959,0.0696346914902218,-0.836282548839399,0.210662935245185,-0.888975484414095,-2.05226375284711,-1.03542598759441,0.164517000075933,0.49440744824505,-0.0829752395592693,0.403699072371538,0.165478418457575
35.53,-1.37019498549795,-0.166628276896936,0.221744501459983,-0.697100898107412,2.28680517904404,0.482330426050662,-0.794865989734641,-0.0668284130211389,-1.02373585066964,-1.07555409946476,-1.6887727828243,-0.385646814508757,-1.60774895126738,0.389173535215225,-0.944305544982202,0.228898385927251,-0.488904284874107,-0.912036875134866,-1.11432038831326,0.176020946472928,0.455105912234679,-0.118395070587157,0.435342044806676,0.148271306456808
35.535,-1.32611696552559,-0.324116471290411,1.14817663519119,-0.712242187130333,2.42868082326211,0.0126762237597535,-0.63303006876199,-0.0207925460211305,-1.07637719969592,-1.05438385789109,-0.633653232440357,-0.132070780315342,-1.35751564789805,0.533700211393337,-0.966041304312178,0.198085278345022,-0.146028084077468,0.146169199925405,-1.18385086837191,0.15580068442074,0.410042551114664,-0.248217603405618,0.360827337935251,0.170204857733454
35.54,-1.50878764636192,0.204242723500631,2.260766173111,0.00615436112404889,2.07049601059593,0.0227919875854196,-0.679734812142583,0.176717226210276,-0.693591998383214,0.117748783605748,0.611035067296265,0.227689988179375,-1.07212729871268,0.586705899343379,-0.960277181023236,0.0550855856559529,0.107349114886526,1.00295182190144,-1.22174640333721,0.102484001475912,0.38033026709985,-0.453407395253485,0.21327331276491,0.241588610076117
35.545,-1.40650531822655,0.465683859204248,1.957396632586,0.441487465313786,0.738261575790052,-0.103639447358325,-0.948477508862895,0.470728920180125,-0.20088023639701,1.30280532458655,1.69895397339455,0.623456059545737,-1.04310708393936,0.531319743358541,-0.859948888530847,-0.352045660643096,0.0990529569024979,0.990198553845809,-1.2607306156689,0.0753451542220569,0.383457161566767,-0.602599569069135,0.0727610543017186,0.294332381630516
35.55,-0.906424794915256,0.715493373675548,1.05492852736529,0.488706695413668,-0.250710145861257,-0.270284332039914,-1.17831617418577,0.65099313839297,0.0770450505038405,1.42827668480458,2.12917581998851,1.17502064722375,-1.13923267872116,0.468555736259102,-0.755482366419316,-0.907793834698493,-0.073619144499274,0.358687730205161,-1.29616287210964,0.0679771649832981,0.381586051346588,-0.652188684950903,-0.0866186279476565,0.367208177548392
35.555,-0.406995702764677,0.495094969123332,0.607808812026486,-0.31293399214509,0.0254186975950398,-0.303783942063372,-1.27929571332204,0.658812832712721,0.287311885622595,1.16172640322779,2.02589112629572,1.67567012926988,-1.23658011439295,0.408131737197349,-0.668499118129893,-1.23010623877435,-0.301177987964361,-0.588661789738822,-1.25667883666117,0.079786776792118,0.356205379468865,-0.559471292793385,-0.258587588074178,0.4794541642921
35.56,-0.199768177857407,0.0195023017118642,0.828804769033597,-1.2125180089345,0.753961801140456,-0.273343348085506,-1.28674802302494,0.498149984044339,0.510744256079453,1.22327554687549,1.29339693860172,1.79787432105663,-1.27031430658071,0.361836699062973,-0.536008204709477,-1.40802536367358,-0.539172740228388,-1.39051102023328,-1.17905004339304,0.0826745745921793,0.318059922863634,-0.507872877521945,-0.276579305253523,0.476196920794672
35.565,-0.239703224459985,-0.156833529328556,1.05992954677986,-1.13527352620355,0.982764293381908,-0.233834577682755,-1.21000548044378,0.422196422844909,0.456153262122792,1.46203468112684,0.832659141345558,1.55938194776809,-1.19394496261884,0.365120716933648,-0.34860358517889,-1.42229503014691,-0.626729076347472,-1.43142294535904,-1.13162252615508,0.0650733408379622,0.280128396102443,-0.520404565268296,-0.154951660572638,0.39573629857292
35.57,-0.445411236407429,-0.362538857145342,1.25996500366877,-0.526543865422993,0.873403870987228,-0.193811485695474,-1.06938915924491,0.474622742485542,0.241988572194043,1.26866894339612,0.544101228825941,1.2456647070051,-1.06013630437678,0.406137417991979,-0.136727441169671,-1.24449672531044,-0.612073781888042,-1.17267016076212,-1.07209161178269,0.0255582644676951,0.229478002049696,-0.554588699369704,0.0327215267778636,0.330890209169376
35.575,-0.665948969672298,-0.286028214515832,1.16330076959615,0.307544364646699,0.533495029941792,-0.241953149351492,-1.0038270818085,0.518845613556172,0.0657321846686924,0.705654114105296,0.627489761326272,1.03020925168972,-0.972157701815785,0.4190480251906,-0.00569980755848176,-0.802325620150464,-0.561856202657369,-0.896295290842284,-1.05387547072861,-0.0098186316681648,0.21464045281272,-0.559411806407584,0.135310652921973,0.303390166593003
35.58,-0.763575031520477,-0.039629422391975,1.03119063801569,0.725992927311048,0.251471704645776,-0.36875877548607,-1.02056146088739,0.206276866458496,-0.0999859866812935,0.639823792884149,0.976318785368817,0.848475139640713,-0.881358493441357,0.372447694444428,0.0961402186494089,-0.210181849044982,-0.484942182445053,-0.642699995323303,-1.03799528913558,-0.0344929086250342,0.219841059530701,-0.592059135153605,0.151797041311129,0.27697011845427
35.585,-0.663785638792547,0.173529311952748,0.987194876923328,0.645284895465808,-0.00132118311324181,-0.360074912612756,-0.996052584910487,0.0410644545939714,-0.1084196390101,-0.274526428569202,1.20273450272888,0.895433020441158,-0.827674781285873,0.234709005000389,0.198541039535654,0.257270216093042,-0.469571363530292,-0.540093082723009,-1.02346495653495,-0.0350116624870055,0.247605401131127,-0.618455055784595,0.12598537094329,0.237558246269967
35.59,-0.573291176697164,0.167054584193921,0.991789825965292,0.251358128386546,-0.125008716208905,-0.284031314499649,-0.910631317665921,-0.0848725932718108,0.0651730145568176,-1.29139319158308,1.26257685509119,0.766293759512833,-0.792057590782393,-0.00204388399969168,0.304808772135521,0.458873312462671,-0.536916319508831,-0.672061464809863,-0.999169882020561,-0.0272611341653042,0.267077474259453,-0.615507521989339,0.105512561437692,0.201550930083855
35.595,-0.516174100121194,0.0676038157535446,0.982044924270959,0.0762146195905282,-0.129609857268972,-0.2524004453394,-0.89007985170513,-0.106915655081864,0.201569721333483,-1.73609693552972,1.11321772862656,0.496103004862433,-0.755187775754186,-0.205664756217297,0.396025377704925,0.308592217777279,-0.663185198256758,-1.00326545347478,-0.954794942075523,-0.0211466947631763,0.26854582625541,-0.589105150470264,0.115735134072796,0.16324185392983
35.6,-0.451830699837357,-0.0373657808172344,0.975660978216306,-0.0128766279090865,-0.1026382585245,-0.241054073690264,-0.901178351182446,-0.108511692847922,0.301501189963174,-2.02313914267048,0.950714253299705,0.251105474616044,-0.716739502746329,-0.376597972192713,0.477411334464017,0.104382908460408,-0.789534825830733,-1.35829779680097,-0.892696959473547,-0.0129541977464838,0.259856701148901,-0.54365591670501,0.148691898047622,0.11595524373141
35.605,-0.385876846638268,-0.0623592153102298,1.00986630626995,0.0971007290070334,-0.0636375973707317,-0.293405793170406,-0.966463529680579,-0.102416919214313,0.290200972682976,-2.0222529118776,0.879440536791097,0.230813369473808,-0.668483559296849,-0.427962432437108,0.519516212721906,-0.0634945909461148,-0.855780099179696,-1.70546747728704,-0.860793685171264,0.00105937003175531,0.253062164708289,-0.520023302913828,0.199378853718339,0.0890601398150629
35.61,-0.382926823601183,0.0424387353724085,0.999268109303552,0.233788516048899,-0.110925445682917,-0.360053171084586,-1.00545051356399,-0.0860647528942669,0.239678727363553,-1.8629590257242,0.930749260238521,0.304997811102705,-0.67211439589149,-0.396413245610084,0.545436839086743,-0.0918978403884116,-0.867961999170775,-1.96852354716264,-0.846347782971726,0.0316409983949797,0.236557970575569,-0.513180736451268,0.215800029654339,0.0984893006231768
35.615,-0.398620403648255,0.147898580356578,0.922231920463077,0.238248037090369,-0.107379054273677,-0.406211081593764,-0.999290138612866,-0.0384788740545672,0.213431522324942,-1.51450822755719,1.04609564272491,0.322430202775111,-0.699085462900004,-0.34044225271813,0.512239820487475,-0.0455270938048075,-0.847755043338146,-2.09835411891023,-0.833568372503113,0.043215225077079,0.218910109878361,-0.512819528579712,0.221372987699842,0.115569605057802
35.62,-0.451205764626435,0.156694741993605,0.918676901917212,0.127845056924259,-0.0655150520462011,-0.410877983620333,-1.00105563415636,0.0360150923328031,0.187072627149718,-0.97549632050573,1.10654656729575,0.387289934321653,-0.797939644061972,-0.221674834572498,0.37558211437381,-0.00520275593728,-0.777849371014277,-2.05052358576956,-0.814578726241355,0.0521290237384173,0.190096259351992,-0.521123184160435,0.239624519636499,0.0910512801833067
35.625,-0.46891387888835,0.0774574636853658,0.931238032693129,0.0650927618440334,-0.0652087823749652,-0.419625550884513,-0.997791356218455,0.116192457162876,0.172814443362294,-0.304502513026474,1.1042471556989,0.523857758021989,-0.931564067030594,-0.139698279984275,0.233946221498011,-0.139498020640291,-0.686586719401655,-1.87165009695523,-0.815935891289865,0.0835381446826843,0.171221677958965,-0.527043375088175,0.234939009577923,0.0518573610597376
35.63,-0.484521244642926,-0.00171404616535108,0.948025813391614,0.082345369263495,-0.0842952501777694,-0.426777621664831,-0.992053471755804,0.17715261281333,0.15180353335557,0.550555562112044,1.04864861304546,0.706475280117433,-1.07332752476941,-0.0854157318467036,0.107491056156031,-0.493929438049633,-0.615888885056991,-1.62762349268542,-0.813761775472599,0.126972674764515,0.161446698746265,-0.56171915219138,0.227613258747373,0.0467324119739815
35.635,-0.433143434179004,-0.0192626830211867,0.946661430146488,0.171406576089058,-0.09501501267333,-0.43643479696754,-0.965071617066169,0.214225265667169,0.137194979647495,1.39368520260919,1.01788651894119,0.841153030230724,-1.16045767416451,-0.0668653265945529,0.0168740992917943,-0.981077562316811,-0.537483102934733,-1.328064520836,-0.805304368106079,0.171892643035845,0.149486458124932,-0.609083945540227,0.194772355030264,0.0592582031323563
35.64,-0.435629490915609,-0.00568997517026172,0.945557006516823,0.221587506958604,-0.075714630438102,-0.4306935467195,-0.95432137288132,0.221192280478524,0.124074476760496,1.98631806710487,1.01184189319611,0.85300251850056,-1.1817008951227,-0.0788234941992771,-0.0402607640219659,-1.36468331032322,-0.432416749672542,-0.97247032297997,-0.809249369640917,0.223235541234467,0.150622561144363,-0.680650258427527,0.184183832493376,0.0683044026902273
35.645,-0.450162321125584,-0.00106351126801964,0.935835727601229,0.241576725643089,-0.0729252373899186,-0.434848779838493,-0.965661349500511,0.20760661874911,0.120470911453259,2.30952504964271,1.00574737287012,0.805517928447628,-1.13938739998236,-0.119832079170751,-0.0708928300430996,-1.47085789999524,-0.285556599594975,-0.572305285865079,-0.805398867616175,0.24599431716195,0.146716669098491,-0.720298232612314,0.185580969130774,0.0769016086620995
35.65,-0.444916140549585,-0.0108572414361866,0.945946863436276,0.232548225066829,-0.0846289500627309,-0.449854322959147,-0.998012885955153,0.144532381881422,0.122868977267936,2.29455491038554,1.00056224458492,0.769915483845067,-1.0784763768458,-0.179869371235182,-0.0817490452291496,-1.27403637765528,-0.17607607134947,-0.260908442315478,-0.816390895556911,0.283214737719631,0.14424070657146,-0.762899605115492,0.19686854129324,0.0780979940832299
35.655,-0.424560914989798,0.0135886823104803,0.924881907500231,0.244851601194329,-0.104831147514397,-0.448755496834951,-1.0282249602981,0.0893673664946817,0.122792601070637,2.10210199089255,1.00456786117076,0.752826989838287,-1.00173283089904,-0.261950834934432,-0.107402909098933,-0.902168250228414,-0.124196593830637,0.0077957974114563,-0.825797202031682,0.309058221407305,0.144174781898131,-0.792532523123279,0.213545143932585,0.0930516147678577
35.66,-0.407968234115742,0.0295446283315273,0.930175217794373,0.202175594153764,-0.0903434426347916,-0.440032856108826,-1.03575608541247,0.044851334643051,0.12032787599335,1.69775558947703,1.0207802748374,0.697704592254311,-0.955555337552129,-0.291287092927268,-0.115022925579117,-0.538245360783995,-0.184336334553079,0.00586302061123933,-0.857108537602859,0.327852017652906,0.145077519665014,-0.85232050963769,0.226174124532371,0.132640104926873
35.665,-0.406420173488124,0.0110345231456774,0.937610034461929,0.149688843798843,-0.0962428153634598,-0.428160124085653,-1.02869383212042,0.0475726645960362,0.118023976132037,1.19388802516481,1.02038232481756,0.604448630745763,-0.907336717046511,-0.252141523499918,-0.133790735888141,-0.254439890308731,-0.299004614244517,-0.156609613670274,-0.885331424614908,0.344515780355574,0.148589626013891,-0.887129511552667,0.218339459216746,0.176054359126615
35.67,-0.406243813864482,0.0124428075545253,0.937406723761041,0.105224877124361,-0.103571584855541,-0.424506785021107,-1.01539879954715,0.10258833651406,0.112895437484344,0.612642213448117,0.9609943712335,0.513113372104421,-0.882546144485242,-0.173042095834876,-0.140273658370215,-0.0994682574034368,-0.411680131862306,-0.393375109016127,-0.918995131081312,0.354050750903805,0.155327334334732,-0.938421296467264,0.195804647577122,0.240346090776735
35.675,-0.410165493089592,0.0191365331066431,0.930637211540603,0.0792258397175597,-0.099026201802435,-0.392275952667213,-0.997417036239569,0.156495680339586,0.103841675352051,0.101122973338931,0.907049848085453,0.456350667505405,-0.885397857740194,-0.0691857112928803,-0.135464365975033,-0.110339608750613,-0.49868418971249,-0.716781938376511,-0.960691550812515,0.347560823835108,0.167080458592692,-0.976753077175044,0.172606838852268,0.295429659917967
35.68,-0.403039706808407,0.0109106219509829,0.9340892351163,0.0382780014634233,-0.080788790094605,-0.354597118803546,-0.979251382309165,0.188722629529109,0.0948339693825639,-0.273485324097789,0.867178444240982,0.431261425340825,-0.910811690466836,-0.0122387683780855,-0.144693026686972,-0.298068271954619,-0.493736423326457,-0.956822472101587,-0.992419978226968,0.337318101704517,0.169945830528388,-1.0175471693372,0.174268641495463,0.362088006489203
35.685,-0.408804912237853,-0.00957947003533294,0.939571886958644,0.0105369150542739,-0.0715758552481936,-0.318375093304347,-0.965861144115926,0.184153175865681,0.0908607852845977,-0.52380884241268,0.852430862244719,0.419474377701716,-0.963285673446834,-0.000435463111626692,-0.118301933886971,-0.636708902256595,-0.417202582325431,-1.16236505757069,-1.00863074642166,0.330718355635294,0.179710354191551,-1.04406288466231,0.185941935042947,0.390535974009703
35.69,-0.404265788572887,-0.0349075739185499,0.930385282433773,0.0286383380220806,-0.0519363970784728,-0.270119782784294,-0.973065693055682,0.142530400043473,0.0966975573868953,-0.548855617193852,0.851217394212139,0.404652206212615,-1.01906242525316,-0.0199322137753198,-0.0744488351205548,-1.06070107472536,-0.284515574698681,-1.29797515425078,-1.02538106592102,0.317667460009544,0.191522381606876,-1.069310885452,0.19317668875052,0.414116298381456
35.695,-0.404946627618453,-0.0233940027303401,0.929851609428772,0.0972683163490169,-0.0326938909734913,-0.237534176898035,-0.986043738958512,0.0745259591906566,0.118787604154174,-0.315912075176393,0.865229831210164,0.378944532558677,-1.06779269400202,-0.044352121890847,-0.0167019444172363,-1.42463289544736,-0.141594352386782,-1.34100719081882,-1.03029960708979,0.296589988001008,0.195134668186807,-1.07921189014384,0.199272419539695,0.430003042174258
35.7,-0.403030757594931,-0.00382850085573703,0.930868539457992,0.172193146851498,-0.00789536701245914,-0.189301723393285,-1.00720367152675,0.0462589065882956,0.141506434948538,0.149005352756999,0.864016771316528,0.347378012291019,-1.11011457853628,-0.0596580658699418,0.0527816103001029,-1.73284863440716,0.0178910521284648,-1.30277133244708,-1.02996084675054,0.263161778039973,0.204571377876897,-1.05613241085671,0.208772253379273,0.424701496982187
35.705,-0.395015259992935,0.000953448573312162,0.926375837748401,0.230603872980111,0.0106499960042786,-0.165473077320283,-1.03449651887004,0.0473176243256155,0.160794755393316,0.692811668878626,0.85714126005601,0.317911795152326,-1.1495834107034,-0.0497450268762584,0.124188290162734,-1.95211270717908,0.157349967195712,-1.24140281418951,-1.02660407465639,0.229784648468477,0.211894056798547,-1.03096653834642,0.213859414282803,0.420354172606653
35.71,-0.392630762351098,-0.000691637785051248,0.925907349641463,0.290635109548287,0.0249764110935931,-0.15306029712666,-1.0540702839975,0.078496831639591,0.167312048678831,1.19884646069613,0.831945825088104,0.3187283612898,-1.1754960227871,-0.0261425183354366,0.178627837507583,-2.04044209861596,0.227436096923568,-1.1581178465719,-1.01992936667018,0.208122260346916,0.220462270788657,-1.00766210605707,0.211388423377398,0.409694168678461
35.715,-0.38174802055276,0.0323866858509701,0.923398111418318,0.384129679710631,0.0562880660417352,-0.129385386302323,-1.04951602181568,0.103162206703106,0.166101549769897,1.60475790355769,0.790390296979326,0.331727953215411,-1.17771215924309,-0.00428254025450367,0.210593945763023,-2.06067824612753,0.254140979289685,-1.06846687446695,-1.01336091544381,0.175410729132947,0.231779859529272,-0.985067039075255,0.191822656659214,0.396049429681832
35.72,-0.377020853950485,0.0380550455106957,0.928178506863869,0.42571992808163,0.068255247127482,-0.11324997282313,-1.01513955879772,0.140709329100536,0.157622358947455,1.87620790519002,0.765399648049673,0.347987000786184,-1.1565102658045,0.0206260278136269,0.237495398924701,-1.91041209709577,0.213648318580121,-0.925217669789465,-1.01706035941013,0.141071790949653,0.235271783658129,-0.962713528417534,0.186239064343158,0.377928124653335
35.725,-0.372382659164682,0.0404006105124143,0.926136762926229,0.437872613311141,0.0736907814930024,-0.105797835573022,-0.977750676387934,0.191929980904803,0.146696957380929,2.03669769081173,0.744252181901654,0.344864107262101,-1.12625941660939,0.0284048656868378,0.244588436356611,-1.65662135049888,0.145476736749794,-0.802136264749692,-1.02215002843112,0.106162752856629,0.233887799562514,-0.935943995665949,0.171540749029148,0.366800422248426
35.73,-0.376940367780258,0.047349909433652,0.930440162240532,0.457035770344703,0.0860785370573312,-0.0992139656932508,-0.951699999812899,0.237802231291015,0.134663127820943,1.98101314459782,0.722403499018051,0.318293141214022,-1.09203893012093,0.0266368870868885,0.242129853426854,-1.24442327949292,0.0519746864758741,-0.704347187871211,-1.02502181982789,0.074606603641949,0.229821059918346,-0.906248083867271,0.164127632975578,0.360539480165708
35.735,-0.374989527260532,0.0632275090209931,0.924280950606739,0.458420974001178,0.0767511793324958,-0.0934074592852879,-0.932857884276018,0.28212963253421,0.112301416920038,1.69665696260275,0.681796693702313,0.263240666223519,-1.06320471391065,0.0085711638844056,0.237986922437816,-0.663984029344851,-0.0698179797322817,-0.639783005534206,-1.03402702601868,0.0411887865231748,0.227965102695524,-0.872149484969077,0.169737043665629,0.351212305546543
35.74,-0.372433393754882,0.0693441635969001,0.928463247074029,0.42391636156101,0.0657367411351528,-0.110463172197342,-0.940695723926964,0.307155153358543,0.0979147090065609,1.31601952710983,0.635051581021047,0.196934249619787,-1.04054026862161,-0.0219109295051413,0.217697419015422,-0.265938345980065,-0.151599134438886,-0.596982134498732,-1.04054954687252,0.0237041898546564,0.223558878181363,-0.829033413631895,0.1886343533775,0.321211775913711
35.745,-0.373920233532529,0.0674830810324564,0.925666695054578,0.392290960754415,0.047154448509212,-0.11751256309237,-0.952657289921555,0.31788891883375,0.089624676825123,0.906135527882482,0.584727566677896,0.125462204733351,-1.02345296245659,-0.0492617460208131,0.196968252009504,0.209264960066838,-0.250584052323968,-0.574172419738302,-1.04709347968955,0.0101278510220099,0.21235875067795,-0.77449976232077,0.216668117833786,0.283883237116943
35.75,-0.378025447839073,0.0649118268075926,0.929006402588455,0.326557726997173,0.0330404568820814,-0.125834349271578,-0.96885802502102,0.304514835700098,0.0863791312609545,0.418694401588556,0.520746089975977,0.0420694038596812,-1.01062509946962,-0.0592209341752196,0.164665423393766,0.509386649177721,-0.297096110826083,-0.56860025970737,-1.04699185127372,0.0060098506357125,0.20235085624396,-0.720546248149567,0.235755393744122,0.247628091314276
35.755,-0.380250544806165,0.0686523396907064,0.929468930368347,0.293289746651406,0.00783884896630157,-0.137741869174482,-0.985398819551836,0.289855257613261,0.079398973870355,0.0639361894509701,0.477139046952352,-0.019881770478739,-1.0183612617346,-0.0508487113242619,0.0980695361602582,0.772134417513272,-0.362647748854777,-0.569713099222777,-1.03760517088495,0.0146446924194525,0.19865385729137,-0.677660414251777,0.263508709976293,0.199087756599402
35.76,-0.380642382458941,0.0730438353690292,0.927748454085675,0.242164064373671,-0.00364750887854364,-0.149580593472759,-0.992271076703512,0.24933101945569,0.0800561990506626,-0.14522003760268,0.429675241180209,-0.0619050376575469,-1.00023955329626,-0.0606903952272088,0.0920616167541613,0.786359824380175,-0.361595456444641,-0.589784360073167,-1.02846850072954,0.0181940915583734,0.197535717269838,-0.658581299462422,0.279527967439328,0.164755523283286
35.765,-0.386567760134066,0.0616345687265893,0.917603433003294,0.17664036363325,-0.0206614617824271,-0.156976762886753,-0.995345809895281,0.198149795115876,0.0838289347313296,-0.201511159182107,0.3989854953545,-0.0870251699298404,-0.99672261095329,-0.0513529145295324,0.0440902095988223,0.882605079948889,-0.335052622863515,-0.634443279455725,-1.01971177195568,0.0398156658128146,0.1991840869183,-0.635560431817767,0.293398659649989,0.12121018418754
35.77,-0.382221213495092,0.0645546804749963,0.920086820112797,0.154246929102905,-0.0231104718282025,-0.160045134522143,-0.988500287114184,0.174707942473948,0.0816910248571043,-0.123854667356736,0.390833856874393,-0.070871991328566,-0.993231911024176,-0.0569341201382464,0.00783019391092765,0.992736805430154,-0.283269742689799,-0.690534979645285,-1.00873844467696,0.0482380394511981,0.207865239596438,-0.624638614067671,0.302009289152195,0.0898539631809028
35.775,-0.376863937765668,0.0626658512972322,0.92590000228258,0.138251710191142,-0.0273210770549181,-0.164151627078425,-0.987125434603279,0.145946128337874,0.089167532891506,0.0862338993972472,0.377709413419562,-0.0140240791194878,-0.98624383490192,-0.075512366787422,-0.0179989759759063,1.10637651050522,-0.248495113550563,-0.76083613439221,-0.992971699186915,0.0692721622673103,0.223791185265614,-0.608016217304716,0.319378349502135,0.0680202475294879
35.78,-0.375177715073143,0.0602859770411734,0.924525498617939,0.128854530774146,-0.0320756584405899,-0.163178319498901,-0.985736664027342,0.135992706781207,0.0853631018980551,0.343610377045396,0.367113893092617,0.0340530897047126,-0.965507956421985,-0.105055354633639,-0.0469850452447973,1.24333071350794,-0.197115236104368,-0.832543599098051,-0.981556481371307,0.0879509731306581,0.229848709281427,-0.609109528595096,0.328608694887384,0.0505741203030766
35.785,-0.376258243402067,0.051128027899968,0.916691792530547,0.114702361586589,-0.0359898451124411,-0.160137475991697,-0.984994458080934,0.12661564536811,0.0837795863863169,0.665649072209047,0.359226144525085,0.0877846959621073,-0.955752685370014,-0.130867103640742,-0.0647595017895931,1.34920100403707,-0.166953337219175,-0.874740308528801,-0.970620508912154,0.0997219237375612,0.232072919982151,-0.611322879604023,0.336945105797477,0.0437684841454029
35.79,-0.380949231861649,0.0450374744635375,0.918424666214194,0.133124326103821,-0.036485449800274,-0.158338003583244,-0.974455567986414,0.131268365682225,0.0776670509755216,0.917555223928674,0.347104931502515,0.12010946580252,-0.968296488402781,-0.158815248641555,-0.0824303915955811,1.46442724235128,-0.132488302576967,-0.893233049962968,-0.971481413548436,0.120392865058392,0.248681830025493,-0.611079306390358,0.345464917334004,0.054244015949358
35.795,-0.377079432992992,0.0393362339729232,0.922982864319749,0.122778164645718,-0.0452697438703691,-0.15424852794086,-0.966695732213924,0.145994469004404,0.0685424756624749,1.15223126443691,0.323650693763862,0.143619419855142,-0.983064957005016,-0.17151039068509,-0.0988352930302643,1.52078791194299,-0.119437368688627,-0.901936348323735,-0.973210758468562,0.141318899473896,0.257604475316932,-0.61296335442473,0.352163214716931,0.0750407136037967
35.8,-0.38327764939525,0.040149148777404,0.919915882440223,0.128907973598396,-0.0394058227539062,-0.149904006421883,-0.959044598732061,0.158702473194945,0.0538911927298363,1.24323263449887,0.304658292305042,0.155466982359083,-0.987299753145134,-0.18921220759839,-0.0964951093150469,1.48505247179761,-0.108487631200977,-0.865065880539921,-0.975248936174232,0.151585319363366,0.264007824208571,-0.604044146140025,0.332344392829784,0.087724130102442
35.805,-0.382866195764479,0.0416694344937476,0.92470629486438,0.126277465560776,-0.0420258124269803,-0.142264125921383,-0.96026714909518,0.178945742406828,0.038974507422017,1.2258537338249,0.294593351123237,0.142427680948992,-0.980001873863286,-0.208272577099076,-0.0809383008141515,1.40511042466505,-0.0802720237319007,-0.785211303096498,-0.974293107937688,0.168232583774862,0.269306834791152,-0.580595817513117,0.302297102153685,0.0976965798782751
35.81,-0.380269363850677,0.0507769615295598,0.921229755869192,0.121856820514629,-0.0423819105343675,-0.138718456652226,-0.962053995848209,0.196787082578695,0.0254658327766797,1.13298020809649,0.297555836721155,0.112147167199266,-0.975090822182314,-0.221505000303915,-0.0698235840210322,1.33248674740163,-0.0500570912118832,-0.678326339991449,-0.968563015262809,0.18364207416695,0.273048204113049,-0.554535938915687,0.274258967296284,0.111408623894148
35.815,-0.383897190715041,0.0440746117594183,0.926151254500504,0.108106606687795,-0.0446592980359723,-0.130167430904869,-0.969424578435071,0.207103470115682,0.0141249729193691,0.957514032651798,0.295959281454826,0.0716131688574973,-0.962913132025353,-0.241545466421086,-0.0505736630897958,1.24206513247377,-0.0182203428574144,-0.543914504946721,-0.958187951458547,0.19392934062285,0.277304022132807,-0.517286949297594,0.248905959280897,0.128901974474948
35.82,-0.379143007342111,0.0409538851213795,0.928159382005878,0.0816991607274453,-0.0528444647789001,-0.130238958932956,-0.971835511301555,0.208841130014273,0.0047442935256408,0.618669145984691,0.302268905789908,0.0302599413373888,-0.945429496699872,-0.264346632339773,-0.044827740132832,1.13277110824865,0.010703599962848,-0.39385889976289,-0.945849336621033,0.20638296016197,0.283565107819306,-0.483242756000823,0.23723192776076,0.151512442272504
35.825,-0.379551443025678,0.0435144249691543,0.929278060125752,0.0592626079212706,-0.0522051835340114,-0.124015551097452,-0.9724584647412,0.199730292288251,0.00284918978543609,0.322122691398842,0.320375844442402,-0.00148044422793492,-0.93715514603433,-0.292080895220348,-0.0256390360827523,0.974830515832835,0.0222453869081812,-0.259457976598041,-0.935720717145117,0.210385429682774,0.281968733824152,-0.479098331567893,0.237915587064872,0.179831309825976
35.83,-0.382015266366616,0.0482772283340019,0.927635774848216,0.0241733102061238,-0.0554740699036552,-0.116716948512489,-0.981356400584259,0.197218542087146,0.00480510367129278,-0.00906645120505243,0.332475048688933,-0.0415834695744251,-0.922452097076411,-0.310236605410698,0.00187819415608728,0.764708979850436,0.0200403565248806,-0.199710475397614,-0.926316296884047,0.204634953830156,0.271711893326159,-0.494544758661083,0.243989147885435,0.21374750942658
35.835,-0.374470058446739,0.0547504544455279,0.917960236958427,-0.0244771538023896,-0.0577430545517956,-0.12836126201356,-0.983700055355587,0.18780355291499,0.00362994671186395,-0.259363672219053,0.339693703675878,-0.0685569903952327,-0.901946355048275,-0.307321151124361,0.0257733006548359,0.444718863719184,-0.00173620513696535,-0.185007108877588,-0.921965014034216,0.193233465563642,0.262897184440118,-0.518392336957888,0.257868478597911,0.249328378556068
35.84,-0.392150077462325,-0.0150807251437725,0.879712657434535,-0.210579365861156,-0.109881399001008,-0.199961818978165,-1.00097881067113,0.145506269373156,-0.0843635873979011,-0.513214094128849,0.478113297084421,-0.0199320536466209,-0.898568812765663,-0.282841053346525,0.0383599679027605,0.204888284123686,-0.0213195065934367,-0.215187642194827,-0.911237594251228,0.173016475200366,0.257365184594864,-0.524080670519848,0.269941112358248,0.284450185103927
35.845,-0.380115443598101,0.0568392680455382,0.95074216119657,0.0559827197645859,-0.085708432458185,-0.12947812423808,-0.930551039257203,0.100942519809261,0.0524703032570665,-0.20036402713157,0.496835176147405,-0.149985766744903,-0.903589197737518,-0.257599706552357,0.052787736999197,-0.0559863376237122,-0.043954854945617,-0.279431754111155,-0.90748320845723,0.15579946544376,0.255206018319104,-0.529586660013138,0.283116637340487,0.319514658585337
35.85,-0.395803413852955,0.152452555407261,0.914957852463807,0.173816040702984,0.0284604013996835,-0.145336400002308,-0.976018040842243,0.211483603374996,0.106967708482156,-0.0937235518214551,0.445952909483451,-0.193343994528915,-0.91970130815177,-0.223664567831988,0.0636831710292791,-0.303254833857548,-0.0576071142062173,-0.3617938580028,-0.900505748442924,0.139464176040035,0.251042815246988,-0.532191629134177,0.294676099547822,0.345878058101569
35.855,-0.352360149521824,0.0941837085928746,0.963738502552987,-0.346943300457076,-0.107290738109428,-0.141665516613403,-1.04129767672953,0.215793327396702,0.0477258533201678,-0.421950349447013,0.119669402905777,-0.104344944828333,-0.932446452538626,-0.199628096813111,0.0686743196896706,-0.517108461697591,-0.0656184549771334,-0.420840598914892,-0.898082454255234,0.123528972423469,0.243427110064078,-0.531144917011261,0.304344370972159,0.367904825674662
35.86,-0.397063289510156,0.0676321537596845,0.916828414161867,-0.0298954463485241,0.0149085859786829,-0.130199531603777,-1.00276818033231,0.282644031170883,-0.116145662168317,-0.803388555287567,0.194177310209821,-0.00459904183855605,-0.953803512971797,-0.185639686150248,0.0829691397268363,-0.700086256740671,-0.0629510390074757,-0.468977168203589,-0.902190939001076,0.101863145496706,0.226629214447889,-0.523978660628162,0.307859239643434,0.384457333267992
35.865,-0.384929737182614,0.0506831333517834,0.918381087827213,-0.312106724982827,-0.0674286508382112,-0.13693525977856,-0.95900397466164,0.253834820424725,-0.105623536534314,-1.09320545033638,0.353938343506854,0.126356320580061,-0.968205021481087,-0.182262038444828,0.0933548906731155,-0.769064787906124,-0.0518686466305485,-0.490185097977834,-0.909691468435079,0.0918883340288953,0.219960461786868,-0.523987451772466,0.316761788594065,0.393220629783928
35.87,-0.385142366995659,0.0385658463203984,0.92029262149334,-0.302773545087332,-0.0854602250316788,-0.132056375136387,-0.928799500398165,0.194715254187443,-0.023165392211869,-1.25185032093618,0.523166267641932,0.193391577575235,-0.979068427213019,-0.174949031015272,0.096555490165887,-0.773869891895337,-0.0412541172328706,-0.503909618477621,-0.910364027267696,0.0840111311547524,0.216090046633782,-0.531308443507976,0.322431695573459,0.396674691476995
35.875,-0.374575920322637,0.053379059550125,0.925005275745736,-0.292972923542366,-0.0907821444181179,-0.128756015672928,-0.955414555574147,0.145339758364985,0.0694445252037574,-1.1944622970884,0.540990061904146,0.165003355756268,-0.98565450179832,-0.166239287793522,0.0950074370479232,-0.722264381703287,-0.0376011676504942,-0.499171213673055,-0.910615536283992,0.0802641924086681,0.22790912287234,-0.538046654697355,0.342174348179607,0.388800453861575
35.88,-0.379151811160202,0.0391457768113503,0.913515793655012,-0.289226652041034,-0.0935129125782904,-0.130387126628171,-0.981932328735252,0.141087333759543,0.0940649471932095,-0.976153278351237,0.431492592596012,0.100046690303716,-0.995010682923022,-0.160630756213728,0.0984916904729493,-0.628647288081307,-0.044069245696493,-0.481922468557578,-0.913179432414835,0.0863332344629461,0.236834370485964,-0.531435678557529,0.372746636315213,0.379094322832373
35.885,-0.371903231469949,0.0431259964814533,0.915333620034166,-0.266588056460384,-0.0871837622255706,-0.136031663678358,-0.985789888767641,0.154988541492095,0.0930033027163811,-0.74348013034006,0.32249745864546,0.0520916486177459,-1.00229004083886,-0.156740665400602,0.109503160116281,-0.468091515459357,-0.0616009753859956,-0.448630513651748,-0.921387426875261,0.0943888826357353,0.248577791700825,-0.516635727393097,0.388098829411687,0.357225659367952
35.89,-0.370046577629782,0.0496414337754315,0.911706891845456,-0.215891702068351,-0.0780397511592115,-0.142640227231604,-0.981375588024016,0.165328943823844,0.0762766218796761,-0.538655846530907,0.233259917025265,0.0285713770164542,-1.00242139814549,-0.162441662009214,0.110773850505664,-0.269088052918352,-0.074067924227026,-0.427136812193075,-0.927430017612164,0.102622563065561,0.249950079752611,-0.509654632062936,0.405219943438065,0.340582502204682
35.895,-0.371883384927947,0.0572163097289019,0.919115226030547,-0.188734600505145,-0.0822053276483461,-0.14865722147709,-0.984655939689298,0.170892298451819,0.0446498813913472,-0.312314895704674,0.184949191601324,-0.00704258606626773,-0.996661360231125,-0.168948332020133,0.100141374331796,0.00878900767828548,-0.10158411513581,-0.423153340816498,-0.939220677254864,0.107678240698109,0.267171690036457,-0.503351417506395,0.417832842535735,0.317071787933695
35.9,-0.371052461084075,0.044439597889448,0.919853816605153,-0.165027619761273,-0.0850629145472799,-0.158444477253646,-0.98581773671421,0.182626684362648,0.0289972244790561,-0.196363532342843,0.206243863974978,-0.0170691181999463,-0.993902725054143,-0.167568543715248,0.0811317313656929,0.187547079010486,-0.124261603961321,-0.439127990428948,-0.947947783228126,0.115524334767175,0.284684916742967,-0.490965599928685,0.410354496783831,0.294420759383705
35.905,-0.368096382409422,0.0425640406080061,0.922767208635054,-0.12659706588599,-0.0882093287532304,-0.162545884342104,-0.986250411446782,0.186700016590324,0.0321160475209126,-0.0385326426095076,0.235571038324376,-0.024033574471706,-0.997530276510919,-0.166046857248669,0.0612904525586098,0.313039427960851,-0.147348730167244,-0.455595410282426,-0.948042281660677,0.128187896061832,0.299793685098117,-0.479399324284596,0.383670374714163,0.274035153065085
35.91,-0.36693120596275,0.0424712175547757,0.929908169248841,-0.126955560697622,-0.0793904286347124,-0.16831248723958,-0.992387529735386,0.18658282823685,0.0407843375121379,0.050994278524846,0.255827148993202,-0.0125520220529176,-1.0058332054947,-0.157714623903865,0.0417786404273567,0.383393007914744,-0.174507563081359,-0.486477540665826,-0.949915762476526,0.131377738211237,0.304700858526145,-0.462899353788291,0.358404806817821,0.257109632529248
35.915,-0.363720185605748,0.0300731490379789,0.941769882387761,-0.134543802773759,-0.0733307870830278,-0.16538293009212,-0.988702763633393,0.186134246256715,0.043590758025929,0.0958743726572981,0.265417639918417,0.0187282750957176,-1.02197566950352,-0.148792909657626,0.0228611549244994,0.410108973011537,-0.189866590450315,-0.531678131488956,-0.949211132368624,0.144211882289338,0.307832947576216,-0.442750185211453,0.321189571855273,0.237650948853467
35.92,-0.360867016409447,0.0132008767850848,0.938322263586934,-0.155145972257287,-0.0580207186457015,-0.15894530280843,-0.980783567674229,0.189383642422624,0.0339369876876942,0.0462034448383661,0.29394103395406,0.0340344259419324,-1.03484298222963,-0.138565315213792,-0.00259444104032606,0.39937503884146,-0.192554043779279,-0.56238563792562,-0.94848673207118,0.154649276480796,0.30531228909642,-0.432404186046992,0.30387647524773,0.218617764039498
35.925,-0.365512964265645,0.00925512939401654,0.934314116994898,-0.157777822054709,-0.0415658559717206,-0.14389447751364,-0.97251610677707,0.175663076630882,0.0259647720059616,-0.0876941273768214,0.32885122615647,0.0321726749770521,-1.04647159952982,-0.128798108331545,-0.0254959893683499,0.335146402160006,-0.18276057631728,-0.580089256643814,-0.949038582450332,0.165364090768154,0.304231157441493,-0.430138187494529,0.257739461391637,0.198569712818018
35.93,-0.366884421790475,0.0212320556816318,0.939873187490264,-0.149826611125858,-0.0297183318256405,-0.126341841380834,-0.975589304140971,0.160427313702025,0.0292956513879346,-0.276364773958368,0.370947025105817,0.0173236371180607,-1.05394254354501,-0.122165974863466,-0.039914198026597,0.291213444732171,-0.166295269123103,-0.572000988085607,-0.94298445361815,0.171791562691767,0.302682633805042,-0.435528876707445,0.221370859664246,0.182854053516864
35.935,-0.362463374160489,0.0155313883797717,0.938084768325489,-0.162048805003768,-0.0332097308905289,-0.119973867192041,-0.988319056041205,0.145086980524017,0.0331686359240693,-0.455829658907725,0.400161223233955,-0.00344374088149179,-1.05666624055893,-0.112436562212137,-0.0523345198714762,0.259640269856515,-0.140614309291901,-0.566143680522114,-0.945810269296733,0.169684229278382,0.294188338491438,-0.453128884755959,0.188763836444561,0.162175371163478
35.94,-0.362286399459018,0.0131288461143091,0.933177433507196,-0.188619222414322,-0.0305142037833952,-0.109848731620809,-0.989462782291112,0.140984110409503,0.0466096155492208,-0.598310760816799,0.421402224430806,-0.0162195518084346,-1.05540801963858,-0.0981730358434959,-0.0626601672492497,0.266939787093192,-0.136520350324704,-0.55852243918051,-0.946968382959315,0.172361059949377,0.286026480902981,-0.46204330982409,0.163810505098085,0.151680263625761
35.945,-0.363358354914342,0.0145689892503644,0.929969329634589,-0.183578353328221,-0.0245827384890306,-0.0968617819226511,-0.985883224581746,0.146959118858899,0.0576294931006361,-0.693075761029268,0.418689430164399,-0.033126265454971,-1.04646967582028,-0.083774213095566,-0.0771341485169692,0.355468970131655,-0.123683605889121,-0.536044069920218,-0.952279344086255,0.165980645448434,0.285140414315066,-0.469355935973257,0.147957944944017,0.138543214629946
35.95,-0.367240172752177,0.0173859438409318,0.928711910150607,-0.175333087822428,-0.0131607993201964,-0.0854398438708949,-0.972928854721277,0.149154328951242,0.0579184201896012,-0.715933044972816,0.426136361025335,-0.0616664819132757,-1.03433101022925,-0.079248707898111,-0.079902256492895,0.492440221975265,-0.124859137630477,-0.517597799286513,-0.951428038297108,0.155960756989894,0.280694488583292,-0.474207977915532,0.136767649998217,0.132032057769093
35.955,-0.365516166155487,0.019372210033771,0.926508468073323,-0.143377014057183,-0.0148129739307612,-0.089098271370934,-0.967953177124825,0.147997958877238,0.0442428844488832,-0.696031154423262,0.431759154204797,-0.0768337573734075,-1.02633273297789,-0.0796036045731151,-0.0779388679452526,0.612813721314964,-0.124272067990489,-0.508714653967085,-0.950486364409718,0.146182087566425,0.281748705538477,-0.471558479476802,0.137112066295324,0.124676911044948
35.96,-0.366997819874193,0.0199106541744885,0.92731295478925,-0.121107780409288,-0.00870439264317298,-0.0727497101168186,-0.958506834209242,0.155387023476288,0.0390948404556776,-0.594596923360158,0.453399175791733,-0.101530595765563,-1.01414747884063,-0.0859219473055721,-0.0806023932037301,0.715450233768989,-0.136508527174753,-0.490971391450831,-0.948519688017753,0.143681075359999,0.278780575488262,-0.448606169155467,0.156316144399691,0.124900031310165
35.965,-0.367392767973166,0.0171798933471425,0.927757621219233,-0.0900247356152198,-0.00519837625324726,-0.0717380717554217,-0.947070271364509,0.163423901965729,0.0395232669652713,-0.463911351977806,0.46826537219225,-0.111991658083211,-1.00832213610212,-0.0894121179578334,-0.0755334959695254,0.772570333572215,-0.134605707133625,-0.486737750978963,-0.949969434155804,0.128233053785416,0.281363704130467,-0.427800897573458,0.157574814712849,0.124104085667827
35.97,-0.366691674560433,0.0141224680457437,0.926433871541806,-0.0472188425571283,0.000558486816889896,-0.0734607270757811,-0.948351686859312,0.17089938768286,0.0406154312570551,-0.279886900835718,0.489916459452693,-0.110789358615875,-1.00089328135837,-0.0903804628776362,-0.066668534596148,0.775996136462799,-0.132831333542512,-0.469641470768635,-0.952107403423455,0.119907830142829,0.281010236374411,-0.400766893358609,0.163360287335358,0.123491620844917
35.975,-0.365006653135937,0.0217285454741107,0.923724439346941,-0.0498328282927479,0.0251015819714152,-0.0583073760274091,-0.949086067039378,0.178599503683975,0.0429677059171899,-0.113916181577306,0.503607746367879,-0.113248058617085,-1.00237566344886,-0.0928756425793578,-0.0579478423288858,0.736853549385505,-0.1245077513662,-0.445795088809756,-0.954679622086782,0.112322947718934,0.279471183219319,-0.368188408392773,0.179976278729345,0.12535307484414
35.98,-0.367659483214466,0.023104025330037,0.928012603692888,0.00703696130809474,0.017799341291389,-0.0739988481189454,-0.955770644543488,0.180526397049642,0.0436513725030435,0.0312537953399332,0.501239024852446,-0.119019426118127,-0.989783640418647,-0.09230945061848,-0.0461434158002859,0.676799671271111,-0.118498475391989,-0.414018771234469,-0.954195190823377,0.108697232790359,0.273994181187164,-0.325144643909346,0.191051122741461,0.12026504636859
35.985,-0.366684903341015,0.0304772441512199,0.928808312486742,0.0220475265130518,0.0259183285130725,-0.0707215968448826,-0.961141211735027,0.192962609934847,0.0404838054352635,0.158057684313974,0.512312989185252,-0.118119530379772,-0.98478180688523,-0.0866709427017833,-0.0358866238291167,0.627853033650253,-0.106011294123487,-0.366184057026924,-0.950189220630562,0.1078019162666,0.274159969425901,-0.290936904086799,0.188889040875848,0.117737670514451
35.99,-0.359925052993949,0.0350930812000559,0.92391728961793,0.0293270949487467,0.0301529312421498,-0.071109042361725,-0.970987896589475,0.204329840644256,0.0400036770312732,0.244566659783849,0.524195100173022,-0.12093719985683,-0.977248777717403,-0.0781222676154345,-0.0300151452737049,0.608280694468708,-0.104716412723064,-0.304499582398629,-0.950240422660035,0.108485017654583,0.269660232314023,-0.261548735868201,0.19750200047185,0.115311689133068
35.995,-0.361423779818826,0.0404484035321683,0.930313930431161,0.0666806688463911,0.0168786643957264,-0.0824795812236759,-0.975899717820966,0.210891131064941,0.0423277258240372,0.265609993997454,0.531736889815325,-0.118130040271557,-0.974767746705631,-0.073774763537505,-0.0262317721233072,0.606146835205734,-0.116793057749127,-0.242889713267358,-0.946039413315811,0.111289554797844,0.261815035938085,-0.245539110498296,0.201932494029766,0.113438916694969
36,-0.360883723951951,0.0375650492864706,0.924783589547261,0.0321334651136033,0.0184512261137029,-0.0882539682663007,-0.981015732954241,0.210844575896378,0.0287009440126526,0.224559622567356,0.535668942164288,-0.120562918484211,-0.9760524930871,-0.0667965199076643,-0.0246509829134872,0.664931201734907,-0.138009343719418,-0.199046276958437,-0.947702189599964,0.119629539400339,0.263050508742601,-0.238701129345827,0.186139468530534,0.108278217518833
36.005,-0.361643272625293,0.0316519286549982,0.925352688965139,0.0221267035309058,0.0118619687771043,-0.099139021215964,-0.977772668890629,0.208633939275254,0.024819173673284,0.158135716923184,0.529339525785916,-0.12416099729177,-0.983037326970159,-0.063772456383612,-0.0250462461691237,0.75039583981074,-0.168103133111608,-0.155537847865291,-0.948704920797211,0.120057560954541,0.264645332338532,-0.227716885651626,0.170949136112495,0.105240158219012
36.01,-0.36585020757656,0.0313666257283442,0.920404852920427,0.0166756710567594,0.0049354162089053,-0.109672206281346,-0.969885850854109,0.196333973345225,0.0154215250727931,0.0459154647379899,0.518148044017367,-0.126028231049739,-0.990320702678652,-0.0614088655371893,-0.0229144375636228,0.838699428435265,-0.191657477803109,-0.123805778490434,-0.948188860628017,0.127016202499311,0.266035369279568,-0.221220604883069,0.142592089248228,0.0982317683629391
36.015,-0.369916130721832,0.0303935478227699,0.92969209828512,0.00332942618553439,0.000867094804113976,-0.115306949202484,-0.962246579672628,0.175363680302963,0.0021885096245167,-0.0710851219599188,0.512251691272274,-0.126733583145609,-0.997669305903933,-0.0661604723514014,-0.0196413487970899,0.90794230837707,-0.231780944614399,-0.114057506117216,-0.95020422366637,0.127956171726722,0.27465933445194,-0.235260635664643,0.119198190729628,0.0938969949797489
36.02,-0.365861508131257,0.0217651157271019,0.925954420858692,-0.0138516621470699,-0.000651276867441577,-0.116166317363973,-0.967751149142441,0.158552653933271,-0.00779074975682228,-0.12826654919223,0.523726791783558,-0.134783960113666,-0.988721467438251,-0.0724571750347643,-0.0289506879817263,0.977564639699673,-0.243365555896853,-0.107840289344094,-0.938668852676624,0.123035011360052,0.273022803719645,-0.257205084126924,0.0976405182195711,0.0875141284958188
36.025,-0.395050485835585,0.0862886178396731,0.949548000533816,-0.0328757447413677,-0.00153329409658909,-0.127211769200451,-0.990228685656899,0.20926456021431,-0.130849205730174,-0.215297364920293,0.602232553986442,-0.135167743074024,-0.970445245104637,-0.074385957846976,-0.0421247309344789,1.09382530294501,-0.256024159071734,-0.105968681281083,-0.9183334278226,0.121366850820103,0.275467184895569,-0.255699630370747,0.12567319143378,0.0936138327103808
36.03,-0.33406626590939,-0.0671951917057111,0.866375948814018,-0.173371695486926,-0.118625379275963,-0.139172066381873,-0.98593368140998,0.113640051791033,-0.0574247074415071,-0.428844333281086,0.985876155723733,-0.0968089086027296,-0.9664003082881,-0.0758344502214274,-0.0420567638976396,1.19943672256153,-0.266556572274199,-0.0967687380460132,-0.948846159790151,0.126917359079457,0.298189722129182,-0.271566680155171,0.170209724041176,0.0898358301990142
36.035,-0.310879203646475,0.0204774332284055,0.984096674929387,0.521378818604806,0.220408733073419,-0.0888053934834744,-1.02076139245048,-0.0266510740487285,0.232497786684176,0.205031748105396,0.666930876229666,-0.26863053946653,-0.973392206524022,-0.0821159424365535,-0.0367368847145477,1.21818602140621,-0.278160613125925,-0.103038140783173,-0.964957406430665,0.126547028004001,0.301783216763887,-0.292328693235732,0.164778507566845,0.0713617269174341
36.04,-0.393069040195619,0.10880472404966,0.955847160989262,0.0325240901764958,0.0879068009545061,-0.129500336043597,-1.01149096139971,0.191575302633264,0.0372911055411831,0.577207954835,0.508277840021023,-0.253606510515153,-0.979498531903746,-0.0916687514440367,-0.0383844289275088,1.22988442265241,-0.260621754359494,-0.166870086986329,-0.974614487943733,0.131641023918741,0.319823887113038,-0.305895017064852,0.1112657610425,0.042276578846112
36.045,-0.353441448107997,-0.0227372188618956,0.93224913947657,-0.0807803121349921,0.0226926202556553,-0.122536118244341,-1.0122263250855,0.215934070025413,-0.0303249596470124,0.296162774361029,0.610633655484601,-0.148869016140636,-0.986000033989133,-0.0966593130210044,-0.0491152811422005,1.27331685963461,-0.236007619175082,-0.218743899561697,-0.972341211132237,0.13455710875624,0.328457586865516,-0.320820026582631,0.0486037421561392,0.0219892525233143
36.05,-0.357648028363941,-0.0281734422365148,0.930772321652247,0.0838703957769601,0.123174288807332,-0.09431389786188,-0.992893533655809,0.19020449226591,-0.0458725757748795,-0.0420027281010025,0.69748541314776,-0.121909055246294,-1.00042258814948,-0.107719573850285,-0.0686022228646528,1.35040604507882,-0.202983006079599,-0.25431939819445,-0.970330573763218,0.137240015545843,0.339834099286966,-0.323456853628159,-0.0120952890762677,-0.00126485628681793
36.055,-0.392745577149925,0.0977741928224826,0.960405452039509,0.104686730962444,0.108755919081163,-0.0792223687413907,-0.967944672807092,0.231875383686558,-0.120777907282546,-0.196734738924393,0.797529381389538,-0.0788588684112219,-1.01468736180026,-0.123254041306707,-0.0800174792083348,1.36375881950583,-0.166503123824349,-0.266600949361667,-0.974170263418811,0.139153738423047,0.345490278480368,-0.317592921615179,-0.0627151492486608,-0.018048815310419
36.06,-0.349859911994572,-0.00629983468040986,0.92716215793567,-0.222380495352759,0.0197740905939967,-0.112692621905362,-0.954400967479946,0.162555201741005,0.0147803923948511,-0.397232192958274,0.952411742185033,-0.0160868411149506,-1.03627832012101,-0.125073459923801,-0.0861717713184972,1.24691964443505,-0.141590870387346,-0.290737193094497,-0.96679495222918,0.141658593974258,0.345237284320801,-0.306138314084223,-0.108500436961274,-0.0387786830147762
36.065,-0.371836213630963,0.0213626035677154,0.945460824293705,0.17268313646321,0.161820422365134,-0.086314968650152,-0.993712417077769,0.135093517550567,0.0234437197339228,-0.131137989214338,0.885619629297514,-0.106144948094134,-1.05148181466426,-0.105962989607391,-0.0854031989748034,1.12246597431577,-0.120089991112724,-0.292251227450269,-0.967699934606404,0.135912100541976,0.339649926148181,-0.29011306449618,-0.125704395501107,-0.0509028420098879
36.07,-0.364049540490331,0.0454048712305789,0.93780371951098,-0.0935616906067503,0.0908446867508606,-0.0918720433184559,-0.968519887629168,0.19604758258184,-0.0200904737055471,-0.134490685410303,0.960463475325002,-0.131136256399873,-1.04997603671624,-0.099773887688254,-0.0837796429252983,1.07892702866653,-0.105381947674423,-0.26744196596539,-0.964609401630302,0.131224570632661,0.337991317151603,-0.258862394085858,-0.149658150159955,-0.0638436745100848
36.075,-0.354011828664814,0.0021150159603905,0.945035783848233,-0.0981617161687757,0.114292228811617,-0.0995881991961403,-0.961684411733019,0.216175424027465,0.00102907627152227,-0.437633212975179,1.00570263272932,-0.130331867629806,-1.04029814032587,-0.0920636133795943,-0.0765282450123851,1.04048261568423,-0.0890837500718012,-0.243963235806768,-0.963263959741688,0.129894553226129,0.328024224859303,-0.234243416011523,-0.159451137619699,-0.0776347140968465
36.08,-0.363025473029575,0.00596108957351675,0.943435642983793,-0.0817867398484174,0.160644266440964,-0.104544696746207,-0.980768067713484,0.195746267772337,-0.0219236850193409,-0.678228114505481,0.96904561592581,-0.160856180189106,-1.03153989289165,-0.0863415799175973,-0.0710073679430649,1.01027626569539,-0.0947436810728015,-0.222801230424273,-0.957759755041884,0.124415217371044,0.32842959054687,-0.190551564298001,-0.176718494119603,-0.0891478966596989
36.085,-0.369566152147781,0.0071578669575319,0.93589804741399,-0.114339654241728,0.154912251793025,-0.0954596109448898,-0.989409481136865,0.16220868080369,-0.0513626134005506,-0.732168530809493,0.953282349351057,-0.189161924860936,-1.01191501014397,-0.0682266390069967,-0.0524037889080666,0.984765261277032,-0.120768323654122,-0.192531572894583,-0.947341021170724,0.124103837810481,0.323716164385661,-0.138615985338356,-0.193584349649336,-0.102345832978061
36.09,-0.365283570499056,0.00414382906069257,0.934212635112953,-0.119719452860765,0.158951195563902,-0.0954661685060696,-0.984721875348666,0.152395256377409,-0.0586430238015403,-0.69457670570649,0.99371705218421,-0.218725555039094,-0.99486133897716,-0.0565981516938331,-0.0375668022346164,0.991871181311012,-0.140126939682191,-0.180353191314339,-0.94364108857723,0.126734789061262,0.321014825490027,-0.101639015560045,-0.190454108491109,-0.11520211299599
36.095,-0.363083314131811,-0.00145421985428371,0.93541460019969,-0.0872776213359677,0.179391508374439,-0.0930554105317923,-0.975484366429207,0.154027451088067,-0.0567171077697093,-0.685863745644852,1.05242886217482,-0.247890254210063,-0.973048100111504,-0.051840021817451,-0.0160454775204549,1.00295607078293,-0.179580254177192,-0.170461561955609,-0.936269165032795,0.12755610276781,0.31700376707952,-0.0575183046403065,-0.174836059921697,-0.133943813384148
36.1,-0.365582381825391,0.00163922695791222,0.939675082382488,-0.0701380732062704,0.188777760191896,-0.084272388402965,-0.988022736050022,0.155439589040503,-0.0447248869823415,-0.663920642792173,1.07222019576981,-0.272823152024859,-0.960457080587928,-0.0557038006282414,-0.00331777674547658,1.03445042211544,-0.205619918581749,-0.174190497491591,-0.925767631874767,0.131758771528766,0.315597966988937,-0.0171596619539502,-0.160224697758661,-0.145903379700883
36.105,-0.368336566991165,0.000461770736277308,0.930775112094616,-0.0505534350596328,0.214046539703557,-0.0853833364379538,-1.00316892654908,0.154820243246667,-0.0479190123698044,-0.571973689013345,1.05686272774847,-0.283693225015883,-0.962566160645721,-0.0696632404329595,0.00573936787249642,1.06136985325726,-0.236009505977035,-0.198933315863013,-0.924617240395282,0.129950294633462,0.320191833293776,0.00571229305669362,-0.137234339618514,-0.156042379234015
36.11,-0.373475589708029,0.00927593830534508,0.92779117229654,-0.014676722690714,0.229013580272505,-0.0924810362390796,-1.01382983101739,0.149656496304988,-0.0515691761936229,-0.374588264016805,1.03227948729784,-0.283617745821567,-0.972729650644089,-0.0890564826487956,0.0186056738709728,1.04560658492421,-0.267453969146124,-0.229493126693651,-0.917090891053433,0.133508237603263,0.327679251454358,0.0342206834508214,-0.11170168675003,-0.170144575868102
36.115,-0.371210121355822,0.0160036390648353,0.931497978918553,0.0168109837465144,0.252020089350207,-0.087471852120715,-0.998914942654881,0.157798083139742,-0.0625259834974234,-0.182984749741538,1.0203937292099,-0.273195112742451,-0.989451797115041,-0.115178920791776,0.0350020505444873,0.985962909523883,-0.285290454042446,-0.260141848526628,-0.914012224920479,0.13175558786329,0.330248363232458,0.0594271786849376,-0.10238377853895,-0.179574099278483
36.12,-0.374126228923293,0.0111785614193849,0.945394970707537,0.0399192889192014,0.274107367339488,-0.094380481145615,-0.99608667570893,0.158673562674282,-0.0665060007204703,-0.017065227733985,1.02261867384885,-0.266798695120217,-1.01799794192238,-0.144480561882453,0.0568963420743029,0.860312314153554,-0.292144307466411,-0.292476178933163,-0.908827582439311,0.131833406105402,0.324478024224119,0.0916905432946722,-0.0974129445318497,-0.184407459744913
36.125,-0.370240524486805,0.00991419742792245,0.941165774873444,0.0761327881484153,0.301359146152944,-0.0976563022391237,-0.998523801514695,0.155094638147756,-0.0701968015635559,0.146866447839615,1.03137179402269,-0.260459794299873,-1.0395256859755,-0.168940589956314,0.0765658173620236,0.714986811829375,-0.278823283586618,-0.300425219736924,-0.910246814866156,0.133804069474544,0.325260849108939,0.12441166420581,-0.114808722831874,-0.189965174001363
36.13,-0.372813980210564,0.00990566349999315,0.939788292713603,0.112898025412526,0.331329679852714,-0.0946644891767664,-1.00867233873321,0.14696873656548,-0.0780986854790064,0.27337128864837,1.03557265996087,-0.266445831215092,-1.06240617564996,-0.198106554024062,0.0984417628267289,0.504332630882336,-0.254349704988561,-0.285722583270793,-0.917341778549553,0.132655885728117,0.330787232159603,0.137099089884502,-0.135419344706085,-0.196052737681116
36.135,-0.378808273213469,0.0106837933052499,0.935807897208765,0.136225932358886,0.354906539378841,-0.0929440248322257,-1.02849518393061,0.138040447592104,-0.0909350092031397,0.432301267367404,1.02897786953551,-0.278169601804273,-1.08136187526372,-0.217670770927043,0.117385612276158,0.271947725133623,-0.228703852339072,-0.243535093155469,-0.913048774502864,0.13117724318642,0.334318791205065,0.141818110310122,-0.158858853789969,-0.2039177737619
36.14,-0.383444455885891,0.00225265361160043,0.938032678665515,0.153043938267717,0.392800675129834,-0.0757815661726953,-1.0247900817902,0.138755993597518,-0.0950189091333965,0.506417696384656,1.03194517658372,-0.280955819751709,-1.08665477029756,-0.223780029381716,0.129547350913809,0.0622053042582898,-0.202358702904467,-0.219416610742588,-0.929167684788427,0.13196955771254,0.346076139391174,0.14348273725253,-0.172545526530943,-0.204487793156918
36.145,-0.384320726027595,-0.00234313572895106,0.936108638533635,0.176768484813525,0.414368444602059,-0.0656348063199706,-1.01295088592662,0.134638725850862,-0.0988570967063595,0.553923749105867,1.02589618827231,-0.295187077074029,-1.08317915290643,-0.21141973384844,0.138006816582248,-0.122287666657609,-0.172598462056621,-0.207307034022186,-0.932148964904121,0.124601288838326,0.35462179977289,0.136311959319209,-0.184734754440784,-0.203281592910195
36.15,-0.388069331764498,0.00592931177580246,0.937079369139052,0.186755441218287,0.445216733817015,-0.0402589202779788,-0.997844158160557,0.137614039071599,-0.0942439898074347,0.57458893046618,1.02714296245294,-0.319007181365223,-1.07950151774341,-0.182926029210244,0.138574915233349,-0.238017210761722,-0.15816896481661,-0.195108239369902,-0.950755424435743,0.121980155580135,0.363720290408933,0.109408098750471,-0.186591646500003,-0.198224421218519
36.155,-0.387200002472121,0.00583169451998536,0.93820151713553,0.177323023446589,0.477217375163808,-0.0192566915897374,-0.989770026392316,0.129017246980875,-0.0925599887739937,0.556325024805169,1.02654440564463,-0.336825898289503,-1.0742104779749,-0.123249966186965,0.134021706216136,-0.349926913721293,-0.139493557297989,-0.191072058889208,-0.971963944002608,0.122491448411355,0.375358777624339,0.0829943054859172,-0.191203637819008,-0.196784118329566
36.16,-0.385587538760446,-0.00121330301183369,0.948832592527964,0.175770078020641,0.531931872935244,0.0139395398881754,-0.992716744367028,0.130960208603372,-0.0126187294626722,0.458501652605492,1.01013512383784,-0.34068183114397,-1.07189039310149,-0.0600732460934201,0.127751602758848,-0.40514401068728,-0.130921067777477,-0.189956739188806,-0.994303127910954,0.115916255986677,0.384469256884966,0.0627848917142174,-0.202477481240031,-0.184405349797252
36.165,-0.366242611317322,-0.00445107342731391,0.968076128630259,0.17039459093891,0.601849391320549,0.0253904364147188,-1.02594632798102,0.140164649917816,0.0503744403742369,0.241944447547837,0.881117439321242,-0.308409748570241,-1.07214191354303,0.0213727571482011,0.111081808658631,-0.412413204882923,-0.119257773551532,-0.175367946136081,-1.01832303692307,0.119130246386935,0.384858563941193,0.0509049328900699,-0.217564678518968,-0.179627199060935
36.17,-0.366422004711118,0.0262693791331788,0.951611378629073,0.163156644299309,0.719337451916727,0.0526856755060282,-1.03799443642289,0.0878568752625245,0.0145513576793076,0.0324708609514909,0.779779512320377,-0.27438973795155,-1.07474740108945,0.0903368961083966,0.0900265623982316,-0.375998191116193,-0.105538168238495,-0.152951230176933,-1.04376392075368,0.123672012248744,0.38341642169934,0.0433920992198712,-0.225742833557812,-0.180192188824032
36.175,-0.376326640248308,0.0349362591653417,0.904064164161612,0.137372744975497,0.781797520853323,0.0689286948085115,-1.07049821941832,0.0390521913337259,-0.119224292979057,-0.0213637923876858,0.70520912336322,-0.341673699823734,-1.08263187805282,0.164350859734034,0.0536260341112055,-0.298169854000582,-0.0975751659020193,-0.122292141634758,-1.07154758561303,0.126143172545384,0.375137071404492,0.0522165897425215,-0.241952966015036,-0.182109787297165
36.18,-0.355680003313472,0.0888327151963279,0.985926544670352,-0.127030492075369,0.672744883252629,0.0718820215969505,-1.09619044242697,0.0283409144960766,-0.168241522472948,0.254670966374321,0.792832789796646,-0.465684314220095,-1.08944878437203,0.216805726039834,0.0112033954746803,-0.114232570151207,-0.0747414569522484,-0.059947156303971,-1.10568215185628,0.122369379704324,0.366996092975517,0.0818145839513284,-0.262677595593125,-0.187611318245492
36.185,-0.347061677809373,0.0181869979156318,0.9535935127686,-0.142434833537044,0.733103608173729,0.115903740827533,-1.03250753236895,0.0620893468263062,-0.153992898055066,0.323432470810916,0.923285437893318,-0.464557563950653,-1.09539016769062,0.236711505647246,-0.0257092951480185,0.0853436655597342,-0.0543419909974006,0.00177976759635039,-1.13018546056415,0.120476110332693,0.350101781013175,0.112192703899621,-0.28032147261005,-0.188509569287737
36.19,-0.367883802493944,0.0370731949412356,0.974404962709164,-0.141495968745035,0.785892317382172,0.162517885386085,-1.01324095767074,0.0865229794650454,-0.120346612955462,0.263090072727246,1.15196295439103,-0.472707016082128,-1.10600265983648,0.234617343372195,-0.0610597517745724,0.318839798263138,-0.247712332557346,0.0742912361684895,-1.15522588540367,0.120900031268246,0.332811150529342,0.143339449908132,-0.297157280462777,-0.187973415263292
36.195,-0.363767041978935,0.0496585049919389,0.963546406344335,-0.195922617427735,0.799309984307007,0.204019009917949,-1.06971697069701,0.126245809633018,-0.0691024470443087,0.206656337649672,1.34573098723345,-0.513818606782529,-1.12353450937884,0.219810682011852,-0.0950723367972897,0.535433634753839,-0.022196943362481,0.163687255195078,-1.18570211683702,0.122237683113403,0.310679202112488,0.177840448732873,-0.307021276362758,-0.183806840360876
36.2,-0.34215289630391,0.0765457884043265,0.975752852526926,-0.231053732545215,0.825715013077696,0.221858908495389,-1.15139263069766,0.175844772241035,-0.0363885541436661,0.150385838082716,1.4902522942915,-0.488453548023459,-1.14203598443266,0.19010609321344,-0.152573417003134,0.782291825512044,0.0154975188849491,0.266120855981179,-1.19920174940865,0.112119297877954,0.293026554870507,0.190200794667648,-0.313104425335072,-0.180893530543375
36.205,-0.327657696381021,0.0858294267407428,0.997639583306781,-0.411313676048498,0.894913117944287,0.197641966697277,-1.19971625979604,0.214090990500795,-0.0256040438232986,-0.0416597145536085,1.51883882840146,-0.388667265526344,-1.17087653450522,0.163148327588615,-0.199906136029502,0.903183144021529,0.0351327777584574,0.347676150174071,-1.20928026482135,0.107156080190111,0.283236094151263,0.182911805679536,-0.312186443466792,-0.171152647136106
36.21,-0.348732235630676,0.0553488489574668,0.989555354572633,-0.596791161885822,1.00552963972051,0.134371837483556,-1.19193769850057,0.169226145309282,-0.0119323623231937,-0.191745341457112,1.50808762152099,-0.31332011031567,-1.20459435989332,0.143329925871799,-0.228768339151644,1.02576487093589,0.0867742365950875,0.439246467629982,-1.20327877857412,0.101012460077798,0.274157725375583,0.169827331444007,-0.317782996708932,-0.158752415915709
36.215,-0.378617290957143,0.0261152314601118,0.982395593857972,-0.610269863403219,1.10498510221429,0.108624518917197,-1.17746319474492,0.0913900150901642,-0.034413221300069,-0.180094697834503,1.56202263177928,-0.328374900862438,-1.23264913565729,0.122108222940673,-0.252713184802502,1.05807313961919,0.137102275941553,0.521452463928258,-1.19171960142538,0.0974785941992037,0.273474132480344,0.153687997972342,-0.332418025220063,-0.144932108359068
36.22,-0.363480660325693,-0.0162641726891843,0.978931396174256,-0.590403557622026,1.26023947360305,0.124433855643186,-1.20552960968476,0.0365405097385593,-0.053088930930854,-0.163732089077224,1.67470642558023,-0.356649169689889,-1.24524564170723,0.119428688656995,-0.276424553441754,1.03808093961704,0.21025385646437,0.58074869341339,-1.18015809415221,0.100943723281024,0.271717316828135,0.140503430693416,-0.329467231366738,-0.137072602245911
36.225,-0.36183013824443,0.000320733527155268,0.987228660751493,-0.558859159609436,1.4031067841907,0.139963544667014,-1.22639628703472,0.0359698513856946,-0.053226027533055,-0.176524228681117,1.74301406223928,-0.341084612068121,-1.22735670041856,0.0966101588204654,-0.288543408036686,1.00138424579114,0.303977857622917,0.636071647146623,-1.15991576484456,0.101323398138942,0.269635325367955,0.114032979357626,-0.311593412041208,-0.121832733625365
36.23,-0.358997449941828,0.0235675885235692,0.991921211766899,-0.563891959507255,1.55209634666286,0.160140861183204,-1.25275387931226,0.0501450360060917,-0.0104931269602866,-0.136328018500537,1.7795956131543,-0.296404772283554,-1.20617131698462,0.0817071976457182,-0.29315197154874,0.932638054868705,0.373869937980181,0.685817272888632,-1.14434219291901,0.101001967810628,0.271705330809886,0.0927703680515556,-0.289034107821831,-0.11373746256869
36.235,-0.341101882575975,0.00178563216697406,0.992348889304184,-0.578515280678815,1.71231596119918,0.166727466137705,-1.29645191781042,-0.0185778744715446,0.0509773561902689,0.003890792611074,1.70480453514501,-0.290202615727659,-1.17361650903895,0.053343756202857,-0.300998163191502,0.902928224644359,0.454784878051675,0.740621697533914,-1.12270774912524,0.0963046763641117,0.273441854608239,0.0849600297195571,-0.278620323127187,-0.117000633889758
36.24,-0.447566433872901,0.0468982226101445,0.976070045780755,-0.583775191637947,1.79264689500755,0.222983978231412,-1.21285841866891,0.0693209943325929,-0.0288843584986045,0.00932371457863217,1.6787884206694,-0.202898281382141,-1.16332221887755,0.00631021360045091,-0.277428528353435,0.924995064735413,0.52274390200464,0.77112667480218,-1.10333495516324,0.0934281445055739,0.263030007402055,0.072237734793672,-0.253559827253315,-0.139348897827468
36.245,-0.299914084586914,0.0117489962208487,1.00163877990178,-0.706830490973815,2.12286446602885,0.203860555412704,-1.21989421850445,0.0190946166502682,0.0111701213202785,-0.116053359444733,1.70681810389583,-0.148347431538462,-1.152261756384,-0.0487366580384648,-0.278720937505259,0.936699427168358,0.591097052063228,0.757752524026811,-1.08828527945693,0.0783565258089271,0.257999101764486,0.0637316209258944,-0.241862001511549,-0.147977055008366
36.25,-0.38769342546903,-0.043348284004332,0.916151542637675,-0.0654925971376958,2.65228322048525,0.253696452902088,-1.39873177662591,-0.0843936406995735,-0.148048333035297,0.478698428273023,1.67113064940501,-0.235526882616722,-1.15663693215132,-0.103878866041686,-0.268088134404058,0.987564698689168,0.666093254263565,0.733510298893198,-1.07078899983031,0.0590800735920317,0.256424469044508,0.0452541491017962,-0.241353441321962,-0.166115484271361
36.255,-0.491053261337244,-0.0565448302452617,1.0008109642024,-0.458239440048624,2.23148664117112,0.350385317745256,-1.23669952947714,0.00494881013704863,-0.0332774295662654,0.512021573920167,1.88790652312451,-0.114179235527764,-1.15515797448942,-0.137067055820987,-0.293359749964077,1.02687387229536,0.721167038998146,0.70158447295068,-1.05467718730765,0.0451043029257873,0.249645743853069,0.0359732118439519,-0.234564570353975,-0.18262711406271
36.26,-0.293671355619188,0.110868266284654,1.11778444051221,-0.735831748744716,2.45607607009239,0.288927311408994,-1.21644497040222,-0.0989227884493414,0.146297202607678,-0.150825644229525,2.00752566113103,0.0824007042771417,-1.15283592442577,-0.158531850142776,-0.319275950118711,1.15976328426104,0.817443184130002,0.752205714053853,-1.03643603503395,0.0208479256754468,0.246247450260125,0.0329401193666534,-0.231701374053955,-0.208108814533449
36.265,-0.332664112766936,-0.0826101457631548,0.923543592401474,-0.102473252705196,3.14778311889479,0.386621343032254,-1.41099757737309,-0.0607754573085765,-0.138955529536268,0.608337642733147,1.86632978536393,-0.0521480217576027,-1.15380195675675,-0.149420224349401,-0.343358388066097,1.18810826209586,0.874754471115461,0.869956261528591,-1.01404097413033,0.0114576517232033,0.245072018992603,0.0478831336024019,-0.229617545630248,-0.225327116580854
36.27,-0.480014040249831,-0.0477815944181724,0.991608224482524,-0.0488921967558216,3.05370818969811,0.511704881529961,-1.25255235620638,-0.0108644484602247,-0.0583375847805131,0.876439224144948,2.09307512849974,0.00252778520514569,-1.11670662432681,-0.128411963294141,-0.386354518317258,1.2216065937749,0.942393952279559,1.05639741798577,-0.99023012731912,0.0063138176091175,0.243114887610048,0.0834645266686714,-0.21679896311205,-0.240680846688116
36.275,-0.461010705786277,-0.0328624076370709,1.01572554518559,-0.159325746149138,3.11007024764829,0.494606417997693,-1.21541473943675,-0.0029780611475811,-0.000179436572140867,0.655782261312239,2.07882002182254,0.0138880002526348,-1.06839082441122,-0.10659992028272,-0.422678819228826,1.24234400710893,1.00089955670269,1.25208399005973,-0.964546843186563,0.00477571018319673,0.238129604942688,0.131401357354957,-0.202026531348909,-0.259180405413324
36.28,-0.427731044360841,-0.0621297061725479,0.981360648873192,-0.0565735528524836,3.5036446636172,0.551483670819506,-1.30555718282898,-0.0530896604275093,-0.0680699519870075,0.776574070389209,1.98462982430853,-0.0208348566350958,-1.02601469529989,-0.0822160273666737,-0.461213524084916,1.26619670039778,1.05756101056347,1.48123508182435,-0.936714895074904,0.0177389051197024,0.240153535863193,0.177568155826131,-0.177618581698531,-0.272848368033751
36.285,-0.479315703176465,-0.0952544795725917,0.998051745529568,0.140278967531956,3.70327816284847,0.663979576225797,-1.32367626861445,-0.087506085114502,-0.107810312550849,1.00799876164202,2.03751422899945,-0.0686401426725204,-0.988653246848458,-0.0572205004751437,-0.51317753215284,1.31019989732282,1.09611135737121,1.68829551264672,-0.921353403016568,0.0280962808789713,0.237769782379482,0.202286936981501,-0.157852977445296,-0.276045516490194
36.29,-0.497900472423333,-0.111569111028853,1.05977166492018,0.237022483472563,3.76517011983215,0.74117174126078,-1.32569589854396,-0.10824286649235,-0.0573064163145157,0.980516350838391,2.10529749579331,-0.0260598902531226,-0.975924209828837,-0.00742006691157182,-0.581642995636205,1.27018586504807,1.10857589482341,1.76815953527814,-0.907165458232898,0.0416946771682336,0.23368287612524,0.228362538264787,-0.15360464739607,-0.277913837837081
36.295,-0.479616058383432,-0.122512596362833,1.03184428428972,0.292497404834896,3.91558492944895,0.748718863438788,-1.36861454814738,-0.140704964833274,-0.0454620518208614,0.950066883516214,2.0784230833622,-0.0338825539398196,-0.974967404354417,0.0364925532713502,-0.602783313730117,1.12505547870805,1.12248354333617,1.78100282195196,-0.895511666570826,0.0554713002099561,0.231481016193228,0.243957652941732,-0.157028361560626,-0.266068509882981
36.3,-0.497421519025684,-0.0871934811650792,0.995676720957287,0.485357647912726,4.12231034079239,0.830238557264398,-1.38004356386389,-0.163901846393016,-0.0607391965847776,1.09605919462386,2.12432097289534,-0.0797724827358485,-0.963366579603029,0.0877694752031297,-0.616089508830241,0.903107800165114,1.14429222929444,1.68864729589582,-0.892441258633406,0.0643470587667129,0.228480086915563,0.265939921104605,-0.183661947915693,-0.255976687251185
36.305,-0.522283156888641,-0.0255787019004213,0.964550316232678,0.597604650759168,4.3634346626083,0.949226848430428,-1.36421661240854,-0.174381733325221,-0.0641725762238477,1.16848533343141,2.19372869899064,-0.100380187556811,-0.99403267077425,0.14292329901471,-0.604340746543473,0.631216469346812,1.1961942936891,1.54817332306853,-0.889593932259323,0.0694616008869501,0.237736681547884,0.2711240577518,-0.206979062369338,-0.239651063115699
36.31,-0.55033087919266,-0.0271692395526197,0.946780467097784,0.620872159184905,4.59169904930983,1.06159822501893,-1.34967180862,-0.18018103395613,-0.046498887317966,1.37216737928039,2.21985407221358,-0.160068913157298,-1.02358434471265,0.19014733900881,-0.582323106163469,0.32330457634183,1.26710902332721,1.48432005239462,-0.878549927988025,0.0731183806408963,0.228404064948098,0.269885229199997,-0.229728796933398,-0.221287216152189
36.315,-0.530359837745926,-0.0234700238852119,0.987175484408117,0.792261651951105,4.80471644998306,1.14073130490285,-1.33798243899712,-0.146182801866424,-0.0436691129534605,1.71754772015743,2.22863292052822,-0.227935128591672,-1.08129581528061,0.231648679978195,-0.54258163446024,-0.237139869887013,1.39339749867996,1.48228383779308,-0.881880973101428,0.0749860336612933,0.22581879881593,0.271438874048866,-0.243362166668869,-0.201543704345505
36.32,-0.552782305350433,0.0107691319809239,0.98474060120493,0.863870757434624,4.93053509938653,1.21637981044956,-1.38019394277864,-0.0999939439277216,-0.0782723573092814,1.61660923949216,2.3568176322923,-0.196399643162751,-1.14418376075498,0.225692132777226,-0.482078802232656,-0.803542708725819,1.50705335797822,1.55704654153931,-0.866507683070579,0.0723572772796174,0.223929221420613,0.270754410409895,-0.223774365389303,-0.178632293794808
36.325,-0.601042446462068,0.104272342191034,1.03302642181076,0.380889343696142,4.82201377422638,1.16213134495976,-1.39590980858895,-0.0739697187991995,-0.0181596497138655,1.49294578334698,2.3031312831051,-0.178588852196098,-1.20087317781797,0.174991357536681,-0.387972640870615,-1.50548675992161,1.64539949155888,1.66805078502317,-0.853469734707388,0.0681298894927913,0.214621433499014,0.272199255466264,-0.189168541079559,-0.164138203005933
36.33,-0.639363042619903,0.0955213615372764,1.00952526031304,-0.00286434789132809,4.83381881533761,1.08473586491759,-1.2817976487278,-0.00138566058608303,-0.0174827475439945,1.4796363168651,2.15643932234583,-0.156878826639722,-1.25242686213599,0.10037790247635,-0.287169382510925,-2.06683961105027,1.73843656870496,1.75401507783423,-0.850570638448641,0.0634390277265219,0.209728367720568,0.261193478267827,-0.13247712844257,-0.140528166060351
36.335,-0.646109448492125,0.0611633765464258,1.00477558601407,0.0109098331240733,4.86144615995921,1.15043344019466,-1.1651467616655,0.0401291816544895,-0.0101462518841036,1.47770306415381,2.14930613871574,-0.156196979875727,-1.27894269857018,0.0196540221246943,-0.18810620243013,-2.58063463669748,1.79259700230647,1.82065680985052,-0.846307829259583,0.0625860315916024,0.199773756998937,0.273134410807853,-0.0833012070228279,-0.103247879370495
36.34,-0.622387158523569,0.0893165339298382,1.03714997977138,-0.0154943175696349,4.82886264501142,1.08664360076822,-1.09358934624597,0.0914541299183782,-0.0280374665149803,1.47063717993212,2.1645012003251,-0.224091436983453,-1.30399571144205,-0.0842461130251051,-0.0575461052323144,-3.09780604933797,1.79636671601348,1.87278979151065,-0.842472231264936,0.0595557924468207,0.199288893600227,0.283647874240975,-0.0111943056104225,-0.0535128906426863
36.345,-0.609009818814485,0.163377896143809,1.04279142539934,-0.0888803138580626,4.78221087963882,1.0104755012389,-1.06963377935777,0.157582126886225,-0.0775881828307507,1.35410940500141,2.13083379021313,-0.305712952917107,-1.31928575155631,-0.150479221069605,0.0360245718280742,-3.40567182159918,1.73389263544951,1.86098402051796,-0.839987319706079,0.0508396615149404,0.200640785074784,0.294543581491926,0.0468532152255063,-0.0259355964326741
36.35,-0.628026548428225,0.209537623193984,1.05133926120885,-0.155321376299613,4.74921895127146,0.972082106216328,-1.06887180618431,0.202337265631011,-0.133829884703113,1.15452746658536,2.02319392120624,-0.36311462155203,-1.30160821049956,-0.201754436073348,0.124594528767261,-3.55944772164682,1.62288024683332,1.79648263176999,-0.845844779152863,0.054605056017796,0.198199002315028,0.317088837818554,0.0959560934003863,-0.00446121083677852
36.355,-0.739205563709382,0.257384387585568,1.09896890800846,-0.242316389960397,4.64580988191666,0.954854428768158,-1.03608225989556,0.240902881211249,-0.170194634008796,0.813806114272007,1.87170229782747,-0.426047580054409,-1.28111198514523,-0.223469029161831,0.202065540480222,-3.52887864031835,1.50947173698974,1.72189015731991,-0.857308151835596,0.0578566082845554,0.191694496508149,0.380949883962451,0.14776573400269,0.0373471882368033
36.36,-0.812571170552926,0.247344640302789,1.22051602027743,-0.374000862262695,4.4428113663266,0.938350913284834,-1.01106662283886,0.250961246357573,-0.194308318068078,0.506181812016956,1.73775742924607,-0.461425383201208,-1.24929639402536,-0.219995417188719,0.250404274204318,-3.38478761440683,1.38119195584876,1.66649591919061,-0.865608185301821,0.0582452547043713,0.191663592671175,0.432651997577462,0.166831425707219,0.0635759989975407
36.365,-0.809839933514764,0.275082961939336,1.22513838930386,-0.54275503797707,4.12362444683537,0.914622648763208,-0.958155115275851,0.262695136990877,-0.257151573898068,0.182964307373465,1.65521177413534,-0.468138620176225,-1.22176262845686,-0.211190129929579,0.297442940748702,-3.1902921053117,1.25551577727548,1.63302547833772,-0.873994198114228,0.0602451684285301,0.189390103786642,0.479468550010325,0.182659348022409,0.0871466687274221
36.37,-0.776753086345167,0.242208755935923,1.20515341547944,-0.964362986654969,3.72164018079151,0.986592745838428,-0.923155828342202,0.278830445348355,-0.30914448803111,-0.086197247099605,1.61235767275375,-0.475890143392978,-1.20304414713789,-0.20521114050958,0.325766688644624,-3.03390878218446,1.16632862998081,1.59625289892397,-0.892219967413603,0.0548720385795451,0.190464806369951,0.500051877021202,0.180593040846728,0.109621616727094
36.375,-0.585789443926943,0.427434050402666,1.35551248351239,-1.27874534564846,3.42757849526798,1.06608551694396,-0.871983530470559,0.294493102807203,-0.341502071576256,-0.37533706000811,1.57175971945694,-0.491813213657506,-1.19466193042544,-0.194886944299615,0.349610298509025,-2.88055960880706,1.09117284156321,1.53472865855519,-0.906280339203789,0.0437365642776525,0.190183276474416,0.489890601873696,0.179825544351096,0.130349605667601
36.38,-0.625285888948154,-0.0821154968631088,2.84922523259148,-1.89567827126551,2.57715901202153,0.693242483846764,-0.821736472261719,0.322608937781071,-0.253786354798068,-0.752811527165842,1.44011082844804,-0.46947616822841,-1.20224255040458,-0.1932495424108,0.359115520581226,-2.77145035653413,1.04263537686342,1.49123283384387,-0.932436374537061,0.0417675690118967,0.203884517459839,0.460762597813203,0.169474922414051,0.141823740574281
36.385,-0.745091928722088,-0.307564443318454,2.69739625130322,-2.13643835215226,0.872549082611518,0.425045843439786,-0.800417678188685,0.335506759445917,-0.0945626717004542,-1.27561372325666,1.31832071967181,-0.318831673362073,-1.20643262384388,-0.196784479935792,0.365566449216507,-2.66624671887547,1.01422085034646,1.43206060289936,-0.950576081973427,0.0383471126504346,0.226483356171811,0.421022329568584,0.173079228985336,0.158044798890842
36.39,-0.212306666061046,-0.560640248917229,1.58268703185744,-1.8223600648293,-0.212005704049001,0.412504140504579,-0.811887634915564,0.250897234922867,0.0920632406280915,-2.0069773131575,1.16031307594748,-0.124939791487764,-1.21724675030928,-0.215008128807258,0.367999241621567,-2.59683873085588,1.01780537453287,1.35736335610127,-0.972267184156733,0.0420919372753303,0.247503802162845,0.364774492762284,0.170029440686173,0.167739077297992
36.395,0.176042353875353,-0.342601863082846,1.08256006548882,-1.55125352157231,-0.415671838767637,0.335223712374725,-0.820742339171056,0.0825894432672977,0.264530285297016,-2.44197162150176,1.11503335706449,-0.195066578175224,-1.22683544118385,-0.234776252760446,0.366893989265865,-2.60272277939258,1.08457824207984,1.29123413815804,-0.995519120124853,0.0475879634737779,0.260507650029842,0.294793488972663,0.168958491046979,0.175431894122018
36.4,0.405269135357943,-0.30680206081624,0.9200785297909,-1.11168884616288,-0.271598461079166,0.298424701697664,-0.746988372659726,-0.224796168501067,0.419736846855676,-2.30039246090072,1.29204295506076,-0.703480517405072,-1.25856171548643,-0.271284208433893,0.389563307443579,-2.86597430845864,1.18339174566319,1.21818289065829,-1.01508290301575,0.0528362148867671,0.265081237725719,0.260776903336264,0.160272814757224,0.177159939580463
36.405,0.337284763027507,0.20592633533925,1.02339425818823,-2.42778871525335,-0.00910587158178218,-0.162532271605731,-0.8831507350801,0.13981507786138,0.567761207979635,-2.73662225241061,1.07701101674125,-0.925834615149714,-1.28552752861021,-0.319134529318615,0.430785366363293,-3.3704285551385,1.26477667869404,1.15475565257882,-1.03296235710997,0.0574788398136265,0.26854817613936,0.234256372913098,0.138388938386275,0.17649825186164
36.41,0.0856231547076905,0.0310041309478401,0.882128579672163,-3.77111307560908,-0.49835453978386,-0.491427214105164,-0.87176841899294,0.186789118168715,0.3669767052802,-4.37939191307019,0.275375307392844,-0.69959227167175,-1.26991763713757,-0.342215441712222,0.484537169335099,-3.75578848396287,1.25470068234028,1.09602180100337,-1.05385357854282,0.0682125371238991,0.275915210109755,0.17028841323069,0.125479608714172,0.173629294862845
36.415,-0.00798948281851869,-0.400452068800305,1.07358340809775,-2.45830033636929,-0.214090094878911,-0.459437077716837,-0.718038091030393,-0.0777037288727465,0.17172750815747,-4.23141271787196,-0.175282604450354,-0.84678247879476,-1.23421026436929,-0.337307678719734,0.544600377856634,-3.87981829059698,1.14282588502203,0.993810631544291,-1.06977314988855,0.0794446862970366,0.279428943300221,0.104842731520684,0.122590020298958,0.173268094658852
36.42,-0.19868678148059,-0.214692022656586,1.17657701570631,-2.5549170665001,-0.431935381217123,-0.65923830511209,-0.611211335961504,-0.250466605998979,0.0343886362991767,-3.5010305839147,-0.219604892404177,-0.971096892398305,-1.21189969805922,-0.300969727895872,0.626695889260425,-3.35888160064769,0.880032488943961,0.820768859537366,-1.08431276635163,0.0951753078571891,0.284485648384389,0.0124304848415789,0.107644333820684,0.175243319920093
36.425,-0.218469603841547,-0.155025891912574,1.14680635458925,-2.56815506698222,-0.912922242959368,-0.763001960278314,-0.581548103974112,-0.346421849624564,-0.0867624018938774,-3.07541553683063,-0.0747249361107449,-1.03260091241888,-1.19125272116138,-0.256576987988249,0.649451586487479,-2.38819708224329,0.661427532959147,0.713993325383745,-1.09026011210882,0.106265418559843,0.288043720068532,-0.0871823247508049,0.0941973646672363,0.182511369181676
36.43,-0.0969045447470213,-0.0927651741200232,1.07106701122318,-2.19425962656887,-1.20900732266927,-0.742498653350513,-0.603696190809224,-0.309643691106894,-0.0382931389302949,-2.68368739258531,0.113216984930269,-1.12577140353924,-1.16852433769964,-0.232200942723543,0.619749845933842,-0.944857576178294,0.441928799398185,0.65633734448736,-1.09694330287945,0.107797235307317,0.291390096765958,-0.156530132034415,0.0450983664162878,0.193096147874241
36.435,0.0032827906205599,-0.0927459252995204,0.955897105308576,-2.08023680100119,-1.38027937383009,-0.755041471236456,-0.684903092125054,-0.2349881454466,0.11730304486975,-2.15856829556202,0.0771690769166459,-1.13938235045531,-1.16114553854914,-0.235195676432058,0.535314849944539,0.198885059004345,0.317213176045061,0.67816995522166,-1.09250852257736,0.115572381614512,0.292153860300709,-0.219103418686467,-0.00907751203845798,0.202308047262422
36.44,0.0272708211269017,-0.0131845924834771,0.922098875983851,-1.75238250468377,-1.5453857505927,-0.705129659148256,-0.808646748411361,-0.195234479366573,0.304328464032364,-0.934570282128317,-0.341156737029178,-1.12561571801594,-1.1746130081688,-0.258790225458395,0.461271499692652,0.808326844576981,0.242720925459202,0.831356992043991,-1.07376939314527,0.115772742871296,0.284623399705796,-0.300669614644863,-0.0484335701227457,0.204066947315098
36.445,0.0190795825675625,0.0304920179909854,0.917347852171725,-1.59189656749274,-1.55324359856299,-0.669661236147941,-0.829924891056697,-0.152363626264625,0.281928739281966,0.0113285715386768,-0.73434734213944,-1.06616375622645,-1.14869643074489,-0.294990930130529,0.384372239673356,1.04228290600095,0.188485097872402,1.07331615753703,-1.05913824966686,0.115559199712854,0.280156200446682,-0.347218168436395,-0.070102912058381,0.20170187516019
36.45,-0.0536540104952328,0.0519418508805724,0.920689304981927,-1.3833668702442,-1.59929966614489,-0.581025709964766,-0.786481663718188,-0.11208814890568,0.195290150255967,0.654024862009396,-0.988913099778241,-0.986413757985688,-1.09803018314749,-0.313858635581736,0.342959376515713,1.00768490746954,0.175741630090553,1.20105076907946,-1.04349221556266,0.104395431750666,0.275148213975962,-0.382289584527654,-0.0672372258334018,0.195127396327846
36.455,-0.115058505575241,0.0489183508394847,0.940840106607656,-1.30985421629105,-1.7107089658443,-0.515242311953954,-0.719056704501391,-0.0731524525686133,0.0453306620575843,1.04002999142416,-1.23851317343808,-0.930399338482648,-1.01887910671531,-0.317293410030544,0.29770454773033,0.816142741428422,0.160684546257871,1.18171359466384,-1.02559726143768,0.090798553716153,0.276706905999187,-0.401246972534345,-0.0537323199742061,0.194036900997162
36.46,-0.13967568436141,0.0549148253295194,0.940401686465047,-1.19120392288618,-1.85544963116704,-0.432733117790026,-0.700714686746479,-0.0354822506440183,-0.031082373238613,1.08235270569135,-1.41038724129942,-0.922317232333042,-0.962423492817444,-0.306028637081584,0.254305623460405,0.598352015373849,0.131609399248127,1.06372865589828,-1.01573389586101,0.0757969039177644,0.285878661466133,-0.433129765665651,-0.0387452617091883,0.19108665257085
36.465,-0.141566936041976,0.070862302390026,0.929786742788818,-1.06428162659115,-2.04069203606915,-0.327528504059524,-0.68094215346663,-0.0118769213300692,-0.0483110650579582,0.974654010969269,-1.56055456640888,-0.933111350019663,-0.914395593107732,-0.299754550542145,0.211887676280723,0.372589130405736,0.101840741189943,0.877455915843075,-1.00515993034521,0.0526482624266979,0.285644064250401,-0.466952429188531,-0.0177226492117225,0.189675245341357
36.47,-0.130823033705977,0.108218647820738,0.919865597407062,-1.00996853500043,-2.1902798320998,-0.24957631890487,-0.669248678392647,0.0197666616062505,-0.0143383225038449,0.736811645201797,-1.678151964762,-0.989392634781852,-0.883917779134324,-0.304370057705776,0.178628251163708,0.15260590311916,0.0895330160856247,0.705516712935497,-0.998036274693964,0.0332671788982774,0.288769301404194,-0.494140167451756,-0.0193239222734954,0.181898232008055
36.475,-0.133956636325122,0.289164215501876,0.947098739484227,-1.0127187980445,-2.36000478784216,-0.165916466443,-0.684684245413271,0.0633029686144614,0.00821859878356658,0.388197270227624,-1.76869737736985,-1.09029905317125,-0.872234950776096,-0.326718861513206,0.140225890471279,-0.080610839337985,0.0895330160856247,0.557431847501402,-0.992442606101331,0.0195377589954906,0.281825466215001,-0.525526016914005,-0.0352108864603428,0.180428377354029
36.48,-0.185084146981807,0.0358987462439727,0.901890145042668,-1.1893904976539,-2.44360204469706,-0.0517520802036037,-0.694300520611075,0.054637498492628,0.0612567323047049,-0.0893794748937578,-1.90383826734553,-1.25944716928455,-0.86857344741705,-0.336598302908306,0.119775235003469,-0.213098307758558,0.0978236537363294,0.507179042294204,-0.98356449264981,0.00900995832974077,0.271526678089067,-0.541374982636079,-0.0889645578884638,0.163024645302877
36.485,-0.28617203564444,0.223106446891767,0.940779929502696,-1.27773196143204,-2.55766762218293,-0.152130687635202,-0.805745368811776,0.121600308392088,-0.0259246498954796,-0.494475527820349,-2.15438116272868,-1.30161293647218,-0.870310384708473,-0.33886817868217,0.0981107457978091,-0.420818060768258,0.0935146294636,0.494822400389473,-0.97713936137501,0.00407579411012726,0.267510249076122,-0.555225958118616,-0.117188255835949,0.147279680834941
36.49,-0.306602274276487,0.227792224585991,0.953991089698934,-1.11453295687562,-2.76249129110318,0.0145255556132321,-0.746245958375729,0.189155591029719,-0.0978193927222712,-0.746283405305459,-2.1321298722533,-1.40345472709317,-0.871697319934591,-0.33749083351758,0.0885479188858601,-0.560312214541512,0.0841475095989289,0.545401691744288,-0.971119635659387,0.0017560125629917,0.275672723097239,-0.559718816030135,-0.135662414349512,0.122671186950829
36.495,-0.211020535869071,0.314214005381515,0.717277033454199,-0.693834445310619,-2.87859198557831,0.304390855551698,-0.598784403495142,0.134253194781427,0.0171233906573376,-0.87443346499199,-2.14307748318877,-1.5922733271093,-0.870898097668876,-0.319964530234933,0.0903355694505064,-0.598212719933071,0.0726255098583443,0.656084125635879,-0.963350715402723,0.00157763963473409,0.288889368455275,-0.559289133786084,-0.145821051548433,0.106481839153421
36.5,-0.361369698837933,0.518869196409849,1.08431548503652,-1.99751351658742,-2.86552615554485,0.0240318462653549,-0.825872953662295,0.379580269889775,-0.0579733150569163,-1.64457372361378,-2.32769104878988,-1.51309810682093,-0.853251142107042,-0.313952367110499,0.0972933715890021,-0.495750574581713,0.0396394760105858,0.716217341232123,-0.952496275915051,0.00603738636933599,0.293721538705482,-0.5690739934585,-0.127232982267545,0.0929779498866476
36.505,-0.566550843976152,0.237804652007373,0.888353489215944,-2.16495467108509,-3.38391527885152,0.0461311856150765,-0.913905316637849,0.363072324676048,-0.310181933561467,-2.6741391137989,-2.44151126772935,-1.35275128937874,-0.85121130475767,-0.297136087912307,0.108278177133904,-0.331569817359476,-0.00901455348161105,0.745486888162414,-0.947762289841683,0.0174148764398581,0.307205287987332,-0.577685040839421,-0.108078859636878,0.0798792094921905
36.51,-0.47001068400356,0.402277574369382,0.77805651353565,-2.12308486834892,-3.506293229224,0.14120589196682,-0.639005727026642,0.182577889830437,0.0310700733429339,-2.75062647975812,-2.24769346915199,-1.32212786325667,-0.829297088009889,-0.255507159184314,0.118174730205866,0.021834194552922,-0.090843983878273,0.833453569474549,-0.945111173644979,0.0263687481765526,0.314486716297958,-0.59581383895079,-0.0843441024852758,0.0800324831349583
36.515,-0.346897896360887,0.118575040275189,0.85451700432934,-0.0346172364527692,-2.88007031115563,0.553226806999074,-0.764345333719452,-0.0522663682939738,0.108656271364208,-0.712684235791443,-2.95768566274371,-1.79969942658416,-0.83794368342471,-0.202649722347926,0.11180215021338,0.45045939148105,-0.131983887432867,0.91389823275336,-0.936582456709174,0.0440435438330376,0.325665326118471,-0.606629305742393,-0.0812374247582695,0.0838888695308824
36.52,-0.458904540996783,0.482258234761254,0.731512356562111,-0.457037855875125,-3.33348180678119,0.729366357336515,-0.862149396418912,0.181093839375098,-0.248823950720736,0.73342173358656,-3.02684323908391,-2.08455919002886,-0.807511179292558,-0.218289436726082,0.108184324936798,1.03371511408229,-0.0730346300286636,1.07486501473585,-0.92251997300394,0.0549929107929902,0.329973729913816,-0.608449698243791,-0.0664346285122099,0.0971450581424844
36.525,-0.564296510957406,0.578247171475191,0.790806823527735,-0.616178509251825,-3.34970202617865,0.838095228016796,-0.853466730616074,0.377569092414952,-0.271982236301685,-0.233112358262496,-2.78593244516559,-1.79439554984496,-0.804434918611618,-0.237256847599633,0.101768644559487,1.38196667065928,-0.0485184714198112,1.12758006914826,-0.912777463875131,0.0677127668901166,0.33701620428447,-0.622609766076617,-0.0562777822168917,0.113242818950179
36.53,-0.730662944193511,0.58484020993231,0.791882538306674,-0.705791322533753,-3.39799134363042,0.964061323071861,-0.898497613282496,0.498941036581613,-0.351476907943043,-1.2841637063715,-3.00533611037437,-1.44007207964679,-0.779666786509827,-0.270120660824687,0.0929272900018006,1.75788959200017,-0.0809543943466342,1.11865732397897,-0.902434423530952,0.0829249538515778,0.337905326896466,-0.64347351701154,-0.0553343642697939,0.135771295643167
36.535,-0.789273337442954,0.544294906508497,0.638879417204883,-0.844447566129437,-3.59905623299139,1.12247506874117,-0.800264909661045,0.411844883627083,-0.3681962057837,-1.06916495285415,-3.1138951352823,-1.29505884409445,-0.765159949877357,-0.300621290609575,0.07640048331178,2.07761620871989,-0.147674604940721,1.05017411709602,-0.898059599577801,0.100492911336211,0.343451782530199,-0.649720600787894,-0.0326978279619737,0.157752394889946
36.54,-0.673602827422861,0.567812332754478,0.680691338716257,-0.516045083651487,-3.54280899688988,1.3859496713476,-0.794029617409949,0.275188953547194,-0.329042198769222,-0.329733367077416,-3.13928674262955,-1.30841819902268,-0.752261686596607,-0.321570655821413,0.0618044915690211,2.33331943971336,-0.181714676958421,0.92268583952934,-0.88723150855043,0.11163541677041,0.343454716627185,-0.670194808599884,-0.0059111953182911,0.18293375154941
36.545,-0.804364705690106,0.572021230000393,0.654121319416266,-0.490768823187237,-3.52148187993333,1.58315042852198,-0.822895140702387,0.312944782359874,-0.396422941862957,-0.417590840511357,-3.21231406074495,-1.25234120271675,-0.738302447626226,-0.347184388042156,0.0446625654772002,2.57856015035051,-0.183390750941107,0.746054376268228,-0.878049399820095,0.12355520317841,0.332140784649219,-0.699376979732002,0.0238069895587864,0.228742437253103
36.55,-0.818018222347795,0.175062116266587,0.627093303689804,-0.367197528821812,-3.64393938006301,1.7934704953754,-0.82941915091568,0.258688263500001,-0.469493885731875,-0.822608582371989,-3.22806772197475,-1.20475327058322,-0.737900610366886,-0.375293155276835,0.0277392326341088,2.78745117731283,-0.166739845522293,0.548100626655684,-0.878099053074993,0.129090741518042,0.322084908473199,-0.722482953220502,0.0526076775587987,0.26744082453195
36.555,-0.933591656908212,0.940886587716292,0.781542833948792,-0.414867449244084,-3.4210088239267,1.83021431432056,-0.834931212891693,0.362037516727059,-0.535370301835984,-1.31411732274479,-3.26176346392248,-1.14710728830373,-0.743135860833572,-0.386664492882399,-0.00859482676825753,2.91587369990835,-0.14148030086224,0.357079086816624,-0.880334335565639,0.126999220205439,0.308855172745716,-0.742939525965558,0.0672886453239626,0.303715544934138
36.56,-1.08972935813601,0.976535734282531,0.582205166322454,-1.25915990010059,-3.52642286666107,2.35909394769169,-0.884596250558657,0.360011921440979,-0.552211993827342,-2.43234676560872,-3.2874186297205,-0.951605186169666,-0.744836135593814,-0.378163561935176,-0.059615097392018,3.0937700417572,-0.0761318753486249,0.190994828124897,-0.881723527415989,0.130406533196652,0.292095784196906,-0.763958469870999,0.0854090609583401,0.359340371196971
36.565,-1.023532488151,0.68140127123302,0.558265062835373,-1.87104744593,-3.54502575102054,2.61146992955183,-0.915269231251726,0.414659310767741,-0.54895929603837,-3.34528261288782,-3.34050024598169,-0.784609122194958,-0.741935243897972,-0.383794114876284,-0.106316439651612,3.20935893507838,0.00388102428042608,0.138030178428099,-0.883623718501588,0.13094990339894,0.283237270058786,-0.778864782561758,0.10031538025997,0.392338216176916
36.57,-0.989232156824769,0.437251628727327,0.572426001942501,-1.93448944620872,-3.50298617332447,2.76333547942053,-1.00298369607012,0.251667106750336,-0.620999580806499,-3.67328739189605,-3.27952595055131,-0.726572413511357,-0.724568787204104,-0.386378388611257,-0.155282231102592,3.29792921429634,0.0815163284953699,0.0745766951041414,-0.888016863645361,0.124689870935117,0.27653553427183,-0.790246696619518,0.110848657713012,0.426979114559653
36.575,-1.11489091183193,0.353042029484399,0.550195546514377,-1.62546712778288,-3.38042966410636,2.9891846351698,-1.02647764984991,0.122335922981282,-0.698149281129683,-3.544263697614,-3.09638701136561,-0.824149801902967,-0.692546886057607,-0.418775381658538,-0.216954423634197,3.36675775128362,0.115815277305385,-0.0659581781823837,-0.890763092065166,0.121433317492064,0.270364258363438,-0.810421537858978,0.13289227049128,0.458350845830906
36.58,-1.13578504564734,0.437940771601363,0.513982442304159,-1.45137390357366,-3.31527248940234,3.18884518052162,-1.02903970116057,0.166194476895925,-0.604264835850982,-3.51856215289467,-2.91812895174868,-0.925703701288943,-0.685180507076631,-0.395643674721318,-0.280201529742784,3.27874464335686,0.130058209072095,-0.278611489037415,-0.890099982995632,0.107380671480763,0.279638844949065,-0.824170039513021,0.145048283152615,0.485658725593684
36.585,-1.10046301506834,0.454209534611113,0.530088355335277,-1.22393757859199,-3.142562682907,3.45779259611245,-1.07816968065266,0.150176493066435,-0.577975151515523,-3.44551120209987,-2.98569325493256,-0.9914038789928,-0.707709968333779,-0.358752929540303,-0.345169028672716,3.12354289216787,0.107223575567592,-0.37215814863606,-0.888535682053203,0.0929603419446007,0.287439561074131,-0.840381826655035,0.150149624473387,0.512206429744434
36.59,-1.33287425129525,0.438290458431245,0.656508960125226,-1.71236171615329,-2.94729778643139,3.53069823331545,-1.12905776392748,0.411397026861229,-0.839333931893027,-3.87172902642137,-2.77956631393856,-0.84423221784396,-0.706987890327281,-0.336993334119456,-0.390871342011692,3.03581668799878,0.0750036579499364,-0.332663247678799,-0.89772970522441,0.0755832856487173,0.296129737440315,-0.854964836691185,0.165420179113099,0.537114778331497
36.595,-1.71229453155624,0.66719376172661,0.8413499999712,-2.58245510716063,-3.43693942929635,3.45657137138024,-1.10181337058325,0.399040946563889,-0.787754535089832,-5.18936945629272,-2.36275325157372,-0.545219528616452,-0.700478029628828,-0.309102818057122,-0.412426559389096,3.0714536050938,0.00924107600264698,-0.300293131868989,-0.898127720636054,0.0632214098911293,0.301456216410207,-0.863177538687984,0.175968901300721,0.558625873268375
36.6,-1.1130195531298,-0.19772835525755,0.177925946563398,-3.6509050368016,-3.56762979449225,3.14514840543507,-1.07046989895179,-0.118343151122159,-0.568028106050909,-3.92905395377501,-3.17509482918749,-0.68148025088709,-0.710786323817131,-0.294755093608305,-0.408096075676477,3.21025911485384,-0.0681128359884904,-0.29689694023596,-0.909323338493701,0.0537509579318198,0.312414516985742,-0.873219430446625,0.188097366965919,0.572298059142738
36.605,-1.25926626931597,0.0791750786327352,0.641617040621203,-0.229353607755457,-2.52825012421234,3.83276987356596,-1.37837401590451,0.137200721754144,-1.09376728260719,-0.148634779652106,-3.34904444163497,-1.32748879488081,-0.737573402904367,-0.250493860492332,-0.43886814723811,3.40763599484093,-0.106568204196657,-0.286066236992003,-0.913900108450192,0.0432776670849914,0.311281761218026,-0.877434363967054,0.191676744812853,0.583780453406131
36.61,-1.74029928690489,0.36912745519887,0.546656500160543,-1.21892796013274,-2.68504984961288,3.76906182948517,-1.14654800974566,0.479449004954886,-1.06106948448495,-2.19549147265432,-2.27236699931738,-0.693764014564738,-0.760471832281935,-0.224127542863037,-0.439030972893349,3.55412227384307,-0.0806061075451412,-0.249122490232906,-0.919292213169944,0.0387112050349059,0.318182033057569,-0.895822842945819,0.175854225331363,0.589499565095943
36.615,-1.59304699339864,0.316106923429321,0.495576524341132,-1.13001783711695,-3.11643752050077,3.81686832165662,-0.938557998095379,0.368892287892221,-0.88499287320983,-3.95385863317077,-1.91841926395047,-0.501387725244379,-0.790606734887077,-0.183861408823021,-0.444795552456541,3.54740335466707,-0.00799990142046674,-0.189158884045668,-0.927422239052665,0.0324795442028294,0.320931027246032,-0.927958205012246,0.149451000244313,0.589865922927856
36.62,-1.36146440632534,0.311326608152958,0.497480346721796,-2.80637542708582,-2.34488308940506,3.52534441147342,-1.08417868822662,0.5531110778568,-0.895135393917434,-4.22153644361763,-2.03038543124064,-0.334644858623326,-0.811003081772177,-0.141888407672229,-0.441203029151984,3.37848200254373,0.0685613700118676,-0.14310105986996,-0.929647093236389,0.0208107156723052,0.31848021971628,-0.983101575413421,0.0954027540771364,0.584979176521301
36.625,-1.45649307568376,0.230146097583298,0.427586885417578,-3.62410729931247,-2.28338269264467,3.28155194559405,-1.16161579926947,0.593493460342279,-0.933222630164098,-5.68880530975169,-1.96254417536139,0.158282440864016,-0.83402497281159,-0.0895215418723404,-0.430763537089672,3.17458959984797,0.128096440908895,-0.136720734824665,-0.936660996194654,0.013981864742125,0.319782059050059,-1.03023517301359,0.0540775511336372,0.579772922970534
36.63,-1.41675235946524,-0.0989246867812043,0.397627192097064,-2.71877496197141,-2.16761169257525,3.34135346549941,-1.16715541728833,0.342581983731302,-0.862735976569427,-5.70695409218874,-1.95615778197373,0.0420004005221556,-0.871471124084944,-0.0192121626274386,-0.397212948293437,2.96119770970564,0.134047794451035,-0.0993898768142726,-0.93770901661986,0.0119328536043632,0.321622843290105,-1.05581194423279,0.0234689976643299,0.570286044988827
36.635,-1.53765928223067,0.128289367186016,0.449438379309298,-1.93510087473326,-1.742788580693,3.28212751404862,-1.20705315459544,0.128719827942448,-0.949425915389564,-4.49662569324625,-1.80328370532571,-0.527940005334445,-0.915937177263666,0.0541487704635027,-0.37458852890823,2.86941921880295,0.121411298472274,-0.0559487384259792,-0.938742685112233,0.00994067576328362,0.31995994893473,-1.08139327173932,-0.0178279819743001,0.557313028720158
36.64,-1.55002885650719,0.216884651572775,0.36967848699644,-2.90146217154454,-2.00466997350785,3.03107438466941,-1.17041693211966,0.341197540689286,-0.952723222858449,-4.64377657986585,-1.53276685374542,-0.806763069698372,-0.965557358163247,0.142647128184472,-0.339277904767286,2.79913597569466,0.0849880086554598,-0.0257629304540755,-0.93247315262846,0.010066490761244,0.318223688458184,-1.09335542268835,-0.0463638422524628,0.549914267553649
36.645,-1.48315550452498,0.252990639599478,0.347351929513122,-2.59544653157067,-1.77758487432399,2.96779479594118,-1.1009193704096,0.555565298396392,-0.927084100865741,-5.55698522827968,-1.26153166455249,-0.804573373334,-1.02382818903801,0.22252160152579,-0.32482815530703,2.78781014417006,0.00408570993472213,0.0455324072224037,-0.931430483194916,0.0115178077682403,0.31961383212052,-1.0986576986887,-0.0751806864456661,0.537225556289217
36.65,-1.48031209924703,0.269411382282189,0.272062044383956,-2.70526287374156,-1.57586121471088,2.81556654521052,-1.07704449323078,0.567220475355437,-0.825181265331444,-5.85108878588574,-1.20011312380069,-0.691678881482749,-1.07446509113903,0.301112067262419,-0.312006859574318,3.0021829715971,-0.146826676996868,0.285449237062025,-0.93134837096097,0.0106593056464733,0.3233754176939,-1.09830662059905,-0.0865114185434788,0.527463697783914
36.655,-1.45321646382807,0.217185744182836,0.230196577825549,-2.42216184504793,-1.46844809446089,2.73597278824714,-1.14059772394616,0.401043126926132,-0.84881429795472,-4.71308726154332,-1.42051189696698,-0.801133197135829,-1.10807566991086,0.336889218315022,-0.315434034584218,3.29125531218146,-0.261626854573562,0.515948197348928,-0.927230110011722,0.016954072415331,0.322278064567949,-1.08291813494645,-0.106156076457594,0.51016659652474
36.66,-1.38573700777695,0.202022766799828,0.16521808406201,-1.78569914005886,-1.10396220179363,2.72857213445925,-1.12338042820575,0.364641349547105,-0.870947371302779,-3.83396876996586,-1.34726192494297,-0.877039386554718,-1.14077944147326,0.340227894505187,-0.344853233727558,3.58217530412474,-0.333614108859151,0.728071452061037,-0.922267679926279,0.0195034039241284,0.32016244394129,-1.07949564969745,-0.117758129350719,0.497342826667528
36.665,-1.31130329472867,0.223537843475301,0.0650420036327295,-1.13916642805454,-0.73472445266235,2.71702525669797,-1.08981974741098,0.362625810476609,-0.832149512928298,-2.84347594609356,-1.19068864753445,-0.879519269278527,-1.16418937855889,0.338889291909163,-0.380218836691798,3.71753277920782,-0.352822392688533,0.932663134315744,-0.92694411225455,0.0230661599297172,0.326405939772469,-1.06821179724285,-0.126099111433938,0.484172884049191
36.67,-1.23286612646987,0.273478634591011,-0.00799904840891031,-0.658583076860459,-0.376495952847547,2.67465512918263,-1.06821113699555,0.383837554846501,-0.786474564948817,-1.95407690068669,-1.15817697171044,-0.823967195080759,-1.16397064059084,0.320888850149034,-0.391210548023344,3.6986785083979,-0.356972458037395,1.09503096539764,-0.928955717757686,0.020571952412534,0.325997952506323,-1.05471541975064,-0.124583352024439,0.47703051232485
36.675,-1.15031661129005,0.293869986674166,-0.121069018416618,-0.0931658631525085,0.159797049281101,2.61691250560681,-1.07859721777125,0.389624247525791,-0.764238869784295,-0.714942016350849,-1.17719349657275,-0.713114813942896,-1.16345029137504,0.313441003544231,-0.384697413832794,3.55133974323726,-0.346045714359503,1.2362957314994,-0.928167013134296,0.0205895556824955,0.333597215555142,-1.05044960010045,-0.120780722936931,0.467150872019539
36.68,-1.1567130107884,0.334090680570299,-0.13228358567167,-0.391928394597527,0.522536301771775,2.30139325034764,-1.07883462342559,0.482873735887952,-0.641636664935553,-0.0244771632403301,-1.26909813393292,-0.486337707887872,-1.15489133118162,0.309264724166196,-0.361210953811497,3.42775470987221,-0.337020688859025,1.27123355243661,-0.935896160900017,0.0189392078455811,0.336111786631169,-1.04508318474567,-0.108148900824725,0.461660486366097
36.685,-1.03443412934347,0.0589786639770922,-0.240518509890692,0.842692547501756,0.825049179117638,2.23101231117913,-0.972432301881733,0.00213390961742656,-0.745545171884415,1.54714304790483,-1.30186305835231,-0.527398355177534,-1.1172937033149,0.284082148567608,-0.34106806197622,3.39891412831605,-0.319973629106516,1.21344958036591,-0.935774730396452,0.0215503725844198,0.338901678145025,-1.03893996291815,-0.0984207192855955,0.444252346912599
36.69,-1.10910181436353,0.494748166781861,0.460020991901637,2.85000095306101,1.81628088373845,2.749823102092,-0.810550481213638,0.182912386416831,-0.860830908876751,3.75144023010037,-0.806735179692432,-1.28907726090358,-1.07181361021848,0.284658726787183,-0.327135336904756,3.44496565127145,-0.293617313215328,1.0727838390655,-0.941264901250884,0.0182974492088793,0.339615266809217,-1.02906441473534,-0.0915140287336189,0.431278354244265
36.695,-1.82102209120484,0.705566397544664,0.758493873245591,0.672251389898273,2.05007468963581,2.28898126877483,-0.916934959934289,0.56176816302582,-0.975636716392773,2.27157866343395,-0.486371129513361,-1.00944607748895,-1.0271782610658,0.285939394660962,-0.323219528335374,3.55539522888939,-0.289132753919984,0.91635728078311,-0.953107120946444,0.0164471335101234,0.336708940230053,-1.02372787475502,-0.0934098479160142,0.416043856031563
36.7,-2.46953248654451,-0.415513972496888,1.60738864515005,-0.22552702776,0.789397609546642,1.83219948594335,-1.02506217277725,0.891171496430447,-1.48289218138146,1.11441197561101,-0.713039338203017,-0.670589997199151,-0.971845569917903,0.294265703709489,-0.342480644420055,3.75838058956162,-0.313959399725907,0.75593886017841,-0.959889231923659,0.0173137719986769,0.338384639628177,-1.00181768288041,-0.107539200402764,0.388845635284395
36.705,-2.43103343420294,-1.18850963334491,1.26276077596439,-0.794238712177884,-0.203628442337887,0.727103746486105,-0.954371889622087,1.00852834923074,-1.5018259206505,-0.109318571194417,-0.45810129699681,-0.0911800959149467,-0.945512492032858,0.311603695490384,-0.354644650448928,3.94499186999818,-0.361849158715812,0.646041503395782,-0.964528585592127,0.0139485832116965,0.337515280694974,-0.987542668537436,-0.114934727820484,0.37245733563963
36.71,-1.92124590440134,-1.05541654142222,0.483988915419254,0.346093658515,-0.556199657150755,-0.0370169156852135,-0.894179950358828,0.868802694597266,-1.40665204720241,-1.8713904776351,-0.0846512724138264,0.622534140442428,-0.948842455486664,0.342608615796875,-0.366961416132906,4.22375782810767,-0.440842692017887,0.551780754931271,-0.976209233543005,0.00610863796716337,0.33204118991294,-0.990257803139888,-0.114785211399954,0.358110291532777
36.715,-1.34979552702188,-0.0351984428910148,0.690864538253545,1.41652712488761,-0.561157536891476,-0.543642972318271,-0.873795988972393,0.404022847824089,-1.12751207988171,-3.46399986640489,0.712168718177607,0.790446307484227,-0.961842716958445,0.364322129304444,-0.364829197890089,4.41670625973981,-0.498623286621835,0.478262909020133,-0.990923399154262,-0.00266961121911009,0.338117144064382,-0.999970914089466,-0.106171555722853,0.335228237964719
36.72,-0.913979168525914,0.4047990808651,0.823975695550851,1.07139335038217,-0.857487819898422,-0.68347512046706,-0.97050912716166,0.0780276960487743,-0.714640995963111,-3.97802537999789,1.13030110033389,0.475576708265461,-0.999261510812777,0.327805117133237,-0.411714181137553,4.51660501922415,-0.571788029429222,0.349145187736149,-1.00465041707746,-0.0155180178484623,0.344021139312253,-1.01885119796993,-0.106087960738911,0.32419985663585
36.725,-0.436030968401283,0.631927033155234,0.993688129662788,0.570628545137432,-1.10145637246568,-0.6782781162417,-1.11275172571319,-0.0179911204845682,-0.274355923293869,-4.20209454413504,1.17561635609293,0.0585459614488785,-1.00896560891046,0.258628519515943,-0.407277034186316,4.37785979290214,-0.631034888393748,0.198370237077134,-1.01209761522563,-0.020986526913042,0.35136646164858,-1.02142383579917,-0.0968647144945163,0.308805336021774
36.73,-0.101934913279249,0.78687115687046,1.16681369233604,0.569729433301697,-1.09736488078774,-0.446145060072257,-1.27363459947445,0.0333082029200596,0.235176220885888,-4.31051287387649,0.764416503286727,-0.272051554605737,-0.980270231036658,0.133327707981164,-0.352149563101621,4.31268204786629,-0.663248988927952,0.100391419965733,-1.01642848530532,-0.029121811037326,0.363064801463929,-1.03118678030605,-0.0771532243016537,0.298856781944304
36.735,0.0327638792460187,0.847871069617976,1.21386819193162,0.723425450988863,-0.946237260371467,-0.192276469801236,-1.32283145963922,0.0833429184800271,0.575041364368684,-3.95463067357707,0.219464562590482,-0.357805695054551,-0.912474582733282,-0.0485253233878117,-0.297083587810238,4.3667493351696,-0.655474491178232,-0.00807843231528442,-1.0181600634608,-0.0417559692024399,0.365289236992749,-1.03224371630932,-0.0492662230543345,0.291060945846526
36.74,0.0535978073695266,0.564195617913203,1.14335851638501,0.418325075372114,-0.822866472754891,-0.085827950240479,-1.19733932027168,0.0495513998340204,0.67781532121161,-2.69906116150769,-0.327395474279238,-0.172005368455668,-0.83212301662112,-0.194225709909876,-0.231806032209303,4.38178459777785,-0.620802107011414,-0.162883305167536,-1.01013451267227,-0.0436940435132203,0.375789660060105,-1.03060218927949,-0.0395215184877922,0.283004789051166
36.745,-0.0216716157698846,0.18767613237836,1.07409001200043,0.299949497272922,-0.799404329628922,-0.194672896748271,-1.01960757626714,-0.0291625592577931,0.544196067079706,-1.53118381272448,-0.502258533418471,0.0438286532972485,-0.796975962699671,-0.414197177565233,-0.1808116398514,4.24709923147804,-0.61969365381946,-0.295933931115405,-1.00342712415902,-0.0442522521930131,0.377431180202506,-1.01660814994221,-0.0310142213492589,0.271228941233078
36.75,-0.212906640017657,-0.151457842824949,1.02191746537986,0.519260985251506,-0.810909495848892,-0.445939603178439,-0.823111949572717,-0.120678652195278,0.301298904522599,-0.329583940951862,-0.556002634745968,0.2269053466019,-0.781427194065005,-0.519116623865934,-0.142741750402864,3.85413111489743,-0.677271403933278,-0.487118852774759,-0.99061322842355,-0.0386847321764022,0.374981584695638,-0.992605841325102,-0.0183458880416442,0.260924581121944
36.755,-0.399867856064539,-0.260491591551779,0.981051053404448,0.903249111659521,-0.857264754632782,-0.6532655243754,-0.714846658419956,-0.132142179634541,0.109021159881285,0.426863407401013,-0.521670139992925,0.211963573357699,-0.789111362565867,-0.582294652283103,-0.0768937099634057,3.3645807140507,-0.836115381252733,-0.735335062449654,-0.984028776262181,-0.0357732117923052,0.373514141764678,-0.979758231122297,0.00198411965006443,0.248294233922647
36.76,-0.520591151799108,-0.143937031245296,0.950805595586065,1.137981321622,-0.925416479947186,-0.819272740619117,-0.725981625354705,-0.044144346684137,-0.011992067208971,1.09696323775235,-0.463578770036473,0.168276937223198,-0.825259084339311,-0.623068141977079,-0.0465913664686182,3.00890521708054,-0.987494085918587,-0.990458143412045,-0.97654603085109,-0.03332139426546,0.368470887444718,-0.945896384595933,0.0279225418023728,0.237801828608783
36.765,-0.570210091226336,0.0167830858528075,0.863700946073431,1.07835235058212,-0.982770979760127,-0.892134596968128,-0.845066914842807,0.0100964174731554,-0.025585864124631,1.46103202544082,-0.502081514986404,0.325117117011632,-0.874270412736762,-0.649758654577313,-0.026909824884213,2.50884460599309,-1.17590224377081,-1.25279514661506,-0.958726759719384,-0.02288609327584,0.36755623526156,-0.918487583760935,0.061224078854683,0.229230927157698
36.77,-0.580831525080112,0.109867864810028,0.826187529401819,0.879903419094851,-0.951645104885067,-0.867723771421951,-1.01646177837666,-0.00805212421198864,-0.0372033849629549,1.48213085004612,-0.578015354386376,0.581437912124785,-0.934830923827439,-0.660209253930442,-0.00719221418879334,1.92463870988059,-1.3895173664937,-1.49476184860082,-0.95237985346548,-0.0167661762665844,0.367594299861354,-0.910627348868976,0.101081619093362,0.230859865854093
36.775,-0.605089572634928,0.178845489550144,0.893904489071217,0.502875507113339,-0.789020736307933,-0.735388319237413,-1.17897451555844,-0.0724990844353537,-0.0726807745614145,1.12786603369302,-0.621555044454773,0.787207092226581,-0.995189343741225,-0.616519988937572,-0.000599608823413422,1.31176252436764,-1.55976586145701,-1.62124332780322,-0.95138588279269,-0.00497716669877893,0.36767063523984,-0.905332324474264,0.128699169559877,0.227458739031366
36.78,-0.613819875379778,0.108292046328192,0.986551811678069,0.172463754204871,-0.640119389200255,-0.566381888593599,-1.4124867333645,-0.153772589685013,-0.102616479464023,0.450646665150513,-0.595002433457461,0.864645848890593,-1.09005128876137,-0.489453535820407,-0.001468101444414,0.372655430770704,-1.72270229866685,-1.64950340586541,-0.952217925180042,0.00780692487589658,0.370055416088298,-0.890871171133117,0.160873576353758,0.226782890341907
36.785,-0.449271430614237,0.00213867994104857,1.05002114103206,-0.125425721798539,-0.604706048769564,-0.435931085994585,-1.55967323789764,-0.170214498617348,-0.0922702901812537,-0.11054183442686,-0.486097565613037,0.818925954921738,-1.18510380353425,-0.35274080507398,-0.0144589286695974,-0.576031343951222,-1.78428302830151,-1.54496841825822,-0.959034761243662,0.0251256193723574,0.374917368700592,-0.874348227591949,0.184008497119986,0.223116708041979
36.79,-0.277282446688365,-0.0654866537491903,1.06330189469424,-0.267265834596334,-0.567196808073343,-0.327106595444103,-1.63733692266424,-0.133142633638463,-0.0303784206117859,-0.740789152872912,-0.315993527467028,0.704816216379194,-1.3486184559285,-0.143739871530244,-0.0577872943129138,-1.96728784378489,-1.787311639313,-1.29154442432574,-0.969675629712203,0.0462162088330993,0.370916388591323,-0.848471516229288,0.189696676283637,0.212102681997315
36.795,-0.247716101725133,-0.0718766534653329,1.05008265760536,-0.270643965744477,-0.52308561509754,-0.257743139737772,-1.55837637390653,-0.0432842059856705,0.0671044636877436,-1.0952158944391,-0.176244174875068,0.535369551809245,-1.51307344915357,0.0358288148040871,-0.127888153494214,-3.20334301605828,-1.71745763839335,-1.05094414602997,-0.996047302403529,0.0612712661082933,0.367861804855726,-0.830775927448491,0.185031805807156,0.196931510378919
36.8,-0.303207019919724,-0.0453825697822912,1.01033746211153,-0.299820979058063,-0.441624661557284,-0.174665594119903,-1.31165919572736,0.0230544530267314,0.128224355807773,-1.32589583179889,-0.158286894164371,0.301659480275884,-1.6151232826573,0.203423614947743,-0.192510943214259,-4.09191455728133,-1.51293796227823,-0.826480958567553,-1.01749409792769,0.0782864279252785,0.361575662943501,-0.818474455034758,0.15550417453618,0.191196078963589
36.805,-0.365703567827086,-0.0403539786456131,0.969042514152381,-0.340624288565954,-0.353725450961907,-0.130898169328702,-1.0962745837771,0.0233345554941782,0.0835138345941145,-1.58811203252001,-0.259706675376994,0.120084733238051,-1.62850468506772,0.360754481936003,-0.235978962203769,-4.48092903302923,-1.18643645391288,-0.594406968805831,-1.04782593322548,0.0859206362027177,0.356835997278145,-0.829199927295696,0.0897389507478666,0.178854975498457
36.81,-0.411987395742807,-0.0675684752207571,0.94385423888862,-0.400215070421881,-0.287896442035611,-0.108715347045856,-0.961346439441252,-0.00602795187460869,0.00851895010627821,-1.84402620520859,-0.366696058713722,0.014129308673026,-1.57308356517898,0.432302632829975,-0.25438624067052,-4.30053325239461,-0.877507735260079,-0.436622208149205,-1.05132100605051,0.0903887619831006,0.342369449979647,-0.842310233698174,0.0271827649791557,0.172901280515842
36.815,-0.46391922077541,-0.142231394100368,0.997423367757061,-0.353366273773277,-0.269387955960408,-0.0588435069521818,-0.992890497582584,0.0409851413708878,-0.462974198190123,-2.11216601670941,-0.409431811301221,-0.00180312706461566,-1.48928387233684,0.457083221533239,-0.25968644064641,-3.61407561552533,-0.55151877229311,-0.331976435310481,-1.04006065190011,0.0848758790364544,0.32410744651745,-0.863827523916346,0.00112058008337632,0.180318269477106
36.82,-0.500000225060841,-0.042801418625024,1.06176995595222,0.435700636167792,-0.392110060712016,0.234808586537098,-0.819828131701483,0.0613534162567661,-0.54223514890444,-2.56443765885151,0.953423256265935,0.00014764090970952,-1.30544091327212,0.452342774163243,-0.240965598344094,-2.82628276849583,-0.393012201914213,-0.344694894735551,-1.02782508742831,0.0939957821663685,0.315028187993877,-0.901657598294559,-0.00914314950046976,0.196523421615037
