Header,foot_Accel_X,foot_Accel_Y,foot_Accel_Z,foot_Gyro_X,foot_Gyro_Y,foot_Gyro_Z,shank_Accel_X,shank_Accel_Y,shank_Accel_Z,shank_Gyro_X,shank_Gyro_Y,shank_Gyro_Z,thigh_Accel_X,thigh_Accel_Y,thigh_Accel_Z,thigh_Gyro_X,thigh_Gyro_Y,thigh_Gyro_Z,trunk_Accel_X,trunk_Accel_Y,trunk_Accel_Z,trunk_Gyro_X,trunk_Gyro_Y,trunk_Gyro_Z
32.2,-3.68361570947807,0.311492059166493,2.08383007531111,0.508972380332226,10.1293326887247,-1.92215914479005,-1.87155947873057,1.15339579644435,-0.577453180549973,3.08472988234159,4.0847435142578,-1.43004628746432,-1.67019040450145,-1.11909338782433,0.771165112026883,-2.56911034311613,1.79789349864178,5.27362183076836,-0.680051129461543,0.371774935978073,-0.568847586426979,-0.835694509874772,-0.0387315553073619,0.86117269270826
32.205,-3.30026258214848,1.12217091603184,2.49396067500883,-0.596814902203989,8.99791128214182,-2.71871395905353,-1.93117175403311,1.36553111430334,-0.914489626143405,2.82883374658815,3.98595313524303,-1.44545161018575,-1.68848983702582,-1.38314541196599,1.27377566066457,-1.77094123529169,1.22290880338464,4.91827154707008,-0.652004777212384,0.307500802618078,-0.530058545201006,-0.837849903106685,-0.143464709544881,1.14591276914818
32.21,-3.25375810111579,1.35268841821869,3.15912434671331,-1.87957395215435,7.78222878595483,-2.95363158133532,-1.82400576256947,1.42801637181485,-1.12327562916243,2.46450623585732,3.81821604425754,-1.15242286772432,-1.52261068248453,-1.49745308769748,1.44050787369777,-0.846383334303144,0.342595011674927,3.8181516083948,-0.807654189454766,0.208438430117559,-0.515555372124469,-0.735747220406719,-0.25093421253763,1.3526886220914
32.215,-3.56491986418345,0.686131547579477,4.20320947146277,-1.87253270308756,5.0645329907393,-2.564163259836,-1.5406109222284,1.36083403394405,-0.991001801367573,1.02751177351953,3.47520031727719,-1.0600271682349,-1.615441751357,-1.35853677975667,1.24121830289472,-0.324235586381372,-0.107991056187789,2.44468440746285,-1.03261544521678,0.174465705024741,-0.498551869928634,-0.703841380188498,-0.323842376636617,1.45218114806876
32.22,-3.05972775270986,-0.56871716718564,4.12282560597894,-1.40855165322084,2.63802643097626,-2.92454126417824,-1.20032875081867,1.26511153169961,-1.06627959639382,-0.798114087938205,3.07824731261146,-1.05275833336523,-1.84613494500667,-1.10010394425169,1.00634648126756,-0.0229182372959704,-0.132434837470857,1.96957025544138,-1.27052030867622,0.127604336427235,-0.543251340323305,-0.838521904580487,-0.388224611837807,1.51833118496798
32.225,-2.33061683991548,-0.105410010038642,3.77206870585401,-0.487917853142189,0.502219847248838,-4.17231162851497,-0.862914026444916,1.16091926577688,-1.2252482950774,-1.95002819806566,2.92434353565861,-1.11368031573225,-1.92707053759447,-0.91721049693924,1.0498367391074,0.55359789401827,-0.305943143981805,2.58958908082196,-1.33278990443277,0.063719219787481,-0.583845966033239,-1.09318828334285,-0.360743597735197,1.57833153745985
32.23,-1.66383916669812,1.24668224045509,3.88122255752429,0.388048917448701,-0.641016004307518,-3.31860131811638,-0.656370780103917,0.988096864272444,-0.875150655894225,-2.79216548760682,2.84954666050468,-1.30442573686278,-1.85043311680724,-0.824273347647198,1.18450007508758,1.27196786839819,-0.73322913045985,3.45820786556419,-1.2699505471389,-0.0209411005155846,-0.588420530198144,-1.30178231427151,-0.178152711828752,1.59357693226767
32.235,-1.07932555779441,0.854745665561789,2.98117720904317,0.960856491468744,-2.0524698401157,-2.27953453470622,-0.60946128650796,0.856497514824319,-0.450702303015416,-3.68113036146371,2.25086466398434,-1.60339232035821,-1.62499354262813,-0.768461663261934,0.999956985262824,2.35757190245008,-0.781606721201331,3.7750180561716,-1.22756439430374,-0.0732880140361947,-0.525875598170941,-1.43011639254068,0.0438371634553336,1.57416601456124
32.24,-0.8284395293169,1.17478051209265,2.25687642488384,0.592818835371972,-2.86698530383448,-2.71752894511745,-0.639431416844809,0.775247117608412,-0.0525735319366245,-3.77913306256989,1.84606092516294,-1.88117772593831,-1.53963794959459,-0.659683836128779,0.777354556160662,3.31877758428468,-0.427216589976921,3.86763606928081,-1.17699131489354,-0.135767803816004,-0.427325718045554,-1.51053213958359,0.30215853054168,1.47177351463889
32.245,-0.658823050730709,1.58015596996518,1.84602395075292,-0.121438522454464,-3.44990286179927,-2.93922723637257,-0.742203581595778,0.747138438839523,0.135760402824239,-3.54823523474233,1.56575696564144,-2.1435865297749,-1.53039181779834,-0.548103347718075,0.671322896919796,4.11082263615394,-0.207962128527031,3.63792759408448,-1.20421037313642,-0.166578260734499,-0.300509830994674,-1.51330150863227,0.439554107342276,1.36610304919704
32.25,-0.300704844961533,1.57620773671359,1.4725933660846,-0.834472974829765,-3.71977039345114,-2.83218021176241,-0.866272927710543,0.63856279933395,0.0111773884716268,-3.40747035400523,1.1496749343019,-2.04764478151291,-1.6110497060259,-0.376444891703041,0.542376743435441,4.61919654210793,0.0662135975208774,3.47156091091954,-1.2677134579754,-0.201690578764464,-0.129300942128957,-1.43713593439184,0.440772466605542,1.13391674236307
32.255,-0.136710401531131,1.42659186909733,1.28260755715832,-1.26221646299756,-3.76705617597225,-2.47047002553865,-0.926046094950991,0.554822269271543,-0.111977364888485,-3.21607974082283,0.781587309928688,-1.75932326842008,-1.62706574566706,-0.300974383264614,0.440875055393482,4.99495168410451,0.32512483687036,3.50411414520978,-1.31018148009651,-0.180571051453953,-0.0407172332851835,-1.33348052791947,0.311045779172525,0.799087559648723
32.26,-0.230652565792981,1.28564561129973,1.22927930706242,-1.40586654700038,-3.87876376735885,-1.93913735701263,-0.911098269511347,0.551527668004623,-0.188717007648352,-3.21891870103565,0.506203935154819,-1.57247606681764,-1.68910321851607,-0.261158183634733,0.442349697241784,5.23580299218417,0.479008830208011,3.40912079344336,-1.32879312719536,-0.118173333167588,0.0252166446165282,-1.24865860956765,0.129332949699216,0.365310855300372
32.265,-0.331197613875255,1.17129988161718,1.15633517524041,-1.49805810850049,-4.10967773463457,-1.42502413227432,-0.782735478360593,0.526977346129842,-0.259341773421208,-3.44178773190609,0.1426962006688,-1.55212358085951,-1.75627052879163,-0.253541483708828,0.443729129476864,5.24156502024967,0.434495367529622,3.35735506547238,-1.32314468695242,-0.00122388408234027,0.0536917811117197,-1.17610535402229,-0.0507366971438988,0.0323626836498412
32.27,-0.332199936121445,1.15279148851365,1.08392904106233,-1.62250104434312,-4.34429461721907,-1.02945755847402,-0.631122066838677,0.405637917454441,-0.317017752525801,-3.46381685101649,-0.188955106804432,-1.59730334404721,-1.77779708638547,-0.276302105878639,0.376416484907689,4.92676621696582,0.2327233223782,3.49808881089841,-1.32284569886443,0.143375196743663,0.0524980769532649,-1.07574949427382,-0.255652870506873,-0.211907854612622
32.275,-0.316423380064768,1.16447483775665,1.00039104746888,-1.80192830272388,-4.64784681604144,-0.522696355753402,-0.465495241375947,0.190355124915552,-0.318724462581627,-3.21788948350513,-0.564444862943881,-1.60256358026415,-1.7553758188475,-0.339648934450653,0.284745716509327,4.48270287000919,-0.0274412216210571,3.67492030116196,-1.36340014769569,0.248709761951261,0.0505262714833362,-0.981780994981593,-0.413650279293677,-0.22771896879166
32.28,-0.333831293376065,1.17830442861074,0.972075301234814,-1.93069385206278,-4.89526429239776,-0.109276415604015,-0.410020624673343,0.0610901733702245,-0.321615219247309,-3.00397307886348,-0.845166144662524,-1.60766162351895,-1.68557356883756,-0.409127462895307,0.176779212704045,3.99138335469361,-0.297785522895713,3.73967567716802,-1.4322452125729,0.316278002524391,0.0321259680172336,-0.897576283269856,-0.594868604526964,-0.136888307922407
32.285,-0.359439467388965,1.14786996577066,0.968736798226006,-2.08393048370675,-5.18010876192233,0.293395182892489,-0.376307114904541,-0.00516057056780902,-0.300610117685565,-2.64483889289584,-1.22884148172492,-1.63675326162713,-1.60057969337335,-0.48866678510348,0.032421236082029,3.43506830376594,-0.616008151552606,3.69869896132567,-1.46373348183192,0.317917039552351,0.0175641907193777,-0.841683074451181,-0.728263059057441,0.00847566525719317
32.29,-0.403050733440999,1.09916116637593,0.994351780881916,-2.18558672288028,-5.41497237113742,0.560042264725105,-0.357213637597893,0.0520904171791952,-0.256732843363659,-2.23321910031604,-1.5053989986664,-1.65035428081404,-1.54017697187682,-0.534155712831254,-0.0614465717751029,2.99491122886759,-0.78106307750752,3.66129811619194,-1.4635318935284,0.321092806337704,-0.0025112805995092,-0.874141865236798,-0.800123295261062,0.138000926053464
32.295,-0.51887242180596,0.957426306691389,1.0645734221512,-2.22202960198848,-5.89728506817966,0.947347459530627,-0.361966741815538,0.201614725769385,-0.345477028613526,-1.63817812044317,-1.81453441897304,-1.58127068500165,-1.43580700656645,-0.609735364364958,-0.153086287622551,2.40359874557479,-0.938680212624377,3.54566629112674,-1.40241255694999,0.269181249178897,-0.0552929818314418,-0.965466261986135,-0.811185885473216,0.295782018918237
32.3,-0.567653512878999,0.850270317584822,1.02557198554755,-2.13160362876047,-6.28735295231974,1.16278091865251,-0.408368078666819,0.278567662029027,-0.411131371355221,-1.13425211168483,-2.15113084880369,-1.49852845453537,-1.36891053372939,-0.646111269160156,-0.208128551677836,1.98942805030738,-1.02653989992702,3.39486556363171,-1.3374491004775,0.209418855538734,-0.0660781287668901,-1.00936972510361,-0.749555596176817,0.376103778430015
32.305,-0.578271815856285,0.762696714946814,0.971948373143784,-2.01036519755574,-6.5453576377609,1.30132562542469,-0.458149936145802,0.291624591721239,-0.405733747229701,-0.600055737128522,-2.55191897738506,-1.4150137223892,-1.3189434217028,-0.644196592580488,-0.23764714536407,1.57122298459803,-1.04776984504454,3.29751614681896,-1.25291205102223,0.133615598477166,-0.0423028066064624,-1.03758436202429,-0.611183586909648,0.414804403821942
32.31,-0.56573091045584,0.635462171836236,0.900949772360247,-1.69943415824449,-6.86746142194674,1.48243850519654,-0.480151392315182,0.286021564249339,-0.391308499884555,-0.207713908577786,-2.9346941557292,-1.35181811751878,-1.28190599610092,-0.635234539059112,-0.232588587816166,1.28104955231674,-1.03399105803297,3.28035565082226,-1.16280322882808,0.0885350637135515,0.00613116162850437,-1.06733625619635,-0.479938337730251,0.421712777487813
32.315,-0.596645522027673,0.528207851672777,0.857197593472798,-1.39234793285587,-7.08922520715477,1.60362169180429,-0.468894926699904,0.293269524618658,-0.354180831691508,-0.0105086142562554,-3.21586486547976,-1.35945575500953,-1.18837753506432,-0.644281283634736,-0.209767567947035,1.09060136115029,-0.952098285755109,3.18996895038157,-1.10428237252991,0.0712501764104995,0.0410409354049749,-1.09826969884268,-0.394883826176063,0.39961288564922
32.32,-0.62291700822852,0.411576974543827,0.765512878634124,-0.853040827774967,-7.32639824959718,1.74104184721377,-0.439824100261889,0.336288482591169,-0.386448320262869,0.148717832105673,-3.58528748307548,-1.41142175690362,-1.11150639814932,-0.652070739065332,-0.195462522395582,0.878195701204824,-1.05636735908778,2.92451371358726,-1.00544512970342,0.0918050106564759,0.11548102399404,-1.18238584146674,-0.292747262292788,0.359925061211506
32.325,-0.659361720797002,0.371393893497928,0.641113148938499,-0.288646790765059,-7.52822880207397,1.81401479392125,-0.422539005828668,0.357748356516723,-0.396187101750644,0.314320596804866,-3.85108006903464,-1.43446708816798,-1.00766333924456,-0.645921851485485,-0.104644124688584,0.791930850198345,-0.96446051642156,2.50718308531235,-0.944666419562065,0.0866416014764831,0.174054107484844,-1.26105440177356,-0.273095556318749,0.361313447573877
32.33,-0.687849701972073,0.379400637376489,0.575013934690524,0.0984964187161713,-7.62695072820113,1.81237100648455,-0.383587882996935,0.356383589795069,-0.372469815385279,0.378675603579762,-4.10467489010835,-1.40293949713748,-0.975871717780202,-0.634721848149549,-0.040613722507062,0.835554741739521,-0.82284819177234,2.27844611221001,-0.88112230797593,0.108154163100975,0.201299468260754,-1.31866802976921,-0.255130458038711,0.356212873481224
32.335,-0.703969620823489,0.379512904537016,0.515839746437492,0.403551170794428,-7.68610102235318,1.76449978192208,-0.344135193593405,0.362495293991253,-0.363878642182994,0.363900680303628,-4.34717762128068,-1.34737759114654,-0.940369858844365,-0.631293132707964,0.0239756533543455,0.857150445356144,-0.789109935788381,2.14090022373955,-0.827816994896609,0.112101602473806,0.22737158215984,-1.39274805773674,-0.226097010851955,0.365074127912521
32.34,-0.701031723395311,0.448666667307739,0.489869057807026,0.604076583086572,-7.72430851594467,1.67937373094425,-0.304177142821802,0.439736526905027,-0.37795881888806,0.265408991336761,-4.6994902801405,-1.24681327798151,-0.926472192471689,-0.609968005489196,0.110538832246498,0.908063029550685,-0.889133876902317,1.99962457932279,-0.764783850804576,0.107506886563113,0.243127590729897,-1.44678716397582,-0.242486832178616,0.359454488957132
32.345,-0.740351766854395,0.510968927270455,0.520588621808243,0.734842128985973,-7.73884550675043,1.59010030078462,-0.297667399094,0.493376003708143,-0.374768273602373,0.133545198672575,-4.95891625309297,-1.15456297095243,-0.888647584966967,-0.605257370880849,0.141567111915054,0.957753801605643,-0.993275904882557,1.9941184632593,-0.733166239348226,0.108668315433283,0.242242206812429,-1.49868766991333,-0.276773935471998,0.355567020140206
32.35,-0.80815229468769,0.516168003715128,0.584335990885119,0.824490446490479,-7.75248354979425,1.52150490138909,-0.329506026229145,0.495102755781994,-0.404486818627796,-0.167454641865245,-5.22556774462431,-1.03451472203574,-0.821405094076876,-0.59599945471095,0.154642055063737,1.00617164925196,-1.12065387378778,1.99463947859537,-0.696879649288851,0.115171726204144,0.209924044610606,-1.51565350731235,-0.32308788349671,0.344704136731995
32.355,-0.842819949651822,0.516083251984213,0.614915461144572,0.899944855532804,-7.78621421071023,1.48285713915072,-0.360108075048125,0.470308050436521,-0.434484699817409,-0.437046142964896,-5.40051589579771,-0.948540658610901,-0.772928010790115,-0.592801508427078,0.150826686649412,1.04517123469808,-1.18534539229255,1.9619962119556,-0.67264792678004,0.110682015558646,0.161903041788741,-1.55787486456057,-0.367100862392768,0.334531784057617
32.36,-0.865229196694403,0.540243569224124,0.657864019847848,0.915561929647679,-7.76621717211998,1.45268160402042,-0.431966446922784,0.405534969334478,-0.41944241058029,-0.810964269041579,-5.67565133498076,-0.833420819964183,-0.752726004190746,-0.591855500340279,0.132829450469379,1.10255083704631,-1.19822790826629,1.88315556018346,-0.644556068465152,0.115040571755178,0.0907163235122197,-1.58568649317995,-0.422724122922052,0.339809169259946
32.365,-0.865193250368299,0.551306491496641,0.685952125060005,0.915301903321022,-7.7292551285127,1.43310628515523,-0.5303195012248,0.365621329049409,-0.406399653029252,-1.13501100959399,-5.93986559897004,-0.716920998078528,-0.732848632319844,-0.60104698321632,0.108031686249998,1.15979579002112,-1.1871028369915,1.80128209869742,-0.626703486310769,0.120627178045978,0.0387541040512193,-1.60563994447134,-0.453098518110431,0.359903984979852
32.37,-0.902165158335027,0.545513661204291,0.738337986306077,0.938781680920259,-7.69467122003261,1.42996316962196,-0.650191109152212,0.324240815820165,-0.432863596044094,-1.29880809458955,-6.12735113976515,-0.628277967261246,-0.703389632212464,-0.621283733103438,0.0742219468815617,1.2495450109819,-1.13027711605647,1.6879099523607,-0.614017791295772,0.129894934775064,-0.0360803863484113,-1.61194248483142,-0.443770637152949,0.403942610305097
32.375,-0.961463541530735,0.540973767976519,0.787009365025544,1.01472268943879,-7.6584377325686,1.44352397749744,-0.754489565882537,0.260002256155626,-0.500422772496221,-1.36507624219054,-6.36157675593362,-0.507310088391102,-0.670005666840351,-0.648333240463882,0.0165836032698267,1.34540063317231,-1.00735149211365,1.52934491508092,-0.609663433866736,0.140258990504124,-0.0830011336983722,-1.60261510203487,-0.394068550291844,0.486856437118497
32.38,-1.0565930586072,0.558902577655231,0.865718261341736,1.14479030869691,-7.61787945077326,1.46424378950798,-0.839615411425491,0.233789122808284,-0.56232749504916,-1.36920238422061,-6.57859643020564,-0.399178986950853,-0.647130927272488,-0.665036966311437,-0.0261449155128183,1.39540336621314,-0.897770186202622,1.38751603414401,-0.613129892926352,0.136854445729267,-0.11248786006114,-1.58476367059352,-0.316242096066414,0.557558897458383
32.385,-1.1901404495279,0.602560500673786,0.955060716562935,1.29949435773502,-7.61247463121952,1.50835919444918,-0.902545781853978,0.236856045184222,-0.621071101512205,-1.27288950002251,-6.78770418636218,-0.290692643762908,-0.626970507021753,-0.683248240968116,-0.0648821052365671,1.44216908083834,-0.790412927005151,1.22887503174603,-0.625720063451676,0.125597688288369,-0.12477811470193,-1.5421605768873,-0.220404986579471,0.640287647963531
32.39,-1.32469352492518,0.605476906581376,0.984529773326046,1.42838623485008,-7.61805115798877,1.59350112898444,-0.917510202361797,0.24541128311362,-0.669634663210169,-1.10822579420331,-6.96809794215301,-0.187549935114006,-0.605831491806946,-0.71082396244469,-0.109390690125986,1.53998558278894,-0.671112823171902,1.00625223645435,-0.626914607333309,0.0974498892378549,-0.128328901431312,-1.47936352786375,-0.0896992052609385,0.735788254946184
32.395,-1.43165978045479,0.559965300860058,1.02474319658814,1.62711316894207,-7.56172664350185,1.73778268735153,-0.92936297201562,0.230795856515373,-0.716923615267766,-0.974100682932475,-7.16004984338063,-0.0696396618733295,-0.580495538896221,-0.731830515533068,-0.154215157080678,1.65008874176469,-0.605828539801154,0.843411394379637,-0.648625606498336,0.0721917277300756,-0.114281951556577,-1.41676766442565,0.0275651075076443,0.794613897433158
32.4,-1.50681687701464,0.558236427248002,1.05566871741363,1.83736228225627,-7.50401817615348,1.87449221739013,-0.951043977621487,0.221976231909258,-0.739294978916458,-0.879512151263848,-7.32437046890666,0.0210198564849252,-0.553422305084468,-0.750948229760377,-0.190443983262084,1.77375102377637,-0.574052505389513,0.724125802520327,-0.676266428302572,0.0363872285363581,-0.0927175112861676,-1.35472265455891,0.133373514473609,0.82804021011325
32.405,-1.60041468962234,0.565688296871024,1.06852349666153,2.05494057012553,-7.43821540874537,2.03579574697964,-0.983424397709028,0.236187975186713,-0.775341180090906,-0.737701238174717,-7.46178779997224,0.135808858605756,-0.504035864046071,-0.779295413494118,-0.232255599569596,1.96113128310729,-0.540023673166353,0.614144450183018,-0.714491570471242,-0.00901902271616851,-0.0593508472474235,-1.2109088195907,0.226662527387713,0.833114651527721
32.41,-1.6936992640289,0.605343554462104,1.04618708463225,2.22436091531177,-7.37024856143913,2.1665612363351,-1.03247731009521,0.265083071244846,-0.805482558834734,-0.549533101425189,-7.56248178376012,0.269106393329302,-0.448930556883258,-0.802776185409309,-0.268192075305938,2.14193463020148,-0.511674637589643,0.521126431523858,-0.751552480652263,-0.028069748119198,-0.0246174386013475,-1.15861615835324,0.283484540151234,0.794549686688196
32.415,-1.77005253843103,0.673115120172094,0.993001836634934,2.34650770335664,-7.27732246055079,2.3129535805614,-1.06881602041496,0.284857729247239,-0.818999503498561,-0.469133881019159,-7.63407870221331,0.369210754715318,-0.373697853309037,-0.833257784035385,-0.283804366331371,2.38024790788145,-0.489857355797757,0.39097103047492,-0.779203898035297,-0.0643840960353255,0.0111461583401128,-1.11354891628872,0.333609241510836,0.732070957721527
32.42,-1.87238228807638,0.838639805454179,0.912054965982605,2.29768651910849,-7.1016188615905,2.52248348064185,-1.10960226383649,0.320527880723067,-0.840490400360732,-0.455126811568745,-7.6701625220496,0.517046351987122,-0.308506152406199,-0.863498940608963,-0.279660415485907,2.57024076321244,-0.506500136234975,0.243730974207316,-0.810307122994337,-0.0855584791761831,0.0604780272354115,-1.07145245516493,0.384650280459749,0.656668765663287
32.425,-1.96868168669545,1.02160164197166,0.861046084794042,2.13790407814637,-6.87336841828163,2.78536721038739,-1.1468435334371,0.353894942310678,-0.871186968558681,-0.525973185202045,-7.66983004399367,0.648155246696176,-0.250299140117786,-0.896612324393538,-0.257880029440458,2.79049094571049,-0.542223712694894,0.0361275037149242,-0.820327416360849,-0.117973407633898,0.0953733066354316,-1.06923143966021,0.414156314755778,0.566426055842839
32.43,-2.062589787404,1.15211167492302,0.835869260170238,1.88471971604492,-6.67077359107782,3.05570723649118,-1.20079956715285,0.380138392005513,-0.974904353398166,-0.800909607589251,-7.65565063734236,0.800064814613635,-0.192055365525832,-0.917648096265567,-0.26034292336211,2.9779139440201,-0.676619885540602,-0.1404496072447,-0.832749437904329,-0.130125990891218,0.133997880918429,-1.06781809829808,0.431424374376324,0.441132806608295
32.435,-2.16671340606752,1.17727921169358,0.844755607138236,1.52992313860329,-6.38865815953863,3.43827211644767,-1.24393933343623,0.390968585393402,-1.04829995142422,-1.1213845720856,-7.65928322526651,0.888962599781936,-0.146027543028085,-0.921747623345142,-0.244629943233989,3.08520425503775,-0.758481543686677,-0.293863532103825,-0.830713626282629,-0.122873794143676,0.158641313141689,-1.1094996727449,0.418425580307099,0.325412046172943
32.44,-2.31299824234344,1.08824763108999,0.909985413606155,1.24750441939399,-6.07303429073031,3.89740897913521,-1.30095419795832,0.434998449451708,-1.10485328087455,-1.57395783924265,-7.63491550157692,0.953541658275126,-0.0994294821191202,-0.918474893242765,-0.256786888846374,3.19465871969316,-0.791023714410386,-0.462151816611956,-0.829899850309306,-0.131637811774666,0.17784136368741,-1.13813424245708,0.391519117983735,0.210840777349613
32.445,-2.48054501495567,0.973882032712887,1.00209523014388,1.09400913037991,-5.84208174677618,4.34163039761956,-1.38234098852546,0.482007774999533,-1.1406100039338,-2.10520025059193,-7.58816113886416,0.973075888590292,-0.0984639729577563,-0.895517277650386,-0.278990028865976,3.25201300587045,-0.760962267826686,-0.620129226034635,-0.809925679123174,-0.137526087798003,0.184197777608067,-1.17756064259062,0.331354669555975,0.0802045458434808
32.45,-2.67722965614637,0.863252522786325,1.15084531901883,0.996376965346832,-5.61497467139271,4.88893785532565,-1.46983045589993,0.500814552765843,-1.17345325809127,-2.62290328404241,-7.5111441252004,0.980554920582633,-0.125473229747519,-0.873783359069366,-0.298128275255306,3.22931714970882,-0.714846604886819,-0.730561856768095,-0.797546204257978,-0.122378495799878,0.198044074970318,-1.21962234704394,0.286145045935779,0.00687992035615019
32.455,-2.80747489579354,0.775922268252311,1.21376836059107,0.923800091820796,-5.48929739046268,5.2774195638639,-1.58110361981874,0.481718817233868,-1.26948829321154,-3.29557087834871,-7.3761913839523,0.963782556917427,-0.177154028734978,-0.843594607045687,-0.319095623602369,3.14969943054698,-0.641170750619023,-0.828099378858988,-0.779549396863094,-0.106881808333034,0.209722605301395,-1.27529244413423,0.22063231367418,-0.105943534488887
32.46,-2.9505638421708,0.641021255781066,1.22148325224557,0.802763970238723,-5.32093199307491,5.72282328416181,-1.70044707568373,0.457828946180864,-1.33492725562558,-3.87105942621819,-7.25736000855476,0.8877700658499,-0.249201663954972,-0.796131725120942,-0.325631749840823,3.07723549863597,-0.578053817057768,-0.878089690121926,-0.768530795181657,-0.0901577903700113,0.222081614465247,-1.3179631637774,0.164438478349415,-0.182237780638627
32.465,-3.03756354700299,0.506156499268728,1.16537954658221,0.638715015275156,-5.16755486347664,6.04189357661532,-1.79926984381679,0.468269736063295,-1.33665047966586,-4.20434724543036,-7.14496045510137,0.777592901330283,-0.346497803981568,-0.716028027522893,-0.320918994303207,3.04123540096424,-0.513537239787964,-0.886147644589868,-0.75867921034177,-0.0563895527726691,0.237339231458486,-1.37324484649231,0.077308042944834,-0.264830324917186
32.47,-3.0786478803298,0.316817682399702,1.00373152357754,0.429854806740996,-4.93629299660762,6.32989840859033,-1.8879498992999,0.422627665426167,-1.3337761253585,-4.55967065422194,-6.91518513831542,0.607772829843854,-0.430737400902732,-0.624820428330403,-0.326615161699042,3.05998146281027,-0.470689047891676,-0.885670984307728,-0.759978496365577,-0.0229460182373064,0.248916959982079,-1.38944760674321,-0.00662029386890724,-0.29775741067513
32.475,-3.09518272214397,0.00139134987074423,0.806032492814445,0.301990978585324,-4.57274978848045,6.63598352559731,-1.95032189240546,0.339488479884174,-1.4333112467251,-4.87466570062752,-6.71915668434248,0.460701888733983,-0.524055952453614,-0.467145177212713,-0.334091859956288,3.04145960533428,-0.465226588647974,-0.877381058096268,-0.767461612334156,-0.000384354790765326,0.260199333162958,-1.39121782779694,-0.100698202588422,-0.297620933396424
32.48,-3.16969204153946,-0.263064653269458,0.595773531534726,0.302116128976204,-4.17696007087017,6.94417783706393,-1.98017697374176,0.349360088849192,-1.44563287613346,-4.83202589814957,-6.45370420521216,0.193440536034438,-0.612216231521895,-0.311070213094657,-0.338684444083803,3.05067945560063,-0.474946626861706,-0.82603613759633,-0.791036122916828,0.0153718087445391,0.264847313123482,-1.37044909180746,-0.205101837395076,-0.278869928700572
32.485,-3.25888245643433,-0.240504382922097,0.383448139149617,0.342470786909778,-3.8720904725801,7.10362091602989,-1.91122335845344,0.369475251332151,-1.45156945647947,-4.56067660085266,-6.10452212721046,-0.112683334146096,-0.736694489698412,-0.0750887511375668,-0.311194745632691,3.08651436415382,-0.493654423325062,-0.727025363609912,-0.821361650164248,0.035404493946752,0.262653926263144,-1.31594856991121,-0.278010936669726,-0.253506858394615
32.49,-3.37022880528415,-0.0225451456883108,0.0420810569188039,0.111132362535238,-3.51487688849511,7.0641008333059,-1.81306933842945,0.352176334114755,-1.51099551611691,-4.37475197651353,-5.73329934749927,-0.389403637804612,-0.891569299678007,0.19247333212104,-0.223126862066107,3.13609920432518,-0.558163276664416,-0.494752241375546,-0.857098779483838,0.0354249504912741,0.253674587661662,-1.26086407007976,-0.35334545917439,-0.196135500610143
32.495,-3.50586551384078,0.175202213987731,-0.257119645651936,-0.249943227924887,-3.22279242635,6.92650539739238,-1.65351799119867,0.377654060430213,-1.52968381141337,-4.15432271872102,-5.30330836618117,-0.656232896445924,-1.03649731018632,0.390955821601926,-0.130123378946731,3.16386310099555,-0.646289478353459,-0.222657184189869,-0.886960799658407,0.0351022420827879,0.223766569244234,-1.18365880640116,-0.433002986902797,-0.123146645498416
32.5,-3.78707571006572,0.412598435033454,-0.537905930539971,-0.866708249457404,-2.8964830266086,6.68145141603252,-1.4395258456532,0.452762393664311,-1.54816497516136,-4.0936909534263,-4.8165892547928,-0.83156762085844,-1.21712811288113,0.61013930527197,0.0016023478543867,3.11477348847049,-0.785034474730492,0.197892898154844,-0.928102384327324,0.0252006414233689,0.207970873945078,-1.11361665825759,-0.470337878926879,-0.0499239246859881
32.505,-3.95126811820135,0.533336928409815,-0.728094840944879,-1.25798010106564,-2.68830118289093,6.38281458972097,-1.20565007192069,0.53700362298222,-1.6579389670292,-4.29494875310083,-4.32878049956631,-0.867381856637736,-1.37518423672401,0.799214130956819,0.0696862274993077,3.06027389384272,-0.904023093714623,0.42161655601579,-0.952771085963223,0.00797411055421188,0.185285616315544,-1.07040407141537,-0.475797004268741,0.0159380253327719
32.51,-3.86276417581082,0.421600609458757,-1.2766951736789,-2.36304403862951,-2.39081776865093,5.86275842084093,-0.897319388001722,0.582097934244044,-1.81735390588744,-4.71688645403885,-3.70932849898761,-0.773029080640512,-1.54573403902298,1.13229657176991,-0.00617284989269943,3.07974998081118,-1.10020930824775,0.655289010888275,-0.970466496434695,-0.0125337626456295,0.150703319048588,-1.04083110453476,-0.458082180090841,0.0818406506120142
32.515,-3.56274624912002,-0.067045293048231,-1.74314605552153,-2.81201450035576,-1.99533863964703,5.30240994260047,-0.690867061112115,0.564294620259592,-1.91269183239384,-5.08112524339696,-3.25982196581122,-0.656029553103314,-1.70332216040969,1.49238798915544,-0.147724787993296,3.34065400218749,-1.09753112552177,0.742798688314126,-0.981130040000447,-0.024534817551468,0.133451324061448,-1.02918717650718,-0.412041857303106,0.117771459747988
32.52,-3.4867433298275,-0.783222163410291,-2.07479828106427,-2.45983443927143,-1.48996132494993,4.77846860191157,-0.513483686199322,0.619577734792948,-1.82461675705953,-4.96426906578582,-2.73893897406919,-0.525041164244638,-1.93024075827132,1.94687741437702,-0.312665448387379,3.68074674870157,-1.11464341536751,0.801324474470183,-1.00529970039302,-0.0335543653838801,0.117880613542363,-1.01915477406202,-0.319659506366502,0.146847753453267
32.525,-3.51699383783706,-1.26266009071417,-2.26407268622981,-1.68746748771079,-1.02333282531881,4.3512324096891,-0.388755835545256,0.623383066071644,-1.65934697151686,-4.92859794058627,-2.11753251524951,-0.357915359613191,-1.98401034218745,2.03997620794688,-0.34631852289571,3.79316428853589,-1.21096144821092,0.864160355431246,-1.02648661387444,-0.0280207951356855,0.123567792956848,-1.00767356939266,-0.20934941228647,0.168399392626764
32.53,-3.3921842560462,-1.19334566008553,-2.29458358249472,-0.829247035880164,-0.598183585900578,3.9158892810173,-0.269841448584158,0.437619354032735,-1.69909941111742,-5.47315431987968,-1.41502526153601,-0.0187556459900212,-1.98349839199484,2.03941876881913,-0.379768147118666,3.52251360171141,-1.24342401179316,0.733890436291212,-1.02434699968942,-0.0345011682965891,0.133625071797253,-1.0236724622096,-0.0932599455664363,0.174881490438236
32.535,-3.25913816675035,-0.768554262916218,-2.28659360417919,-0.226470648072408,-0.121617280637164,3.43969618047698,-0.11887379259101,0.285303573009117,-1.86037260584994,-5.73289062914709,-0.633924399418393,0.40061161975144,-1.98644557931737,2.04262689589601,-0.187208268120117,2.94139865888576,-1.35472207940306,0.369213966876055,-1.02174623896077,-0.0367905188392573,0.164968941917496,-1.01418504557489,0.0157410436085825,0.174904585721418
32.54,-3.18770830655086,-0.45619001781777,-2.25291208994327,-0.212133840111519,0.300810904253596,3.10287515230721,-0.0167655819820097,0.234212737851996,-1.82197330095925,-5.3051121705611,-0.0504234490187198,0.616300246899144,-1.98918181022556,2.04560533113416,-0.00843278650873098,2.60864412906626,-1.34040111150888,0.100109148891974,-1.02008738682723,-0.0292501921357457,0.206449959508103,-1.00372796968426,0.120413843697401,0.175539002938399
32.545,-3.1143476220882,-0.305006600626587,-1.93903582142267,-0.846713476930725,0.930662165178519,2.73063724183023,-0.0573281737296499,0.222554779156626,-1.63964411340802,-4.64461741914747,0.592376692591342,0.733939282048339,-1.58065256356981,1.63727609443269,-0.0114303091175542,2.39752652142764,-1.16793235210256,0.0521335799368333,-1.04685643466889,-0.0226030595129384,0.245636020188305,-0.985543753357615,0.207052965562013,0.184294834839848
32.55,-3.06557157066719,-0.32977600249166,-1.62404287445315,-1.48495079758347,1.36882330388635,2.48100342504649,-0.189064887908819,0.199949858262774,-1.63728429045811,-4.42591378886283,1.05744082221053,0.825482252506912,-1.08571444830393,1.2341644618073,-0.135580705169605,2.42927757412429,-0.900140250582198,0.204883547818212,-1.06229010357408,-0.00718291254729865,0.29861879566177,-0.94445181092109,0.285379155200334,0.198697723423091
32.555,-2.84381787467739,-0.585229581483319,-1.1538384942382,-1.89726771163536,1.69478289885436,2.24152612421554,-0.364158187131668,0.142931064749497,-1.67254338326302,-3.88813260645833,1.73604335033984,0.892500457017048,-0.672119556444556,0.899419031530559,-0.258835083792404,2.29039395322838,-0.613032844214226,0.211857530260392,-1.07667720117418,-0.00568384841585289,0.335476082653054,-0.898571544719335,0.312291299701513,0.209748311611632
32.56,-2.51278103268023,-0.797248446723413,-0.961666846260421,-1.98601976999191,1.94226971500062,2.00372475831793,-0.464892336561143,0.08938127671283,-1.56757901255531,-3.38669137433873,2.14015547326393,0.898586225881959,-0.366299882864046,0.616482939097663,-0.318899276806272,1.96412002570729,-0.395135699964694,-0.0798728156213601,-1.10128854009541,-0.0122706140756508,0.367016491400496,-0.842184910177656,0.302876763402628,0.239076658703989
32.565,-1.88357629208648,-1.03413753400113,-0.982936980039,-1.67185843413612,2.21612287341443,1.7546876557772,-0.573233204073674,0.0156696827406357,-1.31555318532646,-2.81297968432136,2.51831442014444,0.857390370187891,-0.205347900004108,0.408152255199127,-0.352666877986915,1.58616435216737,-0.233950528943097,-0.541295008969002,-1.118274575627,-0.0150176342579368,0.380536801182486,-0.767809337837562,0.242831001461036,0.271203012309384
32.57,-1.34950047086414,-1.0672671772111,-0.996939970972507,-1.3123462377531,2.76201566557208,1.35211077956366,-0.700952972330418,0.00343203084109709,-1.09621510904881,-2.5059009295547,2.64860146309272,0.817657583444462,-0.159933445699805,0.261094644503391,-0.371349528593921,1.00061825726498,-0.172786242802519,-1.05722800898409,-1.13060641919896,-0.0135254530730048,0.387910594073733,-0.741340301351597,0.181814376760404,0.289025616396772
32.575,-1.13324868359299,-0.822678785929423,-0.781861135232989,-0.668983041896991,3.30227642615894,0.99676110177179,-0.840026233475558,-0.0187837721473221,-0.984889622234929,-2.07980863037721,2.78992494809747,0.825440949214952,-0.159716274166436,0.139436148957544,-0.359526491390014,0.61177902601985,-0.155123386454198,-1.24079200736897,-1.13828949911116,-0.017456282629534,0.395687836784862,-0.740437417502088,0.108258684213207,0.309842427845551
32.58,-1.36716394127456,-0.452053793352448,-0.49399210400175,-0.408727040036208,3.9086328525185,0.575936768288325,-0.991248114759251,-0.0790967290392828,-0.977913012428272,-1.6931810385284,2.82868320145963,0.846222988342599,-0.144467627436828,0.0304378222194895,-0.2819521409168,0.33294885043449,-0.155634213059595,-1.24537424877557,-1.13417291077553,-0.0196793646962393,0.396629602853286,-0.772272808469892,0.0449261953131388,0.318374695793617
32.585,-0.927191625741592,-0.0760534186370423,-0.64119954439967,-1.05263116427881,4.50935028164657,0.366381512282464,-1.17096983229698,-0.175195157754523,-0.231002534617678,-1.26527320256475,2.69976138745257,0.81466415252946,-0.0253354044812745,-0.303559695827787,-0.0710915965668637,0.146514239024306,-0.328931602726136,-1.18397995318152,-1.12318118910973,-0.0314342348219365,0.40557480964958,-0.818501446667342,-0.0125999785701742,0.32051914158914
32.59,1.82193791777131,-0.624935977839286,0.15270672022029,-2.27664817082311,6.97503325367425,1.31170533307543,-1.93277281238022,-1.05826390507957,2.23558615573681,-0.566919441106827,2.2577439963185,0.405102067794877,0.149387538803038,-0.77056073350782,0.136385456464919,0.0113156691799961,-0.632485089371106,-1.31366950602691,-1.09329511739987,-0.0189634689432509,0.419819414282065,-0.841651298894411,-0.0564567816484831,0.273466760455236
32.595,1.38947817897521,-1.66479424130205,1.93182031824508,-0.873736858416967,9.25812912933066,2.7408380478288,-3.06323754580843,-2.41747260218536,0.815236762086684,-2.73237052192891,2.66495797294816,-0.334665359629348,0.281917349223527,-1.01729460642709,0.264788196093286,-0.107362404263258,-0.936095330338746,-1.77324089100226,-1.03847173007174,0.00538975545884647,0.438285855973514,-0.889018804963309,-0.0965460549850926,0.152042889234071
32.6,-3.12218180383434,-0.887506288711115,2.27460285355002,2.54937273966913,8.33320460982111,3.78285373038313,-3.75446364746248,-1.06101392001333,-0.892900712319595,-3.27476646494628,3.18404972105805,-0.0308826290982418,0.127322376830285,-0.746986857365468,0.382370410359375,-0.397685455164092,-1.16211224503881,-2.38663213155893,-1.01425142846678,0.0401318496927634,0.443986483975657,-0.930675276719925,-0.123187487325502,0.0097270776975895
32.605,-5.32428855657942,1.23545737237713,1.46762336864922,2.55800823945147,6.9399364864109,2.29778345397413,-2.39745388462545,0.608641956985904,-0.958478709696522,-1.47779842700917,3.33747054008478,1.42500141371309,-0.549016653695136,-0.677274790252001,0.616779050812709,-0.857757722135087,-1.33085076934605,-2.61917570546238,-1.05695467189818,0.0867680914668757,0.437090924315677,-1.03956302937015,-0.178064741141385,-0.176477083775191
32.61,-3.16925452723712,1.2602564676925,0.961723236280828,-0.865933127193805,6.50193988072703,0.316142857018246,-1.73492656620008,-0.0829853579788321,-0.798977310724346,-1.17833531095809,3.06580929521464,1.61673490576855,-1.99708400897574,-0.519763568822463,1.03505855351276,-1.04348478533802,-2.13086467933691,-2.4914340689784,-1.2627506414883,0.150362569680193,0.356942493382898,-1.13257036486642,-0.180133169943269,-0.271732403306111
32.615,-2.90687609326579,-0.245966782173921,4.58706801112302,-5.5190647398269,5.49005803259112,-0.547298062926253,-1.4532772025665,-0.360601353030735,-1.13789556596403,-0.28440234470282,3.09701496280342,1.17915536169449,-2.0135854383434,-0.34522687876272,0.906290170571461,0.0172477930737368,-2.80467389606118,-1.74008725430306,-1.56717205273973,0.237601476594665,0.175047784062658,-1.24117196600675,-0.136176521564673,-0.391962074862609
32.62,-4.80816447167494,-3.91312301790156,6.0983522430318,-5.37516879446354,-0.690379367030797,-0.635091856798521,-1.11400873472192,0.247547467848259,-1.45893262018069,0.767528803819842,3.14759655117381,0.599331788616533,-1.99983039004671,0.0524221779283033,0.123609549532108,2.64958478863238,-2.50358211276856,0.447654934714509,-1.79311787978032,0.368937639750384,-0.0331099463465943,-1.29978916594204,0.036563227562199,-0.477108476416123
32.625,-1.74604156292487,-3.18616048753965,-1.38486663484137,1.77593490050109,-0.6076571630863,-2.3406091706845,-0.775998060407611,0.753491603532426,-0.476325958839766,0.894857790846375,2.80600975826666,0.268852283498481,-1.98935928959937,0.389708300982109,-0.462489904044637,4.0267723047927,-1.3934417367539,2.61089309985549,-1.78714671169792,0.447326051480943,-0.141020587344253,-1.35464673156673,0.220104305949219,-0.51199630346385
32.63,-0.432446443282546,3.61115674988857,0.827029664229167,1.58052344397272,-0.451118555928187,-2.47838323612736,-0.729750953443377,0.562016438049618,-0.78578418525049,-0.398237881768026,2.96675666491504,0.498480497702905,-1.97824031147532,0.462052700273637,-1.16522244782424,4.33394484861739,0.0535050260324862,3.19047690093454,-1.62270129197415,0.475335450465758,-0.205227053234383,-1.35140792694567,0.394149807685309,-0.486183014060385
32.635,-1.37062356736956,3.80077553207638,0.268669885579333,-0.404512271771408,-0.639084900780416,-0.877431321414304,-0.729762360968929,0.566772654550033,-1.2416110797235,-1.24523614249332,2.99865081627419,0.779911462994501,-1.92963649512856,0.243661978963259,-0.584209827572535,3.9395159251027,1.29848961176812,2.40680962971846,-1.40750401934441,0.453137950698341,-0.206516478690467,-1.2934189529123,0.516039050102944,-0.444537340332708
32.64,-1.83182680336645,0.16714512914923,0.913789850032834,-1.60495795055755,0.0203173474480017,0.626206202975842,-0.787490119757479,0.953625310200664,-1.12546306224459,-1.85296711626257,2.75021153116443,0.725316221374881,-1.15184131116909,0.0580187143746916,0.00770589303430359,4.57396263603678,1.78346827690812,1.67968807933401,-1.22504413007016,0.421517224654374,-0.21348833487677,-1.22450444872041,0.544397349970553,-0.406840802208736
32.645,-1.10413615899298,-2.12992702676463,0.898436474826145,-1.16346078387594,0.00845700009480847,0.246152616029967,-1.0031028193633,1.35774167382858,-1.10428348645353,-3.37061934502863,2.60580356784311,0.813285084556497,-0.496310981631332,0.0271687724723933,0.0884614275561786,5.84112939484967,1.23604849488861,1.65176044865796,-1.15072960495151,0.432349434170252,-0.236072091355221,-1.19199101558266,0.512005569425751,-0.381315268791073
32.65,-1.07954963443665,-1.53260138945149,0.956213421303446,0.00165453647058146,-0.160887386343343,-0.258310000865712,-1.10577915927733,1.22815460319976,-1.09801602775121,-5.3615206455071,2.61895186655337,0.920806432482025,-0.187394413414008,-0.511575494155662,0.373557471450879,4.95668957261064,0.360270123553805,1.21072694223216,-1.12234726068882,0.496324952411824,-0.260848979964665,-1.15062155241568,0.388202574921863,-0.346927178174197
32.655,-0.860182216651538,0.620640361980449,0.625965713617453,0.443052224039188,-0.0156045456358883,0.168481398007228,-1.14174267512164,0.333381590405685,-1.11721889632594,-6.78902923180067,2.41893983475281,0.90549038445964,-0.0102833686220082,-1.06034501215461,0.417276144006623,2.82841602198526,-0.435221815025686,-0.022015268804664,-1.09190724156632,0.587186704754085,-0.261752482745815,-1.07343519173382,0.261862163941142,-0.26820883791732
32.66,-0.880208247469108,0.284816978178552,0.756025898523832,-0.0387809710166108,-0.0162295245535396,0.127533406607194,-1.11618296207608,-0.360074204305448,-0.8632898902507,-6.19347986585588,2.14494537155663,0.888508028634697,0.08588971537671,-1.51420870265987,0.313723995217869,0.258637390232003,-1.017433865077,-1.62831252104834,-1.04098833082484,0.638672730737773,-0.23738536550467,-0.962332962842428,0.215349775480005,-0.149942952736562
32.665,-0.610245642079009,-0.101497805766793,0.865614904994132,-0.240580773024085,-0.201432746973597,-0.118763339693965,-1.12292699962535,-0.842163472473562,-0.555620699388558,-4.17401781502955,1.99718471966025,1.01056724552756,0.083874585478542,-1.64045196419464,-0.0144749108470044,-1.81945278904105,-1.12805887976216,-2.61336684806871,-0.963865221554062,0.661328603854907,-0.205110288322379,-0.811283979406656,0.222716257491836,0.0016659242412671
32.67,-0.561343311641887,0.0798285539638028,0.841165908689162,-0.182837317543746,-0.218238235621273,-0.130307685454519,-1.07059483742802,-0.815860151379115,-0.5650490254916,-2.48041395715083,1.85580828115664,1.19479025568643,0.0172343371780383,-1.412640745869,-0.410255968476323,-3.28052956719902,-0.896129084352362,-2.68072829244946,-0.892829189954754,0.629253574175088,-0.189399503975261,-0.636124348558355,0.211315916647098,0.233097113635007
32.675,-0.579110423161281,0.143110869069804,0.880453826999158,-0.138396394175581,-0.222069621086121,-0.105285924949467,-0.905597345717708,-0.466245102805942,-0.466479566218841,-0.702071584681353,1.80166907452829,1.35223483997249,-0.176091046150046,-1.06526458370698,-0.630578739045346,-3.85838839000377,-0.479565801484708,-2.10404694563074,-0.836251025668936,0.572893263440071,-0.195916583546421,-0.546428103878746,0.165254338568141,0.376977146630902
32.68,-0.542585172494738,0.114938059216873,0.884819025991027,-0.0893761801027874,-0.2104894352983,-0.104934897573325,-0.833259774008428,-0.255651292855711,-0.405334521582989,0.767912139640507,1.76010600696791,1.30874713602272,-0.409044007767522,-0.771484260177327,-0.588082600041474,-3.41824466832995,-0.243225821476079,-1.54237752741843,-0.787346835827451,0.515601553732697,-0.198501787305194,-0.572253729264325,0.133573405176946,0.476210023492593
32.685,-0.588010879126343,0.0467701019787671,0.825729993334879,-0.0414784840160233,-0.18332106628774,-0.0951256630300795,-0.92062991856297,-0.136073436400081,-0.367975694533342,1.54024790201074,1.70977877330186,1.2313692705221,-0.567464528178398,-0.576808899748628,-0.366275595118898,-2.60297010086777,-0.263292186687551,-1.09882064904379,-0.765377680239715,0.473825198857228,-0.190523195786021,-0.684060532993796,0.155637561629026,0.560794205106366
32.69,-0.587205106471706,0.0183164303479518,0.818301334962117,0.052196097162885,-0.135487732197894,-0.0565421003982387,-0.951252365955938,-0.047934605391941,-0.499798138059748,1.90806058786367,1.6792955782568,1.21943970879182,-0.716757790320088,-0.372133417666616,0.0884660045430656,-1.79377498124988,-0.415675494891364,-0.67937877340951,-0.784229772584646,0.418505106214528,-0.176450417008963,-0.835766966235351,0.236443739533905,0.645789355606035
32.695,-0.558411699797763,-0.00744366813231117,0.840799365011717,0.117169261265345,-0.0313371916347356,-0.00495447800428013,-0.950290068716056,0.058579815541859,-0.545264931428393,2.29327134518171,1.64486736214773,1.16299450471956,-0.847185368707873,-0.300439839449157,0.448429858427673,-1.50427537649104,-0.361518129035141,-0.465613107156454,-0.850365351548835,0.330306102605337,-0.159346709240229,-1.02339958825313,0.393638332634135,0.728202342015884
32.7,-0.527771864773373,-0.00962866700990592,0.870598053312946,0.134718765369185,0.0651598960357027,0.0190666816868791,-0.960715758489456,0.220749060546049,-0.508912863525963,2.78105187059877,1.36463641639427,1.00951440139439,-1.01017914419813,-0.352913567410016,0.853146281775834,-1.76689041078563,-0.458068036470564,-0.490446115021845,-0.960616954191661,0.285856785643016,-0.145143954554144,-1.21513286069224,0.599974132617824,0.777416454767579
32.705,-0.488264327300541,0.0454633333162473,0.882667053782647,0.172152666165953,0.144309691259261,0.0522693529343229,-0.9621712146415,0.36673760282109,-0.455024319627115,2.90500827050796,1.26028489597778,0.833378319116203,-1.12361600925536,-0.441591875774921,1.22734714976352,-1.78375950316249,-0.409214239959698,-0.589053404173449,-1.04017460442061,0.199855679078417,-0.131062752635574,-1.35287472186071,0.80132332934277,0.770315707208138
32.71,-0.537030958595939,0.0631884080319643,0.843465986128471,0.181742722019852,0.166380237183155,0.051464418804885,-1.01481728959167,0.516168988423396,-0.474708400082189,2.6126205363642,1.19238442374653,0.675172402497476,-1.26774015708591,-0.497838651841228,1.42968990112564,-1.24789619653442,-0.346245667111383,-0.683151887471035,-1.10404467821925,0.18782914123484,-0.116194782827929,-1.40195503974573,1.09607705080385,0.692982952535699
32.715,-0.531943237378997,0.0725432487442355,0.832908535791026,0.199817882561572,0.128911793652392,0.0288936011661123,-1.08181780958985,0.584891375024378,-0.463931731879609,2.19577018115523,1.1525516057074,0.606379294720074,-1.36817284139,-0.465103882916989,1.49642976293436,-0.505783142652864,-0.420417907908511,-0.765473497508768,-1.18187274214212,0.169563874259233,-0.0740149916887104,-1.42069907256531,1.27571597984867,0.664581273283262
32.72,-0.525544553206488,0.0963896420603292,0.845079957191748,0.182606635505241,0.0644201354460344,0.0101963314486672,-1.11539787643771,0.592060497050933,-0.451288438275988,1.62170646700553,1.08871781598674,0.522976395556808,-1.38450113556803,-0.38088539941106,1.39757584980754,0.197799091574222,-0.439105889024692,-0.799784995868888,-1.25073773814154,0.15893743614895,-0.0410384156404923,-1.34856399992536,1.34237763162851,0.633203125848949
32.725,-0.49431839802354,0.128656405980867,0.858500947322489,0.134206624586506,-0.0108814244947769,-0.013500825489158,-1.08825876079689,0.609978517933287,-0.438642979558825,0.999146144826008,1.0130868845048,0.420257476609641,-1.35238376858021,-0.328443828260333,1.12240734583252,1.17350296541392,-0.229801304930767,-0.797000356082918,-1.35001364218549,0.157728470976182,-0.0209804680530189,-1.2757331952574,1.32381262446298,0.589499854474914
32.73,-0.498757806540611,0.149160916894416,0.85062195555644,0.0744507114369554,-0.0474987764871375,-0.0379156611190507,-1.07581168698433,0.57274655565694,-0.419002669881544,0.335590977854467,0.935122088373466,0.332159249417557,-1.27454948074512,-0.33923069064903,0.873711859803108,1.783935051376,0.068301052837296,-0.875915866132455,-1.40405622319147,0.128979751571002,-0.00871349799641992,-1.16387377672358,1.16082552653111,0.52974625673131
32.735,-0.524623190987549,0.122649598722713,0.845387662435569,-0.03909423862508,-0.0226476066953711,-0.0846828211623761,-1.07234582717447,0.475944536492137,-0.430424123975589,-0.445752060126033,0.859454944427703,0.242387203078136,-1.1928125505962,-0.366639601683831,0.64468495613171,2.20328975377579,0.464761192348009,-0.956013592623934,-1.42134565284662,0.12475743636984,-0.0299697814120686,-1.01199501081661,0.888430600867591,0.439765809403073
32.74,-0.528088827403938,0.0711257482364759,0.843228195237081,-0.148230883639958,0.00195267311647303,-0.133455581195359,-1.05659594864362,0.386692620061366,-0.466598800259547,-0.990654896112112,0.794415424785438,0.19335169787657,-1.11333482030844,-0.387304979681913,0.452311817221036,2.42647275967033,0.749980811035265,-1.03665771698797,-1.41904334275129,0.119520646548733,-0.0630584250111701,-0.900190259314387,0.658544325476076,0.391951411962509
32.745,-0.530766932241969,0.0217849610874353,0.843040341106031,-0.221259537917763,0.0182590473492307,-0.144843403997217,-1.00709637176888,0.261893322015574,-0.494138588115039,-1.33485161378172,0.700963715741377,0.196129248274952,-1.05142392876756,-0.387883443321333,0.33552442046392,2.48616773591044,0.822372223092422,-1.14592528394588,-1.4019593795637,0.0944198073012885,-0.120578688844505,-0.707649882037176,0.428795605658737,0.367498685161409
32.75,-0.549570487245038,0.0259013428519934,0.840380477322378,-0.243993700618742,0.0192638328059556,-0.135495005226678,-0.983911897269579,0.181107557883939,-0.476820155007732,-1.45403592411886,0.631131252043733,0.197774133593753,-1.00018442178545,-0.357120056089233,0.218599952387986,2.43837813307808,0.732479476701625,-1.31889043483416,-1.36538862299885,0.108905647090085,-0.155953725473217,-0.548218950586271,0.331354928496063,0.356044988547564
32.755,-0.529384089270317,0.0283716894935254,0.83738053882648,-0.233151916668095,-0.0157611021519074,-0.106247712261124,-0.968151243681101,0.097678078104947,-0.45687856763818,-1.44376130211542,0.561967179226716,0.202421337366104,-0.981504019459827,-0.318024831062104,0.0768898358183042,2.23980268040502,0.500286585713944,-1.43948487755968,-1.29782096106846,0.105356848078094,-0.164268408479706,-0.42310244833563,0.298567241911255,0.311583348624287
32.76,-0.516977653906261,0.0408910226077677,0.843991072509241,-0.195388104258017,-0.0398056481336574,-0.0817773368328418,-0.967880523429884,0.0489865740875001,-0.432127187898636,-1.25885428873842,0.472606848633451,0.173383203113858,-0.997098115085093,-0.284463413631617,-0.0136107612723571,2.04133499900028,0.299032305820087,-1.39134355901152,-1.23227703683654,0.101442979663945,-0.142624459946287,-0.371616884928588,0.286554060807647,0.253830444580951
32.765,-0.49834260903863,0.0401535811024311,0.857935867511345,-0.132251830891436,-0.0545110757649049,-0.051361244924461,-0.977725070140349,0.0393532451627289,-0.409717491492186,-1.01785457461277,0.390554892009765,0.145135554732376,-1.02793623767091,-0.251020997059249,-0.1026251658707,1.8030485624255,0.0986116734099956,-1.24124104960139,-1.17906495606095,0.0991149337097356,-0.0981982620649876,-0.407241966120011,0.26898038535808,0.17612864554748
32.77,-0.511986168929148,0.031749322918734,0.850508740752129,-0.0875125678406424,-0.0483888220850345,-0.0488656302108326,-0.985279218747749,0.016663091552077,-0.408521315834158,-0.652173755798079,0.285694669806787,0.118322199727684,-1.02673705328378,-0.23555678289187,-0.145194154987901,1.59882482267491,0.0162434753783771,-1.20781636331738,-1.12542802119842,0.115987940653671,-0.0733687011223356,-0.46664903710663,0.248094644637914,0.114536795899422
32.775,-0.475926773381418,0.0330577683560868,0.8464628865009,-0.0571571434748553,-0.0102160640443149,-0.0623921752417434,-0.983863363260503,-0.0163557307679486,-0.393132226831604,-0.338574331429776,0.204945254977689,0.0926439029559698,-1.00626140391884,-0.231162652764053,-0.193175851209549,1.37602380957307,-0.0260913482358809,-1.31990577351332,-1.06568710067791,0.132056300034655,-0.0294408795344533,-0.574194281913434,0.210196330483831,0.0331501253199793
32.78,-0.479062797163224,0.044418732108494,0.855833486867092,-0.0378075352786416,0.0382532472393927,-0.073913881212458,-0.986492323143208,-0.0502134059838324,-0.373040518462798,-0.0532591924590928,0.132138353663063,0.070507270494107,-0.964019743964794,-0.224122152401536,-0.241325732598906,1.06830587784541,-0.0344456639889297,-1.60381887476424,-1.02049022804869,0.140062056335853,0.00968339671715544,-0.696035515436994,0.195136038493827,-0.0183698584102934
32.785,-0.502374838831881,0.0447621847124451,0.85476414373642,-0.0228505713593896,0.0742268216624679,-0.0753863753910058,-1.00866486330662,-0.0849466625714262,-0.350916989857785,0.145595242996839,0.0553404943922511,0.0521513537371882,-0.941856969936277,-0.21473252164455,-0.262998465415612,0.759062268583191,-0.0140026394012224,-1.92837173895121,-0.96212886866802,0.149585935031423,0.0340380739979798,-0.840732947490853,0.196148541355842,-0.0679708138584264
32.79,-0.513634703521128,0.0304914139408501,0.840666611760898,-0.0192166655173407,0.0841843855313359,-0.0695444404743579,-1.04893046082887,-0.103457461001545,-0.342301067323307,0.340664824531935,0.0255712448684634,0.0559662449680792,-0.935140838801026,-0.200071337081495,-0.251025647934769,0.511049899158263,0.0097835482538533,-2.20971938301581,-0.92091538638956,0.159622383089899,0.0488156290383769,-0.935923111611336,0.221244015238143,-0.102933126996878
32.795,-0.505554609547291,0.017163432361355,0.844516762904366,-0.00695903540675307,0.0703563968642832,-0.0555487729993704,-1.0667329886092,-0.0815731228290362,-0.318007231961978,0.450595735567574,0.00593998661518945,0.0868682633130573,-0.949420009028689,-0.173873382883413,-0.20419814030445,0.353640394455352,-0.0181806817149984,-2.4002800237485,-0.877130172731895,0.173530402177134,0.0581711334369424,-1.00478821757666,0.289118361216993,-0.140520280667555
32.8,-0.494508808880314,0.0244864869890838,0.856557433560673,0.000853475791493653,0.0586897921085866,-0.0386792906126309,-1.07069072960601,-0.0141328405976876,-0.288965571921216,0.530946068356509,-0.0256256744755451,0.135310441799003,-0.976060577527326,-0.156481525460504,-0.147881017519212,0.347593453962065,-0.0766527194798949,-2.43098024751027,-0.84062255743297,0.192461905466148,0.065672982116293,-1.03713644550161,0.382152549530608,-0.152924329042435
32.805,-0.487566496420567,0.0400266966770149,0.845065030964683,0.000647300996159461,0.0325501387532282,-0.0278590739832815,-1.06503417011872,0.0614643263574049,-0.269597660466671,0.542476561169392,-0.0495367693820345,0.177676165610803,-1.01635030663316,-0.116771712164385,-0.0761117188755806,0.382415560858124,-0.211935512954121,-2.38590646727417,-0.816011060886506,0.199266542890357,0.0620098811283723,-1.02069558189006,0.466932555036993,-0.155321226006802
32.81,-0.497581914112748,0.0553731990430303,0.844557881507059,-0.00419373690867733,0.0315353287161522,-0.0237724946592036,-1.05086234330772,0.0924414660812369,-0.268325147619966,0.463829641561914,-0.0462792349039352,0.230999996017521,-1.04252013202123,-0.0814369363985668,-0.0504833780883815,0.353744198902409,-0.350519871756523,-2.30961774009742,-0.784345916697849,0.200428184088259,0.0543988164602237,-0.982728711469875,0.533436962436575,-0.148410387272577
32.815,-0.506511341721406,0.0603775308617959,0.841655746467479,-0.0247641997949763,0.0411097588019216,-0.0263774771406108,-1.02848180861441,0.101430641509616,-0.279497079783091,0.340209955504241,-0.0844287849999227,0.259130015255957,-1.06379623010991,-0.0482856726495249,-0.0421113921117773,0.265372830921192,-0.467270527038494,-2.2448077071854,-0.75748158271947,0.209899995044637,0.0485548951132191,-0.898356920128856,0.576139727385399,-0.126917538585155
32.82,-0.507106516067528,0.0474847151477166,0.838965980494755,-0.0380544794883354,0.0478359329423177,-0.0301575213670731,-1.00444738881216,0.11992430043306,-0.281439629281258,0.26793604003074,-0.0972521409861566,0.266854928560385,-1.08126500422353,-0.0302751081242526,-0.0620431039211776,0.118499398630741,-0.535018003708617,-2.2026470887527,-0.734686221096871,0.20609754029688,0.0407801860594237,-0.816481381252637,0.596342241468176,-0.0998977901875643
32.825,-0.50786672498961,0.0365372182859325,0.847720490418932,-0.0420421722032308,0.0467971762023688,-0.0360310065243839,-0.977127122411785,0.144609241155531,-0.268331156141897,0.225445637898744,-0.112942337571924,0.251617890529628,-1.08865443471041,-0.0290142672519049,-0.0940589262828583,-0.067591436946236,-0.544516362153903,-2.19097062633765,-0.720887938731614,0.199972472893001,0.0336826611836853,-0.728540671161583,0.608992489683445,-0.0721098204611071
32.83,-0.516105312691562,0.0368208227462184,0.834477631124147,-0.0347282639564192,0.0271394303756971,-0.0410139364321618,-0.947231939119088,0.151263276461539,-0.263133658482249,0.21670450757355,-0.142541199922562,0.226067743886579,-1.07507697747376,-0.0398288446776804,-0.139472044247888,-0.356928151808423,-0.521498520105403,-2.16666215087486,-0.700792361470008,0.192463191317722,0.0315138191216118,-0.627461032464706,0.634010067066845,-0.0362147537519542
32.835,-0.517961637861551,0.0481251243746288,0.831658894042746,-0.021921377304365,0.00271152173346339,-0.0449101902389619,-0.931924872934716,0.155625160031754,-0.25406497490351,0.219607289192981,-0.148937060128998,0.208418847241321,-1.04493882539981,-0.0676030243434882,-0.186210656433672,-0.668206988073805,-0.503041637789949,-2.16950757255146,-0.693463125832324,0.185906029693039,0.0231286394382867,-0.55268425977047,0.627811980887331,-0.00611590208947242
32.84,-0.513745443460992,0.0557062452366728,0.831546850424974,-0.00344870094109445,-0.0181829208846085,-0.0435961596667767,-0.915897549808914,0.157565328770433,-0.247595439111226,0.230490517581393,-0.16225282247292,0.184092434346301,-1.00659882895467,-0.0923916120680639,-0.204930929174283,-1.01011781424369,-0.489520232604894,-2.17904516880033,-0.687881295733291,0.169058040583171,0.0160939495217666,-0.477669011641856,0.647634266618381,0.0320593337626616
32.845,-0.517318249476547,0.0569691071531956,0.835588015442771,0.00529008657544678,-0.0276003509840352,-0.059930465063406,-0.908834067607045,0.164311806531677,-0.239882905972135,0.24978375130344,-0.172775583888467,0.163899065745663,-0.95667105911026,-0.123812464362404,-0.190126627524865,-1.41582402722348,-0.472706018497887,-2.18475035142782,-0.693934270653829,0.154366629826121,0.0229744489046627,-0.420215116791643,0.64916130622029,0.0546799414933187
32.85,-0.516362538911612,0.0546949653051773,0.828233612054347,0.0170329021515908,-0.0318467619575447,-0.0764447043408522,-0.908415492859088,0.171748450372497,-0.196456963841697,0.275360201027734,-0.185222846621552,0.14360111564319,-0.914481830760175,-0.146532561333924,-0.143788403940645,-1.66014880181578,-0.447148843932363,-2.18452465746173,-0.702468271895171,0.14556498299928,0.0220238707065816,-0.385576527991129,0.635561668348402,0.082098154309473
32.855,-0.511807602462041,0.0478984424510145,0.828558880325267,0.0218375051244464,-0.0364381597794402,-0.101196895408382,-0.915341484362308,0.163906026894786,-0.176135432056831,0.238107058767783,-0.171337685184524,0.138893216848373,-0.872513226294669,-0.152779718298579,-0.0717643037132537,-1.81117705273066,-0.399265426560909,-2.18230234643032,-0.720617113583963,0.135112307815444,0.0283705055238227,-0.357762323303412,0.615177462897661,0.1040222289007
32.86,-0.508378460626848,0.039200170647972,0.836962822166596,0.0294015399857791,-0.0342814535128357,-0.128683490243071,-0.922329096616159,0.136510475411131,-0.174281610509226,0.196575077465741,-0.163056767088815,0.149679714990674,-0.834634604011357,-0.137168999855337,0.00117649003170939,-1.86046619776916,-0.338682018860076,-2.16468302418148,-0.744118988890787,0.123060161210308,0.0346375815032289,-0.346378126220491,0.591488618303765,0.126435963990042
32.865,-0.50845410398274,0.0305001541434143,0.844174169534883,0.0383275993397633,-0.0482528405568296,-0.138832304166113,-0.937638942354841,0.0926727516652633,-0.152672535949999,0.219499834298924,-0.148850414693438,0.163181111449152,-0.817660307908999,-0.104668434382692,0.0666866135206193,-1.83385128865349,-0.268930372833099,-2.12330110583712,-0.773360192743897,0.117113576344905,0.0501783944861984,-0.366518323548713,0.555903074637374,0.145449710919388
32.87,-0.50627454661494,0.0241277250864756,0.8362682842654,0.0368534807749047,-0.0559191554784775,-0.138467841355508,-0.95213015274347,0.0445160781074143,-0.110878026741003,0.263400366403877,-0.101889146021914,0.175241376720271,-0.83415160497345,-0.0618975028312722,0.143361678703083,-1.65478729065049,-0.147414461840168,-2.03816848601642,-0.80802250762482,0.119413496909304,0.0771914777670987,-0.38396098509419,0.516350117526763,0.165538889303975
32.875,-0.504794215818224,0.0248861112275343,0.84348295341489,0.0437084373337499,-0.0650416048376938,-0.133349588214509,-0.951362812947329,0.0210786150745479,-0.0885217557138463,0.289394017311123,-0.0578917145614347,0.194182985798906,-0.862027613558138,-0.024773883239284,0.203996519390534,-1.41898070275088,-0.0528448494937839,-1.93993755906639,-0.851892918995282,0.11544927610841,0.0980742408891394,-0.390752126964507,0.43532934023483,0.183767359841173
32.88,-0.48988584838745,0.0333338938166629,0.853262826821285,0.0430023349303418,-0.0631768493358795,-0.130372713580504,-0.949901399195826,0.0360821670068166,-0.0646596069089967,0.34894897505963,-0.000560093167387588,0.213205210451852,-0.909109226723786,0.0202600881348151,0.289249777645768,-0.989540597560815,0.0606231743433023,-1.84305041680292,-0.891866398348271,0.115808404125002,0.115736197056328,-0.385252660904576,0.358342109818065,0.191954896913629
32.885,-0.477149868085311,0.0367924891484002,0.847664995003223,0.0445466311212256,-0.0583625435829163,-0.136387427410762,-0.965478410832739,0.05568823525516,-0.0420350430745036,0.410099310040251,0.0513813037022243,0.225564182430562,-0.957976811599938,0.0638160642315441,0.363652526565379,-0.481049490501238,0.163674782857842,-1.76381783396655,-0.948826781274857,0.11738288114337,0.1362836068267,-0.380647683639406,0.231908423724859,0.195106070467507
32.89,-0.483204133230536,0.0458067809746417,0.85957015150628,0.044323452738351,-0.0474676412889536,-0.136705280313585,-0.978443567210519,0.0684539997249967,-0.0314637443443663,0.466952572742364,0.107488974478312,0.221831682184962,-1.001311589411,0.110735449153565,0.434603231055122,0.102052701586351,0.254979869980992,-1.66739283988502,-0.983397414987655,0.108981601086338,0.151936522439481,-0.365558366334578,0.124201251928856,0.184223115209408
32.895,-0.486306869275013,0.0434664124169618,0.849748036662804,0.0573911631730814,-0.0331147296955589,-0.138236709399115,-0.988792904815506,0.0781930720786115,-0.0338727743911805,0.493863613102228,0.16312386042109,0.219831394547465,-1.066356750773,0.178382908465935,0.493380611743766,0.785757435074722,0.334368971598944,-1.51565162973192,-1.00946936370336,0.0980256069969589,0.16290194728445,-0.332893791182097,0.0123752665233443,0.16208350232798
32.9,-0.488278593663378,0.0531481776691812,0.841009256594116,0.0642297457179776,-0.0230630783511712,-0.135352924294622,-0.989106636850455,0.0929669914334173,-0.0310430137017544,0.564016490550297,0.223842143822512,0.200912748321238,-1.12205663744811,0.240078688182281,0.531503067068286,1.25723173838361,0.365672098464588,-1.38621252366155,-1.03477358779519,0.0899076319397735,0.181644798420816,-0.277318696927098,-0.0943299035368926,0.135426370661485
32.905,-0.494828821203432,0.0566040401574306,0.845105969994699,0.0737741884311935,-0.00854920422561885,-0.131608372041884,-0.993624322943565,0.112531622198708,-0.0191515236146974,0.626199355458374,0.265183174985683,0.187863321921667,-1.14497129330018,0.265667546879058,0.537676837594449,1.59181861130891,0.362998541296226,-1.26066850033527,-1.06023883399868,0.0792796033442835,0.196919149312526,-0.218537516441469,-0.166705620427999,0.106818687357461
32.91,-0.489340952636542,0.0499895360876423,0.851247213292441,0.0846963570727192,-0.00111285366582626,-0.131168857246305,-1.0002150474726,0.138928627970337,-0.00846684415892318,0.637223485797389,0.352978168798406,0.17064850776945,-1.14924242173728,0.288370543076398,0.499619325704369,1.31053404729318,0.3179048050298,-1.15509324947096,-1.06422431457175,0.0733514488540154,0.2090097336311,-0.128546234908479,-0.242001228570094,0.0680022439520065
32.915,-0.490284395777156,0.0471353174575845,0.856576918403772,0.0963764968714186,0.0255495221069504,-0.132233157218514,-0.999272890156641,0.163122480330778,-0.0158156974774885,0.637198986170419,0.400924416917049,0.147507900152775,-1.14300489812048,0.304461170479875,0.430786325550121,0.851166921599892,0.250291607419857,-1.09645454428861,-1.07567526006588,0.0648949685970693,0.207219989211325,-0.0086172430241277,-0.30383903312131,0.0254388665451219
32.92,-0.491106557753273,0.042474474765735,0.857221528553579,0.101692510000216,0.0520666117598071,-0.128555645840671,-0.994727300488975,0.198492675793986,-0.0239419296325115,0.600139540655278,0.468941386003886,0.122696476508378,-1.14359109656321,0.327128782168493,0.313883942476906,1.48579380186991,0.153193982591763,-1.04913304855105,-1.08129970608046,0.0600084635085336,0.200005842903493,0.0878602409850308,-0.332585360597261,-0.00591088819297697
32.925,-0.488265395652008,0.0490718263102427,0.857312140048696,0.100856232084389,0.0658713280471535,-0.131395750594181,-0.994227927675629,0.218092512920049,-0.0292666437065965,0.560237901725369,0.533165042241172,0.0930115264330994,-1.15393885566613,0.352045940731088,0.19593582722522,1.22010371564888,0.0555693755654517,-1.01088281772352,-1.08181449908465,0.0524906124584458,0.180615045077213,0.204880199049347,-0.369849968364002,-0.0407403208710386
32.93,-0.49708163171377,0.0617708104136274,0.859406750693524,0.0941415500232849,0.0969102193916535,-0.130465721674196,-0.996901548164248,0.216100908928004,-0.0273455026833982,0.469421286571588,0.614054903480187,0.0534726954930344,-1.1565204449007,0.384429035536784,0.0666403639139144,0.850188322069898,-0.0390297234866215,-0.986580679198609,-1.08327497639739,0.0372802926066148,0.16211875815759,0.296792085070405,-0.383812736730741,-0.0773039491772449
32.935,-0.496026333954019,0.0687372215080131,0.856863859213465,0.103748696607157,0.11789245692108,-0.136991210528743,-0.98660730253644,0.209191988032636,-0.0312457597592918,0.394442769645543,0.673130778193146,0.0272781561156745,-1.15049265273346,0.409575545463064,-0.0657178194381295,0.45223212551406,-0.125339774743049,-0.950662817407461,-1.06850706555982,0.0261693388392057,0.134297241780952,0.370467981372596,-0.383728912336982,-0.118864944388342
32.94,-0.499562548661308,0.0641301199432275,0.859515270853404,0.10153954447281,0.144911887042956,-0.145154520135507,-0.987603996557441,0.196694064186177,-0.0312582231901281,0.3129924485308,0.755439486977842,0.00856088878030602,-1.13242146271191,0.417417687461937,-0.161849618768099,0.152905915129103,-0.186781637304045,-0.925411235984869,-1.0508340157116,0.0214675933230655,0.0993070188996271,0.43931584282063,-0.37161683138982,-0.179395388473333
32.945,-0.49806518941817,0.0517846372705297,0.864252951238911,0.0972723897132597,0.172540944734092,-0.16013421602657,-0.984018013107584,0.194950010281566,-0.0382849768005392,0.270611473656676,0.820196507393043,0.00930050998114151,-1.09765525709373,0.410284302963689,-0.250815429559079,-0.161637219398755,-0.23963803725285,-0.919201700346692,-1.0189691443625,0.0238756411402491,0.0769552780693338,0.466561815709795,-0.334525847203238,-0.241812095378172
32.95,-0.497820096159714,0.0410490714428504,0.867901274277545,0.101159408921784,0.19387142682984,-0.166555121657643,-0.985529123000645,0.165365999461575,-0.05051638945748,0.226913300720558,0.896385508357726,0.016330555854762,-1.06924722180586,0.400599386554213,-0.285635602482127,-0.407832022869107,-0.277482169609305,-0.945887298727167,-1.00047401509829,0.0382575671581123,0.0550894150137227,0.479433225793573,-0.29921122318602,-0.290461615912852
32.955,-0.49387688098504,0.0466243552740396,0.859844294439146,0.106910571455956,0.241582812054955,-0.165409812704363,-0.982943865723146,0.142797487651492,-0.0612554277470807,0.217457950115204,0.958816118160057,0.0215341615657866,-1.05298764185612,0.389254521615388,-0.290160416214465,-0.638448725227544,-0.310067820828098,-1.00678464289628,-0.978633544243996,0.0546292444356479,0.0350110877704647,0.468682527348169,-0.257542247258107,-0.337066898772316
32.96,-0.494179301084563,0.0431348957617556,0.861410876952578,0.108657326300343,0.284777549039144,-0.158258699515682,-0.983192638622446,0.0944832090407047,-0.0690834810126449,0.242220965798722,1.02584719037941,0.0222851539075818,-1.04863920361385,0.378973167952398,-0.271296886904351,-0.859361296783236,-0.323094873299866,-1.07342170948873,-0.958201528708212,0.0797168679020784,0.0204265166421376,0.424458317311264,-0.217821171950399,-0.372981279718406
32.965,-0.504994947092802,0.0310019447925356,0.87049821045862,0.116498692730559,0.323255205994219,-0.157213747501373,-0.996865308657299,0.0529438522176986,-0.081816951141101,0.285285407694894,1.08334770738338,0.0156069783383178,-1.05860414801567,0.368899279554798,-0.244070910597441,-1.05264175262428,-0.317132579503757,-1.13445161543863,-0.941484761787879,0.11688505268255,0.0148211190241738,0.383094830285432,-0.191293494769247,-0.396280697584445
32.97,-0.503665917493871,0.0361221858881037,0.864697546058805,0.123479561133225,0.377288574046627,-0.155189968688498,-1.00877035388665,0.0265448692639186,-0.0814022709497181,0.398826593343981,1.15932645944926,0.0253968420395794,-1.09386425364945,0.346310580289763,-0.205475722013327,-1.27680540005678,-0.277498052899496,-1.1989946380731,-0.91671384132255,0.153297219967037,0.0230479611246106,0.329532771863122,-0.185585454326084,-0.410998172324433
32.975,-0.499714507996305,0.0263402923853033,0.867153420666378,0.122151370814355,0.424031007158814,-0.150585573257262,-1.0262797236845,-0.0071658324830384,-0.0814730723173913,0.547956543457781,1.25063399659062,0.0518252179439638,-1.12907757433462,0.332720092421836,-0.169519442797983,-1.44492627565543,-0.248824050427107,-1.2424128735595,-0.907770901132597,0.173890861975386,0.0343915227238887,0.319550798378188,-0.192772161821281,-0.401357663249802
32.98,-0.496086247498017,0.027284174858825,0.863501969580242,0.140506389059314,0.50135468754399,-0.139804992046587,-1.04329308665982,-0.0334240644228408,-0.0685996325203347,0.700600813762316,1.34384416196712,0.0852993660726575,-1.17679353846541,0.318923011329603,-0.107392963295583,-1.65850781271167,-0.221440206380619,-1.27982327371624,-0.901507378019273,0.206423506118276,0.0539974927478192,0.302557016645262,-0.207056202091,-0.381845643142832
32.985,-0.483769858209903,0.0366022976427281,0.882750376569589,0.153140202305991,0.55143305650101,-0.128165736501574,-1.06443269225151,-0.0301383106778495,-0.0557395410605411,0.839259844075114,1.4121474673963,0.0948975460038476,-1.2024505915185,0.309941103850068,-0.0648725863543753,-1.75951648406274,-0.205987037270519,-1.27803394274531,-0.904023202944564,0.227489116028148,0.0708380174442779,0.301168219548491,-0.231098167221595,-0.351362272330278
32.99,-0.48508299339455,0.0353184410870219,0.875749103716659,0.155601901768192,0.647233985354121,-0.121010869563247,-1.08144686080767,0.00447238624936334,-0.0552117751998665,0.911997392428175,1.48099261838123,0.0943338017132673,-1.23053959344141,0.27261124477757,-0.00307077578709533,-1.84603265415306,-0.181090308682288,-1.19127612409022,-0.916366269599279,0.251610246438648,0.0993082608157746,0.32780352347562,-0.273937298686189,-0.302164728731189
32.995,-0.48175433905688,-0.0017615063914367,0.892303784768029,0.202203291599494,0.718720971652171,-0.120960744312011,-1.10126774201335,0.0300720526312156,-0.0652666860074034,0.960956274617087,1.56652688938387,0.103361362512803,-1.24980491190008,0.231055773446354,0.0396225309526708,-1.85374790040036,-0.175567171172419,-1.05406690704216,-0.933162473782882,0.267904155704731,0.118916596441409,0.356664390906528,-0.30848076191438,-0.26619147148626
33,-0.463199584786572,0.0254337811166078,0.888698653498692,0.394244990160399,0.815144313700735,-0.149789047007029,-1.12028227226056,0.0426387397731399,-0.0569308387066268,1.01128230993648,1.65621859788993,0.113068509667455,-1.26829792890766,0.177042615361803,0.0822883831759583,-1.82450841413709,-0.161750629471686,-0.854411141297636,-0.953436027657365,0.278506093752104,0.134737965274477,0.395837070313733,-0.365111647216689,-0.21722512038849
33.005,-0.645521588229919,0.17673033544872,0.834267390851039,0.499515827925926,0.90799315162744,-0.153660159221425,-1.13322451676489,0.0833738983825134,-0.0344104594212807,1.10737474012699,1.71659020239986,0.125372413816992,-1.2657333252541,0.127824291227535,0.111049630242516,-1.76934108347762,-0.147394002876269,-0.6400249319181,-0.980211223950661,0.294984703285013,0.150311099063479,0.438190922338095,-0.428363347604923,-0.170362954628101
33.01,-0.55158120653056,0.0793719300675085,0.890258832490411,0.323862842895999,1.0272270257897,-0.199764535541943,-1.11868205996338,0.087931093161309,-0.0612102317418385,1.00792330955443,1.81888501311205,0.134285417750235,-1.23833729454676,0.108238916752801,0.120499410183842,-1.68504620115213,-0.139238073911815,-0.43004468529561,-0.99029629898984,0.296749111751145,0.162443580072296,0.468067736553473,-0.490612986451117,-0.12405403217678
33.015,-0.526807758474239,-0.0192129213593277,0.892785422547651,0.216801834164623,1.18346629444007,-0.200705876726078,-1.11694187914326,-0.00876014772210857,-0.0601936618668543,1.07710514955173,1.94069702800022,0.135826188744733,-1.20116263747278,0.105379923633689,0.111819029229094,-1.59432231669404,-0.14082010138933,-0.210161108332985,-1.00856631942351,0.301541859362594,0.162698974612441,0.496184567965002,-0.536261445214604,-0.090518184202441
33.02,-0.5217448631169,-0.0158386428603498,0.905540630703009,0.231866014965787,1.30068140026596,-0.163864489002065,-1.14343456478359,-0.0771666052224576,-0.0435005419605741,1.18971730615824,2.06369029866196,0.125650368433143,-1.17257168214392,0.120514924129626,0.0984275383365738,-1.51446638165416,-0.145032331347466,-0.0270436134833125,-1.01970848234692,0.29682924245124,0.167970138772969,0.522818809202175,-0.583334907758055,-0.0467793718535773
33.025,-0.501173342589339,-0.0145366396451261,0.93277887809578,0.286783391759801,1.45872228070166,-0.153604048342683,-1.19591181189851,-0.0333948694318086,-0.0391680809951231,1.28918910665169,2.22267307816139,0.127733496933319,-1.15174651840609,0.153965865256863,0.0860312166643,-1.40673406291469,-0.128065992249312,0.240805766962807,-1.03326083863223,0.283241975417854,0.178343430823741,0.541608593192527,-0.611712756273458,-0.0012318877403572
33.03,-0.49991777662802,0.063623555128284,0.966465980128413,0.305582312581957,1.69736999797032,-0.131651062617611,-1.25183392533155,0.0120449279229173,0.0241097413393112,1.39364816838228,2.33741905799627,0.136402283912647,-1.16630577429257,0.193086609666574,0.0938658198678983,-1.33464990316842,-0.108648626665734,0.472020878065341,-1.04588944812049,0.253502536785034,0.205080112025854,0.572823372853224,-0.630362881905051,0.0623071333485278
33.035,-0.505298625188183,0.128591917616206,0.947930957566192,0.261344126053982,1.92309786892261,-0.149764411767052,-1.31831794165806,0.0304480989981824,0.0889591051529596,1.37824077574466,2.50452584339847,0.11707351463119,-1.24862502492709,0.253414747289991,0.11545615838614,-1.22596724519982,-0.0737399667521169,0.743783450662988,-1.07873269869361,0.248400326262616,0.221451514300294,0.594514212894904,-0.643747389519639,0.108601269553256
33.04,-0.504060793614569,0.143273819840108,0.949151999441425,0.215321388929113,2.22770073506046,-0.198534842699404,-1.40836625085291,0.0492366068855713,0.0886904831828888,1.22099072842288,2.69705251021089,0.114058176739009,-1.36586240524163,0.320175473398924,0.139537596128931,-1.0566214289557,-0.00564908171380752,0.980270161580441,-1.14426139198659,0.256214770568509,0.216126557318694,0.630457874863703,-0.656619150371237,0.149827246457653
33.045,-0.496180746765076,0.15041013377689,0.968384980675933,0.231297741073322,2.51503275984274,-0.246867173034161,-1.49825303785506,0.0786117746448969,0.0694547963180235,1.13728907078927,2.82288464417253,0.121653300708644,-1.46676133331503,0.377745504065583,0.16052024684455,-0.834167082013851,0.0547418904765646,1.18374472553331,-1.26481446776167,0.267438909621373,0.14101987536473,0.703924656266932,-0.636103470983521,0.204986266221842
33.05,-0.461254179361039,0.127760769891805,1.0097742179596,0.25802849382467,2.85186861429239,-0.302924452422265,-1.5786169631888,0.0737682529821726,0.0928218151585037,1.08709350034261,2.93696418450492,0.126014901111241,-1.50265489950291,0.44960233047192,0.176812635302924,-0.485951529333635,0.124454187178267,1.46687369798346,-1.3781468922517,0.272752012026202,0.0323411873692569,0.739103813047829,-0.555805600287175,0.235326014928231
33.055,-0.440127430322195,0.107790572382792,1.04431381412622,0.278666282476448,3.26263168825889,-0.382723820100232,-1.65544431421572,0.0150538380125612,0.117374362202422,0.998635640546918,3.07647995382909,0.124909962888214,-1.46583978448033,0.502597606896359,0.180041792486739,-0.196742448190769,0.180763486632326,1.69116922056136,-1.45823002152808,0.253909461142452,-0.105490740284904,0.712981254375979,-0.433259792774684,0.229075782019814
33.06,-0.436647391267431,0.114306584770554,1.03728887226028,0.235512766364994,3.64507252311862,-0.437285120362135,-1.70701925797074,-0.0508284874609931,0.11507658553483,0.925883798969205,3.172956515859,0.128058982338701,-1.39004111952231,0.578626343310537,0.182974291200552,0.114612933374658,0.246629470881762,1.9648229224249,-1.46482440707696,0.226514776503347,-0.205891845653951,0.634211144841054,-0.314492854528521,0.189223655003073
33.065,-0.477916885231082,0.171061211691286,1.10305486128526,0.244276848821808,4.14066852876986,-0.489794231587683,-1.81164061951629,-0.175757043433568,0.0434808963319149,0.924818963406697,3.33073442705042,0.123011308195464,-1.34537961628578,0.611962814166284,0.181061290823052,0.276012262932233,0.290370266397232,2.14054055179783,-1.3949572747269,0.224802614910473,-0.26799019310813,0.53597780396488,-0.214718078236588,0.134710330314133
33.07,-0.465696656053219,0.204040792902416,1.07121067469914,0.396159749505804,4.28568886011402,-0.448130890861209,-1.80362278378694,-0.0743593763932106,0.0382297282072804,0.907245424212748,3.35390587101015,0.173451202394057,-1.28465557703591,0.655400345974768,0.138458619580663,0.4159899707072,0.353358797830477,2.37790555868666,-1.24955855398808,0.239934613979732,-0.287460984629242,0.423965500455297,-0.150816512918322,0.105392823082207
33.075,-0.494265236352294,0.256131214466547,1.08252997363998,0.130882674797973,4.84731772962998,-0.574330067210109,-1.89308456849888,-0.0841563482133868,-0.072426162402011,0.757398822900997,3.41788777632537,0.175421505016925,-1.28307124783662,0.714963689792256,0.090583744337051,0.638765342834289,0.418540876254257,2.63878578792852,-1.11178035497363,0.24555849957165,-0.274369848943772,0.356734708236195,-0.110336082028311,0.139180525171082
33.08,-0.535226994863952,0.173008712236772,1.07622856030046,0.0111878429416518,5.27025839554451,-0.698758656265391,-1.94633954481297,-0.043451048614189,-0.127636950109947,0.798273536436603,3.36128830853746,0.269163690812162,-1.30857418729264,0.648087296019691,0.0527102563579548,0.855320625156484,0.491161831245405,2.98940014958117,-1.02819227022755,0.215122665627546,-0.258531852859971,0.33342603337894,-0.0787847495923858,0.201214490348849
33.085,-0.592245992984702,0.14942142525582,0.99827109762238,0.0588761451798057,5.77159082788442,-0.816137923711399,-1.92469918796598,0.0531596600522127,-0.105675528544661,0.903549633950036,3.2993017085269,0.324393168443389,-1.2898302793356,0.485998502112511,0.013846747209872,0.955523137204936,0.603488437352862,3.3792053356784,-0.981920598144075,0.140437384268555,-0.236018061328846,0.292694340429887,-0.0130459418858338,0.277605256623934
33.09,-0.524117969258472,0.401272897599583,1.05915768904956,-0.0420228906052297,6.19311051455476,-0.865229564133499,-1.8618125041057,0.0708047079927075,-0.0509265746997938,1.07404528347584,3.28704923018137,0.32373473882864,-1.25975717531921,0.215348153500478,0.00341740076725185,0.967183797890558,0.69157574450443,3.65588179377927,-0.961978308989705,0.0877311505502399,-0.233883920190657,0.233001483204178,0.0604404689612828,0.298731022897068
33.095,-0.626268928246684,0.380407789597492,0.956531851874649,-0.183813373946388,6.66013511631732,-0.973949917376252,-1.73187132598584,0.0971017261144567,-0.0302888352862857,0.931373357707545,3.27382284190559,0.332828025050352,-1.28631604165193,0.068335685175864,-0.0689389391411698,1.01970615625802,0.818435600477207,3.77340870342817,-0.924107207214605,0.0267576227342679,-0.230997084602302,0.131407480133511,0.149670377280548,0.279224441858807
33.1,-0.663983725079696,0.428572024345157,0.960587745588502,-0.294163420575861,6.99514393069893,-1.01354153958825,-1.56884703277027,0.219928794836046,-0.0959282280653322,0.918785274848358,3.15452222044317,0.368168613701495,-1.24651425237795,-0.0060131039901142,0.0279485379712479,0.930367541307438,0.920702055103744,3.86647563219415,-0.885859654236111,-0.00530263709367469,-0.213343432611744,0.0465478520164854,0.239590998023907,0.239433928741594
33.105,-0.671806329620925,0.354060013683098,1.02948693853528,-0.433898582637464,7.30165446144034,-1.00631901184609,-1.32620662228998,0.32380619128186,-0.177074973200265,1.13409954747345,3.05738685219824,0.40023079022205,-1.40101339881831,-0.222588269554233,-0.0520801446884754,1.26678232842788,0.333611660027772,3.76196914618699,-0.832215388646032,-0.0242793549890118,-0.168922563771073,-0.0233054256703708,0.332050385869142,0.184521498381032
33.11,-0.621091046731661,-0.0193052321740939,1.12443543074977,-0.378997512142431,7.39790769130541,-1.13710299824937,-1.15502066435593,0.26448599991098,-0.207281133686608,1.3330550552063,3.01660134287316,0.359757693120335,-1.28350614106996,-0.361696981170427,-0.257125445687845,0.874269101959469,0.963646506835255,3.80614910526557,-0.807632456590911,-0.0366214881523388,-0.107736207231331,-0.0400237292051315,0.3556074401925,0.131960209046314
33.115,-0.614466053990321,-0.365635413860186,1.1518437655979,-0.124400248863933,7.43659081431222,-1.39462541773299,-0.996313011832262,0.206612888607022,-0.338501075693409,1.21729205319226,2.92484997148136,0.255458068951225,-1.31396553047068,-0.560449895674071,-0.268630450268896,0.364647158345285,1.23213368692884,3.54329395138789,-0.797030304342888,-0.0493635377932302,-0.0600181944887481,-0.0413006574709085,0.350881202617708,0.0851712853535472
33.12,-0.702886638809643,-0.501155519651021,1.51193043518559,0.512295234135573,7.09759843232054,-1.41144647435837,-0.865744212958534,0.225069853239467,-0.550355713406535,1.08823728417564,2.80620394760633,0.165658028487692,-1.40126894501943,-0.751928342259873,-0.233517207080189,-0.167256150953682,1.14711539427968,3.24390587174354,-0.786817818102216,-0.0526125240797897,-0.0251718182307848,-0.045299013439631,0.321894736260737,0.02316974968972
33.125,-0.758473261912374,-0.852169439506553,1.83650049173898,2.02769565185775,6.31882126333991,-1.60590671380538,-0.768782656937426,0.281355052051157,-0.530111297978189,1.29716714394449,2.60584351289182,0.145181526545634,-1.39042552008814,-0.909290003487864,-0.250203017578732,-0.67969224033666,1.02304595895922,3.17479262572556,-0.791859989181132,-0.0590192268429446,-0.00156564058401153,-0.0275393336141514,0.284711665030197,-0.0286966219237414
33.13,-0.785064664148194,0.0207615056050354,1.53966525862444,1.84322146768723,5.48086984945488,-1.69006013759165,-0.654056648023265,0.233605051611469,-0.611838309989695,1.30545907842733,2.43821516760201,0.0664445055096552,-1.36886380586646,-1.05376003584137,-0.228649422289746,-1.25509225176541,0.907421561071749,3.10600646601131,-0.798594630042975,-0.0564831922880295,0.0102726971302955,0.0183910710672326,0.231470008853692,-0.080120237697291
33.135,-0.903681991399686,0.430595023178881,1.91930456136013,1.68451465258553,4.61156083336519,-1.8294638676737,-0.609156496181311,0.238757036797071,-0.642231419501195,1.18029612229775,2.18990736519436,-0.0284131565028831,-1.31984575110012,-1.13610752011093,-0.15431754424848,-1.60186540503521,0.689019704969904,2.92956078934336,-0.831222668188415,-0.0566454419224444,0.0153526830362111,0.111160954895578,0.175357832093337,-0.109910505034631
33.14,-1.06780565233673,0.137096026455594,2.64229546529335,0.837172345341634,3.0892794425809,-2.20473482387469,-0.562938985778008,0.259989685636914,-0.651306829557608,1.08133643731848,1.82530977168378,-0.134920611485769,-1.24103134004034,-1.17384606173847,-0.0278575782460433,-1.83243925534345,0.306968386433404,2.51283923747692,-0.878363013192676,-0.0584337424563165,0.0137009034630778,0.247184936347296,0.111924777328321,-0.137295533284524
33.145,-1.00899443882752,-0.410451378491047,2.78171784145486,0.172683218403695,1.67300565812842,-2.56604495081432,-0.525685024196545,0.240634544271548,-0.487612160666485,1.05950963663705,1.55473297380717,-0.239355209495723,-1.17569804396248,-1.16095660124229,0.0797827287902758,-1.81059308315457,-0.0548569929598748,2.07642619816668,-0.935999687352597,-0.0734524844351982,0.0030296531314006,0.320914381793904,0.0782583584505166,-0.157998683018909
33.15,-0.508499880879674,-0.352415888244988,2.23578558139568,0.144641667782168,0.664504497416554,-2.78061956473342,-0.538391744075249,0.176610773559818,-0.428980913610212,0.86685530472792,1.17655906350937,-0.307154377618107,-1.098734593722,-1.09294185423208,0.155119200591276,-1.49017801286809,-0.362885594341405,1.76291564263176,-1.02065624499298,-0.0751234188340563,-0.0109146929220395,0.409799458650783,0.0124005631232209,-0.193073491863282
33.155,-0.176066683318023,-0.207958444942582,1.80919623859249,0.287097601836623,-0.0468615063478181,-2.86303291450449,-0.54817423908688,0.131969474747198,-0.310687078875047,0.556711999255255,0.838694069174777,-0.35830708102361,-1.03214025776755,-0.985152870059175,0.238762694236839,-1.00428548366267,-0.632632258892774,1.66711654544262,-1.07325068475525,-0.0735382127584695,-0.0294822719863592,0.447386658379273,-0.05329632061062,-0.235746615407644
33.16,-0.0739658564440143,-0.13930642538358,1.57395884769357,0.37109201651445,-0.509043508592059,-2.77636916833048,-0.546685183558899,0.072540315273192,-0.189075444938273,0.179277070619285,0.50527858639293,-0.396931854035906,-0.997521481691179,-0.876512177452211,0.31082567635424,-0.628954691001087,-0.657466826683341,1.78198292237305,-1.14290247540326,-0.0584730984981399,-0.041414898337203,0.45117781429373,-0.127936165669436,-0.291595763974321
33.165,0.0874143753430524,-0.105680900293042,1.34455626720997,0.484800824186322,-0.886192823260756,-2.7759986079677,-0.507520437862868,-0.0116005044053359,-0.119856614210217,-0.17230592877726,0.181094261185152,-0.466791598448039,-0.976256226156309,-0.7887266477319,0.376897930323748,-0.289908133779051,-0.53231350444402,1.94309717262572,-1.20450920858421,-0.0425923496686972,-0.0639732267532543,0.42674064860499,-0.188456231569443,-0.334334713809974
33.17,0.226969349422211,0.133297380884279,1.08376688546529,0.662958530678907,-1.22431479831227,-2.75816596200898,-0.423534958134744,-0.123497667344458,-0.122258330165542,-0.447040183204262,-0.181109652594043,-0.543052958202433,-0.949337973603689,-0.672927699365589,0.394480242755412,-0.111382914628752,-0.398068728959173,1.9084899404324,-1.23401616220593,-0.0211673335584216,-0.0706823079151687,0.36124629995548,-0.225924115959252,-0.363547512662337
33.175,0.176513618981163,0.37140013193723,0.972109639436367,0.716369397114784,-1.45798180162062,-2.62655608984651,-0.38829767806511,-0.212921786243721,-0.175762975083135,-0.368651299924441,-0.451055989294272,-0.53509576405041,-0.92314135267282,-0.577262424105836,0.340297976476377,0.0160462300836375,-0.140259653465185,1.80576494923527,-1.26082865149618,-0.0141446518090486,-0.0689695709882016,0.271684315627401,-0.246582598058277,-0.376038210434999
33.18,-0.0121465557860927,0.625926012261293,0.944603481700817,0.60285841985331,-1.76797172024628,-2.38388691954927,-0.373172902827798,-0.278150413774638,-0.251833195205378,0.00950753017967877,-0.731399302672635,-0.488490757249019,-0.961096695210889,-0.478036017012241,0.211227022868122,0.112717727332523,0.404912720435625,1.78746248639371,-1.2721276766908,-0.0134007515716959,-0.0662416668445832,0.157957034190987,-0.246829348045603,-0.381099660626673
33.185,-0.167215070812022,0.783785667350677,0.936862971155246,0.38362964061482,-2.07126450171942,-2.1131973467754,-0.352077286788927,-0.321440504528387,-0.31334394146705,0.453961338922045,-0.954156443236758,-0.431863919454565,-0.97880612116114,-0.429629893168927,0.149533372610905,0.0545632245745608,0.753807782972509,1.82947376193524,-1.25752769530817,-0.00188696752532811,-0.0507740872081919,0.0427457150637533,-0.243331127396098,-0.373543905498777
33.19,-0.198044261811848,0.83208630529681,0.869297483181741,0.130752496757167,-2.34245433001089,-1.75869523437942,-0.346059757158291,-0.325526005018207,-0.33637588098307,0.913728268566828,-1.16840453074227,-0.341135209860346,-1.01810515406284,-0.428602798768053,0.197673208273495,0.175015192652555,0.958801799505243,1.78756879698081,-1.24835571015305,-0.0193483384999654,-0.039007597871041,-0.0955591090503519,-0.204088315834841,-0.351810296702045
33.195,-0.146441113260875,0.867429626739617,0.755655827218053,-0.102327163489488,-2.5612372116681,-1.27564224503149,-0.339601580845678,-0.293419513791379,-0.332923611138788,1.3594196942636,-1.42105404253892,-0.255207441490302,-1.0136046182917,-0.433936116013898,0.183985914907873,0.424024618436956,1.0225689125522,1.58642796919817,-1.22972958383543,-0.014687413193298,-0.0209761080869999,-0.184366714451066,-0.131643133366455,-0.350095116888314
33.2,-0.124486670333727,0.907778923453183,0.656014465086798,-0.250542878682756,-2.71858240364141,-0.828272873555023,-0.345073846441344,-0.237393902355913,-0.351597637243962,1.69907901541015,-1.65642431532725,-0.192663100545451,-0.991887698738956,-0.391822656559613,0.11012610974058,0.488511003928233,0.905747922877871,1.26219716130908,-1.21007029908861,-0.0147299185495897,0.00432977465212363,-0.290424908729738,-0.0756182496494437,-0.332745343633661
33.205,-0.155527809080533,0.899501659987329,0.571116930403623,-0.384331873459244,-2.88721581746437,-0.244999599421511,-0.353605807534577,-0.164162636724327,-0.345246377089284,1.90289717666056,-1.82317893779313,-0.149536262401461,-0.943579968878346,-0.332748599902412,0.000288436850495656,0.490752553248736,0.736566368944523,0.891542313303043,-1.18412357130553,-0.0158458818627285,0.0307587249097563,-0.389278324088289,-0.0410895637601832,-0.328848332166672
33.21,-0.23755577783713,0.782738614937911,0.507780939361597,-0.418973962932941,-3.00116544164088,0.226390497974793,-0.376370913872936,-0.0801441063356343,-0.349722432814922,2.0918543768224,-2.0187179628166,-0.126329835156979,-0.891928359931549,-0.31207978733919,-0.0726333831146844,0.424662386484313,0.571426634718013,0.678700767279813,-1.16557144262559,-0.0117482074633793,0.051839861545897,-0.443674708210055,-0.0460877384248846,-0.329174253297222
33.215,-0.333548895879011,0.652144043880989,0.537889838258893,-0.371025537475505,-3.11088847324002,0.682585588011795,-0.393212478713724,-0.013100047561816,-0.375720020068082,2.13491354170031,-2.16754117380319,-0.0732949118304146,-0.851370987984463,-0.309819607435755,-0.139335904366795,0.24562304001318,0.350715601640916,0.480079718532771,-1.14208544857172,0.000384837235158024,0.0668827823314177,-0.472186414353051,-0.0815963797295077,-0.326882308393955
33.22,-0.479641468049925,0.537283291062793,0.636684000653506,-0.188373827635127,-3.29777687083624,1.18124928515114,-0.395299058410953,0.0697642727771658,-0.455350374966267,2.04517989811674,-2.34374621465202,0.00772921768256151,-0.791291433115362,-0.32491973978385,-0.18971143787204,0.0828869112970138,0.166194353015274,0.288259290629548,-1.12396779138448,0.00948774011267271,0.0740530122157832,-0.475782781570086,-0.130601783383978,-0.320189194361351
33.225,-0.624380153317101,0.471022953784933,0.728426616421618,-0.00912338343026583,-3.52258184633251,1.56027283241686,-0.374045208338157,0.122330903608355,-0.520842654962927,1.9162696584851,-2.5066272687702,0.0744719048057639,-0.76177564532451,-0.357206698423225,-0.284716877231422,-0.0887725510558018,0.0457029703774178,0.16706080747029,-1.10848674652874,0.0307477348917883,0.0669133747276007,-0.461274156004381,-0.199173338181596,-0.30790922978494
33.23,-0.731750585589896,0.415235863975521,0.752181054706586,0.110286550431828,-3.81675003029847,1.82657013890621,-0.321429119294003,0.216349685218789,-0.575404030182961,1.67493288555554,-2.62038037437617,0.111318341122614,-0.738156530296028,-0.404359680140175,-0.345266329816097,-0.311078398472209,-0.10278208287202,0.0946325348369749,-1.07714124265005,0.0451742539463276,0.061245602906056,-0.423248336863044,-0.267553473198626,-0.283302537795101
33.235,-0.785241076167962,0.367919237365771,0.706065401922531,0.163769174404849,-4.12485302932063,2.0308967825705,-0.292934598922956,0.268447409328995,-0.591643236481191,1.33354055977929,-2.73677914773532,0.10525165471805,-0.686433241131886,-0.485458907602275,-0.366282783147798,-0.685664910851705,-0.197590090683143,0.0270383743429457,-1.04797275748385,0.0536480859420019,0.0352543414401379,-0.367125492768492,-0.334081709827449,-0.262338602331398
33.24,-0.77480077587282,0.296746503583583,0.635257257092855,0.157909368533928,-4.33295651467728,2.14302340147128,-0.306821741535024,0.301185608891648,-0.613737252506998,0.890977248330214,-2.87631520299067,0.108630262923059,-0.662306367735232,-0.548587890254207,-0.3463633733507,-1.01788556548616,-0.284708880544679,-0.0969329483618713,-1.02132893417889,0.0560776772342932,0.00768317484407965,-0.30750950274363,-0.393131052198552,-0.24170534524325
33.245,-0.741764342417687,0.182245326800164,0.511170722420697,0.11709526406847,-4.4972513016767,2.20593284178029,-0.331425735690762,0.325927497487934,-0.582933304781639,0.288272176090835,-3.03490365219795,0.106030800228409,-0.649858792137891,-0.568759968252527,-0.299034137998179,-1.17834792961133,-0.301409244537354,-0.223641041838559,-0.995460952379795,0.065862536330301,-0.028331979243568,-0.212677353637219,-0.444093166267722,-0.20803786941725
33.25,-0.746339732812898,0.136823553703368,0.446512733859065,0.102094712708858,-4.55449339674152,2.20722843743246,-0.384613002737867,0.33491594760519,-0.550420852967387,-0.107127696164092,-3.10368954295681,0.105326956732342,-0.648237147398374,-0.611295379269223,-0.25200968598378,-1.38514516559349,-0.329240674402854,-0.521862525538831,-0.980068117747272,0.0704860160577196,-0.0492796475972062,-0.150058796114014,-0.448058330459838,-0.189747227388121
33.255,-0.790728903617932,0.0736098090005979,0.394504274771785,0.0933749119121648,-4.59128213686857,2.17545385687761,-0.462721211384741,0.307529686685234,-0.575467077118682,-0.738395501572489,-3.19101108987267,0.130238459968308,-0.663162042529775,-0.621302862022044,-0.211156470100913,-1.47161551793414,-0.352242348430273,-0.727048277102606,-0.962377661430336,0.076364976694276,-0.0736702952185463,-0.0693411975762246,-0.455271482467651,-0.146123534728868
33.26,-0.87234548674739,0.0128493485030673,0.378552436857076,0.125693781812344,-4.59371713329975,2.15343543947409,-0.524240729326761,0.255446094182748,-0.629370504375101,-1.28245028429772,-3.23624273130986,0.178357708314553,-0.686034186668466,-0.582435634579345,-0.135473752650451,-1.27073397898184,-0.346523505938796,-0.828660933999269,-0.94322817984124,0.0809975171966589,-0.0813440224040286,-0.0274570396304468,-0.440261410509772,-0.10560433395232
33.265,-0.974756568305779,-0.0251850887828758,0.337266091045703,0.184422257470225,-4.5800231933823,2.13974132870309,-0.582997987324076,0.17413895164845,-0.723168553988914,-1.96638435926391,-3.29423700313275,0.212085779928886,-0.70501031922998,-0.542918944337667,-0.0616691136031014,-1.00016747152573,-0.31175770027014,-0.823362931406657,-0.924658459152671,0.069574942613542,-0.0979764171529088,-0.0378661904136999,-0.40684581784419,-0.046949086338496
33.27,-1.03828120509511,-0.0098952052308691,0.323675731241448,0.195675281555469,-4.53639746805157,2.1628299480927,-0.619626843832384,0.130104176097302,-0.771868172123757,-2.38993854144511,-3.34628526912557,0.184186086069253,-0.722012972453554,-0.511333233240168,-0.0083880665050493,-0.687197387368645,-0.229305118482243,-0.763309362359243,-0.904065277615685,0.0621214846870446,-0.100114050287971,-0.0620667625677809,-0.352453281401387,0.00822302917088614
33.275,-1.11169978333381,0.0284379691838316,0.315245845052532,0.181629890637458,-4.47104322143078,2.21975639200321,-0.657830629426674,0.0965193180194365,-0.820800623766232,-2.71868583534214,-3.37816668442607,0.107811897578098,-0.729591485344224,-0.498196475583291,0.0641727292364562,-0.314275209145769,-0.109185502018924,-0.701988153897928,-0.893069426483297,0.0548998514640508,-0.0959204680569441,-0.109785788100052,-0.283470650886945,0.0603050181738209
33.28,-1.2016554509154,0.0539663553592158,0.299448639565829,0.124151230481741,-4.38388135796349,2.30942918551638,-0.708867575589231,0.0538421698505227,-0.86106798749635,-2.96009671140989,-3.38713564273477,0.0065031913997249,-0.736637039928013,-0.474206550658027,0.120708814408382,0.0719494268245411,-0.0357943209196801,-0.680179119283695,-0.877951326893496,0.0405142675014166,-0.0873305038773988,-0.164194142274457,-0.206796011379436,0.113905372637522
33.285,-1.26761451054824,0.0322417870399098,0.247842612058413,0.032410315697465,-4.28082737622711,2.40114339768944,-0.763401683547056,-0.0138034095913998,-0.905560742816485,-3.15932305158775,-3.35217527575086,-0.0853477067896621,-0.755234368268662,-0.472320597568235,0.20901872467545,0.5745598608527,0.0776349835250667,-0.717914470569223,-0.870057727071696,0.0330806564640576,-0.0721465872124486,-0.229040194851181,-0.121605812067747,0.154416245617391
33.29,-1.29540270203697,-0.0389280578689481,0.202721279966848,-0.0936242615258756,-4.06392996726105,2.51101914049221,-0.819514822699588,-0.0703872681514247,-0.992341855263761,-3.33516176276608,-3.34467366300475,-0.205061727390502,-0.769652937031868,-0.455360767161836,0.236578829172334,0.884823208089228,0.104486580221173,-0.746902346611023,-0.860996492640625,0.0278389743939029,-0.0508405295979755,-0.282908545237135,-0.0456587162433681,0.197014060663974
33.295,-1.31140330229816,-0.168918607756901,0.156163630021525,-0.146813883491059,-3.86838415116203,2.58570340352519,-0.835666133553983,-0.0844696579085618,-1.02237733947861,-3.33151802877736,-3.33020250431504,-0.3108415399604,-0.784314924760155,-0.392043020790833,0.249619943373395,1.36632498423433,0.106074595438057,-0.725896965542462,-0.862585430071466,0.0251032495822661,-0.0254802736521731,-0.333023845593549,0.0114788017519523,0.24092335995864
33.3,-1.35328273397643,-0.302907959017248,0.14690604047127,-0.133633479260694,-3.65279099551292,2.60169982455235,-0.840548162902618,-0.121206713055601,-1.0384788752255,-3.14884555285465,-3.27892069477354,-0.434437967806887,-0.791749980067919,-0.335793759238885,0.264861233450817,1.84159567641639,0.132639557161128,-0.662550757403811,-0.871413899490696,0.0172514326614317,-0.00985877864001933,-0.363358761141552,0.0576376786718424,0.270204933135916
33.305,-1.42968534710493,-0.393300769067725,0.145405218345814,-0.0977777829536557,-3.41637736918449,2.52257050059575,-0.84226390014315,-0.160435353527132,-1.04839410755401,-2.89025774826974,-3.20195715336891,-0.520545766148602,-0.790660563874346,-0.31196469738734,0.289251741916716,2.18581050357318,0.167922249398825,-0.589768591115279,-0.881762341149164,0.00292381601281828,0.00315540730923763,-0.38937387536709,0.111789360612446,0.294406511248717
33.31,-1.46044844517447,-0.399397344827422,0.134344375241727,-0.0913996948560565,-3.24298761258715,2.38751324037646,-0.842968505982541,-0.228476642033046,-1.07381741151363,-2.50885951311561,-3.10834700512803,-0.553013757222594,-0.799583087725146,-0.292184702743887,0.30999548918558,2.52212331291848,0.183289629060335,-0.526582370562334,-0.902258335781738,-0.0188052965747973,0.0295883006845896,-0.386006538130667,0.180750236488934,0.30570302388836
33.315,-1.45261606101978,-0.406031118309467,0.12809072980914,-0.111081797988087,-3.05269187321344,2.18361807859186,-0.832823823773793,-0.252886420971419,-1.08480159563282,-2.01484300274734,-3.01131250424291,-0.560585086452726,-0.807546370212079,-0.268127062855189,0.312037572220789,2.73107141962058,0.169873153961234,-0.51915844254813,-0.92095832250609,-0.0335502629253865,0.0377610467090471,-0.381407868287994,0.218039565784575,0.309301596749073
33.32,-1.40790421249357,-0.43253884469926,0.129255358196175,-0.128207836747347,-2.85839201965881,1.96267873870809,-0.808343210429718,-0.230268406824191,-1.06582778041736,-1.42075668571784,-2.91722561050756,-0.525919925759697,-0.814656816915418,-0.241322581070924,0.297181084339833,2.86301120915838,0.132815355529313,-0.559634887403854,-0.941216893521314,-0.05058960151229,0.0546979120229823,-0.373997216228578,0.258559131732394,0.295781829833344
33.325,-1.36989530350488,-0.425276371826877,0.117079735881292,-0.0960618496684498,-2.69169912215366,1.8025216135498,-0.784062155811721,-0.193575337654447,-1.01615581178169,-0.734304441594541,-2.79204520294501,-0.44652122121952,-0.837474647367287,-0.195315735013202,0.259909412735382,2.88824123693593,0.0701769459618771,-0.674461532834344,-0.958249300162225,-0.0684976820201587,0.0724677069359129,-0.363780939114438,0.274055560436083,0.26474779748116
33.33,-1.30767052454961,-0.309392964807753,0.0638630733554291,-0.0544496469565153,-2.43542383717157,1.62561005058818,-0.785477628799272,-0.152912715880954,-0.980122869817328,-0.408964831664168,-2.70928324233807,-0.392185560145013,-0.863558242975027,-0.14811626986714,0.218745043506421,2.81238336037599,0.0028612618437031,-0.834303675331718,-0.971865369131869,-0.0811924763947538,0.088498826913268,-0.368557652136061,0.263612619839756,0.236102245055286
33.335,-1.23646880828068,-0.183220808186201,-0.0182439040250816,-0.084852784917382,-2.19754795577011,1.49524222552774,-0.810503781066369,-0.100924353837951,-0.964923143909149,-0.0572854983986611,-2.58208136783706,-0.297532264909726,-0.889204493238307,-0.107855309031283,0.159096712322335,2.65221822109145,-0.0700860025263392,-1.05871264676607,-0.980690159199635,-0.0970920615676839,0.106142573356154,-0.386086657365446,0.219885431968806,0.192375057184336
33.34,-1.14033255649566,-0.068127231338737,-0.105535526755484,-0.197998974549125,-1.86568196808272,1.31966712092346,-0.833017980305311,-0.0409935071613202,-0.932354480543129,0.212429739784398,-2.49611658196036,-0.240330347144315,-0.921032221529987,-0.087544689193565,0.0953572075631958,2.46299047190291,-0.130197951693686,-1.31452738390685,-0.986541518606776,-0.109440927201507,0.118374831740458,-0.398752714433631,0.155611919195463,0.141306563539565
33.345,-1.0827044391855,-0.0175086014803192,-0.166766823971649,-0.27238597927048,-1.62275913574889,1.20405147545183,-0.854872174810567,0.0146260481837808,-0.874306081538082,0.406770615575508,-2.39231339981582,-0.17600794599671,-0.945759449803793,-0.0857921033495264,0.0422574370117411,2.27337765623255,-0.171230112056488,-1.53847562808176,-0.991425963907288,-0.116767208303666,0.128530394800338,-0.418583678725821,0.0900892218970808,0.0954213338222818
33.35,-1.03686361752751,0.0120952170171768,-0.206994724639116,-0.263980646346515,-1.14124552800947,1.064335706226,-0.877116143947615,0.0661979158749124,-0.85814385108932,0.45644495863449,-2.30961229319682,-0.121321800120629,-0.96196732571641,-0.083097634287789,-0.0558857253025775,1.98200042644076,-0.207015031358464,-1.79368827375899,-0.992421860327759,-0.121260436300677,0.123219760957786,-0.434250560723219,-0.0298325999325594,0.0373528720623015
33.355,-1.07061767118172,0.0633913508386775,-0.172169720198246,-0.215695287349643,-0.77579690975151,1.01222648433776,-0.869427129044601,0.143155235990932,-0.865280701276433,0.358115200353327,-2.19049068033982,-0.0444967191010691,-0.961025601598646,-0.0719406276707464,-0.141184613332382,1.75354205946368,-0.222631306997523,-1.970060698637,-0.998681019064479,-0.121115159186944,0.118955660730679,-0.454271685510724,-0.104798143826024,8.61740921017685e-06
33.36,-1.10899176801536,0.142189769272841,-0.204547227177635,-0.147790089447491,-0.448006727923656,1.01436195269323,-0.847700988780222,0.227868324104501,-0.876831249169364,0.171823101736796,-2.06547475464637,0.00878785831885424,-0.939068417188371,-0.0453235953015492,-0.250967165302919,1.45056549039112,-0.237246169792027,-2.15732389728193,-1.00327499964805,-0.120132766998572,0.103687899973867,-0.461559261297076,-0.17298401222893,-0.0353109530956191
33.365,-1.04318556976939,0.202053174917305,-0.318856252906416,-0.0857893137135435,-0.0525301523200141,1.04075782399402,-0.818867739222254,0.259910411248215,-0.886522517672889,-0.123809928230758,-1.95662963117467,0.0372425823737594,-0.906001959687122,-0.0115735206964666,-0.357529544970791,1.12107300180482,-0.26119259108881,-2.30760199606981,-0.995791942973607,-0.115499289943977,0.0888541109644252,-0.473704415033828,-0.25539298976263,-0.0714043155494236
33.37,-0.90014714567471,0.23426929877529,-0.447365883712259,-0.0697186171218334,0.383396796917668,1.10180599175974,-0.801487814041434,0.248587417134078,-0.840512059086779,-0.606484558732549,-1.87685017836236,0.00864919702346068,-0.874519327962606,0.0271509387872649,-0.445373017731131,0.755324839795531,-0.279680895805062,-2.40886489759646,-0.989816974936991,-0.110351912312009,0.0730960526259531,-0.468698152658041,-0.293160333669175,-0.0928377403206845
33.375,-0.765888040599855,0.256954555394322,-0.577221159401477,-0.100849208521877,1.00249272975684,1.18506116952622,-0.803090115835429,0.254512467280845,-0.791859721639149,-1.01082609515936,-1.79656110432177,-0.0245225360349658,-0.856133845700898,0.0939328520560562,-0.550434756802391,0.322454736038914,-0.2934959361369,-2.4468258421675,-0.97818809973024,-0.0981120216548711,0.0567328775330077,-0.45657711972942,-0.327804299572801,-0.10233507126652
33.38,-0.800031206852373,0.335083982241092,-0.555849417320781,-0.14319411237642,1.53418610155467,1.26793358969233,-0.822684093892221,0.270153491388289,-0.768092407037974,-1.47040334504873,-1.7213655373926,-0.0837534119540626,-0.835730279853948,0.156788203509381,-0.624511078365041,-0.0149154728380671,-0.294374127443123,-2.42408183135871,-0.96038138503776,-0.081741424362291,0.0478742282695856,-0.448817602649257,-0.342505251431396,-0.110920186947956
33.385,-1.64151786729143,0.869570174037113,-0.0209493401770247,-0.814003517458683,1.89598808830907,1.0849497769864,-0.828146636658685,0.29195905337085,-0.902444140921637,-1.86553152518616,-1.61415010282528,-0.145977830074521,-0.80993965629143,0.208058162338003,-0.675762640507267,-0.371977764235646,-0.311155568339523,-2.34133647029679,-0.941307233482484,-0.0808831306815465,0.0365594295856725,-0.4442954451308,-0.346504273927445,-0.110031615586494
33.39,-2.75664821788772,0.857747857780461,0.976759852485233,-3.85684628046569,1.4142754023751,0.718300672625548,-0.763177206439281,0.440349527346792,-1.1638504214584,-2.05522348710049,-1.40102232908415,-0.151339290352,-0.779649715137112,0.241525437775662,-0.685179002701966,-0.57602172353305,-0.318498814631468,-2.22616003401434,-0.928930082208188,-0.0820780741044418,0.0282452976672404,-0.429606099395118,-0.341290882031356,-0.0938739438777134
33.395,-4.28174492344183,-1.831719946932,2.21146384794263,-6.41199924944146,0.0985436192262583,-0.0784730429916482,-0.623365592092818,0.576853804990923,-1.49039648405744,-2.16779389865094,-1.03185069447423,-0.125213047206361,-0.784930761391971,0.252112675245574,-0.646745190975756,-0.744321023645626,-0.33865090531698,-2.11102190820677,-0.914221490516901,-0.0781677096385119,0.0240348028980564,-0.413762146835707,-0.324299962831494,-0.0826143439128389
33.4,-3.81853000320263,-4.8558416905211,1.35962808195166,-3.79236562053963,-0.86964910031777,-1.03386791126765,-0.572530320122997,0.479423198599517,-1.49548291372142,-2.41879566266001,-0.660551970058169,-0.138379068115389,-0.833818911368119,0.282617246640073,-0.563923432026189,-0.915104072227179,-0.371970609216711,-1.96421450485133,-0.900415309830273,-0.0701272542002597,0.0171392940113759,-0.402381649057422,-0.298203654639424,-0.0730288644690369
33.405,-1.34716629209991,-3.19707551492251,0.197637413469175,2.66885705052333,-0.791083970673221,-1.24230475212517,-0.58875363665056,0.399928720702164,-1.30572580864516,-2.88935576784915,-0.226477943989353,-0.150613314211264,-0.925776229878378,0.241559415661547,-0.431686809441584,-1.06070022872389,-0.439078499440316,-1.84161197838772,-0.892132157566497,-0.0635660675562226,0.0217905545563954,-0.410254078404855,-0.241956810405868,-0.0524039220795737
33.41,-1.12783343516329,-0.274956051146291,0.412817768318262,3.0460030421907,-0.915007970019085,-1.25812627224081,-0.777423699722407,0.177073494715741,-0.952615207347848,-3.30440198684088,-0.0953784678165398,-0.157793758202381,-1.05444416514662,0.10160746140681,-0.248652617299196,-1.22969019686365,-0.520061402901894,-1.7194359441726,-0.885707776183901,-0.0645665658945535,0.0166403429165953,-0.413596928654838,-0.201368729541125,-0.0352158923994293
33.415,-1.67218722786077,2.05054470330673,0.939216153077703,0.789873053323618,-1.35024959153276,-0.967103735920721,-1.07064845634487,-0.392510029739407,-0.717250303349972,-3.1180180293515,-0.0324323165200489,-0.35940961491284,-1.21595246368235,-0.0807230673042949,-0.0218116659617402,-0.661297576305314,-0.576753237075084,-1.56819145071892,-0.893708865288196,-0.0631899004972327,0.017919807717384,-0.419484490721449,-0.150122378077535,-0.0245467062486669
33.42,-0.517056640250009,2.2452189745615,1.14783990680153,-0.214175924999025,-1.34967693692361,-0.708181291877372,-1.61682812433849,-0.910158381757139,-0.41871395872039,-2.34643894894234,-0.0234325137017542,-0.687454466143485,-1.37470107093685,-0.199213647769319,0.137070265398685,-1.08952582757074,-0.598832892954564,-1.44028165606193,-0.92971804080452,-0.0630141188286841,0.0205197835687962,-0.441157710289708,-0.0866214350371004,-0.0156427593998046
33.425,0.00643493186633681,1.31633094194049,1.38003544641251,-0.565603902077438,-0.798815242431448,0.014939627230226,-2.33466583749308,-0.950166112286014,-0.0644760767079433,-0.955384655491288,-0.157244451022677,-0.757877627855576,-1.73431546475911,-0.282339581433084,0.267750930319102,-1.30588263813313,-0.591065591277347,-1.34376633562441,-0.979970012310279,-0.0637842040310467,0.0161327148170827,-0.465204524958091,-0.042296749094239,-0.0136527137440422
33.43,0.260014718885816,0.200750929835822,1.53631300729932,-0.833745436047104,-0.637535434043842,0.0204597470173831,-2.48337719691428,-0.710623337671276,0.098257273263446,-0.0976831937001552,-0.291352081831086,-0.398193742127029,-2.00399330436562,-0.348987718049641,0.281457829585376,-1.02549722502368,-0.570519459808399,-1.47418210304307,-1.04790283695377,-0.048973972916352,0.0115060987372361,-0.498489810666719,-0.00237387447474581,-0.0180451783375598
33.435,0.183268242348262,-0.996962135321704,1.29059035509263,-0.884809858742949,-0.379078854311132,-0.392183160538106,-2.16778260151334,-0.469910522376717,0.0391481031741412,0.0383924376453163,-0.395443794953213,-0.0272246875187429,-2.00238740591283,-0.436819074229293,0.152325714360323,-0.603596942269741,-0.521001213680454,-1.69706199071688,-1.12065171207342,-0.0380093220490735,-0.00113740028639059,-0.540816942039281,0.0332670462936764,-0.0333869005669596
33.44,-0.15832697412046,-0.91378910220535,1.03416296979351,-0.432799858349853,0.0243825395615327,-0.465103071975734,-1.72795719870401,-0.305939769401047,-0.141152448896387,-0.37319993609791,-0.418169806365706,0.216320629063375,-1.99928736871428,-0.474011425480823,-0.0597198819048355,-0.175623014147526,-0.443368680581707,-1.72590292563747,-1.19563942232865,-0.00899028440748301,-0.0166538772106705,-0.604650228354935,0.067769473496016,-0.0571331005563369
33.445,-0.618681027637003,-0.179005234343966,0.837272133997679,0.17159756717719,0.36520247449672,-0.184037542950515,-1.37661801272135,-0.316131407428772,-0.335021503248346,-0.717163012980476,-0.415016154020457,0.316516866357557,-1.99527129600473,-0.411239068082875,-0.303244135043117,0.078380495371195,-0.375398915168222,-1.40562409993908,-1.26684964263307,0.0336301594158214,-0.0373244411365748,-0.66543715385685,0.0810375365632658,-0.0820263880538636
33.45,-0.751030525398381,0.104274133925489,0.820765401629699,0.336982899458463,0.404096779398818,0.0353874012783521,-0.990831154066605,-0.529738209585417,-0.395925329703307,-0.351550269199192,-0.522538303363683,0.290047065239131,-1.29284804596379,-0.238977778901531,-0.5334078754965,0.300987927836873,-0.297914052503831,-0.845641887545089,-1.31828380981148,0.0821879009312478,-0.0688753035562169,-0.713053454574509,0.0817622224798543,-0.121746118016678
33.455,-0.686080129810284,-0.0801249326343534,0.800926539001503,0.267825546043227,0.300342218569719,0.0114462627040596,-0.792581367975344,-0.721946787189222,-0.344965102914754,0.463703970635872,-0.56944598861701,0.207487506469488,-0.852547368149982,-0.0886603693558747,-0.615307550085723,0.384753627694666,-0.23855901458524,-0.584328630393743,-1.35477111964471,0.125834277410044,-0.0928698034701811,-0.738854298231494,0.0928860667477837,-0.138314577144132
33.46,-0.594702735986444,-0.336557456029001,0.774676603676329,0.321471168598715,0.154151714147225,0.0147630800946922,-0.688380148760749,-0.788446313126808,-0.276616464811834,1.37276517515953,-0.554256654911583,0.237759672915706,-0.443429822985206,0.0500141244617396,-0.630774169334743,0.352528512033836,-0.153462557611756,-0.560370294930886,-1.36826743190504,0.171234829241386,-0.11872848595134,-0.760957336561656,0.100022123787993,-0.113361802762677
33.465,-0.552925043374085,-0.307209104141088,0.789823022776705,0.574671604979384,0.0960918748971947,0.178570253436188,-0.668518519411882,-0.570123381204426,-0.271815928001514,1.95225431693845,-0.470671532090292,0.38566439140271,-0.30400259868472,0.0724187088517454,-0.552623594542019,0.25891607198792,-0.13905844014178,-0.681501420000183,-1.34693401447731,0.20517759040172,-0.128544168981723,-0.755213133166396,0.0952734026433047,-0.0781237532819285
33.47,-0.561400450911978,-0.19721964933344,0.809266623118713,0.628978562840933,0.119066375983954,0.262717930739008,-0.710740801904056,-0.273568381803582,-0.281487480374321,2.16728113222892,-0.413246014178771,0.500395176911727,-0.261975454634602,-0.00327141481589376,-0.315868567877945,-0.0124452414140488,-0.302171388895439,-0.996147396524094,-1.25522794201817,0.223200986986176,-0.11317209540315,-0.711116721502741,0.0677648427134539,0.00684233414430597
33.475,-0.572367802032948,-0.0477136232349335,0.810793367355685,0.583218257173885,0.13884484743311,0.343260624945641,-0.78335855784623,-0.00834530836743043,-0.246469899268053,2.11490326573119,-0.392347377789319,0.513075618322498,-0.329785776067398,-0.116868445807421,-0.111473102129327,-0.163499903971692,-0.473498623129597,-1.23047401093302,-1.16220043676178,0.207970070064348,-0.0778998208671376,-0.643598636992565,0.0317030077172258,0.0964843701236234
33.48,-0.573571975492086,0.0431245045413323,0.805195851663006,0.526500300407571,0.174432581412914,0.385891792512344,-0.85775226274699,0.184848509218559,-0.181183897245279,1.85495477701633,-0.395101117066711,0.46701907346194,-0.491358637010473,-0.238446168442314,0.0939470695082244,-0.292243890033342,-0.552068193091854,-1.44298076552893,-1.0571447425399,0.176482734504406,-0.0357853442490248,-0.508184756665857,-0.00660290117315738,0.200012883969036
33.485,-0.553551158182961,0.135172518088804,0.807095473368799,0.492404901842473,0.163244570559836,0.446203900393757,-0.875463946270205,0.29749421429242,-0.123388747642071,1.50450599271594,-0.391820911086839,0.419237639842224,-0.659042578173042,-0.321142553213678,0.21996968273165,-0.422927525229226,-0.488890500985358,-1.59384524816627,-0.984851768646973,0.128677057853258,0.00668379330106745,-0.341576844822952,-0.031396821418554,0.268262987608854
33.49,-0.571600510168654,0.212589116111787,0.813428056781446,0.438036154710361,0.128741310587023,0.458773845145589,-0.862697754506214,0.45958114719232,-0.0917756850559811,0.998498070881117,-0.356885310304619,0.306716738677574,-0.839869684294573,-0.344706576624182,0.300790913830112,-0.553129467686815,-0.242052521319718,-1.70234011519671,-0.934526881952885,0.0986136408266177,0.0399346142741632,-0.137524849902373,-0.035320829253464,0.336487328065582
33.495,-0.576601634724906,0.253484484580047,0.813814506490277,0.350592278643049,0.0723226064274382,0.447791484855516,-0.842065388159967,0.561346265905102,-0.0843784843232827,0.612447109622654,-0.329523530755811,0.196624941455569,-1.0497505677859,-0.330214771879808,0.390218325737638,-0.536002012123451,-0.0610857914817282,-1.74015549399311,-0.901436128671583,0.0723474606580261,0.0696388117146447,0.0245268934639689,-0.0443738829041046,0.374782318006798
33.5,-0.547462947679993,0.250928542565719,0.803501370907627,0.268299297211946,0.0248425372525966,0.406725712133881,-0.846018392144244,0.656198799441236,-0.0687068736374086,0.137684022261659,-0.291432865145665,0.0965642749276196,-1.20825807722209,-0.258043281711965,0.46048649388403,-0.332575645791564,0.0563982513936828,-1.65651572676744,-0.86871214231617,0.0473309665589506,0.0883878830958296,0.195987958586677,-0.0651601852070875,0.419848296208123
33.505,-0.505051890055052,0.23811999009184,0.808467704115282,0.216865130435666,0.0256666802447984,0.338224696520525,-0.893264733893223,0.66635223994829,-0.0409718587961687,-0.296469497296961,-0.25651213180846,0.0488258052129691,-1.27601449281632,-0.164306079697754,0.497382278685979,-0.113920808689386,0.0723402967956015,-1.43822720805685,-0.846406736984742,0.0279413166067904,0.109821822627147,0.334574481928069,-0.0854745106251035,0.448505999794368
33.51,-0.489341120038124,0.245868809041546,0.833875023616632,0.155229396398808,0.0120156507509476,0.258464334218324,-0.958868787231804,0.585822429828791,-0.00949043926493014,-0.705020040611936,-0.22584126083267,0.0331782222388624,-1.2475742916128,-0.0666648423027123,0.505098906915033,0.0585252660380739,0.0605194630116225,-1.10909857406014,-0.822780842357739,-0.00889667495015289,0.113145042629454,0.474543504644776,-0.113415010878822,0.469501769503888
33.515,-0.470318825447858,0.237764176773855,0.847641845951267,0.0633420453697364,0.0361330772263062,0.155952522021527,-1.02114971109072,0.468916055992847,0.0167285238439147,-1.12472110301967,-0.199136091438561,0.0131380794957149,-1.15842146181667,0.000458470564600197,0.497401587549634,0.212263221007109,0.0859187051856911,-0.779606552912642,-0.816558795185398,-0.0364661247559888,0.117934782523365,0.563115600540445,-0.128484430760422,0.455782014977882
33.52,-0.469156086371417,0.192954552250249,0.853506669441214,0.00217445253687842,0.039373017847538,0.0947849272127722,-1.03460855105663,0.354577161111524,0.019626185334732,-1.40035102783705,-0.167681487839638,0.00612941891224295,-1.04420662014829,0.0218813886776907,0.462819275985979,0.309135163892061,0.122278402836772,-0.575803610475213,-0.827489058900819,-0.0631370374797116,0.116115171569948,0.62014555811112,-0.133741534193912,0.43142935693649
33.525,-0.494852541326329,0.105902614723766,0.842955858027664,-0.0697451739969392,0.0277312361866419,0.0345070823398507,-1.00982164619695,0.243686584197565,0.00833988759262308,-1.60607561484224,-0.126363996066423,-0.0157188410220902,-0.95381153330489,0.0394902469805729,0.411280099152266,0.383392453105256,0.162594189589477,-0.50157339729825,-0.840959849102155,-0.0990586167883893,0.106678827595175,0.650203594939169,-0.142522691127946,0.389317838503781
33.53,-0.506781770429391,0.0891695197801737,0.840430026914994,-0.0995842578745805,0.0113818478772887,-0.00922401713523143,-0.958975913231712,0.0947115097498628,-0.0111306481830756,-1.63650609390148,-0.0907834270146752,-0.0427308464033721,-0.922567690611315,0.0112774715791997,0.383671178663421,0.42299129583739,0.15987418689247,-0.533539614211607,-0.845964796482217,-0.126134807361378,0.101998374712645,0.632517199708009,-0.141536223431173,0.330494186087489
