Header,foot_Accel_X,foot_Accel_Y,foot_Accel_Z,foot_Gyro_X,foot_Gyro_Y,foot_Gyro_Z,shank_Accel_X,shank_Accel_Y,shank_Accel_Z,shank_Gyro_X,shank_Gyro_Y,shank_Gyro_Z,thigh_Accel_X,thigh_Accel_Y,thigh_Accel_Z,thigh_Gyro_X,thigh_Gyro_Y,thigh_Gyro_Z,trunk_Accel_X,trunk_Accel_Y,trunk_Accel_Z,trunk_Gyro_X,trunk_Gyro_Y,trunk_Gyro_Z
95.13,-0.872481023627081,-0.32976532980113,1.1352276483477,3.03390464543757,-3.36696712508254,-1.01904751303007,-1.1172340914051,-0.479524619944921,-0.11309132993949,2.73475015921976,-2.28138674155593,2.81691042341099,-0.803328304580503,0.0189969997483334,-0.183911804465828,-2.28480031627569,0.260941831147839,0.120575312294205,-0.963710582179748,-0.110583086848038,0.127088000569642,1.39267934052309,-0.257070717984802,-0.232522530819022
95.135,-0.843549763775114,-0.316303645944351,1.06595304840356,2.98559580358719,-3.36440413273303,-1.12145562761377,-1.30259386692035,-0.492115830365383,-0.141535401039912,2.66699863404175,-2.33378163358428,2.75797358385899,-0.821804666230281,0.0346839114919721,-0.149988544605247,-2.31818817285346,0.212628428732112,0.118484548314046,-0.956304926072586,-0.102079417753192,0.132386101230105,1.28249061178864,-0.398724862056002,-0.229588668242564
95.14,-0.819132956397893,-0.319708325068295,1.01256477212694,2.92320396417827,-3.32391715652661,-1.19862269377936,-1.11636657567745,-0.522992123575956,-0.0539717441555182,2.61698450963672,-2.31052946845302,2.67194394898123,-0.844081963865723,0.0700487108734026,-0.102743504547047,-2.19856338703275,0.124511198686136,0.0985243205862864,-0.921760653182043,-0.124534342083886,0.145680591535577,1.13216374142477,-0.373107552102424,-0.194716934782112
95.145,-0.806255047949799,-0.325316163009833,0.980210164186776,2.84110070517809,-3.24782618581765,-1.25298757936619,-1.04607031882342,-0.522121574503043,-0.101546049338408,2.67916159329427,-2.23741602992305,2.60578040928399,-0.892534002539989,0.0544396649755409,-0.11916179621302,-1.93067018582289,0.0409000355557951,0.0996483560205644,-0.899112036671073,-0.149609236765914,0.15100303627296,1.13118700851362,-0.252306745203514,-0.217010216790802
95.15,-0.811611902607794,-0.30383449134206,0.963780638534635,2.79089590384184,-3.17370680573815,-1.29393726786643,-1.08490756145626,-0.521113594536331,-0.0742615741827512,2.77714474890482,-2.22204653637762,2.55362688251838,-0.879207387116061,0.0521838979123121,-0.115755904684784,-1.9344613485577,-0.00642715674353973,0.0764965859942003,-0.909077574299559,-0.16305780381769,0.14767201972147,1.18265708678846,-0.149043625081037,-0.279140376724187
95.155,-0.826169900620179,-0.270035170889643,0.94904075135853,2.69068475386496,-3.08288453500064,-1.34147481734086,-1.03109949416735,-0.47884187872159,-0.0853447927146537,2.73470549711392,-2.21938239880221,2.39297067443673,-0.871903243632463,0.055884959243163,-0.0997311964705757,-2.06754680915642,-0.0443736583331631,0.00291206285208662,-0.916297923333372,-0.164917891018336,0.147348822617199,1.24662566726996,-0.0929739676580415,-0.316916760933462
95.16,-0.829243734812728,-0.280710603759072,0.930167019972074,2.57978532318843,-3.02076932443984,-1.40799241191402,-1.00174522375486,-0.454987968230038,-0.0938660494583976,2.71814319260236,-2.22450990839807,2.31055216203059,-0.883981258440301,0.0644216791063906,-0.0574561057166305,-2.16875885324332,-0.0737781425386578,-0.0684808770673785,-0.921626140926916,-0.160310921231664,0.157159946788053,1.2340644242432,-0.115943850899846,-0.309945728513761
95.165,-0.836877081825932,-0.320806735039537,0.918379509597831,2.48499314571697,-2.95839375599474,-1.48895489364547,-1.01746416547432,-0.463927799864981,-0.123368258279353,2.71839803074465,-2.18371150299075,2.26322790357228,-0.850333394911894,0.0887955185087136,-0.00536645006368958,-2.05876545922899,-0.127362998898028,-0.144836367357087,-0.918179881560501,-0.15763338714418,0.174964946753037,1.17738901939272,-0.166690832364541,-0.27817563596989
95.17,-0.847736028214807,-0.35813350325268,0.913546392966548,2.48145432591884,-2.90643806992561,-1.55004167084496,-0.99466390869337,-0.482306704298673,-0.138759689511765,2.83175450952197,-2.18036021167317,2.21105215330372,-0.839327905567788,0.105174877924535,0.0234873380877481,-1.85663565118496,-0.168345329619365,-0.221812682024075,-0.921937218571925,-0.159525355542878,0.179102629308694,1.16368412063841,-0.187042822102752,-0.250567474583572
95.175,-0.8541379886046,-0.366513632353217,0.900601866754005,2.48398565409596,-2.85213703222875,-1.65989441448046,-1.03962271511796,-0.471493780517121,-0.121515838986437,2.88641196983957,-2.16990586252693,2.14532738559851,-0.828106813347491,0.14225403347051,0.0425398892804802,-1.65483819416335,-0.159552456882739,-0.341475932914988,-0.929771048030076,-0.152246335441188,0.20620789967829,1.18706372769632,-0.192585689322356,-0.233155496216095
95.18,-0.865059224899161,-0.378808036905635,0.883931918959755,2.5071473266627,-2.81729443889316,-1.76647534497988,-1.02174813651712,-0.44872777365556,-0.14512120787746,2.98222137901708,-2.15473168731591,2.08572037658366,-0.831330041804817,0.164515822016208,0.0548867942364563,-1.57208059936268,-0.129775971178217,-0.438672828879186,-0.92733617725328,-0.151677533126228,0.217815944443613,1.21817243526972,-0.164697215952713,-0.205070094731844
95.185,-0.860073249886838,-0.378437085579186,0.869463287115432,2.51800983353823,-2.75725823870711,-1.89110862510229,-1.02164499209479,-0.414194116013976,-0.134303154970064,3.13131191053167,-2.13992412094044,1.99902563564844,-0.830363883632702,0.178302573498413,0.055510584211547,-1.58289184375389,-0.12734777040976,-0.530038419956815,-0.929208389875017,-0.149595105430309,0.238842089219291,1.24808025525506,-0.107914198266054,-0.154273862396276
95.19,-0.844611700037777,-0.3568013377996,0.862716022613559,2.49883423890536,-2.68195868383139,-1.9905525132015,-1.02890477476006,-0.385249747411839,-0.117370238869594,3.23259215615013,-2.13366152668607,1.91635024063957,-0.838552803236095,0.179310999401715,0.0590140576930357,-1.69073213117068,-0.134295642237133,-0.60708459372449,-0.929032282163931,-0.14511423869102,0.248423080058378,1.27048620359643,-0.0553309241544809,-0.113635888463674
95.195,-0.827314805688833,-0.334596715604576,0.855568637397128,2.45898592036325,-2.63135710257317,-2.07725008095365,-1.03758299680386,-0.370742461740282,-0.10879976849815,3.25612622413898,-2.10337444541921,1.84842041229532,-0.865395626841553,0.199512874217997,0.0564688209873638,-1.91246660968938,-0.145477012841948,-0.708404146259209,-0.934877073665107,-0.143466763735695,0.257383184131892,1.24228902571089,-0.00143758717157503,-0.0542642143138314
95.2,-0.83581754264277,-0.325442981024587,0.868915686309766,2.35945458841424,-2.52234995805477,-2.15498805188677,-1.04043957237562,-0.355098900115467,-0.104124767551952,3.30199240027497,-2.12227145190188,1.73950710808926,-0.894608510957859,0.234112855579185,0.0693697602731618,-2.20052692745192,-0.149735600827561,-0.781154419447855,-0.956273963760097,-0.123304643703862,0.254451868350805,1.18595954599052,0.0137322886280132,-0.0342206277332609
95.205,-0.870172209955793,-0.319420807670682,0.895915803037338,2.30194603748509,-2.42578650581133,-2.18076857238566,-1.05734644441752,-0.348608492819358,-0.0873816603715304,3.37551053167991,-2.14010856032061,1.62591456436328,-0.929814190302471,0.263357577597836,0.0753410151522177,-2.53235744353552,-0.150677766453939,-0.801926466870927,-0.960903148546718,-0.115224299341554,0.256937211697972,1.1042473281524,0.0206320683760508,-0.0112077668309212
95.21,-0.932330662975423,-0.301234250234056,0.938169395155193,2.26875098790756,-2.33829546863758,-2.1626898667033,-1.06680961660093,-0.35716788351366,-0.0833338578410041,3.40068939516015,-2.14212530188522,1.50255701737478,-0.954083812396006,0.317948289364994,0.079865569542497,-2.85049685297158,-0.151200874858822,-0.772495722928893,-0.965891121299199,-0.120757196806283,0.262368243858695,1.04459343608892,0.00164226442575455,-0.000573113834186241
95.215,-0.982093958348201,-0.282830534419737,0.972654106521626,2.25119247888645,-2.29433052086667,-2.08952664874785,-1.084605468011,-0.378867296272661,-0.118908553085053,3.30950854495372,-2.12122941645596,1.38302570895096,-0.973195935578297,0.401272515187315,0.109064559641712,-3.07655088747815,-0.174892314685827,-0.694745939941739,-0.975116535946599,-0.124882485936425,0.238192253291705,0.987234760318066,-0.0315533813868837,0.0350802817349624
95.22,-1.03121950809108,-0.213452459352948,0.984354943651147,2.20676044306162,-2.27063230377925,-1.92044861279288,-1.08068089233384,-0.407672503962552,-0.139195659312515,3.19063994955358,-2.07964631551335,1.24114511278247,-0.995693953313556,0.459230106793375,0.133276158403402,-3.17568959885628,-0.181520761144475,-0.633101137532779,-0.966300308059184,-0.116597038800342,0.261357623539477,0.970512790372173,-0.0953416900372114,0.0254213102617385
95.225,-1.03712752106943,-0.168289710169865,0.973962324689913,2.13581588347348,-2.26660623236478,-1.78149983783725,-1.08829738275782,-0.426493284529036,-0.154721754869889,3.1035297848111,-2.07045444875344,1.11922252429726,-1.00167345257269,0.529176732880876,0.169932729352799,-3.15947753291411,-0.179272929300031,-0.582570037098451,-0.959016605622898,-0.122846458645645,0.273272313814115,0.971469073957915,-0.111799852049576,0.034830592681975
95.23,-1.03276386654159,-0.120662427871436,0.950303480165493,1.99374557479301,-2.26780032956207,-1.56586942761556,-1.12061345001057,-0.405236528553739,-0.13376497563883,2.94640620314007,-2.04289814905672,0.938256163400321,-1.01695876595731,0.569447199167104,0.226281541899831,-3.04327354041673,-0.196728948009317,-0.547636264198802,-0.972089083188228,-0.136393170028916,0.29651765180006,1.02653699949344,-0.169580682880937,-0.0134010106978492
95.235,-1.02466449869425,-0.0726677965604762,0.910936980403582,1.82691545703929,-2.254544476558,-1.38562446030195,-1.12239499768199,-0.401672592939771,-0.128274256978935,2.80499876914962,-2.02862929150963,0.80113058613607,-1.00860069289479,0.606300429875873,0.282428044629532,-2.79846351765099,-0.246000482437699,-0.507898756393294,-0.971191958197187,-0.129207683802461,0.299534640753732,1.03481560438781,-0.17729249231623,-0.0100746925665002
95.24,-1.00402632871384,-0.0332492438561681,0.856948116657849,1.6266278492401,-2.21235912236756,-1.18770404352559,-1.10787231752254,-0.408503724653168,-0.133524878744557,2.81450227120667,-1.99246215216622,0.603217050333321,-1.02133087490299,0.621099312298152,0.349495827991367,-2.45992281788007,-0.291828255192722,-0.540528445753086,-0.974854780771302,-0.123510846337673,0.307843705050438,1.04878253324657,-0.202222744836095,-0.0369818320768449
95.245,-0.991205675688122,-0.00268125327153111,0.800909961602717,1.4267891211412,-2.15186767434111,-1.02276204253665,-1.11065204450917,-0.268048317167664,-0.107220930686986,2.54573973363284,-1.93824825900968,0.400583631971702,-1.03782972374399,0.610814282425682,0.393856137433521,-2.09393028114897,-0.3518090949967,-0.564514097970783,-0.98925286353718,-0.112029933420033,0.316614919276288,1.03171602730469,-0.203637430992205,-0.0336170085596155
95.25,-0.97367526199488,0.015405928257385,0.727810137363406,1.21013351782734,-2.07279876473963,-0.863102302319538,-1.1102805326592,-0.25271046346327,-0.114726660180156,1.99069553179185,-1.91522374795129,0.243994496621123,-1.03710256797697,0.552826444238767,0.399117345471626,-1.60342756563339,-0.373156107751948,-0.619296824521666,-1.00084820886996,-0.110240825979293,0.323506263782114,0.995618177852967,-0.217406915920515,-0.0253084240908606
95.255,-0.953568794526758,0.0459212317366224,0.62463368636828,0.964653054556983,-1.96809972015376,-0.741822412634827,-1.10205046050314,-0.225417184069644,-0.1236919361059,1.94507916746129,-1.82008493752741,0.108971350567395,-1.02803213153304,0.523322218509735,0.395031517000678,-1.31088504844729,-0.365112129986079,-0.73380991285733,-1.00824981357002,-0.104560113320889,0.326434256850576,0.996433064744069,-0.226021205572235,-0.01933132714237
95.26,-0.942148779978832,0.117697639344637,0.483710881957,0.83354762507327,-1.88065809248192,-0.675243751643827,-1.0445464731135,-0.11464435018768,-0.160776339700714,1.99307683609301,-1.75188558349703,0.0401998710837649,-1.03376982585526,0.482419704986312,0.385052413486037,-1.20790257935839,-0.341113799070885,-0.882995735149428,-1.01482714841439,-0.0963528849370473,0.33310592520754,1.00051194726322,-0.235801502534421,-0.00536390587034555
95.265,-0.934831555316388,0.32139580183511,0.285919121110953,0.773153772716449,-1.79076816762335,-0.685337499743632,-0.922892790502496,-0.05580854072038,-0.121389870352005,2.04590893286479,-1.61446668758481,0.0165922760465204,-1.04101202924434,0.431355149524093,0.363268018682621,-1.13872154410692,-0.356414325452646,-0.976696282294593,-1.02222363456206,-0.0850214688780758,0.339508566686737,0.988594739443307,-0.250905737075294,0.0248476187958137
95.27,-0.952263967575782,0.49820381709215,0.150073528631488,0.546077377277034,-1.68560990726782,-0.778460548561145,-0.925994649601819,0.0469607010983412,-0.0940074724146606,1.83585816849513,-1.47549407613058,0.024390185885416,-1.03744983245981,0.332536655787411,0.326892142957895,-0.976315694165962,-0.38390290301898,-1.10823527051436,-1.02586174311218,-0.0848500156403515,0.350331178408733,0.964319172673288,-0.288294849555773,0.0683498176607485
95.275,-0.903535924423465,0.379227570548747,0.079251710724654,0.141882068090832,-1.48766600156468,-0.806216201819981,-0.962571163853491,0.166833939464678,-0.0802463328127847,1.2779069291334,-1.40475085363834,0.0891882884001696,-1.04310921636959,0.248758537472884,0.274570284379063,-0.867079543280699,-0.396115766617272,-1.25583152876427,-1.04382709010859,-0.0747407004469512,0.35940887873413,0.946274276986398,-0.331858779456858,0.103158567150912
95.28,-0.797951538885289,0.130842227820665,0.0555839347061383,-0.0916612546920552,-1.1347568358448,-0.693573302127166,-0.892663111812584,0.111480787614113,-0.14957093574995,0.377318186048898,-1.31798669738822,0.0913243010466294,-1.06396543518482,0.176044730533886,0.179674380317997,-0.819930713307744,-0.403508298075945,-1.39861215277427,-1.06079629993194,-0.0698971627277633,0.361990249884369,0.925964359223597,-0.383961249513385,0.137014777573675
95.285,-0.789617925584081,0.143251397721116,0.0671038103075925,0.10223107002818,-0.786076147360042,-0.469504741992739,-0.910964667187629,0.0106407132163417,-0.206585823809244,-0.0972105609203053,-1.21143217420423,0.0251406554934276,-1.09088743151923,0.125216611289276,0.0840909693990718,-0.843879404615798,-0.367346267438104,-1.43754770238896,-1.07293751747537,-0.0584118020122236,0.357706083676609,0.897224560697503,-0.441883666981132,0.177478169559222
95.29,-0.836735074124277,0.267440748949914,0.0795444964351974,0.276104759019882,-0.522267570102476,-0.288825294342469,-0.969056064443327,-0.0420169433323011,-0.220532490296861,-0.32396985496651,-1.12527078912663,-0.0885247813847461,-1.10581615141191,0.123091475404535,0.0318831621382191,-0.811358576817455,-0.319871500386358,-1.38713781866839,-1.07130890739175,-0.0540104150305198,0.351193986531913,0.864314814022734,-0.497149176710919,0.212344079782852
95.295,-0.873520218927785,0.411506982455167,0.0829183023318246,0.191133910665847,-0.186133894981848,-0.0912457983579259,-0.965984718069249,-0.0674454316721421,-0.184964293338344,-0.391652805359393,-1.0464566684166,-0.148803957759433,-1.11190030043969,0.190932405441029,-0.026738258051562,-0.572974440846723,-0.219461543136826,-1.19955594542215,-1.06175308357444,-0.0593296127439415,0.349235663991886,0.824423636628885,-0.552853524858578,0.254279121144033
95.3,-0.885870462599587,0.420894344679519,0.0867258460585395,0.0153343920965191,0.0050190415079968,0.0226545085293354,-1.00348836307908,-0.0776389811881094,-0.286173338947239,-0.448005062653179,-0.923124449867716,-0.217689819575891,-1.13334547166374,0.252304876468732,-0.0540131085936034,-0.257246725775356,-0.126003082183182,-0.991860128921107,-1.04612359269138,-0.0561077974679279,0.34616354371562,0.809703153065371,-0.595231602932048,0.285014767692122
95.305,-0.892717202648213,0.3585576513267,0.0932734691590813,-0.159714555138478,0.243763197945235,0.171855611511277,-0.965437297176303,-0.0636175843780445,-0.316138034087198,-0.512919152222404,-0.830957078008943,-0.282112974959485,-1.15921600204513,0.343237213382931,-0.126496072242096,0.189290451489197,-0.00929341488952647,-0.692226894689153,-1.02127435739683,-0.0485777184295322,0.345914925223155,0.791672340523893,-0.616859327440015,0.303508749775514
95.31,-0.905294444318094,0.278005520289104,0.0947767234168581,-0.326555920006877,0.474323000829121,0.342996820984548,-0.950631316254539,-0.0458511249857552,-0.29978866717069,-0.638844692719342,-0.736668996651862,-0.363476698788623,-1.15794144423564,0.436261980179472,-0.196203648263887,0.567276022106762,0.0814108402291021,-0.424957359425318,-0.998020392823307,-0.0537408799957787,0.354480968146745,0.782529695734053,-0.625783800742726,0.326495521898614
95.315,-0.922175237107588,0.218984807804653,0.0987120232443872,-0.438829397962184,0.670755013283105,0.487364166605094,-0.977385407932182,-0.076177194148136,-0.267927580484819,-0.906873034143386,-0.644265580160323,-0.388290683162294,-1.14850817777644,0.519586481680664,-0.236629627532782,0.831088201594508,0.14118929244898,-0.234973496454648,-0.978822564128612,-0.0559553475512075,0.356951351519695,0.772098026498824,-0.622857723974428,0.344243749722266
95.32,-0.952368236253399,0.181372981319802,0.104249619103294,-0.512976137653984,0.876724907297268,0.631596663417115,-0.961290020608506,-0.120540442622147,-0.315358372408816,-0.990354936491216,-0.59623221402165,-0.402298957867351,-1.11531154276275,0.604067539920659,-0.288773195341936,1.00877340980791,0.165237733038096,-0.114341164987118,-0.960777401546476,-0.0573764829416582,0.368416098780486,0.76244918312251,-0.606040156536874,0.353422957229265
95.325,-0.984433550608232,0.158343458873266,0.109866420870288,-0.546220650897652,1.03552128732794,0.719399020468991,-0.923622869273558,-0.103172176478337,-0.341219224283699,-1.07055848552328,-0.45596071856604,-0.500832356290735,-1.04755787164286,0.681362508696595,-0.346082607724066,1.12433101840509,0.155448522445719,-0.0337679685061707,-0.950384297019423,-0.056374485610137,0.377812449922804,0.765489732226805,-0.575773747390121,0.349826588945818
95.33,-1.00550684594523,0.186659291400776,0.127869661445991,-0.545661287115674,1.18138907668269,0.775022111304087,-0.888552665661246,-0.0565608843561772,-0.376840304157588,-1.07611625405695,-0.363307957439865,-0.586155176095706,-0.96741276186753,0.719586483628194,-0.381448836997679,1.08713895926383,0.127067705831281,-0.0485237337331431,-0.936502848342704,-0.0552198572514518,0.382559283029166,0.76511630354381,-0.546482909633392,0.348875846999887
95.335,-1.22337547457253,0.415600462498268,0.215464789697567,-0.650035401918176,1.23433770400693,0.79186373216551,-0.861352058264612,-0.0180575730177778,-0.473022304993918,-0.952490243173913,-0.210024868526091,-0.660590771895346,-0.903060658847558,0.727396237066289,-0.396422564060842,0.821787105033103,0.0882893204530434,-0.175456786386765,-0.928650843915954,-0.0594015465889614,0.389315275248282,0.774718808319495,-0.517079004111694,0.346228222045043
95.34,-1.41678683430156,0.594329939547898,0.316621193430404,-1.41250420471374,1.07962493850968,0.652276364974909,-0.823872418819642,0.0394799234524609,-0.499220689132029,-0.921635880807339,-0.0816357244055504,-0.64163850216246,-0.863938066266083,0.70284447550334,-0.397921746705239,0.432320090599961,0.0149231950409894,-0.395301908035282,-0.926508986098591,-0.0493161881590367,0.398029225789827,0.794142066043986,-0.483783715001121,0.362379221719874
95.345,-1.67048318513376,0.302679132973059,0.581560341555277,-2.70148660087355,0.620711642497684,0.228833373573651,-0.843805327248828,0.147396000585982,-0.621397050550647,-0.86138949290241,0.0638126760383759,-0.582341787311801,-0.886758068618133,0.621853703743216,-0.372568809236597,0.177658980819718,-0.0549881890895119,-0.58005313315132,-0.928950567228172,-0.0550810256481903,0.397415689074783,0.826858688939595,-0.454274909926396,0.370754739740906
95.35,-1.74969310459073,-0.321323619012068,0.849667501449343,-3.58288423833461,0.131611929555308,-0.265419144019721,-0.804072869005084,0.234343689155561,-0.591109866006614,-0.867822808129775,0.200363272424922,-0.512044412558085,-0.937483969438184,0.518344941780714,-0.342095943958151,-0.0753620554581432,-0.139812048491312,-0.740781097752055,-0.933516123028065,-0.0444076858283822,0.386475201795149,0.862958682493257,-0.425806674238313,0.377303095978265
95.355,-1.48380092188719,-0.283723002384405,1.10034341882016,-3.40361398373409,-0.435710237716732,-0.447102059361115,-0.862679193050875,0.27285114739342,-0.479736161271195,-1.0164796926582,0.355939970301332,-0.456673937777591,-0.970107768994423,0.414851389372734,-0.313984917867593,-0.29035006838409,-0.205720837213768,-0.841650690380916,-0.935860336746268,-0.0396964322806238,0.387530749269981,0.896112242445091,-0.390244410428185,0.379734486341476
95.36,-1.01147256609198,0.194735197161089,1.38483787783183,-2.73343313658146,-1.11261082941509,-0.462864571628786,-0.98462575638619,0.283809001520973,-0.156042265667737,-1.10517235686104,0.444267695791047,-0.497754983490137,-0.984514841245179,0.295888131562165,-0.27744143470894,-0.530816007443269,-0.219725217908611,-0.927416314883626,-0.93678807506308,-0.0423258092837784,0.383773114840109,0.917877096340757,-0.334166553466988,0.376083145520663
95.365,-0.587469008915795,0.306326677837529,1.4308990137341,-2.19051116786203,-1.41665819481191,-0.535372755626065,-1.14378361415533,0.363127551319091,0.267346553021042,-0.899892379713403,0.369217932986969,-0.524025937117208,-0.983336030288047,0.216027896382458,-0.244471267966592,-0.677467704880298,-0.20809892057053,-1.06459733030451,-0.941999124101564,-0.0414582258833788,0.388864069779346,0.94051470527645,-0.265187259399404,0.359069276096735
95.37,-0.0113106270522856,0.55891143304557,1.46987691314296,-1.28860709724702,-1.58333552080804,-0.810552931446714,-1.33799083573702,0.648288613163665,0.741808228875981,-0.483700902293678,0.212471074903459,-0.496995502560817,-0.980134042494659,0.148883204969669,-0.243642066175965,-0.639943691563192,-0.19194434702464,-1.23949706228096,-0.954110663194291,-0.0352935874722974,0.39764518740088,0.972132421414089,-0.190892756800234,0.328491248204082
95.375,0.615050033740428,1.03964945921303,1.25796167830313,-0.319195720758013,-1.52668181815036,-1.42833026907961,-1.59066470159324,1.01894508595811,1.26042320888821,0.0448962907015133,-0.00502663443894307,-0.295047348173196,-0.982279392847486,0.0872357869508707,-0.282522451144393,-0.38714980125624,-0.182744871355531,-1.38457310267191,-0.975807075871599,-0.0304719270023929,0.402105958053062,0.98698292605708,-0.153825594051455,0.294006325589954
95.38,1.0049943670408,1.55920493934635,0.950459557466752,-0.105476844162676,-1.37010302689587,-2.20835624477634,-1.83879962649494,1.18947124506357,1.53842663448782,-0.10797295902377,-0.23129348481125,0.0549315952800875,-1.02509226997361,0.0354606240452634,-0.363378749025747,0.00576202804469093,-0.188016435075515,-1.46942703402295,-1.00347318062135,-0.020561020293743,0.40433351479233,0.979369285670691,-0.136106309179616,0.261007996615312
95.385,0.736410709745463,1.64532143814586,0.878644853531821,-1.17835959609845,-0.804129494799544,-2.76527848299893,-1.83141896039652,0.839811506214089,1.11690706652557,-1.3055663361016,-0.394760877555534,0.403618503855093,-1.18551662165442,-0.0380205413429932,-0.529585824733564,0.667473431928775,-0.222662064022812,-1.48345908501865,-1.0445659129207,-0.0102077150104485,0.401478115177473,0.9515085256048,-0.143654619929113,0.242932598402355
95.39,-0.118930981957365,1.30027709356008,0.745010857299802,-1.89590201488851,-0.296983483361322,-2.52720997058255,-1.52552498658672,0.33395197266729,0.467491430754114,-2.67491132253101,-0.39566106926785,0.589675782647452,-1.38883225025425,-0.078510400740122,-0.648092817319492,0.931499800481826,-0.277344689190635,-1.3452246691029,-1.09962146968324,0.00579416222829458,0.393707072347728,0.90310061329053,-0.174003317103393,0.212487494480012
95.395,-1.24977839571942,0.670972637504177,0.577013272528487,-2.05834701500134,-0.0048679368780725,-1.80888049571403,-1.12417023788893,-0.0215169015156476,-0.319753363828043,-3.64234342688506,-0.292327105402137,0.524106871595125,-1.6257066736244,-0.0773897662411094,-0.690809307974368,0.558971553549431,-0.336148545511552,-1.1494020568509,-1.19225159870212,0.00449723015960002,0.37552104754164,0.786939681719611,-0.229392126271631,0.181165897979748
95.4,-1.91996087172284,0.0432459580859087,0.52077161155993,-2.06474511554511,-0.0216773403002036,-1.19505201276409,-0.887308715726579,-0.225595091687964,-0.88944593321602,-3.62808343207758,-0.118745564831443,0.219551523992318,-1.66836424234846,-0.0560792598405023,-0.549672148722299,-0.294123044525634,-0.380817834503847,-0.945536644635183,-1.2609569819469,-0.0117710994861239,0.357858600443981,0.624043278013265,-0.30928551611468,0.165965463282745
95.405,-2.1677279577584,-0.457467968967415,0.607011494105392,-2.20657708253662,-0.119755033832278,-0.691742379698787,-0.764500978790951,-0.48263920292832,-1.10730894686329,-3.20206098779432,0.13413745940969,-0.150126355009423,-1.57939765363665,-0.0623206418305998,-0.297783457978919,-1.16639617799652,-0.383478606183032,-0.76885844234823,-1.3079542267852,-0.0358194619461536,0.325309551878707,0.452459686072557,-0.407328979994187,0.146364844490624
95.41,-1.84075522366067,-0.847963770482679,0.883805873525773,-2.16522174615838,-0.300336274354713,-0.335253290030955,-0.929989012040357,-0.728760390006836,-0.755940906092308,-2.63517007915569,0.421832936620402,-0.455220444332659,-1.44070331104059,-0.117045422209108,0.0167866220470991,-1.61825123197857,-0.361549830275801,-0.564807805288934,-1.32606814692699,-0.0703328926300788,0.288556080020575,0.286952068260589,-0.523375530299814,0.130606713878841
95.415,-1.11048534628551,-0.792557637152896,1.09939921180668,-1.46109977142143,-0.501918976398863,-0.110693127044678,-1.22064721382926,-0.850412400160946,-0.131424264265351,-1.96975988299281,0.630402212764665,-0.636579901748197,-1.36658092063005,-0.152237233390353,0.269324506457209,-1.29417820802116,-0.356385499238968,-0.396194921145637,-1.31520497507522,-0.100567663867861,0.254719409062996,0.1256767916448,-0.695200569692601,0.0999213445850307
95.42,-0.44428439230916,-0.408260318504895,1.21265383919934,-1.02643592314398,-0.440882727894124,-0.125298416568999,-1.39110593495828,-0.884332319245205,0.28005122932223,-1.44150981468767,0.695076912093483,-0.654034807419389,-1.40464708890049,-0.0245434601468931,0.313679153807069,-0.364335606663738,-0.383324321180192,-0.31067982663321,-1.29758384968899,-0.120062768953121,0.231669120200747,0.0531262042392251,-0.838741513075973,0.0686008384096101
95.425,-0.14757176596781,-0.0509967205861186,1.15935338299454,-0.569606901886422,-0.287677214616197,-0.186546986308599,-1.36421537978582,-0.773122021983379,0.454640549633115,-0.923807622843556,0.715773648059488,-0.591222371470867,-1.40536596902311,0.195882236961034,0.195359153268804,0.418573384528399,-0.398370889999151,-0.285654651404417,-1.28428091149322,-0.131281686532289,0.213134510546028,0.0574136041504697,-0.947202760423811,0.0288238755320329
95.43,-0.155979262018451,0.121202469796822,1.03998513676154,-0.348408395778162,-0.0876259588117995,-0.242243397740815,-1.23593904902264,-0.469171087162391,0.318260769457537,-0.271539241639847,0.638065920324604,-0.441654139945358,-1.40375651533759,0.465648855459783,-0.0251199400864588,0.820036517762655,-0.294415370707074,-0.342337693917895,-1.27524046165329,-0.136282052466712,0.205293945801911,0.144536904567256,-0.971581362160082,-0.0117170149493315
95.435,-0.413234389471517,0.212325211919937,0.881233104055122,-0.244671916455553,0.0442617471902637,-0.228701386461796,-1.03034772050068,-0.190036392087927,0.0304726788848084,-0.0381400975256451,0.637156470305565,-0.284962594296894,-1.30174047308589,0.558294051739251,-0.238194464998375,0.476578860646114,-0.103305132073243,-0.471059525229256,-1.27328511560518,-0.118214194480556,0.190505381483172,0.32101726919985,-0.907242550481016,-0.0466224972470317
95.44,-0.694867885222099,0.240478754364301,0.764666451659621,-0.189819054118773,0.120954431617117,-0.160294091890435,-0.904656723009965,0.0067851484663654,-0.204788704103473,0.281067284252202,0.612234410306459,-0.209901952665767,-1.14665060149223,0.40682431763425,-0.442334075646947,-0.294494600125956,0.125716854564724,-0.616661749745762,-1.23050666846985,-0.0958244008176219,0.169109081283162,0.541314051163651,-0.759233997386952,-0.0565501297514182
95.445,-0.807976480565513,0.290814978002994,0.693857165109388,-0.174496042217469,0.107954548325099,-0.086691476808413,-0.859601499038324,0.183381444305345,-0.198720377052155,0.339056268996939,0.623346770702426,-0.207306080740436,-0.943425969773068,0.0804203937154862,-0.593219264836454,-1.11625057907958,0.358078668010699,-0.806156386710685,-1.18223452986675,-0.0592762834734735,0.145688950818253,0.675308872976168,-0.630566025327442,-0.0289601678631023
95.45,-0.737759216909309,0.369624703579355,0.692375368756959,-0.13408877433698,0.0809718814453183,-0.00227446717077721,-0.912226582502909,0.301006065432659,-0.150150627765906,0.190708115661667,0.621586064379007,-0.217421002065718,-0.798291802339208,-0.176819442507855,-0.64471133358987,-1.52793401327612,0.476537481012635,-1.05043079180974,-1.11003617811503,-0.0297141209003216,0.119584430770954,0.764032552169532,-0.499534296815716,0.0246778942543344
95.455,-0.61712612578743,0.465377455046481,0.71831770871762,-0.138142521145967,0.0615581816739777,0.0439952005716406,-0.928912129876264,0.406663990468295,-0.0789555677222393,0.0124372001020266,0.627083675670362,-0.240339379529416,-0.668581198739078,-0.378795577251129,-0.650547344381685,-1.7061186526157,0.52746658559666,-1.46585000315371,-1.03357209662744,-0.0065968421822538,0.100172589068001,0.800205672206521,-0.397135455026577,0.0786356907979612
95.46,-0.509386090052022,0.512537417618138,0.741072155681377,-0.170658275776623,0.0671438222200196,0.0350311032774308,-0.952456093320565,0.439266470443303,0.025145773036623,-0.0843770368857824,0.604976501224559,-0.220687106018697,-0.619506848222568,-0.387710664302071,-0.565373815518118,-1.55434801709219,0.436031925906247,-1.76726445036065,-0.955624882391432,0.0241590738280195,0.0872510802702076,0.802665065511349,-0.271942520431964,0.133696236407509
95.465,-0.468312224062065,0.514902317345841,0.747343707386297,-0.210438773831309,0.0713516351027819,0.00917730817506184,-1.01031286642291,0.448923851378101,0.0974766199485499,-0.194554247872899,0.55397791460567,-0.210173592856704,-0.582206474009013,-0.291093401583591,-0.445417423557475,-1.19559735036425,0.268102149926127,-1.86021478106096,-0.89903196468888,0.0447293921106535,0.0840289671248964,0.792952145765386,-0.152826771391219,0.173435256128498
95.47,-0.462978339830437,0.473645872721097,0.741558202726157,-0.228323455624611,0.0752941713184302,-0.0426936639700933,-1.01964096547369,0.305929705809693,0.01119000781784,-0.200439494861342,0.440571245988617,-0.0985017157104721,-0.566739329480059,-0.183844059690589,-0.283284017537879,-0.946897045285698,0.133457437743517,-1.8196356032191,-0.847848971801261,0.0619902897942827,0.0849296990863394,0.781572905776303,-0.0194127650249616,0.19660502934371
95.475,-0.476980050063547,0.439416859826257,0.732896332541761,-0.219864255967597,0.0683006611795192,-0.0865178891614245,-0.921741110706416,0.172873439372743,-0.0496616765574662,-0.0810542889634522,0.381586640267803,-0.085360993722326,-0.590261684129074,-0.130335068562237,-0.0497487871088979,-0.754186081263201,-0.0691972896529822,-1.492153512943,-0.801970127608852,0.0807977482222242,0.0908810612041201,0.77075955766226,0.102682572815544,0.20468937905964
95.48,-0.513419999188887,0.398812463371417,0.720265733113659,-0.192730234545388,0.0415644616491001,-0.121243180550861,-0.902614186904712,0.131748242820827,-0.0996506512578952,-0.387490635920296,0.447546517355697,-0.264937076448242,-0.639979886850005,-0.238336034167004,0.101701602529935,-0.676030486943722,-0.208181766866157,-1.09898299388827,-0.748881083428511,0.0947533252925038,0.0980782662400114,0.762417811635717,0.215875308910201,0.198754285831131
95.485,-0.536760442224053,0.371027823577793,0.721545830939002,-0.156540796841369,0.00603467091507946,-0.154037549565586,-1.00350918204322,0.0441330799076208,-0.126727306238878,-0.312412843328183,0.432476761895454,-0.311523116595008,-0.698768559959506,-0.410355884013348,0.251267153484973,-0.759175908558512,-0.273382477950218,-0.727395601142366,-0.705712833168873,0.107126904947933,0.0876062923864754,0.756017492571852,0.298034721125886,0.193432567375169
95.49,-0.527376930027601,0.357470372672874,0.732263474760752,-0.113137207818934,-0.0593349289647325,-0.178458211409628,-0.904444394814249,-0.0260707161516507,-0.0990965890443145,0.103078474208813,0.410473992021795,-0.316818473057663,-0.777279619308156,-0.61226034419495,0.326457102971943,-1.23299157538746,-0.271625239441827,-0.32110818555879,-0.671272593515574,0.120442392367482,0.0839972501897955,0.744892470658131,0.358425586836963,0.173198856667406
95.495,-0.507135069297815,0.353083538258381,0.717508676298484,-0.0473333465658129,-0.0871424916069622,-0.193628979106053,-0.93342120998883,0.0536514417501558,-0.0525187179370849,0.804113041718536,0.444588150556496,-0.252902016835967,-0.844054772076945,-0.702161619901853,0.324467099001219,-1.73689747418163,-0.263085267282757,-0.139909603742452,-0.640793900419053,0.131883372544627,0.0788700399242201,0.748474318977961,0.424659832470074,0.137747945922529
95.5,-0.492636182506311,0.380909115051727,0.761440526397436,-0.0369487989432515,-0.137097297186028,-0.212663586420436,-0.954138148738156,0.117939095069476,-0.040032752220418,1.02524125329724,0.428627350584695,-0.233791021498523,-0.910357663329393,-0.672367901310416,0.276264628669656,-2.09826765641158,-0.259833289802376,-0.061538950198202,-0.624785137546323,0.134936847190477,0.0678249897188638,0.746208897037228,0.476069942921618,0.0789800365475843
95.505,-0.456642470877529,0.431171499858894,0.73772132517742,0.173863127339064,-0.159870985793192,-0.248016851176145,-1.00046618681583,0.229829379099241,0.0625413492147633,1.12888390843833,0.364837671422851,-0.222613388453746,-0.975204427338487,-0.545853800812386,0.221877433972929,-2.19733058966587,-0.255673205052088,0.000910964824264586,-0.621367461132752,0.140934208500348,0.0574510175547747,0.725262608906001,0.516314929874033,-0.0119962429038575
95.51,-0.430904243379618,0.524078682909598,0.76950393923053,0.0778796310170817,-0.186179422800111,-0.293013871192758,-1.00820579838971,0.295825690613074,0.0511876046862609,1.02312915546501,0.332320860910091,-0.22893518148942,-1.0254759560075,-0.360885519277434,0.161833396627913,-1.86617161539335,-0.233550843421885,0.00646555457954978,-0.634257294013499,0.136332439809891,0.0531868937955087,0.678534611052176,0.542013632790025,-0.107281624355504
95.515,-0.473996785854572,0.392537714539855,0.762505854892595,0.0902973811888621,-0.19088154706577,-0.327564841339988,-1.01667568293922,0.286134699453206,0.0427243303104399,0.652344016662083,0.255614190117479,-0.172545024359798,-1.07703112403696,-0.175587661739159,0.109466228281377,-1.28621673590142,-0.18151660370033,-0.0421512185698978,-0.651717981515482,0.141640252152754,0.0448126447221741,0.62610504412941,0.544176400824497,-0.15933836291444
95.52,-0.51520481485878,0.442786473833849,0.724866964012172,0.0575975814514672,-0.210932022220342,-0.320172654468098,-0.984717870059851,0.25408171627904,-0.056400798495714,0.438040312042561,0.214046271953078,-0.15452653490604,-1.11282204875679,-0.0805769410756634,0.0711261398480426,-0.819180901068146,-0.115127223208516,-0.0817546346602658,-0.680902163638329,0.151369215742842,0.0484425116579929,0.515950901980124,0.524546549674352,-0.176123434948531
95.525,-0.557388019611471,0.389203705193188,0.723689867456587,0.11056720362525,-0.239577056805528,-0.322002986383988,-0.965751570618139,0.182766752569026,-0.120166997538004,0.353768181516286,0.177343771712947,-0.169393041872205,-1.119753705471,-0.0269072048959758,0.0479184983073463,-0.732877151740016,-0.0642205544572706,-0.143511133093541,-0.721127567962112,0.16246273596259,0.0477449297769557,0.416057388199021,0.498180787735628,-0.14404050455436
95.53,-0.575796319421508,0.342816930991935,0.756481407440382,0.149211002993657,-0.255408594137201,-0.297346435686398,-0.975986739457734,0.139317009408792,-0.13721545797416,0.331704569363857,0.163981977220776,-0.186127380571785,-1.09513231635093,-0.0298790326417778,0.0654606391086818,-0.866861420301924,0.00695470169765852,-0.252424298845704,-0.75924103540321,0.16614728591646,0.0641990604909183,0.290639816602166,0.476696905861074,-0.090940323561229
95.535,-0.56539227308139,0.309850916536846,0.773932717248899,0.147898782438927,-0.261883591457009,-0.264971461219287,-1.01280135748856,0.101946547169671,-0.105679155278365,0.352729788491588,0.126817753802074,-0.183808570935601,-1.0568864647842,-0.0638360957377552,0.117781053622693,-1.03817050963754,0.0686991520935524,-0.413195014454143,-0.819163870414183,0.16391772244773,0.0813245858823479,0.145741678702417,0.450937381848519,-0.0311922659174309
95.54,-0.559185597962285,0.296510741307148,0.795677756722369,0.189815386369731,-0.251124364372867,-0.240145492019111,-1.04495860074019,0.0623526740454239,-0.0771925636464232,0.33659002597458,0.107559563685082,-0.168247649077048,-1.03944887007585,-0.118301548000235,0.157524746714244,-0.936111443773261,0.0922763457204586,-0.54575478409514,-0.87419925815808,0.163985714010103,0.0910208982385737,0.0156886245051638,0.420238356128356,0.0204464532515396
95.545,-0.553426088352669,0.296991536835313,0.803671670805455,0.220336149899029,-0.234376910233188,-0.223163088214218,-1.05870068948701,0.0209752336844335,-0.0764434194284826,0.309973511681295,0.0689674194575181,-0.146355373400006,-1.0377120886273,-0.177497880111117,0.168066959742539,-0.659984551893882,0.117015579680938,-0.671606657831927,-0.931636451093919,0.156393234497612,0.100044161815493,-0.08137571713172,0.363118845835295,0.0429781883813779
95.55,-0.564618804659567,0.267917131748203,0.804796221065122,0.263160913727167,-0.20472995609557,-0.203235202349331,-1.05242603355064,-0.00358209494795681,-0.0889612688221102,0.292665090968593,0.0365282787085908,-0.145225965238393,-1.03596384772226,-0.231272153589018,0.112678373167467,-0.283631993241533,0.161764285396996,-0.726499540874137,-0.981643315396182,0.152762606620984,0.107495605149095,-0.125520717019287,0.28513595107091,0.0401120546656145
95.555,-0.571384561739756,0.284690641099243,0.789384456212385,0.311562909878433,-0.179977872273068,-0.18139862447725,-1.04642682192723,-0.018384616016419,-0.121071411670899,0.34816761726823,0.0174118143791947,-0.154040611322335,-1.02828967435203,-0.264865474224982,0.0500922189610928,-0.0640250482800631,0.219897464079605,-0.762356280524832,-1.03428522461494,0.146081763678486,0.112099888595591,-0.112297520874915,0.172280382531581,0.0322840977209281
95.56,-0.56961216225991,0.28768989198465,0.781156246195585,0.347559242890483,-0.166130393109505,-0.142380986148843,-1.02219559759793,-0.0191192140223685,-0.138581635197463,0.520806984781947,-0.00303068933889996,-0.169252896157679,-1.00877066969273,-0.279699937664011,-0.0173493182973914,-0.0100980649824269,0.300981961533116,-0.785831016861682,-1.07895175249067,0.138442618193102,0.129705927502259,-0.0605062627950246,0.0592274241432452,0.0100828204465374
95.565,-0.563999676307495,0.299807693364706,0.797059119354573,0.381397370837934,-0.146816267867515,-0.126049183840996,-1.03977771846186,0.019026585656515,-0.120723571982682,0.712290884806429,-0.0351503491401672,-0.188449083979139,-0.987754821292485,-0.284996941266723,-0.0527579136489507,-0.0173043587260979,0.36678054890418,-0.777804809223325,-1.11704917158466,0.1261163012901,0.148889852164958,0.0446167147848298,-0.0718551587445061,-0.0174931840817522
95.57,-0.539098672814085,0.324393041668284,0.781782534352274,0.436988916276367,-0.139851464036618,-0.108575292091265,-1.03456092572446,0.0675058222788011,-0.102996903257904,0.848961768397078,-0.0414548913503119,-0.198042492078521,-0.954366233365143,-0.290829018473185,-0.082421718638422,0.0171012089202334,0.434349200583713,-0.754665083697839,-1.16087683972789,0.122471676773599,0.163771819920155,0.151786110953661,-0.176728642130496,-0.0500587662520353
95.575,-0.538841728973044,0.345021108452269,0.787775513672265,0.446465288831062,-0.126005900286999,-0.103452138369211,-1.02887274751296,0.122125097288178,-0.0873954308858224,0.917716081565738,-0.0724771193254947,-0.186331189124381,-0.930219146925388,-0.28910825864383,-0.0959132131697152,0.109903839430501,0.465534757427905,-0.73951878846395,-1.18045530016795,0.118749294057345,0.176310082160566,0.246420948495822,-0.259608434546782,-0.080748402530349
95.58,-0.532292592618464,0.354738006285264,0.775240191677338,0.460787327939642,-0.107762882984355,-0.108104863169182,-1.01783762582479,0.143053705439162,-0.0858947722072912,0.873459533737813,-0.0981957736801531,-0.181904948467357,-0.921496837272878,-0.281763943674823,-0.101974357753489,0.187892431333731,0.465381276685307,-0.694720726369623,-1.19618981540833,0.106376259434601,0.183604370093984,0.348691937089226,-0.325169060070973,-0.115469999710652
95.585,-0.537533272998271,0.362586775716613,0.766971313560868,0.456701937816384,-0.095490030190378,-0.10175965490109,-1.0095282301114,0.146163973948739,-0.0897475180650258,0.856072340065714,-0.124725703885642,-0.176795939080824,-0.908595499104696,-0.275224457545427,-0.1029935232469,0.231409061187379,0.449181489870752,-0.652394008551014,-1.19654733777712,0.0956709963103402,0.195209161012164,0.453247391794563,-0.358862947533141,-0.141214262335827
95.59,-0.536991274647714,0.368032239730553,0.765002637774167,0.469030061979431,-0.0859860456882708,-0.0962804497144966,-1.00425349393483,0.133307711093689,-0.0885103218834398,0.815120771993898,-0.140937467900008,-0.170710524909495,-0.905832169445108,-0.255670810868403,-0.0972266691428464,0.224172479879242,0.424740779635341,-0.617899604653888,-1.18851011233548,0.0908748685918209,0.20462981727539,0.568792888401246,-0.365771688717576,-0.156136621334
95.595,-0.536575369138905,0.375805240347692,0.748939985930609,0.468846749041575,-0.0776342527936896,-0.0858348976445729,-1.01541477403314,0.110722718853941,-0.0825778996241857,0.786382498962309,-0.174068941511632,-0.171736694010045,-0.91221095750878,-0.241433002973504,-0.0903234680902927,0.203369023899776,0.382506617474177,-0.578722122165583,-1.17266349211806,0.0814442819196462,0.210116782708373,0.656405069471344,-0.344665676194296,-0.148932605901294
95.6,-0.531366346524671,0.378743540042892,0.760567889362405,0.444949094384031,-0.0722297835699768,-0.0718402860530358,-1.01328949693769,0.105993422715053,-0.0637526092574096,0.780357833666969,-0.195921392077679,-0.186089062303514,-0.923296889264596,-0.232651153261492,-0.0868009034210572,0.201706394813099,0.316816888844832,-0.568534970283508,-1.1490309537694,0.0827263114781632,0.20068568524882,0.717978629545939,-0.304399259459796,-0.116593467836368
95.605,-0.529980264193009,0.360575693833195,0.764023535404132,0.438854664564133,-0.056606939338222,-0.0616440845115531,-1.00519272874993,0.10616119994631,-0.0593510759046187,0.767905082354425,-0.210003336419712,-0.189186239120229,-0.934072445228069,-0.233837831009034,-0.09297963774985,0.202973574399948,0.269240949017598,-0.579242310249631,-1.12160352651385,0.0858556251561066,0.195245249941246,0.731335539985722,-0.261210794710018,-0.0862014998532802
95.61,-0.531236966251814,0.365390648385969,0.764239684369008,0.41311463207452,-0.0423954273966135,-0.0575925633753684,-1.0012425827652,0.105555309518057,-0.0638339814114011,0.769882564982912,-0.249413315265061,-0.163380526834724,-0.943500240918778,-0.243305687632011,-0.0988808017398678,0.165836344784622,0.207783606004258,-0.597866201491502,-1.08560584162149,0.0919186991115657,0.174275797585918,0.680106017228156,-0.200515898878836,-0.0288900796164623
95.615,-0.531015368978868,0.354022778020024,0.764287312016307,0.407463205822977,-0.0328459355742916,-0.0503350265036846,-1.00375437853074,0.104503854955095,-0.0545854993638888,0.755428148696322,-0.265451844476828,-0.158653958026782,-0.946680070154545,-0.246430801814635,-0.106297902007025,0.0923273747144428,0.175008909430457,-0.603526688678554,-1.0594562348396,0.109878862441891,0.153891629090007,0.597657212227827,-0.130194928357451,0.022750795761453
95.62,-0.536136545227608,0.354524229278546,0.764290481460466,0.395740534283327,-0.0272517799105529,-0.0408894840484248,-1.01968422573385,0.0962123599310662,-0.0537450645836641,0.73094642059207,-0.289176169013098,-0.138089968980849,-0.946841709706463,-0.245012353574698,-0.105919749245957,0.0273615849314398,0.158459138037801,-0.602773172641006,-1.03196078470366,0.114333784523303,0.138753031721212,0.50612474028991,-0.0566872550793828,0.0669580160623755
95.625,-0.527892764796186,0.354151295054329,0.773505836640546,0.37080919114223,-0.0112474917297107,-0.0269618109111458,-1.02252847116772,0.105988953905432,-0.04223483994599,0.698494348868194,-0.300445671123819,-0.143943515887584,-0.947916118020024,-0.247979366152173,-0.101043331874272,0.0101962514379705,0.151118549736159,-0.581814238724348,-1.00366477816559,0.118597806803955,0.121371870611849,0.403703570194981,0.0263640433495948,0.116808452441051
95.63,-0.534556406187949,0.357149432946573,0.76825222289428,0.316773204535777,0.0118117966189281,-0.00840212866320869,-1.01930318801064,0.107830501546449,-0.0336094948777117,0.633864705109376,-0.313769554855792,-0.151962756513973,-0.960698889138983,-0.252064058054283,-0.0987509773433025,0.00527878704020197,0.156836071249588,-0.531403019472348,-0.983198305060573,0.11596709854199,0.112718540549856,0.324648274659625,0.0953680633766595,0.153323798132308
95.635,-0.53268800980881,0.356417521862363,0.76496693915841,0.324929722555771,0.0125930303805304,-0.014110232292723,-0.994656429724114,0.104834365343842,-0.00832234178817976,0.600759757047075,-0.317167421973677,-0.146218508481979,-0.972821512399764,-0.244907506200454,-0.0999559901060664,0.0111180315722661,0.160341787170578,-0.487467550779096,-0.967261812521345,0.106374284973926,0.107166229850161,0.264428933406633,0.165471608711832,0.18057258162054
95.64,-0.527190762849385,0.364134271688073,0.762029323633867,0.283670969432846,0.0200404816999457,-0.0111105522275335,-0.98848273919364,0.11633327541468,0.0064069459137712,0.572531187991875,-0.326120151523463,-0.145065646703756,-0.989044466256525,-0.215638396618292,-0.0931955622874194,0.0187073683609628,0.170292526699429,-0.415640358453583,-0.954041751148271,0.098269447552751,0.110185574336628,0.233309782320371,0.221942883804796,0.195323810989935
95.645,-0.524748635195004,0.365716711033167,0.764171259798494,0.256619162911539,0.0173165704388775,-0.0151709988713264,-0.956735154435348,0.136968538028431,0.0124157081313106,0.52770891428515,-0.327949106466679,-0.141074634553407,-0.990726696728079,-0.190226224215641,-0.0879122602161947,-0.000720743241029312,0.174610163140425,-0.348250333844105,-0.936802877353336,0.08518085256086,0.112217996604561,0.211607209935951,0.274713695906631,0.20225657367018
95.65,-0.522887980362831,0.369371535333047,0.762139315975721,0.215055574672124,0.0192108769124963,-0.0169665864995473,-0.945338045613597,0.147366714004636,0.00549083879581893,0.502320144415279,-0.342371630940457,-0.147527605967437,-0.994138853027809,-0.160559623284091,-0.0830902195517536,-0.0660376589757544,0.175725928771451,-0.265102204766618,-0.921419676351896,0.0765751951755152,0.116381925397588,0.197787827996781,0.320860599509246,0.207796671296225
95.655,-0.520914351063965,0.368400206805585,0.76204121800691,0.175517047984386,0.0190626968122608,-0.0237168699381072,-0.964850537960168,0.148787170211663,0.0218837225651948,0.423840452561536,-0.33225629657773,-0.159231452777632,-0.999504104623581,-0.143776418104497,-0.0765060888634979,-0.143587231395592,0.168722827677464,-0.215304972099678,-0.908123356134459,0.0727714284225398,0.128602671725122,0.182888749800618,0.362178852876039,0.20318882595582
95.66,-0.518970075854092,0.369732349344804,0.761459816505037,0.143572044677531,0.0205242586852017,-0.0265511300455239,-0.978891085238821,0.149547097869939,0.0458448043180349,0.36922186321964,-0.318189806508397,-0.162387538127006,-1.01425752746361,-0.125257714189097,-0.0769427747460603,-0.211531569563062,0.168624206585407,-0.171538317505133,-0.896768409921497,0.069366001382313,0.141206071120299,0.170034450469496,0.408637470151992,0.197115598132063
95.665,-0.513211903008946,0.378107555863732,0.757585580493247,0.104729005798785,0.0197323126830089,-0.0349258982228637,-0.98322546499128,0.165469241120804,0.0720619194541991,0.330205564444102,-0.326957632002672,-0.166100516736305,-1.02927347397445,-0.093712847552275,-0.072428607573533,-0.294502205368613,0.162636094101732,-0.141097303673124,-0.890302044831762,0.071900585292221,0.149972008121535,0.162002350168628,0.453988148107482,0.182492147234305
95.67,-0.513267257771973,0.385423501100985,0.761805982453316,0.0726629015478136,0.0168237828036236,-0.0419849618150733,-0.967662832587848,0.15266079189736,0.0580127920322659,0.287683580845244,-0.285927383313628,-0.16698731482029,-1.04665771098178,-0.0602936158643535,-0.102330037307644,-0.35994708372653,0.152446435295302,-0.110283036388754,-0.888485415037878,0.0680597939322083,0.158654252996469,0.162537374543742,0.491102972052656,0.171545258295242
95.675,-0.508685704501976,0.3791022614225,0.761587575733784,0.0300390469732735,0.016808929780323,-0.0550516768759957,-0.959354584308513,0.161739057876552,0.0896048949875196,0.369518388988682,-0.296707243384372,-0.145763983523715,-1.06653756523094,-0.0317102950661357,-0.113400893167445,-0.383308659680688,0.146171686933515,-0.0786661103564543,-0.884652173871393,0.076931390039505,0.167562676341361,0.1820329479249,0.52579845305513,0.150347629996967
95.68,-0.513807119511562,0.374056438380269,0.764143271748109,0.00146673903383773,0.00784012668652969,-0.0711635580303734,-0.969551023886816,0.158803408044714,0.0967115738973885,0.341673505025534,-0.248161097886728,-0.14242672831203,-1.06639972712011,0.00311020003589725,-0.117320963597787,-0.540819016937525,0.114494228970295,-0.0206321560873936,-0.890331723321842,0.0808445663241701,0.17725529105035,0.221991824325424,0.581091759529517,0.10956469912507
95.685,-0.513497159579634,0.372149296392613,0.758085904555384,-0.0154710368998658,0.00969235783330221,-0.0717279587646938,-0.95945429165722,0.161637469815578,0.0906958665971829,0.303443780010759,-0.23526288720099,-0.152182850909204,-1.0580588227063,0.0157288312477588,-0.116410504053378,-0.62176883168103,0.108111604036578,-0.00994534174654507,-0.88773622261474,0.0733955748039095,0.176663760253391,0.273278383430411,0.655378908180494,0.0477151063960311
95.69,-0.518429927624267,0.37573013938549,0.759817189551759,-0.0353992667572835,0.00398797721915391,-0.0778419557353712,-0.930778655461876,0.162800807286891,0.078869917108827,0.244667705674654,-0.222380163282135,-0.167442883433087,-1.06694469125765,0.0334477307601467,-0.0974229917240783,-0.684491428042937,0.0997851499515755,-0.0294449919504719,-0.894771956979112,0.070642918367668,0.179865088146757,0.34089966546425,0.732934455356598,-0.0362348019668354
95.695,-0.523466766770402,0.375313933935338,0.752680691715628,-0.0584434834787036,0.0048058224869952,-0.0808776180458488,-0.951981897885777,0.166064227461724,0.0940111316509132,0.228167029690391,-0.189807158379611,-0.186088970130553,-1.07423128401073,0.0337147343790874,-0.0985742080064084,-0.639322970120937,0.0837392879945611,-0.0597446755547443,-0.897029653729111,0.0664945788984795,0.17687268730058,0.391806746682774,0.776784291065058,-0.098337019840475
95.7,-0.521396255342898,0.384782991815601,0.749424228770391,-0.0738065188469578,-0.000697190119063522,-0.0874755743625275,-0.956668937930181,0.17645365618512,0.0972467483794535,0.203424423933029,-0.170850310284721,-0.189229368333463,-1.0878631030145,0.0322435466683864,-0.0977627307693388,-0.546087918155565,0.0803404331976871,-0.0730681565212839,-0.904762319557659,0.066959515346622,0.171363134787807,0.44885309211521,0.800529618705699,-0.160470302881056
95.705,-0.5134818195788,0.394115782292964,0.749277392126029,-0.0886294875632987,-0.00562948095679962,-0.0978867395794527,-0.960424257747556,0.175434957866082,0.0964734376219864,0.239601756741557,-0.146545513622009,-0.18167920544182,-1.1002639719014,0.039488108492212,-0.0962439433957611,-0.492253803036909,0.0681178480117153,-0.0681176448536775,-0.917650329409066,0.0607328375824743,0.16214468232424,0.509107055560051,0.796831100446821,-0.216007805408338
95.71,-0.510149281259805,0.397500316790503,0.749116225152455,-0.110821357411965,-0.0091559094107715,-0.0976440299124677,-0.964803454740194,0.178822226035938,0.100138664069968,0.238366492182616,-0.115996390169077,-0.184781204025821,-1.10425555825893,0.0468099357606028,-0.0915356937281847,-0.449904470841139,0.0572403064201614,-0.0735114542481822,-0.928436508792346,0.0608787097294228,0.151595337997297,0.561345175786771,0.763353927002972,-0.248909050817332
95.715,-0.51035730965134,0.393645251598312,0.746968457841043,-0.125264195071134,-0.0152400630447151,-0.105272387431535,-0.966786476285321,0.177585149817337,0.103918008807109,0.214233509883889,-0.0981919652666529,-0.19758131197351,-1.10030440514505,0.0461582203917027,-0.0764801249964094,-0.447282053450393,0.0366084475552811,-0.0880134296914137,-0.940053818536911,0.0638151572333374,0.139548970468988,0.604104585347852,0.710052658997734,-0.268181857501638
95.72,-0.513031151234448,0.384516957483231,0.751746426676407,-0.135123870236696,-0.0193633278889074,-0.1014885601077,-0.966979251272908,0.174301972039842,0.0905226244062428,0.163636229018565,-0.0797582190974668,-0.20789805832067,-1.08571318868949,0.0401497708428869,-0.0575679534246402,-0.484947971821975,0.0136588944369729,-0.118958565125027,-0.957102733189915,0.067419693751155,0.131026353766108,0.640144886196485,0.623090442169143,-0.270220150403026
95.725,-0.516929808119079,0.395962797010884,0.744188484982859,-0.132875723510584,-0.0306541213284029,-0.113728571959355,-0.968433287628364,0.170793600553746,0.0882863614527478,0.146353195793989,-0.0623742128074723,-0.222836856357691,-1.07056064623587,0.0320059664595792,-0.0407212574518808,-0.505900008438485,-0.0101772277438095,-0.123818655574943,-0.963679643796892,0.0808615163460204,0.122106103013965,0.654135449020075,0.544169801358001,-0.2627727184481
95.73,-0.513700105293282,0.403871679277361,0.738396733112126,-0.140733763627706,-0.0309274520247872,-0.115570417561635,-0.96872755300535,0.169553473182053,0.0806508032901907,0.138685982648435,-0.0384271264087238,-0.230504064559276,-1.04975736593102,0.0247388712901088,-0.0206623822698134,-0.528444133698228,-0.0270070762007837,-0.156069374112229,-0.980117558383304,0.0815454229362579,0.115611336029575,0.668119407721016,0.445295361281988,-0.248876039642613
95.735,-0.51245967701956,0.402795532511309,0.741593475004533,-0.147422907191878,-0.034473778452597,-0.122680120170116,-0.971630173437883,0.168303586291783,0.075940152583986,0.125364264685331,-0.0246478579348427,-0.236525339645026,-1.04826385749587,0.0218655856370812,-0.0219942263889277,-0.543655989336652,-0.0317140208979416,-0.18220482580195,-0.993113918340547,0.0934883366431385,0.113760994524063,0.672957947919532,0.360627392765548,-0.234543327214093
95.74,-0.512490321887129,0.393655834001964,0.745815029742366,-0.160258689396302,-0.0387523771123964,-0.121927212189244,-0.969834929973037,0.163987529415948,0.0688863220168768,0.105996379917078,-0.0107650558252719,-0.240758220712559,-1.0516198633239,0.0185492297665328,-0.031427460602307,-0.57207286793748,-0.0254866239584721,-0.20846318069082,-1.00090333052384,0.108834163760626,0.111551758975135,0.67358214878059,0.265917184904532,-0.215498355721341
95.745,-0.513258610640728,0.39467891166472,0.744419948121162,-0.155346931359859,-0.0467742189440593,-0.127605115450105,-0.974831775405625,0.148986584392406,0.0663183176038973,0.0790544390883456,-0.00668493024957366,-0.247008610884664,-1.04725100875111,0.0258138415640388,-0.0391783849478964,-0.621163400929049,-0.0204818151351593,-0.24330671735213,-1.01034675222415,0.117769142747269,0.114535593759153,0.666329878637902,0.192958669216957,-0.197289024168841
95.75,-0.511559982258074,0.391385246842388,0.741092328707723,-0.153189916962524,-0.0540946909639739,-0.126078030359467,-0.978752496098743,0.130548440304634,0.056377687333371,0.0549201740497067,-0.00129904642544197,-0.247882122507043,-1.02543122515354,0.0251510097972653,-0.0380593651911834,-0.69779597434399,-0.00941620334294805,-0.29701851496927,-1.01251326576118,0.134572624607829,0.111563021708693,0.660376131337137,0.118215903576331,-0.186532912541122
95.755,-0.509968070202716,0.40119191708961,0.742671051424415,-0.143470207196061,-0.0620858382093629,-0.119458525719984,-0.976854627305557,0.126849458418013,0.0464512889553475,0.0772140239092344,-0.00965924397108208,-0.246514920550275,-0.996354885750395,-0.00072615163154651,-0.0139487848836426,-0.792858286706124,-0.0154808173548518,-0.338983730155686,-1.01907584218912,0.145481871831082,0.112233902552506,0.656831302893265,0.0300768500827613,-0.188922961352758
95.76,-0.507621157983447,0.404381333836587,0.738974178608956,-0.144577695971473,-0.0619641413218173,-0.124271784733773,-0.981757563399409,0.15162779975912,0.0465186805225009,0.107931434567084,-0.013750003873595,-0.245217153779915,-0.972735991229661,-0.0279596319785952,0.0163408752631937,-0.860396499178288,-0.0258477193761445,-0.378137116500397,-1.02222933911873,0.153793631160125,0.111941095378642,0.65113955381453,-0.0292573548151682,-0.197410607669079
95.765,-0.508355914819646,0.412958178988896,0.734324278544819,-0.125825174308994,-0.0680932867769724,-0.122318788283271,-0.978151955119466,0.178924995352514,0.0512486634747248,0.119506573660946,-0.0231366407075822,-0.233627893140287,-0.952661113875727,-0.0503139609021092,0.0527928380121461,-0.907152225056189,-0.0371287417530922,-0.422328137606575,-1.02971404518871,0.16722715732832,0.113004297427796,0.637143710832026,-0.0941162569814491,-0.220176364330545
95.77,-0.503588870201274,0.414284887290099,0.735250914608425,-0.141146228029858,-0.0745735778317171,-0.133717985030016,-0.979547297454961,0.184487941140885,0.0400960736908499,0.0673555981760413,-0.0368267716564032,-0.229463500233504,-0.940818370923234,-0.0671861065472894,0.0779049328763792,-0.915968907466911,-0.0543782165840347,-0.4498683402537,-1.0350118648667,0.172451032818197,0.117718934004667,0.622999872059932,-0.123315379378452,-0.248099433299758
95.775,-0.502351482940076,0.406963624712435,0.740409891010815,-0.145105142580963,-0.0791363500679613,-0.135553717551146,-0.972608282027766,0.162848396101449,0.0273904863318006,0.00128541181034189,-0.0422953332056921,-0.226216347307241,-0.932038662169862,-0.0776943231224563,0.079148465072042,-0.903769126900283,-0.0615123739171243,-0.470134941606436,-1.04393355224237,0.187233006716695,0.128629931314096,0.604304361073749,-0.140706159424554,-0.290912376880416
95.78,-0.521545474988409,0.377371293628534,0.751586539080218,-0.147155235126498,-0.0821651369333267,-0.143451740286673,-0.977301498423535,0.136101219267407,0.0145436596031493,-0.0622518311079728,-0.0582144684134923,-0.229174734427231,-0.929862885387238,-0.0975396348394891,0.0711132991065227,-0.9472798712979,-0.0539354977876331,-0.484405076087888,-1.04807766069338,0.197997602724048,0.136275257410289,0.584553078196483,-0.146182775497437,-0.32746368091091
95.785,-0.539165318553202,0.351363964496314,0.758023466984894,-0.137167143115883,-0.0893117565994771,-0.133950680165389,-0.992664043910798,0.0990762337534162,0.00247579846133762,-0.0588645247347115,-0.0662034096710002,-0.23831117341323,-0.926978281193827,-0.143464074793477,0.0593152219761511,-1.01670920596705,-0.0423103790825995,-0.49738017736137,-1.04722156802836,0.20176616640371,0.1492119990216,0.565653921203574,-0.139994233869782,-0.360729933699375
95.79,-0.538152819590284,0.349959094214439,0.762820509044018,-0.107324879629969,-0.0834141965401042,-0.130010277032852,-0.997766731670207,0.0765720428949582,0.00198056277362373,-0.00719254585936176,-0.0669144093990326,-0.253541340043691,-0.93800727631248,-0.175351454275689,0.0490076495177596,-1.0257994077764,-0.0223901684284877,-0.514062137968926,-1.04428774110022,0.207066198163072,0.157866952878744,0.544673642114622,-0.12838617107562,-0.391549780778811
95.795,-0.536225593772864,0.350827792417495,0.77296105746788,-0.0707567949394972,-0.0764579265266215,-0.11543237110685,-1.00265644819596,0.0638063000886553,0.00677253263064909,0.0824945049091425,-0.0614243406180521,-0.267274809542972,-0.960055972696222,-0.178077020435478,0.0391020897072138,-0.965326071715528,0.0134656857875117,-0.519524800302458,-1.03493733012051,0.218808448460062,0.174261731052219,0.530572333876634,-0.10631792658329,-0.409093840215522
95.8,-0.533926775636238,0.354416320011584,0.767526045763798,-0.0430564897382802,-0.071299576993362,-0.114337707612862,-1.00723894235867,0.0643078763376725,0.00915056259213562,0.175991608523129,-0.0573940397471992,-0.276209750310588,-0.969115357969041,-0.176915963071398,0.0185014582452423,-0.89645592248169,0.0497331234842725,-0.508454665327788,-1.03065268367552,0.217743292793505,0.185818284620221,0.524514926881361,-0.0926888200165148,-0.415472822686315
95.805,-0.535001091222456,0.349037129143028,0.767438908595566,-0.0212915768741688,-0.0553599516001298,-0.106021814379278,-1.00486396476198,0.0777118564161541,0.0115555806204914,0.274217063415479,-0.0682188427564239,-0.281549160277807,-0.988935847466875,-0.17937023355542,-0.00360204389575451,-0.770061873667599,0.10053878505492,-0.486578235625264,-1.02094680991167,0.223120140939252,0.186872621442306,0.512213287970148,-0.0687903249867461,-0.41112756633682
95.81,-0.53557147691595,0.339987890810672,0.769329563653515,0.0140244219382765,-0.0581659037381732,-0.105141733238069,-1.00824289676777,0.0951491369785349,0.0152406415610864,0.342518949621407,-0.0594949097004969,-0.285869127441758,-1.00612972159661,-0.187508900902009,-0.0202506614396728,-0.716427263082092,0.136349867578551,-0.464771103412573,-1.02214163719617,0.223759738719426,0.188269424315428,0.491633032483649,-0.063644837672432,-0.415002328775531
95.815,-0.528415811003638,0.338397959086704,0.773385110444369,0.0409443658127159,-0.055320772502871,-0.106104943965744,-0.99261697454106,0.101166343191853,0.024966022019111,0.351807363567757,-0.0584079377577194,-0.287919934242573,-1.02618428058769,-0.21257503319502,-0.0251521627148869,-0.703447853493587,0.177157457250128,-0.42035690285087,-1.02220493604705,0.21622356804208,0.19113224302577,0.484197172298292,-0.064867311177834,-0.417918113098284
95.82,-0.525606994887256,0.342803825798069,0.779987644532772,0.0705149878089675,-0.0556848425032319,-0.102308303451699,-0.977566926215643,0.0955188275227207,0.0305361902178797,0.368956121042421,-0.0538962221852757,-0.294765462268101,-1.04475961718622,-0.222670792203203,-0.0237159062559428,-0.728782679399428,0.206558766893195,-0.356284582707244,-1.02879889993259,0.197861254289946,0.191385729175,0.486646642460714,-0.0887785279733674,-0.420010751800709
95.825,-0.522866037727039,0.334720890649696,0.780599883825707,0.0826008996822542,-0.0449225663001075,-0.103984371148452,-0.977133236372785,0.082358949907015,0.0395810981520156,0.388842958087302,-0.0413284470586044,-0.305806844105451,-1.0598715506102,-0.212022505759314,-0.0347013267054712,-0.734671740936636,0.229045017697789,-0.275366216209347,-1.03245740212423,0.177250605152816,0.184741729149166,0.508459208859277,-0.127770506468003,-0.423398808886822
95.83,-0.531575606992704,0.334029180758067,0.784339930089926,0.121468590791679,-0.0393894034659185,-0.0934497541496898,-0.987638653413131,0.0596722120580785,0.0373241883770654,0.445934213585148,-0.038815438747406,-0.315939560636693,-1.0611593989673,-0.188008708428216,-0.0388465057044614,-0.693109789254386,0.245326569969582,-0.201119103219377,-1.02679413596172,0.166434004651573,0.18284264886199,0.541863300551862,-0.165836144124145,-0.435086457596342
95.835,-0.53606466786511,0.325812689211016,0.784605427029672,0.160910241292083,-0.0359969855379014,-0.104867191490449,-1.00663591955982,0.0482301140897357,0.0388550761070958,0.482697773907994,-0.0236578794163058,-0.324110023428966,-1.06669654453084,-0.163147100121554,-0.0549366991401152,-0.608433527904671,0.252018392086029,-0.134786377837308,-1.02997360074112,0.150495643132682,0.181117900909808,0.565799381461434,-0.190026398822773,-0.447279986056791
95.84,-0.537653993068031,0.326181990557743,0.775332883908855,0.18752141020313,-0.0230924399482391,-0.082252259328282,-1.00273084669402,0.0399044586696575,0.0340946874644832,0.556619357784923,-0.0127846415056633,-0.3358024257698,-1.06277249680144,-0.150712599327815,-0.0769601072482344,-0.571944085232399,0.250018338316177,-0.0864089887267925,-1.01919923259662,0.138935911083734,0.180357761685382,0.596478627162106,-0.240329279806666,-0.475527688171915
95.845,-0.535365114347933,0.335176617526191,0.771366722085492,0.215492928364553,-0.0149719323962927,-0.0755199399403782,-0.995290224413887,0.0598213491152195,0.037243963123674,0.618270840946468,0.00606238674000885,-0.34580663587273,-1.05389025353712,-0.134643522094244,-0.0849672126230119,-0.617178044845128,0.241417198063753,-0.0798769092543898,-1.0195187916612,0.134193215780649,0.183338146849062,0.620592559775045,-0.250856528707663,-0.493110462044526
95.85,-0.529814907983019,0.347258792538143,0.769309717623148,0.234783259195281,-0.0138277991919229,-0.0705350578121888,-0.986530660528806,0.0902948313452435,0.0462015489280206,0.665764671697934,0.0150660352300377,-0.359507381363403,-1.04325103504627,-0.109837576654476,-0.0784863356860705,-0.703155208697042,0.231300526165399,-0.0873010999295824,-1.01598296472836,0.133977666160909,0.1836440623046,0.651526360637451,-0.243754458601819,-0.517347971446201
95.855,-0.52543522477271,0.370661430115368,0.76468320432862,0.248636373391315,-0.0111238225000277,-0.064741144207757,-0.972525503450322,0.121298289633969,0.0623321106326537,0.711658336179041,0.0177697273341266,-0.362200280640814,-1.03463062769883,-0.072028488813139,-0.0636635609426825,-0.777828132323545,0.207473338940842,-0.0900222297226321,-1.01473838441292,0.139562012813235,0.18198047687064,0.692101844373858,-0.224205936877173,-0.541567798678702
95.86,-0.520730886210003,0.381323885309077,0.755268108937818,0.249800985406107,-0.0119105862757788,-0.0588714664885383,-0.975420063006012,0.144524906456114,0.0752813724932267,0.699569347870142,0.0308134572124957,-0.362678455798708,-1.02174126002175,-0.0419427061911358,-0.0476198744835102,-0.795520558188275,0.182558813113074,-0.0740382161305723,-1.01483470784791,0.146830975331621,0.176131830470406,0.71882102350793,-0.199592392904106,-0.559144929362748
95.865,-0.517161036780733,0.384982314443771,0.761422885925978,0.235817067383192,-0.00455149415747183,-0.0624065020190087,-0.981722951417014,0.148798975685459,0.0696675885447086,0.629147033061152,0.0344862341880798,-0.365913537408124,-1.00694227652843,-0.0231861809625279,-0.0385760565848703,-0.79296061944239,0.162036942156709,-0.0590059741735596,-1.00674557943332,0.155289981942404,0.168773467461517,0.731953322185117,-0.150835297472822,-0.573053359283047
95.87,-0.526588386919649,0.365435338198153,0.756906087778938,0.216274063122031,-0.00747685017056379,-0.0620749523346686,-0.979516874086332,0.139555245453235,0.0682874317057477,0.524050029148949,0.0485798011956579,-0.379864441626036,-0.983329800916448,-0.00783910948236063,-0.0356370634798899,-0.779456975961381,0.13420254276313,-0.0418278317193972,-0.997460412390862,0.161954937273244,0.164030471532423,0.734555616688372,-0.0957300978112297,-0.581739127635956
95.875,-0.522515055554788,0.372973550963982,0.761238825840824,0.227524197169691,-0.00368543718541011,-0.053637362220474,-0.977876399630462,0.122996477491812,0.0644723520513949,0.446131324534739,0.0654796707076004,-0.390795438977959,-0.970234648673954,-0.00359393187000011,-0.0325011802109982,-0.790946774010678,0.110897866750851,-0.0335743925982468,-0.990821676007632,0.173585015781214,0.163101022925662,0.736028265648033,-0.0530987001422599,-0.58221196547501
95.88,-0.53090033575767,0.36191292230171,0.761873597734774,0.216172961253313,0.00440867795405695,-0.0546538222524355,-0.978907194403083,0.105615982111695,0.06395358758706,0.421079751627468,0.0777977736820909,-0.408753699107055,-0.972607694023473,-0.0241049053962491,-0.0264381045262578,-0.815596103292507,0.0954089249608539,-0.0218494201565934,-0.978451935401452,0.180466824631379,0.158240312736692,0.723999373118235,-0.00741625419564181,-0.582564928587116
95.885,-0.534995711847774,0.352728869013757,0.770438736586164,0.213635678418588,0.0114046938026377,-0.0481567531824112,-0.98736519301288,0.101696108593772,0.0599309254694521,0.414266904373855,0.0857401663535889,-0.42058909419029,-0.986084650446574,-0.0524297780344907,-0.0183561129537717,-0.828202947528351,0.0835573114646811,-0.014546304910425,-0.973451440623516,0.185536561428004,0.154814356647233,0.696983366214067,0.0374750407220068,-0.573679957238677
95.89,-0.537631619074218,0.357946305896367,0.76910496047781,0.226710643069852,0.0177653959683237,-0.0463014085792889,-0.998074882956125,0.0967390452191473,0.0512280270669313,0.421149732038547,0.105010504170675,-0.440104864998453,-1.00990226805135,-0.073274645797515,-0.0128345744484705,-0.80978954903834,0.08104886257898,-0.0109899084154024,-0.967316210377382,0.183805966440742,0.161674703803892,0.67311530510905,0.0732296932009636,-0.55952824619295
95.895,-0.530659644064671,0.364616659541832,0.769139388882699,0.239796280587104,0.0247084995958126,-0.0314835935644973,-1.00064334768585,0.0954394709740169,0.0528005008563029,0.425323059730138,0.121248815351496,-0.453036029368139,-1.04353327339067,-0.0817480148217939,-0.00732579460300004,-0.756391687120292,0.0934691152996053,0.00719091903250224,-0.958404227808587,0.175197557157645,0.170875765386792,0.639458081305307,0.102254863361664,-0.544001328209462
95.9,-0.531348405591187,0.362049512393733,0.754216825845641,0.225512339906124,0.0326741524040699,-0.0318205057851862,-0.997810409535292,0.101750708625401,0.0465637501271105,0.427887647113846,0.134957255224366,-0.466667534980397,-1.06426640562023,-0.0815744004294372,-0.00468219837656196,-0.709877856446135,0.107814891632172,0.0293616599354634,-0.957832157905045,0.162346104464595,0.178083987889691,0.612441626413886,0.124129734408439,-0.526179162070969
95.905,-0.529294413373627,0.384056133911855,0.753127781207004,0.224843258104214,0.0318837359804128,-0.0269566654902484,-0.977001395916811,0.109371200877069,0.0499079119055179,0.416980659229263,0.148524122207099,-0.480201625481201,-1.09039853495156,-0.0759670045540139,0.00457664699372512,-0.675171763963777,0.133151373986393,0.065953996898504,-0.958215279738481,0.155079218048592,0.186119556447804,0.581548389505047,0.14126954059763,-0.500896438744469
95.91,-0.519488166544679,0.382789848678851,0.748576564439453,0.195760416086913,0.0271073464609461,-0.0321133992785015,-0.962327349750536,0.114835503615524,0.0460287841154843,0.412880424253606,0.16832639342779,-0.489497043345945,-1.10040474259371,-0.0734648661620087,0.0142558517725925,-0.63261858403956,0.169184728871827,0.0846016589864519,-0.961397421077356,0.134863266994401,0.185559210937771,0.534961026727929,0.152833784256174,-0.48742464619059
95.915,-0.513473856370164,0.378333092611619,0.756212180404243,0.17055660708127,0.0173385003787901,-0.0439596179169668,-0.950725041130018,0.11353240143908,0.0451390745743473,0.389564730294417,0.17963375734437,-0.495623141527176,-1.09853279040943,-0.0686332411700945,0.0244397788173916,-0.57993086084642,0.198107765772229,0.102255226784483,-0.971600551704723,0.119241642869211,0.181775272099959,0.499781777761519,0.147652140765934,-0.475922877188853
95.92,-0.517872879876713,0.379044297259441,0.757005130495999,0.159086614847183,0.00756320181324731,-0.0575475699724025,-0.949351161773662,0.105496721877825,0.0397498594210111,0.36121132943123,0.189352080865458,-0.500610946620574,-1.0777042676645,-0.0620451292753218,0.0300621626319068,-0.479820385328764,0.221422399239987,0.106660811144196,-0.980003298223905,0.112513299564712,0.176140713361852,0.465534770017345,0.12869343697182,-0.469414196924374
95.925,-0.516197860158243,0.382339319530553,0.75802310128065,0.140281706029153,-0.00360558046699751,-0.059433448837118,-0.963486805770172,0.0906388483698926,0.0377482404760531,0.355216818123914,0.198520765369816,-0.513986354540865,-1.05571630868449,-0.0614556072685437,0.0245179639043243,-0.380706932684303,0.234221546692749,0.107645515025133,-0.984870520808941,0.10029084409459,0.166134691202475,0.437048283856533,0.0832826416858367,-0.469892944257499
95.93,-0.526925561304375,0.381640065987161,0.749628113907465,0.113742378662043,-0.00403734598231183,-0.0760939539150413,-0.980331336674664,0.0878370905962135,0.0345602521178644,0.365882741922979,0.207948815501296,-0.52370707172127,-1.03385804778229,-0.0641329245924706,0.0024912648730245,-0.24638732865606,0.252909333587486,0.103491502824039,-0.989907365684183,0.097330829642511,0.162873466243919,0.416201113641759,0.0429349376792482,-0.467033006268426
95.935,-0.53270070732527,0.387177222307575,0.750969480674665,0.105332061648369,-0.00764176808297634,-0.0690185001362155,-0.989839434094466,0.0902021775764953,0.0294742096280041,0.390532525873271,0.219239140833775,-0.531190783208729,-1.0313688014726,-0.0590204495642613,-0.0125173306607994,-0.172282862571614,0.263174815685981,0.088390955775752,-1.00115262110597,0.0805761755918509,0.164417445682729,0.388686465774319,-0.00381539224128489,-0.472268898026212
95.94,-0.525682782122545,0.394125317249135,0.75189370278965,0.0990255679798367,-0.00567098836085051,-0.0775166448263363,-0.993639193299027,0.0951965645029388,0.032798135387747,0.411872102943372,0.232285229658508,-0.540847979233232,-1.00802524308702,-0.0486018180477034,-0.0272480435426653,-0.161899055036794,0.270678844009947,0.0883621270645558,-1.01442696748308,0.0637600545624401,0.171598749752218,0.375468241557417,-0.0374258346761212,-0.476949839838619
95.945,-0.526749443033059,0.396164965354474,0.752673313469474,0.0717914121162594,0.00350437856098158,-0.0711158412645594,-1.00283762890929,0.101338026813367,0.0417336465055455,0.418356783530105,0.233772436097501,-0.549913542391458,-1.00230410742381,-0.0428687223777999,-0.0378732036849559,-0.173608212063297,0.265871650277321,0.0968738955271794,-1.02705855235772,0.0479738111311241,0.185529174242571,0.377538685147865,-0.0704110827874799,-0.479845519280937
95.95,-0.532403528026301,0.393470743049347,0.754718368943015,0.0460659791025785,0.0155796929113239,-0.0657174546061813,-0.998555285735726,0.106233516039865,0.0441177886064866,0.394278189265159,0.237590897524864,-0.560238237713518,-0.998275187895449,-0.0442537591110328,-0.0418517658624283,-0.166816617979979,0.259577055055505,0.101106546795701,-1.03614850747203,0.0391721644259863,0.194094136234822,0.400642334834561,-0.097859735923295,-0.481482320695357
95.955,-0.530879964918544,0.399034539100925,0.756722417378545,0.0266838039842244,0.0275745811810174,-0.0624807834796038,-1.00346010154103,0.111573542733769,0.0409044515628889,0.326693068605885,0.253598235577478,-0.577320530854899,-1.00133029514095,-0.0414239507581179,-0.0460766055140852,-0.138895835841911,0.24432085349104,0.110564852827981,-1.04457466333954,0.0335008366405176,0.199163151295758,0.450337174248123,-0.121568178258618,-0.48247954728537
95.96,-0.53476552649134,0.392751072622146,0.756068238167436,0.253185131356067,0.0478439389986335,-0.0547458221390192,-1.00792926973711,0.107200530140877,0.0430127185392652,0.256646784085589,0.266652467264448,-0.592603253903191,-1.00776973132177,-0.0347187088980876,-0.048691081711534,-0.116580875943098,0.232206518973572,0.119855022971122,-1.05566941376007,0.031327162999482,0.191027953710236,0.521803029470259,-0.146344124276208,-0.480603566887925
95.965,-0.543114458396581,0.399149225266403,0.761754404148213,0.021931980821402,0.0599626954086011,-0.0453020986728484,-1.00395824382644,0.111110508487754,0.049056505573611,0.207755150742716,0.281692851198635,-0.61897774245128,-1.00944853317947,-0.0272311599351333,-0.0442958013215018,-0.135941057726281,0.21146639598038,0.135127932758535,-1.06515539901721,0.0270430196436914,0.182041573823417,0.598150217259318,-0.161395292723421,-0.48822080251018
95.97,-0.542159515382128,0.384081131832013,0.767823373927024,-0.0161344305459611,0.0813480218467662,-0.0346744745452767,-1.01538478452813,0.110383779193654,0.0503824473241236,0.161352267397735,0.303437205829354,-0.644731395613263,-1.01783160404954,-0.0200137362653009,-0.0343839225658338,-0.199503751623048,0.178713526910082,0.162186717169706,-1.07565670110741,0.0218062296307011,0.175827996422648,0.650312350348515,-0.161985136840362,-0.495290529808629
95.975,-0.537771866368091,0.405036639967463,0.758470094681039,-0.0175953139475414,0.106274983139505,-0.0245630888387639,-1.02775734531717,0.112726635244009,0.0586378118939481,0.112680741915052,0.319186911631423,-0.659731665944412,-1.02870979712837,-0.0164257301597633,-0.0298460328072334,-0.217856944894088,0.144052493540673,0.184485617070896,-1.0926281161818,0.0209610483945568,0.164012845701393,0.713348094412067,-0.156748150573219,-0.520791742486315
95.98,-0.530870182652701,0.406061253598375,0.750743452858127,-0.0379148218189078,0.128924368216125,-0.023073436248796,-1.01812331849259,0.10411089872242,0.062773342326095,0.0847778355406773,0.34087630384925,-0.677911624371339,-1.03907773713088,-0.0145017178663687,-0.0316696320574199,-0.202906484250706,0.111555933068399,0.211396256123869,-1.10129521830077,0.0197121297815541,0.159313125463937,0.75492832000758,-0.135662653504378,-0.542563384489526
95.985,-0.519444607311859,0.419859704341143,0.769926512078735,-0.0543469750480196,0.143139617580241,-0.0197119890723464,-1.01038336762761,0.0982326609493046,0.0869681600752417,0.054313825052457,0.369033928044686,-0.695271886440058,-1.06064792271662,-0.0171910485091822,-0.0419585196093396,-0.178930429623136,0.0778568256172432,0.243545668472471,-1.11641099591073,0.00928255971517566,0.157532345344057,0.778620148154459,-0.113660523045494,-0.564759469870154
95.99,-0.497307542608378,0.40590527670352,0.754468477214298,-0.0828924080251752,0.152312501738286,-0.0325336639412117,-1.00953818729172,0.0791757785557335,0.109189084970346,0.0238711086422501,0.398952296574432,-0.709107498582473,-1.07358138546374,-0.0233470879542358,-0.0624512119441008,-0.188419825835967,0.0409214016104296,0.288709983847985,-1.12468088326322,-0.000864417604552371,0.159539880448297,0.791189238795066,-0.0863861558143267,-0.581285291015992
95.995,-0.507104850596546,0.42005232947489,0.754789629435169,-0.0578412354163262,0.176675056540044,-0.0482035914945849,-0.991769719270748,0.0502083813880349,0.0840388085681187,-0.0650703783179575,0.433669519079193,-0.704617432684218,-1.08202132037569,-0.0274264975936632,-0.0834790857285649,-0.221664815016563,0.0114297033205004,0.32320269967257,-1.12451423012463,-0.0222969515605046,0.162655737640393,0.801518639818327,-0.0551027216505845,-0.590584217159366
96,-0.523679045576263,0.417473808963421,0.747860111112086,-0.0921974603663884,0.170561718167357,-0.0600172886630318,-0.971956141489001,0.0166629998466742,0.0875463551359827,-0.026907880131986,0.46695117233134,-0.701885257381422,-1.07662541154333,-0.0286733155627422,-0.118316665355308,-0.25776745244091,-0.0124024246697482,0.364687536073696,-1.10779222542706,-0.0539953080590014,0.16723601169475,0.819564767846324,-0.0221006527324054,-0.590844226075821
96.005,-0.490356073407881,0.374001781199409,0.780287456840264,-0.132657911818637,0.176975605892393,-0.103930202444411,-0.960409948321739,0.00541382883038539,0.0690616019187672,-0.0201718729469311,0.502893276438347,-0.704559131253082,-1.05507739365599,-0.031927756574282,-0.140708294816153,-0.290903894617364,-0.0250171022370118,0.405261882236458,-1.08358456089541,-0.0760886882366464,0.169238333667622,0.844587813479819,-8.09421661904449e-05,-0.577107695401098
96.01,-0.493217784562301,0.394823180803396,0.758382896219982,-0.0941303839369369,0.181028468977033,-0.0934476624739698,-0.958117861427511,-0.0175308864229601,0.0802716880551266,-0.0196959932953113,0.526677140872169,-0.706088850885362,-1.02141153312164,-0.0343237862444202,-0.156477285724318,-0.353729299429017,-0.0239867910294078,0.461305916849333,-1.04105392023788,-0.0932049882913074,0.181862559640814,0.872738189685777,0.0180862939416446,-0.551637910330719
96.015,-0.507899079012178,0.390291625154806,0.766000117131702,-0.070914747845677,0.191817243063111,-0.0948470008063017,-0.964982565537557,-0.0160488144510219,0.0684772011975064,0.0182814057886473,0.548269916527426,-0.710185551063116,-0.984230416532757,-0.0442968315921405,-0.161579836856213,-0.404958296488478,-0.0194507618365931,0.524687291573572,-0.997909692397893,-0.105162519764159,0.179013322562004,0.876927750100734,0.0440196965230652,-0.51678359347352
96.02,-0.513922652608677,0.382903828099548,0.759465376741909,-0.0852522775530815,0.208776263120983,-0.101570112298746,-0.973715921039929,-0.0119959271173448,0.0628491652203208,0.0860662687464265,0.571525174054564,-0.703311204910278,-0.953931428242248,-0.0461272695888935,-0.164638297840542,-0.417270309599368,-0.00425714344123013,0.579473350302153,-0.961033557820818,-0.111536842463607,0.17712076066499,0.85193438836903,0.0914802560497018,-0.476602685710867
96.025,-0.522284900419909,0.374257554581445,0.770252919497702,-0.0895299886224313,0.217966850372083,-0.112806233746265,-0.981045678518317,0.00339854335331878,0.0540326951405498,0.148098896835417,0.59844579113096,-0.702619802609412,-0.932627262925426,-0.0543380909418123,-0.165852350317265,-0.413523468716929,0.0188174366218588,0.688843523378332,-0.927815193946586,-0.113715515674463,0.186360688996093,0.794273703158969,0.161774328778929,-0.434062609477457
96.03,-0.525821604282768,0.375022167711348,0.770876111308733,-0.0874196955796537,0.233222754136728,-0.115349948406219,-0.988684320628719,0.0218262952997048,0.0516802287509983,0.18450034758935,0.633424673456153,-0.700414423091534,-0.922629977533847,-0.0644156639613217,-0.164301058746582,-0.422006353647374,0.0392173956009432,0.790643487154148,-0.905981286541168,-0.115272175078862,0.191353128557855,0.705028439231948,0.253676738126673,-0.387106007631132
96.035,-0.514372746278663,0.398783308007378,0.761736991772514,-0.0494753890731096,0.239906428367933,-0.140195009598112,-1.02834161918902,0.0406285209693082,0.0505080623432753,0.181290572320558,0.65988559436378,-0.697705843012479,-0.931729002426848,-0.0755969131310562,-0.162285070885948,-0.431978567387802,0.06006970214969,0.896550545242395,-0.877815761335788,-0.122542004529174,0.186284033693275,0.592676839062943,0.359525992325485,-0.334462546469736
96.04,-0.505623852374082,0.42569516912914,0.766247266379188,-0.0467471886257007,0.261170670296692,-0.156844130098093,-1.03938317965965,0.0377171997551561,0.0454100625149832,0.182059611273145,0.678676617369993,-0.691839286282517,-0.943827719317509,-0.0869496248981016,-0.158491377984854,-0.410354832422669,0.0746837710914666,0.978042228161597,-0.863560873218382,-0.130175292543988,0.176260042216882,0.505786695096422,0.435772024136062,-0.299756488101367
96.045,-0.485225867124645,0.43456695739034,0.766646574238234,-0.0525948203590926,0.294235220117074,-0.209328971878881,-1.05881020921041,0.0484506878842892,0.0443225747080157,0.195444610009055,0.701165906441723,-0.6712154290616,-0.974339540255344,-0.093186633228413,-0.159027023406241,-0.385848892669116,0.0798280358717274,1.05660573714373,-0.852651258226151,-0.144869245237397,0.154873801772153,0.423872793936795,0.495978600197963,-0.27551812096238
96.05,-0.47322761082088,0.445539695119617,0.770159593197315,-0.0410620968527645,0.31098818218327,-0.250466791775472,-1.07151762745428,0.0378602989183576,0.0316591921297607,0.244790836785167,0.697456737589913,-0.649834484337958,-1.01158888793081,-0.102281157323076,-0.153772829604533,-0.384191489912041,0.0820853428783437,1.11002657647569,-0.84134337487548,-0.149476077058585,0.139242649226508,0.358825290432747,0.51549333876543,-0.259531329916212
96.055,-0.478976205835197,0.462775748822195,0.783390180163231,-0.0193657163709307,0.339065854381677,-0.298939202407664,-1.07734164900964,0.0452861928551616,0.0314434491033745,0.356160708881968,0.704346616895956,-0.628921116888834,-1.03792849323132,-0.102011255533629,-0.156400623299289,-0.3812397548317,0.0815671660197408,1.12326614272471,-0.831488782008826,-0.156048241985904,0.113704564381444,0.30616996646097,0.491995907404171,-0.25005384296255
96.06,-0.496251400346922,0.479594035291676,0.79330266785782,0.019377184965254,0.370987410954914,-0.377383901609381,-1.09256409530125,0.0542159634433809,0.0477968382966778,0.456503089663039,0.702715606152166,-0.598544136197336,-1.06972341844953,-0.106166550869406,-0.147956573650396,-0.398100326045805,0.0858679339289665,1.14550262414624,-0.828204339602812,-0.153713035730153,0.0852246583707174,0.261611372938767,0.443053339039358,-0.260870061881413
96.065,-0.521091236655918,0.473006923089179,0.778590307379915,0.131647626308066,0.413691282630597,-0.490481575028134,-1.10615374164376,0.0566053989452357,0.041992000939495,0.519181660902685,0.676523358105168,-0.560406031572793,-1.08920764311039,-0.109060798125925,-0.144490292986118,-0.416835985463277,0.0945284151787251,1.16270997800305,-0.828933072631401,-0.151440904298903,0.0795427519501938,0.238697778461331,0.390173867003277,-0.283706684476608
96.07,-0.569726752099387,0.456292528648642,0.780088353086031,0.275421725914974,0.445253200332116,-0.619915037783806,-1.10563400312374,0.0578001594349445,0.0472013229606203,0.676216975762674,0.621440472639972,-0.517270049361415,-1.09922501794309,-0.109567434746557,-0.144892256440874,-0.420561131160983,0.121104549201553,1.16824409731077,-0.844365603217608,-0.14660751309278,0.0798084619016899,0.221994764557313,0.326403122847263,-0.304494407673088
96.075,-0.624526694024355,0.451740466280843,0.78047847671416,0.400959353197117,0.432291891256546,-0.698995337632733,-1.06995931550979,0.0445320664149944,0.0522717890358997,0.903754031734732,0.593239176392176,-0.454923142519677,-1.10377520445786,-0.107149865163144,-0.142248174352448,-0.427320990976169,0.155796712126324,1.17377817628135,-0.873727969212187,-0.133096067178654,0.0906141780602975,0.219221176675602,0.275278693570907,-0.322992133876843
96.08,-0.6733108997758,0.420132341986114,0.756064085657932,0.483758786133069,0.364165379328471,-0.784706511708748,-1.04114622653279,0.0378260029496286,-0.0140117598928154,1.0424119407483,0.620620850765505,-0.408060348081849,-1.10601044824784,-0.102449204485012,-0.147743909214633,-0.446967387604717,0.202172067488099,1.1867953076967,-0.910600334924356,-0.128798262353647,0.101432198050492,0.229775308418073,0.239999708001927,-0.340342080840914
96.085,-0.719980400284465,0.357270199776493,0.762416430898252,0.558003844232621,0.315899358833339,-0.798277199268341,-1.00654877934039,0.0395990447494941,-0.113285644795263,1.06757282660509,0.64624430945259,-0.384669617589112,-1.10684697269372,-0.0983334793623322,-0.147025626663021,-0.441064708881442,0.250880224479951,1.18629396867297,-0.955889687436176,-0.121456914971049,0.117596926777517,0.243921948383253,0.215108801116484,-0.353970314840718
96.09,-0.758976354329866,0.392827995827453,0.78479381899419,0.852071947646408,0.266232249256046,-0.740144992960307,-0.982107910535444,0.049868620422642,-0.204101797156987,1.10823058363731,0.683727087133991,-0.347062667276382,-1.08560523696462,-0.0890937812013536,-0.151320248685835,-0.42963073768961,0.276810245508861,1.16227927670495,-0.988482111079133,-0.108287823969249,0.132509217126587,0.261277547840359,0.202281582848336,-0.361658225747036
96.095,-0.675394769898976,0.496650758414932,0.740648729941253,1.14762010985144,0.186088250406178,-0.769658649895314,-1.00178551609265,0.0776225665466561,-0.211973180470447,1.21251659668383,0.698779382008935,-0.368791049568538,-1.07303116284486,-0.0905947603960807,-0.153920631393107,-0.409570596114292,0.305611034394536,1.13089466360064,-1.03930256076129,-0.105063082141961,0.1480481546986,0.288585873188819,0.190299900978936,-0.365096310486024
96.1,-0.768865517632672,0.623355140849853,0.744864408340374,1.30452398341094,0.146300245347392,-0.8757900765935,-1.01944338969612,0.0761414109663589,-0.220267146705884,1.17099414661995,0.679388045823761,-0.384201781512521,-1.06141264200892,-0.0874475061041847,-0.156939955783766,-0.391977517523828,0.314574798265655,1.07042252636481,-1.08285186753335,-0.0979999479988022,0.167864971348453,0.319896044572986,0.17906331519446,-0.360273420891291
96.105,-0.857958383851993,0.59034449184241,0.756815341282652,1.21029632654503,0.138704293002876,-0.918903496711986,-1.0181409326082,0.071164272261162,-0.23214428791686,1.1105807226401,0.67291544187957,-0.361263536672245,-1.04728189934143,-0.0806557729312706,-0.160099015110568,-0.367185047133981,0.31076555532151,0.995125895047457,-1.11089511580709,-0.0870479661613584,0.177635794681052,0.339310373483519,0.152869655262884,-0.358398343513273
96.11,-0.824945392466055,0.505571107094961,0.777762945584352,1.24264505711241,0.119730463572457,-0.869093571084682,-1.01206653485104,0.0471609784084468,-0.290988910322586,1.02005249224307,0.661330014884122,-0.319885987861247,-1.03513984044708,-0.0699363935259318,-0.163906479252092,-0.327016794587947,0.290476867064876,0.932587405081638,-1.1370149532946,-0.0806262675240044,0.185269539164238,0.360473398372546,0.096082248521713,-0.354217373011969
96.115,-0.761867287870172,0.488510148509367,0.749924995629501,1.42623343990273,0.0564977163603451,-0.817573678053145,-1.02656148873929,0.0230086898815994,-0.323337330910847,0.924358258630223,0.621280661895826,-0.264091543868573,-1.01146895794788,-0.053412862506806,-0.172102699213484,-0.275073044736399,0.256897045823279,0.861535285531125,-1.15932946760679,-0.0693715532256548,0.196859447635421,0.378100824270725,0.0346295433678923,-0.336484590034086
96.12,-0.762670205845767,0.529534649537073,0.719638126379177,1.4720190359904,-0.0077488340905263,-0.779307439926476,-1.01487623484112,0.0112170003751762,-0.287750084276944,1.0230478127069,0.614497720808696,-0.271359522939328,-0.99945878073492,-0.0349572460835377,-0.181767263730091,-0.235369947934274,0.223835495984579,0.786523640331433,-1.17311446758448,-0.0624317230563978,0.201084252142351,0.401532148385637,-0.0489534254548922,-0.316795834203387
96.125,-0.767589377198248,0.569391603838496,0.677251579320986,1.42256521004184,-0.101287296495338,-0.749312766808427,-1.0391965752964,0.0207603135220196,-0.340457029696585,0.841847677103684,0.605657691370207,-0.274012136995065,-0.980554858395886,-0.0232330140935645,-0.194623468819603,-0.228982659806463,0.17976431822864,0.710638129750004,-1.18016047641364,-0.0578127267715856,0.212025633872859,0.4273355050983,-0.139463377992974,-0.306601302383159
96.13,-0.771075869474957,0.572665140716242,0.58226687882022,1.27608607418895,-0.224373289640657,-0.693654825637635,-1.00063729943644,0.0128712921163939,-0.380142590235434,0.859682636666695,0.608553050257515,-0.245030411599145,-0.974806331986391,-0.0163450202498579,-0.197253542876109,-0.231949687004089,0.137868497955506,0.641872270045105,-1.18321528043397,-0.0548442768139242,0.21257698786207,0.450851862368457,-0.214621047970866,-0.284190039279609
96.135,-0.800343128255292,0.546954415985986,0.571704945472577,1.15401838438637,-0.303115050675027,-0.748041377354817,-0.983314173854651,0.0350678844881891,-0.393071493439709,0.948936192238262,0.659483158681335,-0.225056682952666,-0.969135218193449,-0.00527463265436237,-0.203158054313387,-0.247786012959398,0.0882567945117269,0.549694264638822,-1.17881767179699,-0.0536732889519369,0.216779837736367,0.467883194482844,-0.276669556092173,-0.261454391109125
96.14,-0.805425515004158,0.612218559953175,0.564618238886242,0.956800465844098,-0.394057843769138,-0.778401068459619,-0.96715412040794,0.0482280264815279,-0.374990330084104,0.924999115707384,0.663408356082361,-0.196581799558267,-0.965756942801451,0.00179943051089136,-0.205127041893749,-0.27030493239727,0.0449809474801232,0.481916343099308,-1.15185542237845,-0.0634420770694627,0.215381225289208,0.470508014211706,-0.335886796206952,-0.235760591586752
96.145,-0.744916895609835,0.505646731483262,0.543898525221356,0.689546259006709,-0.459566296053027,-0.852449549659054,-0.958546626199926,0.0293024737977676,-0.363731816381174,0.83798262814206,0.681410856079717,-0.148125857898602,-0.965676540006379,0.0102187156761431,-0.205120253544436,-0.362359848804061,-0.00452961151205704,0.364392223192871,-1.1333624759503,-0.072110436975062,0.207971616447805,0.459603274448964,-0.35699417921755,-0.22481003513339
96.15,-0.701520134457498,0.409228528285415,0.519927041481321,0.47518788694684,-0.504627547881869,-0.894899486269586,-0.940236730034515,-0.00908595853413539,-0.384623297116182,0.682073207134005,0.686269243893477,-0.122303196548691,-0.965445075180714,0.0115710842707287,-0.2002366795505,-0.449712777791858,-0.0406888858702422,0.279728906467138,-1.10843281797815,-0.0885521346252,0.198959761971129,0.438617437498742,-0.382827304946913,-0.214471913247513
96.155,-0.749413540031781,0.512801418897911,0.394229398928167,0.708709166279574,-0.495862619370747,-0.765333482281199,-0.916744291972179,-0.0470045672535592,-0.411952798548647,0.591019941383266,0.703111259174628,-0.127121048490699,-0.96693442506013,0.00340995767358174,-0.184935466241763,-0.569421220465037,-0.0822643291835373,0.169894232332311,-1.08351604106436,-0.0974323327060768,0.192167037961533,0.411784590741114,-0.396795730049479,-0.201904616723708
96.16,-0.854575062731589,0.785739883624979,0.327407276665182,0.936314247222355,-0.471551507370081,-0.53725459752944,-0.913958697463553,-0.0277075834549914,-0.453407335858113,0.559342479156197,0.710396330503815,-0.161695590326458,-0.963207747382077,-0.00900489118501733,-0.169048599405974,-0.679188037487281,-0.126183551889073,0.0634156872188138,-1.06265539951646,-0.143069962218454,0.169021254042221,0.37024578899478,-0.391433077080043,-0.196905344724655
96.165,-0.876410784833854,0.844339511141348,0.2477237190798,0.598995896324321,-0.409028243593283,-0.327678932960762,-0.910069599639464,0.02595981370933,-0.475399972883773,0.580858167445196,0.706594394445232,-0.1808844391642,-0.964913844013793,-0.01255798066052,-0.149094943756952,-0.737093951879745,-0.151053239833034,-0.00751446911906185,-1.03317346921104,-0.0193587460172917,0.155691368608993,0.128614725927374,-0.374642427437227,0.0860980576254324
96.17,-0.783752507269995,0.726692168035416,0.275617870780184,0.192559926301134,-0.273965003469667,-0.198058105476466,-0.894207734365249,0.0849472944449302,-0.45926120537772,0.529372733401184,0.737167514343172,-0.182855042719067,-0.95855037826895,-0.0239638417548237,-0.116680143631344,-0.794290292056108,-0.19796673870666,-0.105795267860544,-1.05835170940264,-0.107260300814711,0.0912915198774664,-0.387163866943321,-0.208805267192821,-0.0715978185397271
96.175,-0.712462222776847,0.609699634860471,0.313963132540923,0.0118149413419755,-0.220769966203575,-0.0918779239181153,-0.927642325485129,0.115687816359071,-0.443550266021446,0.40658463357109,0.743642638520442,-0.150598785538706,-0.94532323196571,-0.0349065745350776,-0.084453686739639,-0.810202964883554,-0.233017430573416,-0.181672816330935,-0.997895196271104,-0.265563063578033,0.150617983646148,0.512956197164357,-0.339220640923382,-0.342468736083816
96.18,-0.690968852142937,0.465523133102754,0.366510717881019,-0.13474340828609,-0.140845437305233,-0.00293735242987358,-0.921281511478764,0.102473359949647,-0.402753904177486,0.175326204467936,0.745240862360677,-0.145630240934922,-0.940778975728587,-0.0645809341648268,-0.0667625561504629,-0.7720196199407,-0.288024522975891,-0.240466104629184,-0.985994588823189,-0.160522514414892,0.181185430894808,0.655038899352983,-0.205416263279429,-0.29972731057628
96.185,-0.68040506441918,0.306014988094604,0.399806758911457,-0.324847735461809,-0.0999588716300642,-0.0320013774782351,-0.879207766485337,0.0705329683909632,-0.392407419092244,-0.052163413860183,0.742160148108793,-0.148651744725707,-0.936156752950161,-0.104243283248679,-0.0355093256041045,-0.729928219507937,-0.378869026019674,-0.296577667272436,-0.997185634145807,-0.184036668781024,0.163891098155027,0.500455390121215,-0.122973026930588,-0.251023228265211
96.19,-0.605457645895011,0.166802728586729,0.422593526344978,-0.316980173328399,-0.0573371699838635,-0.11034303639366,-0.851109562758539,0.050594983444444,-0.368897438529739,-0.27923815660825,0.71916700888821,-0.166081561766529,-0.937531422369198,-0.153110938528982,0.00157628790940744,-0.661318140868863,-0.370886112291844,-0.32782386472985,-0.985441958954084,-0.213560132694923,0.177752752277307,0.462588966686828,-0.110639137362975,-0.264518429796415
96.195,-0.548807089196793,0.119093331270196,0.453972116748504,-0.194866901646952,-0.00383569129706224,-0.192485651264663,-0.834499314968337,-0.0153713756121694,-0.336097058044615,-0.393682255976806,0.709385525669329,-0.183816503498864,-0.936856861982989,-0.201477680619205,0.0219136564408858,-0.613023174625388,-0.395041063446484,-0.305775506120673,-0.993386178408343,-0.18866165923375,0.188532161707512,0.315031418783611,-0.127321766203112,-0.240170110541821
96.2,-0.524220691281803,0.151754442115066,0.478792759368495,-0.151093152844148,0.0166839743665614,-0.265762874928635,-0.786992233060098,-0.105491788003331,-0.327548397304058,-0.530075388504634,0.690773114714357,-0.175486932703133,-0.906569423719775,-0.243836156698317,0.0490601763244435,-0.544388383952521,-0.479027495153703,-0.200906491806784,-1.01771157344475,-0.180141356918626,0.211530490447198,0.2349012538923,-0.201077250964018,-0.199391032406735
96.205,-0.497921064813524,0.156258933687145,0.519789443580966,-0.188281702450334,0.0320190277727903,-0.358325263046585,-0.782686942288349,-0.130167473041677,-0.290583439080693,-0.52471751660107,0.664684981742227,-0.192339441163415,-0.881088214395801,-0.227851178147395,0.0660745072509872,-0.506867052850135,-0.525846035101473,-0.101389820876874,-1.03004928058458,-0.19042204078963,0.216390072083221,0.258858088615794,-0.264979500154039,-0.173369454092831
96.21,-0.468796014713435,0.129942429708873,0.541765290335661,-0.222258842993786,0.03151243916296,-0.404054958919241,-0.733886828449304,-0.236027104090642,-0.294257796486742,-0.523849939363048,0.620924918511925,-0.174001877580884,-0.841976632751944,-0.215835378934271,0.0714631668104796,-0.401403634741917,-0.590950846672058,0.0306573414579588,-1.02997948665486,-0.183042964091998,0.242451308799281,0.281360428174929,-0.309889823198318,-0.135379366133213
96.215,-0.419637424616908,0.0877162328192171,0.561626150118135,-0.238230766238893,0.0264280048168347,-0.427019718747708,-0.715111038175017,-0.275441727965718,-0.265810575728329,-0.462773732027079,0.56790160597803,-0.176176260254435,-0.796271401606343,-0.199911983165217,0.0834592291371444,-0.251825710473523,-0.574945959119158,0.102732162093503,-1.01749490576333,-0.175450874476268,0.25901217034945,0.333254920853415,-0.292942697782759,-0.116351795683028
96.22,-0.350387494351387,0.0427524146648417,0.560465840020005,-0.220293304028878,0.0245826140071402,-0.419728666398853,-0.683047543645998,-0.347033559704047,-0.22698055732773,-0.491312524556379,0.513728427024565,-0.150152198953886,-0.735484774160917,-0.19033201035215,0.0941900539589822,-0.0305942562849268,-0.527491858774566,0.108239771979332,-1.00696325586467,-0.176117718342465,0.268648575989821,0.412468619208101,-0.25227075084218,-0.104660754617682
96.225,-0.279651930834669,0.00867810876521144,0.548869581304316,-0.205501085791791,0.0380866428520736,-0.414665102958679,-0.65727981249002,-0.400125699301033,-0.200765448165926,-0.445513495318857,0.461969379536736,-0.120739706306438,-0.656842175325606,-0.210423474261759,0.0842009297494629,0.217224161986174,-0.458728140965779,-0.00967011435618512,-1.01633134164139,-0.155338507701458,0.281125419096349,0.474111478737228,-0.244239857864788,-0.11331038125442
96.23,-0.197596548790621,-0.0420578447243925,0.522341645253141,-0.189547082168505,0.085076413824639,-0.387430098815121,-0.632787386217491,-0.403899579878448,-0.162250112646607,-0.358236176515,0.369903137573241,-0.0960227413651443,-0.575712045813587,-0.267147991364944,0.044845031975925,0.433762796138765,-0.380835925731919,-0.270200496127309,-1.01854877102976,-0.124588070720926,0.29672393350973,0.433883703879961,-0.276015028304296,-0.106611232995434
96.235,-0.139248835101514,-0.0828643317118449,0.513755845983298,-0.17860589740542,0.150340556605477,-0.401509189882189,-0.613849676288657,-0.409560015071924,-0.151937253946343,-0.271722574843689,0.284335955068304,-0.0775648734264619,-0.488340719602444,-0.35791204844662,-0.0368671074752995,0.455292160100272,-0.263579311289982,-0.762960041970165,-1.00992867514832,-0.126420118191312,0.284434116050767,0.379986927700435,-0.323242030235474,-0.0871498340390206
96.24,-0.11734178594613,-0.113507754928423,0.522250752769573,-0.172616687478702,0.214668517043254,-0.436205289723664,-0.591498934952575,-0.40331485755428,-0.153853305384376,-0.152369830876979,0.21295211550196,-0.057161251256166,-0.438195725324168,-0.439690612573286,-0.105937841490753,0.317384410894271,-0.135407160090024,-1.1374221543671,-0.987821353455335,-0.116238910901043,0.29453481439849,0.32904763837103,-0.412370867792366,-0.0640121667632179
96.245,-0.132332988045687,-0.146618600676082,0.536135940853942,-0.179237594408717,0.267788990252233,-0.489624395001585,-0.588271355291093,-0.384862847589123,-0.133956884142927,0.0286929065612979,0.135000294359228,-0.0345052611640968,-0.382477077248085,-0.495761680467823,-0.164127969091128,0.102506125189491,0.00517119917152648,-1.43051288589105,-0.986881163634808,-0.101215558116599,0.291624463965185,0.27263723638009,-0.483123278251449,-0.0352549220607877
96.25,-0.169311271568098,-0.116654886797055,0.558075654758476,-0.0915317471710007,0.330593214792201,-0.540711179020539,-0.596024053205173,-0.350591778920316,-0.123926076164451,0.16573260259379,0.0709744911003475,-0.0146726595868176,-0.346315621681627,-0.520781300577921,-0.201771532074961,-0.0684830922598605,0.134797890051316,-1.58364700487594,-0.983630070835821,-0.0737857302913665,0.287958478278948,0.229888456220083,-0.536168324341155,0.00251024228951565
96.255,-0.209903530916526,-0.0696578437407013,0.575974637973399,-0.0982120615138928,0.361842680106937,-0.594532843306169,-0.617504214041409,-0.306303185978179,-0.131787146104956,0.264135612693515,-0.0125244591900043,-0.000849265957969639,-0.338301118695875,-0.513710848405678,-0.243288581342141,-0.156267459412295,0.281247807946122,-1.59080780710193,-0.944926867971171,-0.05096664263577,0.295786777492477,0.130532440311227,-0.561772405959222,0.062339835835599
96.26,-0.331479654272921,0.320891348743311,0.927306146955474,-0.222889274262918,0.201331615098349,-0.567014832663547,-0.651187114162382,-0.235476207462151,-0.175674145690931,0.245473367569494,-0.0995930550492763,0.0107503739118785,-0.345697391197072,-0.479915649996396,-0.277983526743145,-0.22291072881336,0.406670625738505,-1.47759989219278,-0.942158648855661,-0.047193748254969,0.299220563821599,0.0367715844493665,-0.544462856091304,0.132143065790052
96.265,-0.536495488418097,0.511702271702087,1.20917974583,-0.663871482790527,-0.133320514790878,-0.522784690491857,-0.710299539029412,-0.159998942315352,-0.0976212083407832,0.209683086761574,-0.19196819305521,0.0236683373906556,-0.361022780340303,-0.444180358601689,-0.29669673344639,-0.199220506798551,0.501690081065276,-1.33885383902614,-0.894579718911944,-0.039445499575348,0.321518645908631,-0.0448611235876739,-0.493661752208502,0.18725973922416
96.27,-0.366405463127187,0.35157203381103,1.35013680042665,-1.23989283615586,-0.602842842833801,-0.539667773407508,-0.784544312720582,-0.101689087171013,0.0331134028633112,0.0679817798687914,-0.293007766436275,0.0428254830660301,-0.383214392985746,-0.421056680271899,-0.321353742291932,-0.141095552726805,0.564842353729753,-1.2218489621185,-0.872586113629829,-0.049917450157112,0.324800860670356,-0.0963263540839807,-0.431312665624529,0.218408576851374
96.275,-0.196716458175064,0.354841120136839,1.42620142252688,-1.26481355448575,-1.05834037138511,-0.438348038550958,-0.870818009083896,-0.0968986860445791,0.174976409191387,-0.221839891542479,-0.430324613697734,0.0703386504629755,-0.410378109656524,-0.421400905349887,-0.345732315400682,-0.067073007474446,0.599691780147016,-1.16182113925061,-0.837358640299857,-0.0617200239685537,0.303780867798367,-0.141244064682697,-0.385815207248952,0.228829806273465
96.28,0.0225225310507652,0.34125027221813,1.39782664382737,-1.05228764387223,-1.36400113955129,-0.33599235249753,-0.927443415636199,-0.0648905958006099,0.32376648427667,-0.292089904745251,-0.574166760498247,0.0733700154247301,-0.47672310383797,-0.4301982878133,-0.375596480827016,-0.0623143878117982,0.607568942339502,-1.11441469875992,-0.817334190038944,-0.0566250182721812,0.303666488577369,-0.190976764522878,-0.364916569997089,0.217400523555152
96.285,0.161804665252654,0.412794937252068,1.38160672266516,-0.936920056960199,-1.60840874515358,-0.316881176352863,-0.966820525129354,0.00350740580960533,0.411777192923832,-0.395228687925014,-0.739978094038038,0.0907056478286244,-0.540649454559157,-0.430777090790306,-0.395577282117896,-0.119979144267129,0.570522119745372,-1.05385177560687,-0.807395301609006,-0.0718725930731121,0.293483892164575,-0.22271139327439,-0.359979301691055,0.192673350626337
96.29,0.155794053543069,0.514002036289744,1.1987245652289,-0.814197293848786,-1.74200021533222,-0.31475717994554,-1.00121992457339,0.0369742209399173,0.380319483597051,-0.516135810302278,-0.890250193114104,0.140349659786557,-0.617970297765731,-0.417457694533699,-0.400594957967524,-0.13391058554952,0.544847535310532,-0.988124447183733,-0.806920711714139,-0.0585421968404187,0.295895484858111,-0.232536416856678,-0.372635954720912,0.160649147578729
96.295,-0.00577840416144765,0.4519429502917,1.03346202315427,-0.858305412247568,-1.76693944520865,-0.434275182920282,-1.03124257971129,0.0533867223673397,0.233381959291637,-0.65512395274409,-0.999965418757744,0.217914907727197,-0.733702945684369,-0.372531899723046,-0.41306338725475,-0.112320981319869,0.499961523856512,-0.883900122372062,-0.865784233765847,-0.0802304105626742,0.353509321371778,-0.275214018784387,-0.369919343272166,0.12272015149982
96.3,-0.420189269420368,0.361890112104912,0.998842658803484,-0.953969296942382,-1.74655930357801,-0.454809720004225,-1.06134166383222,0.00791366440062017,0.00974618052081516,-0.803680401799133,-1.03710094128785,0.240321882963653,-0.860836471293045,-0.328471150406162,-0.423733677783562,-0.057739772641105,0.4388676376453,-0.785575375239232,-0.843782338884384,-0.106102725304043,0.345809877854108,-0.277652525040214,-0.347869679306375,0.0813114704765594
96.305,-0.786518230199395,0.250560364509222,0.855257014388129,-0.898638496464304,-1.69756414560166,-0.400226713693022,-1.12933768909115,-0.0457730260042862,-0.107471030081041,-0.842019578642623,-1.04893213278609,0.208743399930878,-1.00251857843089,-0.285193701098576,-0.441345409631809,-0.0308954476023336,0.371037278651005,-0.658553429090304,-0.868063650479676,-0.10549534657857,0.348572665719655,-0.245552596283447,-0.317756330225391,0.0482220341884372
96.31,-0.90240057354156,0.133459199352157,0.750539500255023,-0.732005429264042,-1.57053044457854,-0.261633671030142,-1.24233859844855,-0.146260191432436,0.0223825220126514,-0.94271125996312,-0.969241231773867,0.090832507159962,-1.16324897080147,-0.231577081033615,-0.469569269527749,-0.082269873225108,0.29502825125919,-0.503215797537175,-0.862267503414374,-0.130298765710733,0.355499628113145,-0.188418736607864,-0.247820949538183,0.0285883151646238
96.315,-1.22483447825344,0.160680584589079,0.775945571656597,-0.621128305309951,-1.36897800571666,-0.158409718734874,-1.53774475079846,-0.213879690765835,-0.260455913760129,-0.603995660167856,-0.935581532337144,0.115372403367189,-1.33859654529395,-0.169774518827391,-0.480178841091781,-0.225884473778223,0.227696818996916,-0.252360866571878,-0.884792251265787,-0.14458014473562,0.336795063447819,-0.161373640264454,-0.181756934432324,0.0534293145789489
96.32,-1.34057548386744,0.647838166602593,0.993626684451134,-0.463928902458468,-1.04698719965398,-0.0531690306280581,-1.77323651617354,-0.209988537916571,-0.144781000382791,-0.887335572206401,-0.745129245230485,-0.0449925706228544,-1.56370489619633,-0.0663375615107404,-0.46497230417784,-0.249022796067779,0.169653424037082,-0.0152843145343502,-0.927873227822631,-0.139837062007062,0.318440806158917,-0.12392368993556,-0.129427432799731,0.0983015538575631
96.325,-1.06310165417019,0.923584158109672,1.182401460053,-0.536521307059495,-0.723246875470042,0.046919367996504,-2.03340242099547,-0.272987619137855,0.0524723027999445,-0.730539933361579,-0.582275097365284,-0.119639358326441,-1.81239431798149,0.0501740815291592,-0.464778435926404,-0.0657980984408986,0.100983371054616,0.327669971132972,-0.987295777872503,-0.135731454858302,0.28803906442028,-0.108598083602445,-0.117823513818759,0.140404265154434
96.33,-0.389114806901844,0.624862532043148,1.22100918031617,-0.773605955197553,-0.439754444843875,-0.0398396874965879,-2.15937174255905,-0.347028990999322,0.418328314450646,-0.737104542838261,-0.39395816106314,-0.0485783703509284,-1.98994796313401,0.195801083108567,-0.478736199626706,0.436060637304191,-0.000440201384420562,0.792744839692106,-1.02142543029464,-0.14400632666155,0.269264416975417,-0.109299334005995,-0.123553692490174,0.193814847110322
96.335,0.00905708888488673,0.181642295130125,1.19844988645107,-0.635115344892074,-0.204995716398025,-0.152031752538934,-1.93365164336663,-0.358355841874259,0.485862430455389,-0.793013478693519,-0.323070234891469,0.0512441442946948,-1.98944900511378,0.322517985203808,-0.475545860542419,0.770782197437746,-0.0861617370135606,1.01753981847574,-1.0883929928698,-0.126720738730145,0.238733867282716,-0.0934385813056929,-0.157798144648006,0.246307908078723
96.34,-0.111080695262338,0.0124165498844801,1.10765215771965,-0.381367791139564,-0.0825125717825018,-0.188639199776806,-1.47315907121155,-0.398062778082375,0.370250450684078,-0.88937093817979,-0.311379444822664,0.106740026983971,-1.98905699708753,0.484708550560537,-0.455435417799393,0.734094809965187,-0.107929337517681,0.971907321806087,-1.18154331052712,-0.115513681792447,0.231378291676509,-0.0790308337894649,-0.190629086945485,0.287749843209127
96.345,-0.42654748953906,-0.0145220828394684,0.962048776199291,-0.0906946153932015,0.0403811475261474,-0.219894279131765,-1.19343383498694,-0.412251681659108,0.130204823464558,-0.835801401999138,-0.295426730642306,0.128867925367927,-1.99003166108616,0.688612094846789,-0.334716571008523,0.351137763341607,-0.122385821640178,0.862667556244053,-1.20198989898962,-0.107450307979915,0.233459155516331,-0.065941149400152,-0.215033203629265,0.331563427637846
96.35,-0.643661540042644,0.049392655883168,0.8667081383432,0.0408792405985318,0.063326148250931,-0.220697855121009,-0.699258268303986,-0.330067118169746,-0.11475899915319,-1.4386511232795,-0.171910697008279,0.0223210308067995,-1.99210180491184,0.805298773271798,-0.167292277849681,-0.159871456735277,-0.151365329263074,0.895499392201703,-1.2732798321488,-0.0647715282608959,0.232319297785091,-0.0693250446154887,-0.21826918191146,0.357647231993588
96.355,-0.789562659203985,0.188168620478608,0.750502346345843,0.153065051053328,0.0593886149425547,-0.15076315951645,-0.729231916387298,-0.334788368737456,-0.429893024261623,-0.728067471329033,-0.284672857417295,-0.00990474424401468,-1.92225332042509,0.857601016238048,0.105389648179604,-0.686622338007493,-0.113463000596307,1.06304190109112,-1.26222236421965,-0.0433144668368765,0.215448564510338,-0.144795741693234,-0.177583558779469,0.391925055761607
96.36,-0.784005075794803,0.2952326323896,0.690118355394762,0.183168749062736,0.0613584028020182,-0.0156442448933356,-0.694505057191117,-0.178077033626068,-0.325100256323361,-0.497898857474764,-0.14752859992533,-0.056351824088048,-1.51874357543241,0.762789355901138,0.20389136013757,-0.561129634883939,-0.046503127747122,0.983752145478417,-1.23363014351268,-0.0245822817552859,0.201842413948883,-0.216158100540518,-0.143919184357007,0.418029867634285
96.365,-0.721224753802202,0.319797900967678,0.695850566137154,0.134006872871124,0.0759939511013592,0.0782305984294246,-0.684571809788783,-0.214509199542131,-0.310717092892743,0.00794266913816699,-0.208935056264626,-0.0295327412849454,-1.16630158253047,0.654239888944991,0.171485405282933,-0.161043239508301,0.0869499913717441,0.522404384813639,-1.16205793363075,-0.0124006227595408,0.180301030658437,-0.273433687587201,-0.0889231053190653,0.436116419446586
96.37,-0.643857037195069,0.27780199401463,0.756069876416015,0.0821918743110913,0.0837870893789417,0.116462068663334,-0.779364287407699,-0.0486145891634954,-0.157743797631776,0.198303844280262,-0.1280641651702,-0.0735120389480771,-0.822181559967394,0.573313662846979,-0.0478169009049423,0.123576929667296,0.138713321312811,-0.041111401841417,-1.09426022225451,-6.33290432315115e-06,0.166440144019537,-0.271989810166413,-0.043187969477887,0.419270607829849
96.375,-0.544046423133171,0.286614922059229,0.776684145278541,0.186699894237325,0.108844375327867,0.137115644200999,-0.926584165595474,-0.0886874486557434,-0.154825154365544,0.504802800765474,-0.200057596147608,-0.0127338431154885,-0.607227220921476,0.47759103025051,-0.238134315726578,-0.0312315566898663,0.221462989732173,-0.784675102462565,-1.04336779469845,-0.0112361352371622,0.171677200854316,-0.187395179543831,0.0457549643423467,0.394046591357408
96.38,-0.509986410817257,0.354964808827565,0.778295760453003,0.206385640899658,0.0941533959551759,0.135491945613929,-1.02655702321432,0.0353337485539402,-0.0779635518179994,0.766526123654073,-0.236741429832633,0.0246044906611436,-0.413962815958572,0.290942668110307,-0.368375997593981,-0.383818151656169,0.25109420383198,-1.66875580804655,-0.998587099557389,-0.0010312287839802,0.200757226162911,-0.0881271343424894,0.15068827093557,0.355963081674183
96.385,-0.500974531549277,0.409115783123181,0.766175829741328,0.197463617317024,0.0930862358082535,0.114407627613726,-1.08483812277247,0.0652319436859506,-0.0762461470786041,0.596026529241587,-0.247608776443496,0.0420050641286517,-0.316279788824208,0.0971085603327525,-0.416540776448233,-0.51562272071371,0.232717197379007,-2.27740364956921,-0.956003437055555,0.00619133697470827,0.215917055932053,0.0255395593176187,0.298321752336409,0.299853986587066
96.39,-0.49950325087228,0.4435086003536,0.760421727034321,0.151012395528392,0.0706477233340603,0.0709814192260268,-1.04841472494235,0.116288891209473,-0.0616545634838404,0.693775735172389,-0.308626137615872,0.0377309167503412,-0.291768476452149,-0.115711750627762,-0.414717975169714,-0.274943411268818,0.183187357324503,-2.67820344868462,-0.913680605473343,0.0131616107902045,0.20360594766562,0.1074434238806,0.425637594885959,0.25234082579809
96.395,-0.517153613772809,0.412577033791777,0.768407509149892,0.116327315568924,0.0496052356501063,0.0214111383499893,-1.02393007091311,0.118693184958995,-0.0558341350763315,0.572328812027034,-0.282334606509534,0.0187734326480536,-0.330238738916793,-0.221826639459605,-0.370677231591664,0.138310696415376,0.151761957978685,-2.64909752693439,-0.873726492826268,0.0088127982187216,0.16080649579192,0.208633423094907,0.527747489415984,0.204255570416716
96.4,-0.496893730620915,0.423132314681282,0.762987453410417,0.13851353247518,0.0352770659429076,-0.0330795034684006,-1.02995265173304,0.100544210179544,-0.0581273197313156,0.614038094565257,-0.269303899716478,0.0624973293929777,-0.432736481717172,-0.365680220562896,-0.27717270680491,0.46813273658389,0.165037144137641,-2.33535512814246,-0.841247515507388,0.00256256104853257,0.102387901630427,0.296364221397395,0.551283052810922,0.160840188875406
96.405,-0.498489948773663,0.428001928639102,0.759947841703464,0.108766030525795,0.0290090683847666,-0.047857221203119,-0.991970576324203,0.0863949873730394,-0.0391664380715057,0.802342291562256,-0.259106724680182,0.10653753522265,-0.514676702373973,-0.438410677231122,-0.196984295358893,0.633319898167054,0.217752501188317,-1.96262566122471,-0.819266181868165,-0.00808647039677429,0.043735205371338,0.378511155629858,0.532665503844291,0.113535940107367
96.41,-0.520555324192941,0.390655799123864,0.757144307430982,0.0692191145009361,0.0158347970955867,-0.0829203931799249,-1.00110513670998,0.107373389003875,-0.071267091818554,0.688386249710734,-0.280544269689462,0.0429739452155491,-0.629875499496876,-0.5181934899527,-0.0780311592970776,0.652217072125785,0.334768614909509,-1.28517979882678,-0.804868431313786,-0.00630248931921455,0.0065081625440014,0.426499320230624,0.484981602373413,0.0265518645728033
96.415,-0.525328886805369,0.358831535175029,0.765158510949388,0.0598906617725673,0.00477023000923607,-0.106567119928001,-0.955442886666632,0.0614430745124679,-0.0424598707873279,0.530545560771694,-0.224164722845974,0.0677769876051376,-0.705181616286603,-0.578907362883195,-0.0355976277623169,0.394067274514835,0.42071398425897,-0.622646249720017,-0.809512179840232,-0.0151813962850834,0.00577081126634927,0.407946391124102,0.446737646856898,-0.0710080434786456
96.42,-0.519621741363653,0.340063726689223,0.766275917538235,0.0549659519116666,-0.0123670717919086,-0.121735059564212,-0.992446116510855,0.0445109173376174,-0.0358706892179972,0.404555212542982,-0.208977953906702,0.0613324526378622,-0.773228505076618,-0.643000766131163,-0.039171218821653,-0.17784064036056,0.422665258586715,-0.180063252670987,-0.813348192756051,-0.016104310713067,0.025004101910009,0.354498333967404,0.378279579990755,-0.178657675812169
96.425,-0.533254942898793,0.329874366283377,0.765915343843871,0.055399237210178,-0.025183917954842,-0.131952177294576,-0.980177433399797,-0.0332146277301749,-0.0655074370252068,0.359415208633999,-0.177253036825476,0.0604521645603653,-0.880545900354631,-0.641357643545122,-0.0750947779061539,-1.12236591944824,0.261281623597957,0.317386392496166,-0.830107529899465,-0.0168769184225215,0.0509155703300993,0.312198155161884,0.277090096310422,-0.273255439518718
96.43,-0.543072673848397,0.322439084388254,0.762025178321402,0.0458966533029991,-0.0437022636838933,-0.123107746025878,-0.936879967707986,0.0196635857725157,-0.0385061527368213,0.361048096129089,-0.159015368824565,-0.00269415680765813,-0.983893353714729,-0.53591668154578,-0.0520228743117951,-2.03969040472565,0.100745306551625,0.46786423180945,-0.861360846177996,-0.0248145646742446,0.105030439708057,0.281766165573549,0.154497574441039,-0.312008748281024
96.435,-0.549427783050425,0.314749412375697,0.759210795634385,0.0491341128945351,-0.0599141181323242,-0.123289175389402,-0.958955440783242,-0.0436135611936968,-0.100903440389085,0.381743293589204,-0.181672791085818,0.0144707636860111,-1.07157723642369,-0.29158963934219,0.0471939287240135,-2.43478171230131,-0.153963682401188,0.460861041200255,-0.885718170378246,-0.0158106839354693,0.153834923530249,0.300266873994743,0.025272671606444,-0.307288922275552
96.44,-0.547080326823748,0.316749518103418,0.760543328804606,0.0448331664788819,-0.0681406629293095,-0.112775568242495,-0.956922842132137,-0.0190786570962298,-0.104883150053237,0.321815722251721,-0.173000299083655,-0.023771891230149,-1.13531664774542,-0.160574888918787,0.110483929082619,-2.22374359265496,-0.33395056042793,0.400532217252882,-0.926764593253674,-0.0164672587110121,0.217051988458376,0.318657066958585,-0.106374187235935,-0.219848312781364
96.445,-0.539675136545126,0.324015012290816,0.763102155137364,0.0344524293752535,-0.0711698830127716,-0.103990397946359,-0.983956127010355,-0.0121603457269153,-0.099267795568862,0.221125324389653,-0.169493945465726,-0.0512512200950901,-1.19963632372899,-0.111872050526927,0.180455686883187,-1.58463248965429,-0.497750166228616,0.278200794107729,-0.972311195194814,-0.000470432750476066,0.268709444638159,0.311361872712321,-0.194190039121362,-0.0295585842651
