Header,foot_Accel_X,foot_Accel_Y,foot_Accel_Z,foot_Gyro_X,foot_Gyro_Y,foot_Gyro_Z,shank_Accel_X,shank_Accel_Y,shank_Accel_Z,shank_Gyro_X,shank_Gyro_Y,shank_Gyro_Z,thigh_Accel_X,thigh_Accel_Y,thigh_Accel_Z,thigh_Gyro_X,thigh_Gyro_Y,thigh_Gyro_Z,trunk_Accel_X,trunk_Accel_Y,trunk_Accel_Z,trunk_Gyro_X,trunk_Gyro_Y,trunk_Gyro_Z
65.965,-0.27193380510402,1.16165451270576,0.328261923245938,-1.75967170574653,-5.22279329862513,1.54772834604401,-0.689172912246546,0.0530426141971827,-0.282061149308495,-0.0766382561284921,-4.13993551338796,0.355840080398919,-1.19817541870637,-0.438667873646042,0.108440931624201,0.888869904214411,0.165651075040862,2.16639709220562,-0.893361587314416,-0.0388491275228785,0.182620248379124,-0.911782844660909,0.277015385930881,0.0772415570347929
65.97,-0.310852466882773,1.12464728697142,0.343160005120012,-1.7353844636281,-5.09044898692751,1.97641437013059,-0.694913429779481,0.0709660813816181,-0.28589639099044,-0.254051462418748,-4.38386389082403,0.485516476864622,-1.16300018157818,-0.432696122954627,0.106967867414622,0.688995630143641,0.117271022918998,2.15242353257561,-0.901266114070043,-0.0677370025338819,0.184897488770662,-0.962139572495632,0.322378041800498,0.0704427641672751
65.975,-0.348234525156852,1.08002179974276,0.350126019577544,-1.69189282644578,-4.93429225575209,2.43711184459371,-0.705790354106098,0.0599175549454593,-0.275274010921108,-0.56655231491778,-4.55737021265283,0.512270917960399,-1.089729000188,-0.433600566935776,0.121015997980899,0.706469594113503,0.0978358211229495,2.10886374189824,-0.905135763990642,-0.0864280052540097,0.178378499717427,-0.965883348368953,0.283838062035063,0.112544879147786
65.98,-0.393112744638711,1.03854663296006,0.398930500050393,-1.64049302076678,-4.78273582701507,2.79993700081988,-0.740469740022379,0.069815417816162,-0.300423870287523,-1.01206816654631,-4.76653824336819,0.542841814959482,-1.0292776160829,-0.466133041349719,0.1213229555326,0.852836888868675,0.0653157731101187,2.01748846465942,-0.919173579789931,-0.105650399934714,0.18092573690491,-0.959708875426452,0.153569069179096,0.157241217587107
65.985,-0.529170417819818,1.0032356903688,0.455915870459568,-1.60613826157587,-4.65754757098158,3.12466970392667,-0.761127785920653,0.076515684560516,-0.364341976619649,-1.42115598303933,-4.92701807723124,0.578992789003572,-0.961460049270581,-0.513355204014938,0.121252164535907,1.07664089091791,0.0304064890643524,1.9383648713637,-0.913214671138272,-0.0964384791750239,0.178847024110544,-0.945194210031362,0.0242477516568021,0.18402869577547
65.99,-0.665884648603153,0.997367627430223,0.508553999264545,-1.59452516874254,-4.58925515203884,3.35354771537464,-0.770915610089701,0.0479329479966972,-0.466629644927789,-1.68232289120333,-5.09292520486234,0.619211135591693,-0.890137092289463,-0.542419560439603,0.101874762332479,1.28075518231992,-0.00215332391607842,1.87652871716192,-0.903765871611747,-0.0895302252641991,0.176978798405327,-0.95038913498002,-0.0818351051680842,0.216763691040891
65.995,-0.832285766720346,1.11343588889459,0.566129285820711,-1.48110072128782,-4.59339089985263,3.61515428768902,-0.790931027023612,0.0136936407746832,-0.489231055324013,-1.80638297556495,-5.26794163853377,0.710958661373797,-0.811353830769942,-0.549770891882754,0.084673961106248,1.40234526052002,-0.000800315327833632,1.8113479348174,-0.893637939608988,-0.0717602216094713,0.175556172054034,-1.00087504705924,-0.142303072911633,0.271131939001708
66,-0.95274708658654,1.11858397462268,0.565626678568889,-1.57191817955864,-4.67370714324078,3.78484043729783,-0.808994960677648,0.0102597495569394,-0.530529371314601,-1.97545609698489,-5.35913933436231,0.785830635361042,-0.734093135566326,-0.530651858007433,0.0594487057213604,1.49388540095377,0.0215947344727131,1.71129777512245,-0.882935584205942,-0.0443785906068443,0.16841955651942,-1.05962265152292,-0.156397370283551,0.291296153772012
66.005,-1.05980479147037,1.05107747886856,0.539536501978813,-1.72189141409569,-4.75222349084091,3.94107413267625,-0.812387026705616,-0.00442480560202152,-0.607856043488336,-2.24172203637187,-5.46887668488841,0.853972511461814,-0.698856224022917,-0.537817655546131,0.0442600982269899,1.58205477190457,0.0550713166945715,1.60530449118715,-0.876562450956358,-0.0153966272159832,0.15312360277049,-1.13245844346156,-0.159539579932781,0.299102634191513
66.01,-1.13652188273758,1.04732264160915,0.488303596098424,-1.74775088445188,-4.83290422534239,4.04279121785294,-0.789616500470633,0.0103917706999475,-0.619405373764996,-2.23207354155726,-5.58785022641843,0.929103481772719,-0.618528489402335,-0.558691259374351,0.0322704525118599,1.69623259956769,0.117613070851264,1.46446583311852,-0.870662097728412,0.00802686074146193,0.141940029322291,-1.22886347329028,-0.157655095790287,0.299102634191513
66.015,-1.21089463527009,1.0354374346526,0.413300495066655,-1.8201760447089,-4.88760385523909,4.13131901552481,-0.839569030781739,0.0272236737410773,-0.613742041390107,-2.35741139796008,-5.66389383591712,1.0368911297694,-0.61224002045955,-0.576431364542392,-0.0010938099103813,1.80956697477117,0.2042774597328,1.3120772063599,-0.86345555168025,0.0218117179048925,0.1239667280277,-1.29997501813471,-0.152562799860678,0.298197663298255
66.02,-1.30013123911542,1.05250030560117,0.3121428398597,-1.9461053557276,-4.87865426555627,4.19401151865786,-0.830711158006559,0.0523826428574344,-0.628240405147144,-2.3356152710546,-5.72736912483528,1.15907151195413,-0.513133774583789,-0.58664968092574,0.0199668596345487,1.91282547562824,0.297456786146118,1.2110471059248,-0.87164277955675,0.0346038283640536,0.0998215301972693,-1.37207261942341,-0.146182775497437,0.300776723094087
66.025,-1.361921446069,1.075785205376,0.228983654655414,-2.08619758540239,-4.80909654445735,4.26796157641172,-0.891331239089004,0.149629593007445,-0.666604804345476,-2.42960985821152,-5.71964867760633,1.14244619182784,-0.472348380562386,-0.580173800385174,0.0574139099279816,2.11098838957492,0.322194708831227,1.06649200782291,-0.875439467107248,0.0443552225233906,0.0823049051367969,-1.45710157794752,-0.153184198117838,0.301546037197113
66.03,-1.42376369554406,1.12493859721367,0.141710212235919,-2.26347757592019,-4.6476098551187,4.40447950395168,-0.959178409999231,0.166462358458531,-0.711962077727594,-2.81951422113137,-5.74007180109654,1.1260227665457,-0.432116817540971,-0.581053147351705,0.0755023980306973,2.17912183332252,0.361310189074981,1.03205461779304,-0.878240314772999,0.041970177997801,0.0701677926713321,-1.50426471984228,-0.165946835851161,0.308122639828554
66.035,-1.48480938820264,1.19288674996697,0.109473691843014,-2.47318645461071,-4.49438322432423,4.53345704885917,-1.02893677001071,0.162370116576306,-0.801583104569992,-3.03682454413309,-5.75014880962635,1.09431171790666,-0.352232776034236,-0.560894869507258,0.0798792185010427,2.20839395284326,0.419460321382654,0.956120196093369,-0.894566302404614,0.0371794337393139,0.0626019752971322,-1.52734225904203,-0.19826835267628,0.322034854811025
66.04,-1.57724791391119,1.26597289634594,0.0656485470811243,-2.74976452128898,-4.29412430273101,4.70084890069953,-1.11065452857884,0.204385420060907,-0.850906188729211,-3.36986559892656,-5.77871173781724,1.04246908639493,-0.303433164992871,-0.54854611772226,0.0745690043029827,2.22347524619142,0.468173612463027,0.83187738955792,-0.908305685758529,0.0234257799346221,0.0502378806701713,-1.56067940162741,-0.251189605049217,0.331439199692809
66.045,-1.69034050109348,1.29708196802685,0.0150763690455599,-3.11095658774097,-4.03801871722799,4.95915958134852,-1.16153095307371,0.223069255472035,-0.899533025790604,-3.82180152559097,-5.7788729660496,0.969706655112023,-0.285235970992722,-0.529511461849416,0.0761011328540649,2.24989681031038,0.507459742681865,0.718508321899186,-0.917841101344869,0.0080077246201977,0.0386366175669804,-1.59716313335181,-0.329742129773066,0.34754816098627
66.05,-1.78240675218343,1.17903491813856,-0.00154657680026787,-3.38600126259308,-3.84520296209565,5.15934296447586,-1.22657877378873,0.174240746343679,-1.05855815712288,-4.48053905489209,-5.78271192444958,0.839316485590919,-0.264022855466896,-0.513309952454596,0.0941384741327125,2.24317686399067,0.536047909403974,0.645179796604332,-0.918443324507432,-0.00937991851534458,0.0196088266622707,-1.62527065237458,-0.427853245004327,0.370669991478274
66.055,-1.83492585089638,1.00480496657531,-0.0413032763704591,-3.56393736860329,-3.4961509195343,5.47053617332422,-1.28656189921758,0.105527019515297,-1.11473094234105,-4.74964545757813,-5.79236778194212,0.706721795862655,-0.230573439609084,-0.503691192307697,0.126004373061116,2.27226671364193,0.546381792100521,0.567952244505353,-0.916551037172931,-0.0241425320840041,0.0156249227074571,-1.63786020216038,-0.504327761917323,0.392408918480254
66.06,-1.86912393247125,1.0253197116518,-0.0541018418812614,-3.53625505566799,-3.17740729825458,5.70292269806121,-1.33905273095033,0.0919048737054006,-1.14402588587992,-4.85578258189523,-5.7751128259694,0.53036521150905,-0.23103114557657,-0.484905592765785,0.185685618968285,2.40086771851801,0.487381209723206,0.442174781601731,-0.913409309853682,-0.0362824531696625,0.00440048303981337,-1.63270588515831,-0.571148674892334,0.405390053987503
66.065,-1.92705679636398,0.959529720218505,-0.0823949650579501,-3.64177604665238,-2.91097077916552,5.81795903262289,-1.35447241613674,0.119201652990159,-1.21794455207371,-5.00381720343407,-5.73261289876468,0.344886409901511,-0.254587017421307,-0.455414927090254,0.262173197700848,2.5867499506821,0.409143578458963,0.328224815180479,-0.900131305531578,-0.0526869192262643,0.00595633509616604,-1.63067058662397,-0.640726781801819,0.410521551350309
66.07,-2.00839636776036,0.82552180028828,-0.0924626160711706,-3.70217728346398,-2.55636409040816,5.89281374914324,-1.3578680892155,0.119001101614783,-1.26750355015355,-5.08342055919244,-5.681011496473,0.192709651803718,-0.316703757143883,-0.396219762804561,0.366323993125664,2.81664305926971,0.292912546350434,0.207694566738126,-0.877963020644273,-0.0670357788061687,0.0236173465760743,-1.6269758889362,-0.687182319272504,0.413941919803619
66.075,-2.04956789035523,0.720602070910637,-0.0764204811264105,-3.73455086101163,-2.3102319140634,5.87569740640608,-1.37793049572425,0.0880377046042185,-1.31897146485223,-5.05870769788772,-5.60188663810568,0.0987360173472606,-0.400437285086479,-0.344526676948903,0.435901466052279,2.93349668334469,0.17807826466547,0.155187306666287,-0.869455814353055,-0.0825324469552539,0.0428606128510868,-1.60269095498159,-0.703630464689294,0.417107565325141
66.08,-2.0617953475524,0.648599823316877,-0.0544516859076317,-3.70514660058727,-2.07827320415474,5.81874156635754,-1.38832256579063,0.0542302539571505,-1.33621098656975,-5.080272274147,-5.55288853007055,0.1444395064396,-0.486246345463012,-0.282354025030934,0.503220229701187,2.97480733687052,0.023608385740723,0.150729250644405,-0.839650837835112,-0.0993418793829264,0.0771071067526669,-1.54719584244044,-0.684642729719226,0.420638341654583
66.085,-2.04269617390877,0.611137767100099,-0.0312336315749783,-3.64863980691417,-1.83948207811708,5.70595127138245,-1.39563117346025,-0.00804678492690537,-1.36759479087467,-5.04365281376055,-5.46094847875824,-0.129609184340965,-0.595483066819938,-0.197463963157205,0.542807763274339,2.89195050386189,-0.148516697365274,0.181578662028912,-0.821121011379181,-0.109905820723228,0.10779510449178,-1.48557161471274,-0.638866604185765,0.416117904014921
66.09,-2.01708898025238,0.61385470998436,-0.0285487353536096,-3.54535161613044,-1.65575995347133,5.53664273262702,-1.38919718288683,-0.0472314956765826,-1.37180722023438,-4.91164527999136,-5.39599436483172,-0.194881801266853,-0.717746224595564,-0.100546214120643,0.546399770991267,2.68317753257531,-0.29537777365435,0.237318164001081,-0.809243367432704,-0.125465124374151,0.138964908711921,-1.42000556528489,-0.562879707410165,0.408760345482876
66.095,-1.94866684622548,0.6505763353702,-0.00198370134347172,-3.4806346606326,-1.43042747412659,5.25738281192157,-1.37604592853662,-0.0522449634940502,-1.30712497839333,-4.58989107147375,-5.2629483038827,-0.303056297728977,-0.827973989553052,0.0345159306087768,0.496338189055864,2.33160992012737,-0.461245417183559,0.338848586138427,-0.790477382407568,-0.144070923120576,0.158575980160604,-1.37395579025796,-0.485494997250901,0.407996201386247
66.1,-1.87599435569048,0.65765391210864,-0.00297515928921862,-3.50006022079112,-1.26397735306848,4.99474477593005,-1.3778859964762,-0.026876499362869,-1.25822350129949,-4.37632135865143,-5.14523299000494,-0.377062477431349,-0.906541513230986,0.11820699819943,0.41780596468197,2.04377970171005,-0.560837148838481,0.399534586796052,-0.777512284897592,-0.163725501489804,0.157427240903089,-1.3331871787906,-0.414236448842032,0.4081208808668
66.105,-1.79733657307429,0.678811013672188,-0.0198575442371464,-3.45808224583373,-1.06590298037965,4.66139967063622,-1.39923506382318,0.0101273641187367,-1.20743995117201,-4.1743697995756,-5.03429652819095,-0.447940018679861,-0.963806562812017,0.164707345772064,0.308848761796801,1.8381394901032,-0.610176034458813,0.374892724522372,-0.762415242802142,-0.17645818847625,0.150723384888507,-1.32790793340931,-0.353107159609484,0.403592398610437
66.11,-1.742448433415,0.737860340937996,-0.0802517175426252,-3.37584819232876,-0.875050301941427,4.33594402300868,-1.41846340742503,0.0743226849783451,-1.17083745626381,-3.97265211911889,-4.91175517035646,-0.503482957254123,-1.00180020202444,0.166932472354794,0.190352416902021,1.80128786235661,-0.619829581526966,0.19894207494405,-0.747627521658628,-0.188114334585843,0.13787020998135,-1.3662639092513,-0.303079711287416,0.39435584009367
66.115,-1.73092407063379,0.868957319138632,-0.162461787985728,-3.28206182395521,-0.675381093695933,3.98962157377552,-1.43927315545371,0.152774995159339,-1.15876777638119,-3.84303021942624,-4.78642133343524,-0.537471266629099,-1.02903341324655,0.155923353957243,0.0618436395054491,1.88659731749263,-0.599796207246261,-0.0551272047467213,-0.74397620321001,-0.193689093105386,0.121788801544491,-1.43056875744973,-0.271902004700096,0.395456584136686
66.12,-1.79290947798818,0.989249022426558,-0.2872418579376,-3.30358245788744,-0.443051739583256,3.60757998873958,-1.4376317601304,0.26440367072961,-1.16835993387412,-3.74773645177847,-4.60535092087169,-0.550386463142162,-1.05609689643983,0.16132731681937,-0.0701318843703369,2.02384759192401,-0.571570528427107,-0.31262007108756,-0.746275463769112,-0.194063198190072,0.118746893467991,-1.53546395584011,-0.249878550818976,0.39400749864819
66.125,-1.84738716189595,1.00947592993896,-0.392842921929109,-3.41507248809235,-0.199716203029017,3.25166428213391,-1.41713321149022,0.34234216331906,-1.19846227768219,-3.66600432680281,-4.42120165876463,-0.547738884060538,-1.06776035075925,0.179672807067397,-0.211384434060234,2.14674421346165,-0.532321349399685,-0.522848374988288,-0.752551889071035,-0.182308531419326,0.119962035260792,-1.63279286300742,-0.226212269711025,0.397697555912667
66.13,-1.84457725751993,1.00002923842617,-0.523414326635413,-3.41339221819506,0.0321120277101885,2.96168286850727,-1.37902292939725,0.407892737450531,-1.24463521379088,-3.59263040779863,-4.19747113025105,-0.546854405413332,-1.0545143314766,0.200738213315632,-0.309308784520398,2.22648365294456,-0.50208053331586,-0.635286912727715,-0.757390831386717,-0.157108007473308,0.143802919751029,-1.72078044981746,-0.205080104633935,0.400503277778625
66.135,-1.85069659620044,1.01991807005882,-0.620238486578124,-3.30792620098378,0.263928595792676,2.71331545823099,-1.324244828519,0.443710042522755,-1.2634656668473,-3.53226820466268,-4.00473414843293,-0.536246062720868,-1.03227099450946,0.228471603081271,-0.372222743826727,2.28244829070769,-0.472295109748297,-0.742166961908884,-0.781330241663898,-0.13560604354023,0.151229953261833,-1.79930090550583,-0.16665976257715,0.405390053987503
66.14,-1.87821554056609,1.04569957367105,-0.713290286642617,-3.17640699172544,0.535985871914046,2.45504472769254,-1.25597673281741,0.484368035235895,-1.30723169481148,-3.50307347324424,-3.79918255782576,-0.493683268748686,-1.01542433723573,0.258261784372697,-0.409314451010221,2.34371160083702,-0.432494525293213,-0.761629169957129,-0.813710871071655,-0.109012113101228,0.16868516443692,-1.89835432879903,-0.104077766744302,0.412717108466544
66.145,-1.90276487935586,1.05201814345176,-0.78438209903298,-3.02518523938666,0.709050204335635,2.26927612757279,-1.20683327042741,0.494617168674182,-1.34447354963879,-3.51217288301681,-3.58428330946719,-0.424766356021345,-1.01408525936498,0.275389734978531,-0.423883887737112,2.42682756889055,-0.391101967840449,-0.716913155768956,-0.842175636871306,-0.0930596649475612,0.182650424304976,-1.98759980401917,-0.0346295032178038,0.442400050845877
66.15,-1.94279237108031,1.03379059388569,-0.848239832826521,-2.85043150952228,0.914988843616098,2.07412617243951,-1.14733289553216,0.462863283594212,-1.39208007860438,-3.55158942758262,-3.37811590573532,-0.346454169439728,-1.02723783116279,0.288535352624799,-0.421294426849021,2.58010926533886,-0.316757302725663,-0.616922041137595,-0.87327755086471,-0.0724950450711706,0.20321999658723,-2.06124444462131,0.0269317989049267,0.471178528871307
66.155,-1.96163616212094,0.970796949379245,-0.89885052680888,-2.69467616913037,1.06882990949968,1.95777417509559,-1.07271101039539,0.424890276367732,-1.41929910655181,-3.54626517176448,-3.14156050327631,-0.267295804807616,-1.02499868655164,0.292385610757676,-0.393292746790698,2.75705032479566,-0.22229351488884,-0.484315044565216,-0.906295033688265,-0.0518501535561152,0.226553109232461,-2.09763709469528,0.0687020400912893,0.499971308344217
66.16,-1.98470798439521,0.850661751642458,-0.935009944407024,-2.49015015925306,1.19350050521253,1.88887860675956,-1.00041359060283,0.340862197716875,-1.41370858250104,-3.43945865341506,-2.87850625685635,-0.180544955032998,-1.03535487623984,0.29690214462274,-0.372029110621691,2.98480928010913,-0.124006653858426,-0.373908072251507,-0.939365906974091,-0.0258292814090685,0.233589812585096,-2.11329989278894,0.0933905633651095,0.5225483235485
66.165,-1.98863391030797,0.72434300596346,-0.95074819574323,-2.22118419898161,1.32750924999979,1.87694364698632,-0.908069737281815,0.262147957813609,-1.39462940556635,-3.27974650307965,-2.60796609198923,-0.114680725149905,-1.0577230712553,0.307031875520685,-0.334018229250655,3.15987322037815,-0.010161907206131,-0.288737906562635,-0.966676547226592,-0.00781263701539485,0.230168518069286,-2.12411992335011,0.0966220763404868,0.545173385906487
66.17,-1.96353150413068,0.635108201728795,-0.961327741230889,-1.95680591613171,1.44285958345744,1.91558786603968,-0.840141949176362,0.230975216315938,-1.38825066481772,-3.14674845438804,-2.37648993932418,-0.0749632387767689,-1.08165782525115,0.312160982365749,-0.286622242220695,3.22911379619783,0.0923050059083183,-0.241478097111243,-0.981882796508491,0.000875911361318526,0.222846176355177,-2.13229942923052,0.0893562910786653,0.557290460841852
66.175,-1.90685101180397,0.554442684781815,-0.965073054265854,-1.70332680566101,1.59029077987171,2.01256634777898,-0.775280385355821,0.171769124186038,-1.35689495975187,-3.00367775527619,-2.11024763856463,-0.0534622779708499,-1.1028714415974,0.31603489885206,-0.233724852473069,3.2205439038068,0.185191500120682,-0.212314398624336,-0.993644958915855,-0.00864294444027301,0.22380313882672,-2.11013059523949,0.0599291612464652,0.561011571154866
66.18,-1.88475054961757,0.518099599894777,-0.98889033789662,-1.51740645447904,1.71789681768358,2.10715395293935,-0.727610938093858,0.120711295235839,-1.31463768135646,-2.79988344293282,-1.88899504663786,-0.0688187732481676,-1.12693710987945,0.307121104704008,-0.180105848249631,3.10961870585539,0.278944603437256,-0.152626350375855,-0.985937407965553,-0.0306541480660874,0.245016179599942,-2.07306856820217,0.0296281505617498,0.572078767143118
66.185,-1.85705935706288,0.519711498622523,-1.01203902929754,-1.37302354439681,1.85687313860105,2.21047789256452,-0.68989494338611,0.0956551052485074,-1.23853998809079,-2.59040091877367,-1.63058498583394,-0.105231227650554,-1.13076973809445,0.278620619531201,-0.144619184749515,2.95933755722622,0.330542438560779,-0.0955807900507502,-0.965661533215838,-0.0596840556304308,0.267582076666831,-2.02582446792919,-0.00160331071460603,0.59876412229793
66.19,-1.81490478564881,0.538606470856425,-1.03103191301764,-1.34587801266059,2.02772638065344,2.31706951463818,-0.677901570126576,0.10945822615396,-1.17809433102238,-2.45246560203869,-1.38565542220847,-0.140928695971915,-1.12329432881987,0.244812543451355,-0.118588461976638,2.79385133779759,0.364964938997138,-0.0428285920470468,-0.935398037982624,-0.0812752107747554,0.286157266126757,-1.97671806587417,-0.0269735048421302,0.638906819737703
66.195,-1.75649258345656,0.540646501818923,-1.03293548165467,-1.40204083868437,2.14634274758736,2.36847296621099,-0.702493496398964,0.143047288040992,-1.16654072159374,-2.35463996480279,-1.18881343925179,-0.180571741009795,-1.10562445489372,0.20580802405641,-0.0926459085012956,2.58114452174959,0.364357010450167,-0.00265111589987017,-0.914067612111184,-0.104678966141271,0.303942917621478,-1.96991924162479,-0.0321452516123288,0.666247101288951
66.2,-1.68532250314066,0.541162642937723,-1.02720416676893,-1.528543736707,2.36834588447151,2.43127543626468,-0.739251404585114,0.159393713787062,-1.10787382614937,-2.29431147173759,-0.982256054385227,-0.205168340714223,-1.08808953515062,0.193041282038178,-0.0754031059181771,2.45928002957489,0.34168621536831,0.0596497595161305,-0.888808004584904,-0.115491806692183,0.293178645802605,-1.98618592579996,-0.0280113412446833,0.695821820688601
66.205,-1.62873134267348,0.529099678565741,-1.00108126104888,-1.64956006997784,2.56445725639095,2.46720990602488,-0.767566813253458,0.153671653799176,-1.06171873644111,-2.29217508041962,-0.825380556336581,-0.201556307911233,-1.05838681622162,0.199127201172647,-0.053026657681047,2.35093441151009,0.296423237956904,0.177173715523893,-0.866587604864229,-0.120011899725005,0.279325715657831,-2.03034741890626,-0.017178771440455,0.712885362427744
66.21,-1.56826491762267,0.495352993203291,-0.948227393597929,-1.74211333381845,2.72192959192185,2.47928895515402,-0.781995644276735,0.13735192034882,-1.02654613709194,-2.35202208697939,-0.670632743967766,-0.189830875655532,-1.00872925444549,0.212979844360418,-0.0294828816723796,2.2838238038585,0.25390797361643,0.284985669367763,-0.841465302669151,-0.127278028748921,0.248055868897391,-2.09752909614375,-0.00767773440991383,0.71383317529187
66.215,-1.51232660494752,0.43212574238844,-0.910903960143829,-1.81299051942576,2.86192912007758,2.47511089474917,-0.779930588037089,0.122549735262462,-0.98973810763167,-2.41824460465914,-0.480868031596889,-0.178660082722616,-0.941188447878285,0.221522287013088,-0.0229943582235121,2.25069041774053,0.216892963013687,0.347393730136996,-0.819249703701804,-0.116169375989503,0.227861756411611,-2.12294355571791,0.0182907638168973,0.692139624969134
66.22,-1.45813295762747,0.349430757229418,-0.910916512917442,-1.83022030054587,2.93445135630253,2.44412195945747,-0.767324917286046,0.107773491352147,-0.948054621804133,-2.37615360980532,-0.33818619583083,-0.165535135376496,-0.864022270201347,0.221791738027304,-0.0305366082554535,2.23614542449306,0.170986235616012,0.345025652850465,-0.808838460667264,-0.110644893584919,0.214281121736118,-2.0882105791031,0.0774937241271102,0.670147818728043
66.225,-1.3434718450042,0.215090991764575,-0.90532865759653,-1.77444534672464,3.03217392444764,2.35994686451998,-0.74535773773845,0.105196874858449,-0.900349669606215,-2.31365307660824,-0.212659615966354,-0.135613732666982,-0.804649676315367,0.213101147732372,-0.0358263996281308,2.24499186181017,0.128403480595512,0.296486815508211,-0.810818793330065,-0.108163622628113,0.215643211818011,-2.00113777036691,0.170693413880742,0.637420972408142
66.23,-1.24882465805456,0.128059638969356,-0.876524558512982,-1.58203821574953,3.17540811224048,2.26242356340848,-0.71595864382555,0.0964629273024391,-0.889566571453133,-2.33143177378173,-0.0576869349330656,-0.0892375332400667,-0.753824529062176,0.186522281765415,-0.0317757860810538,2.25270756590701,0.0575818382067311,0.21383626230219,-0.837447044213336,-0.112720268596525,0.216832862507125,-1.91661204519266,0.282212236666768,0.622594656729691
66.235,-1.2321061877004,0.104595808698341,-0.818111390470904,-1.30230497775923,3.32842517778762,2.15531710349,-0.679901527902078,0.0835910669670971,-0.922118796376775,-2.34118655024937,0.0600217242894863,-0.0402165098489296,-0.716793424357591,0.141899055650917,-0.0283220977098322,2.27575522550306,-0.0117856939050687,0.165123105281001,-0.887111135606678,-0.131151064628762,0.21125124460949,-1.86565034218448,0.360744127102837,0.623605288260133
66.24,-1.27213200375818,0.107593665949833,-0.73152011314713,-1.04309959615322,3.46474755831762,2.03590307546065,-0.632836052803404,0.0952725955979846,-0.952339820247794,-2.32457117983103,0.17839328064534,-0.0157226979965881,-0.680009415531047,0.0443550486759129,-0.014644686901711,2.35738981814152,-0.104058936531619,0.109192532019802,-0.920549197501765,-0.135681182326848,0.208889811960133,-1.8445522423376,0.3912203969886,0.61912985716349
66.245,-1.29382253492865,0.1601460893853,-0.654011106067497,-0.927208612765435,3.51040671255529,1.93902671887482,-0.588851476669955,0.124962642275775,-0.973927404355128,-2.28888891162207,0.281098598254947,-0.0118383972881511,-0.64870289405463,-0.0756084657356851,-0.0155351986714029,2.41876321350824,-0.197314603925056,0.0219283994731766,-0.982060786457895,-0.154195916337147,0.199401181193123,-1.82807555337779,0.398667658867032,0.614528954948818
66.25,-1.27399025975262,0.227323440843061,-0.58611145809751,-0.886444470103832,3.47356156348135,1.78968952804906,-0.572249696416617,0.155158806635673,-0.979166938801887,-2.2674931246202,0.400454356790557,-0.0117597429188368,-0.612297377527427,-0.204439019376616,0.000895960054773897,2.4449696281108,-0.297367647339285,-0.135389248526948,-1.0291482823048,-0.160841259836593,0.20384289489587,-1.81426281523628,0.367093636048189,0.615237804175128
66.255,-1.22976582300546,0.245861151903478,-0.542539007643724,-0.947729645947523,3.40312870924932,1.65618118632592,-0.572660958863117,0.15468354096743,-0.950775613340856,-2.29797341857744,0.453570264850816,-0.0124030825635657,-0.574439025823273,-0.309998490299926,0.0258497879059727,2.34840868857686,-0.441360706077043,-0.363928716647754,-1.05546654701458,-0.160611432270883,0.213106553339353,-1.8066116078011,0.315512633059489,0.625715908964701
66.26,-1.15461333082473,0.216962041603401,-0.516794214134256,-1.03265505539898,3.30915630603309,1.49281009092672,-0.586776058390722,0.134747697262286,-0.917148036975051,-2.38418774688147,0.527739845799093,0.00665563640413244,-0.555667213475175,-0.357468735207725,0.0399189343476039,2.19787474404498,-0.557417293733733,-0.509784701845489,-1.07293865206232,-0.157130897679631,0.233515780805343,-1.77297926777676,0.23383667888707,0.630798741921325
66.265,-1.05335362637465,0.149724862682125,-0.520314600491049,-1.10148536033718,3.23114924345616,1.31702786249451,-0.598928141689451,0.107596575934337,-0.85430493377668,-2.41751768074919,0.569996110046896,0.026040670562308,-0.51385896827893,-0.376385579641196,0.0527374133948448,1.89020319353207,-0.642678584772166,-0.586015424806192,-1.07071665803434,-0.143088550142044,0.263839008796743,-1.75777876823615,0.131375202790302,0.639902848331095
66.27,-0.86049399077577,0.0689199031591648,-0.539086764027858,-1.01200837175079,3.24545526035818,1.11783672486463,-0.605036285199873,0.081022321080725,-0.745846477130369,-2.45258126161126,0.604460368366514,0.0616004017742792,-0.462737463485528,-0.390734641154932,0.0607893921148125,1.53674007567808,-0.68586728977356,-0.603158628130969,-1.05910589485507,-0.134039916528595,0.296640447912282,-1.75940077884783,0.0409409540308302,0.640416706280424
66.275,-0.738214201554057,-0.00340044876920943,-0.555126870050628,-0.813635522673462,3.34208006489471,0.938086302967387,-0.598381271195882,0.0870007334634125,-0.704635563915174,-2.47404434582946,0.609572585715716,0.101186858527742,-0.41476413476636,-0.42346863081461,0.0803858115012658,1.24390461180446,-0.708034963665524,-0.623763946924581,-1.03375151783198,-0.12891666689659,0.305620500326103,-1.79593822351195,-0.0227534768226162,0.646466857636069
66.28,-0.797662047808128,0.264066809490929,0.195949770784359,-0.793167849913086,3.0224139194844,0.791628145703843,-0.57852673747645,0.0851398846885032,-0.770635506742087,-2.39284342107972,0.582496485298846,0.149271084234442,-0.392913223203333,-0.435689157341271,0.0915305307902958,1.00893656486115,-0.753813231564058,-0.711240423665025,-0.994946534861622,-0.11664691978702,0.29508443578517,-1.88504518803125,-0.0658365701028788,0.652568463356911
66.285,-1.99512031357104,1.79394210300618,2.34002335520074,-1.04392672529267,1.68900136123848,0.998906571711834,-0.521716921442214,0.0522235367577752,-1.03085956456393,-2.61743994415738,0.581099462317259,0.215538602408048,-0.390542291959766,-0.436344256943858,0.0975992036630187,0.955876400433159,-0.806199146517693,-0.805191562493387,-0.951337768630362,-0.117468633131065,0.281123106725109,-1.98755100772777,-0.0974320380529265,0.657819961955071
66.29,-3.79704916124858,2.94874311979859,3.43368029877227,-2.9918934918757,-1.08011768469604,1.54885949739388,-0.433469262237266,-0.0770008474019855,-1.51222166563963,-2.88025553704033,0.647433304351232,0.283291996071851,-0.417519730593639,-0.418852354358984,0.0758076764417416,0.995359239396625,-0.867306009131786,-0.916594860501305,-0.912605089554098,-0.116798589878472,0.267068973155004,-2.06809249053403,-0.126635833138273,0.660391052115166
66.295,-2.83103715636394,-0.981861181858039,0.48187019134541,-1.65126393668391,-2.68368402159048,2.1409370373565,-0.560859674354497,0.0353000107352346,-1.43466448788951,-2.63359717239672,0.892743781075545,0.268775701811258,-0.463764786316186,-0.387393802449518,0.0529204813960878,1.10346264394254,-0.892083968020686,-0.954532097252588,-0.878610516462127,-0.110642938777039,0.254129365800686,-2.13062033863255,-0.145565503094204,0.657555173130384
66.3,-0.297663876171206,-1.62223574121128,0.0333625768376597,1.61633097096097,-2.87102712260329,1.58565767497393,-0.924853980724443,-0.0435542495905271,-0.212691595934687,-0.680725688413778,1.06730483690192,0.212883084857552,-0.520464149699645,-0.360580263194241,0.0100899460391114,1.29508944945876,-0.891745096848828,-0.980438016047797,-0.844506656710631,-0.0996808287099518,0.239195961838421,-2.19418556858914,-0.172741549245434,0.650926454759484
66.305,-0.311146886825116,0.644084640670401,0.00896246264235286,3.76636634497981,-2.66596294591671,1.57993930278317,-0.959849849734308,0.0205500142761951,-0.440036404918404,-0.976234009638142,0.81052751646999,0.411381830486674,-0.637089356008439,-0.302103440056425,-0.0461261410910985,1.54864032449715,-0.873335064981043,-1.00023447132507,-0.810364050687721,-0.0912526800264156,0.231390475885217,-2.24385236396032,-0.185255380699786,0.647778591751062
66.31,-1.47396137066934,2.37568937565159,-0.331388366213089,3.40615958058414,-2.8128269467569,1.52645229456426,-0.681357349026913,-0.112379213994773,-0.973148508581831,-0.476430795599611,0.890109850274905,0.596848301601608,-0.773157415351636,-0.257502815530998,-0.119315143383123,1.79751422477034,-0.826057110913016,-0.953568121968189,-0.788995233316716,-0.0749528335355579,0.226637287034616,-2.27937865176492,-0.189829567184922,0.63990337691878
66.315,-1.67714954645814,2.11127223570096,-0.147481928358983,1.09021034510903,-2.82866693302959,1.49999574005421,-0.794141841621245,0.0890921348575677,-1.03967811483397,0.053311704907781,1.12032965731451,0.631109451663128,-0.932478070044386,-0.253964720692736,-0.191946786082291,2.00491421923685,-0.733779985920214,-0.865297634617114,-0.776258703274731,-0.0649818762649838,0.21287715106403,-2.29912311905293,-0.197691663605299,0.626714512211409
66.32,-1.03948332162901,0.781858482266183,0.190895588535122,-0.664007341155609,-2.80463953279614,1.52894631873434,-1.10623303216201,0.330280118118811,-0.75328508993459,-0.276773282197571,1.2157486726269,0.730718704678265,-1.13263528314764,-0.240075065268763,-0.270892581379947,2.10594241442919,-0.59100394216328,-0.728342730976826,-0.773245082534579,-0.0485394769103907,0.19993683563592,-2.32417853975731,-0.180568962343205,0.616104221643437
66.325,-0.768741999529785,0.421286306091159,0.406570063576283,-0.168491916017952,-2.75729648746799,1.59586518792829,-1.27741143721875,0.154730186551432,-0.419505482320924,-0.281547927372193,1.26613283371656,0.790999732307172,-1.30131510485768,-0.191407681966357,-0.316225489012411,2.03561785141706,-0.469826240117173,-0.625010223382916,-0.783003949138333,-0.0386813720470427,0.176524963297915,-2.38335880511101,-0.153798563862309,0.610885944250078
66.33,-0.915493428762988,0.579619624259902,0.590753258084018,-0.121800008747365,-2.72183034408681,1.39479268420103,-1.30821959362476,0.0392609470437768,-0.132418650561555,0.0725988704300349,1.28730971726128,0.801997913249518,-1.48932224421908,-0.124765359076177,-0.340717831267151,1.83787879418601,-0.335098108435487,-0.493731148692461,-0.801553292345259,-0.0379054292402954,0.153792090558754,-2.4412296109072,-0.129868958383555,0.605101020528116
66.335,-0.848592874901592,0.651341965025058,0.712498464258571,-0.449056986506107,-2.6281462457955,1.15172741797721,-1.37737239902633,0.121342635264858,-0.0900852539050979,0.0613234691710251,1.2066926226741,0.799686675355172,-1.69720029478519,-0.0956081949511529,-0.293114132911476,1.59013127926637,-0.26360350802994,-0.4066938447686,-0.83273787850454,-0.037081668902126,0.134960121305927,-2.46465425811234,-0.103480788776278,0.590933431546081
66.34,-0.62436106984662,0.597739266851369,0.84603913010993,-0.497062693303935,-2.55648004385895,1.05847141429474,-1.42126595153019,0.202244576296709,-0.0972252203276377,-0.493520366256291,1.02850826680184,0.773524549523368,-1.82298529131692,-0.160899092806658,-0.196801063592507,1.32577038902504,-0.250833068558078,-0.432519655171102,-0.875806993535606,-0.0298000841504934,0.125816319188965,-2.45836386602209,-0.0625651647942208,0.562802389716179
66.345,-0.576584935265434,0.623998217531998,0.907696924407615,-0.531170785427094,-2.42990453715598,0.81666171401164,-1.42867066487364,0.135664914204113,-0.00840041756222473,-0.818755569169743,0.938342673067731,0.768469533848806,-1.89378460952196,-0.253095058036159,-0.0344483077270144,1.11679054509437,-0.316606657834594,-0.576591765576532,-0.920193251326617,-0.0157406348669823,0.115025222444468,-2.44133852198089,-0.00900697109009971,0.535574889196354
66.35,-0.634577402212014,0.767546347330521,0.853453197914793,-0.553274266761739,-2.32503226264016,0.656250685517483,-1.46504358223849,-0.0575580345721337,0.0263639162053345,-1.0704151361244,0.903526297973265,0.756456108343888,-1.90211143201433,-0.270915630052896,0.138402346826013,0.922836187508929,-0.45909029083153,-0.729541428901338,-0.960807635199997,-0.00454727688185535,0.11404804081092,-2.40549730134408,0.0529358263849254,0.509416164988209
66.355,-0.567879918451254,0.689216089960705,0.89315560999843,-0.782549250268318,-2.14093931716698,0.493848568302017,-1.57840779314608,-0.188272911179707,0.0359761064876394,-0.708816863421304,0.873094126775629,0.676510178561681,-1.83300659531252,-0.203876086693863,0.261425255635567,0.689443676791115,-0.44211966997101,-0.803330029198682,-1.01700483539566,0.00774697541439289,0.100622236298214,-2.3270274282982,0.150331777584908,0.476808458694928
66.36,-0.550291197999228,0.503926843248267,0.908656011186279,-0.845349929663104,-1.98317464444873,0.332000989362158,-1.63280203114443,-0.120049924792613,0.0161083179496424,-0.33694804487482,0.789077092199671,0.623827064162382,-1.66964832279464,-0.0584333629725346,0.329165292358402,0.474358308295046,-0.866322265455461,-0.762753780005741,-1.05772470274432,0.0256841748412203,0.0897177133043633,-2.25128284277984,0.229576270667689,0.457805134687777
66.365,-0.594943498685938,0.476024743863798,0.858554656796255,-0.755630804824728,-1.82476342125696,0.267524646741052,-1.56155464471258,-0.0591328716831279,-0.014891035164653,-0.478778032975743,0.68797871449962,0.567015244731874,-1.50167855183089,0.0719916211089726,0.366104962991969,0.396865171834555,-1.00553293137241,-0.7001201443215,-1.09996494609024,0.0350811303632084,0.0791257351233469,-2.17257581333279,0.292522690800716,0.435365329652214
66.37,-0.627320725417615,0.463603214775678,0.793180158994381,-0.735082291308086,-1.65112018329634,0.2597660011336,-1.42146163821484,-0.0442784125227723,-0.0990391910123136,-0.807218913166981,0.636078164382983,0.53080214959359,-1.33606084519825,0.16032531056421,0.391662493224452,0.404445707915523,-1.15177865772702,-0.657090286539848,-1.15892437217371,0.0505703934744554,0.085987933430569,-2.10440666788202,0.350286731729059,0.40986531114177
66.375,-0.616582313452687,0.457547834316562,0.746501954596394,-0.766291035179957,-1.56251599731799,0.265367861397485,-1.21476273910741,-0.0300315749460097,-0.177066154321738,-1.03694577452449,0.570904847071223,0.496455068079554,-1.17403654121028,0.149212976921553,0.390151097123841,0.436504330684241,-1.25996244799512,-0.692370058293362,-1.18888900837011,0.0522589782849081,0.0938383575201614,-2.07918321532359,0.383104406399246,0.395929105495257
66.38,-0.596524435175623,0.400612217296385,0.68789119893491,-0.836698194262501,-1.54628952152676,0.256861034845944,-1.0264214512208,0.00768740304650731,-0.221063111737448,-1.20472023584032,0.496454769060978,0.487991490264195,-1.08061779976848,0.08304163769916,0.370888368971528,0.440289755503974,-1.34268935963844,-0.756724489249213,-1.22054500124415,0.0663810767182657,0.10973380707692,-2.08682582920901,0.39424437712468,0.388193553999443
66.385,-0.592460053063724,0.390297649421386,0.666359987470012,-0.83717879914901,-1.59256483271321,0.250545167480029,-0.919056272973034,0.0555012197678119,-0.236160569089056,-1.19565293588265,0.397760101266028,0.497333543111463,-0.986227670840052,-0.0431760961060795,0.338073150613366,0.480528724534149,-1.37400050201052,-0.855811622328916,-1.22860441663319,0.0764086411893233,0.134888333159463,-2.12738225776344,0.378779857970326,0.39027422343223
66.39,-0.478203917470734,0.509362446988727,0.673037098338355,-0.721321514224179,-1.67104627750499,0.198517347891734,-0.882254822732506,0.169551052299694,-0.178734513977177,-1.12715131262304,0.301355487257188,0.524078247911947,-0.896554761911168,-0.163382751175648,0.317121166801041,0.538611768443374,-1.34050066791615,-0.950321899821849,-1.22314977770367,0.0878793142938134,0.158918071236204,-2.17604139904552,0.343658489016529,0.405951625136742
66.395,-0.281362025223311,0.70482126836951,0.786278079791349,-0.720032863354565,-1.76896789022263,0.00160493482924937,-0.989020228689278,0.290222496089705,-0.0582453248229162,-1.04538371063659,0.168882369215553,0.578959559932318,-0.816170389043042,-0.231668966231589,0.316008555014286,0.662523371633663,-1.26627602837259,-1.03308768317232,-1.18823921182807,0.102978918870612,0.178668941603806,-2.19082356910158,0.302894825458111,0.452924514340096
66.4,-0.185083881936143,0.757275723357751,0.866714520538347,-0.85211723256965,-1.80734442799262,-0.272213809573,-1.25008661094606,0.353036886858317,0.0163658442415985,-1.01613218919877,-0.00152448360173918,0.628263002938803,-0.740110880532108,-0.287484555062339,0.330270683896224,0.874189901212266,-1.17264067956453,-1.15806885155035,-1.13857616645005,0.119981830809115,0.188707762179445,-2.16605700981058,0.278115648993059,0.501779291725308
66.405,-0.174990709461318,0.712901659874215,0.971897476114087,-0.992610505600501,-1.73620919922132,-0.643021835536469,-1.59590473503101,0.294026351181694,0.15704425402905,-0.919219793113126,-0.144236460442912,0.692006054508751,-0.724195697069008,-0.332821567365932,0.345543505950533,1.07190148484208,-1.08403428480227,-1.28311737662098,-1.10625449314461,0.1362209643897,0.183116032446096,-2.09790303905323,0.266810489849517,0.547902197849336
66.41,-0.293947614904596,0.603726562514359,1.04061533530926,-1.0375621636026,-1.53796547266567,-0.918326843522655,-1.92056903591941,0.0419263742263515,0.262588274182994,-1.01102038549551,-0.276605505312119,0.728502610084908,-0.791889253153868,-0.359538017880689,0.362703839779123,1.17337094999352,-0.998802224334647,-1.40076834231972,-1.09223851741264,0.159273519205211,0.178880142272937,-1.97285625921389,0.263966986959795,0.580531352456308
66.415,-0.37235087243795,0.453722170756844,1.07512891975446,-0.993304663127019,-1.25117952834773,-1.02447580254979,-2.06148292167981,-0.319476213139292,0.331890230479842,-1.25579784397223,-0.370343770573865,0.727688677123041,-1.03659330490716,-0.356404197042206,0.398101150601845,1.12431745051,-0.920282871143595,-1.47933148610196,-1.11330064609049,0.209560570260777,0.159177568920081,-1.77758416029363,0.275899784640811,0.600731270531293
66.42,-0.458297944146589,0.21232681845526,1.08332864996156,-0.8874631114989,-0.885120116362615,-0.95023236524106,-1.98343716105401,-0.693607108199148,0.306104230429649,-1.55186611539636,-0.345818352410836,0.697036103917758,-1.36094747252655,-0.299107306418337,0.406254927912757,1.03320939480154,-0.873617647133804,-1.4372237258473,-1.14360100973974,0.260602309156262,0.149141501902291,-1.64106056331217,0.293810744865498,0.610063503953012
66.425,-0.596384654312486,-0.0118543524836998,1.05415313354343,-0.728474271606792,-0.583932997522443,-0.750126085571345,-1.65358981881648,-0.987587569900096,0.0675464156982034,-1.93788386311088,-0.263730105544009,0.658321014663378,-1.76469964618842,-0.15736885572848,0.431679367625774,1.04791735941149,-0.824703840704123,-1.21805867008092,-1.19666312720961,0.321159662795816,0.1245886606337,-1.55403574326147,0.314778816116927,0.62477699247165
66.43,-0.734317984883416,-0.0993167248232154,0.957038876894134,-0.393328765759141,-0.313979134690819,-0.439880739146906,-1.28581408384514,-1.09475771538085,-0.17016260366681,-1.84335258423339,-0.208490255448173,0.599827255131959,-1.99336689188833,0.0254856235168095,0.504849855088029,1.2085270327836,-0.754862705964318,-0.859690832799714,-1.27309406682219,0.377804401514051,0.0948733462346609,-1.57224618060388,0.319282859563828,0.645242756733811
66.435,-0.751845296879781,-0.0772917776863166,0.890251468511298,-0.213207439081566,-0.153692110303447,-0.142947993322458,-0.966039880489971,-1.02700479492078,-0.163696133748207,-1.44807011462008,-0.174156312467883,0.555667881068054,-2.0025126375673,0.182651633019583,0.530837995360829,1.44159303254452,-0.629759540677909,-0.503685772828459,-1.33002134815838,0.410015790497813,0.0830525534119975,-1.67728227049187,0.300924725905889,0.659723871531229
66.44,-0.711739963396619,0.0088805970080482,0.850989963446608,-0.0666109243801064,-0.0292777889914221,0.0529459080523296,-0.726441465392928,-0.803113978620979,-0.153252366122775,-1.19364878135083,-0.141563550381818,0.573555912115799,-1.89771992005813,0.271232630133503,0.431071881666036,2.03218872146937,-0.402690684552373,-0.233771564918719,-1.36669279493365,0.42188642491106,0.0827922385844519,-1.86305376794353,0.276053070610954,0.661381861393436
66.445,-0.699976820181185,0.148937357235757,0.826578561102622,-0.00862560037410022,0.0764967249282199,0.276569459409849,-0.681448362311906,-0.576109968923318,-0.134557614212083,-0.953505357538815,-0.152842654544024,0.597794843266693,-1.64663722321156,0.223323633596399,0.214181032245523,2.59276421378736,-0.195087470719847,-0.263005281994899,-1.37612358388711,0.400390884547626,0.0813175702430909,-2.00728267040866,0.24804862982563,0.646505916478209
66.45,-0.601072796297621,0.207119810049663,0.825492767274411,-0.010166755146324,0.140061818408401,0.355467245704454,-0.75184492701966,-0.322343052601373,-0.138691646024667,-0.776236452470192,-0.216273512267503,0.626389281464162,-1.29979779265568,0.113984729858669,-0.069330045874365,3.19228146096436,0.0270307143626642,-0.547929086305325,-1.36256046180103,0.343170336926998,0.0802357912208623,-2.14924147489959,0.21239567442049,0.618280311473184
66.455,-0.5656325618467,0.297572219250207,0.792171174150214,0.037717571267187,0.180092583616955,0.426023756170041,-0.866914937198545,-0.152947697082153,-0.177521419262046,-0.800787865898837,-0.287274193822997,0.645880033543652,-1.08266059990217,0.00299778870739242,-0.206861795231698,3.44240221566884,0.129015382014505,-0.843226145022389,-1.31635927327301,0.257890861943122,0.0935927078103654,-2.18711543249852,0.172174996364867,0.59768084478986
66.46,-0.540083764329337,0.313898721487746,0.782585085216638,0.00925720422326984,0.216004724148505,0.432484610413709,-1.02083901425823,-0.0623878702956584,-0.182554477347005,-0.964366650208882,-0.328685353161259,0.674328174211025,-0.900113241721472,-0.1123826869509,-0.302873131351244,3.50499509483055,0.186537119237261,-1.13013786254692,-1.26774110624971,0.193642452470748,0.113397978657264,-2.07768771053018,0.141786633996489,0.588678285986831
66.465,-0.52834858520414,0.356229341603911,0.771035290204609,-0.00607677000083794,0.238769255320886,0.42142344604695,-1.12793078098455,-0.0541135690747775,-0.196385946868223,-1.18219403760504,-0.38706288809518,0.717572316667582,-0.766622210424789,-0.199017213517049,-0.352505951839672,3.38459276546008,0.210514214133488,-1.2962714909264,-1.23046335124387,0.166824243118711,0.149133426694732,-1.84164160579373,0.147939731347831,0.58300194879389
66.47,-0.53457616212097,0.363383140145465,0.748514025537512,-0.000177857643955255,0.26740624853196,0.425416543848926,-1.12331301626259,-0.113275365246688,-0.204338699550147,-1.26943672390915,-0.428989013957411,0.752498434880851,-0.648330112074687,-0.269802831973381,-0.358068474094141,3.10520532626469,0.221076917396347,-1.40644008114196,-1.19832052484421,0.160805075745445,0.182620421766823,-1.45367551468287,0.221793825562436,0.596857014521816
66.475,-0.549475921859369,0.369321990530021,0.743560462470286,0.0132292767419919,0.291965353469583,0.429796132638533,-1.07449633351303,-0.151131798903935,-0.187132054509369,-1.17008347768541,-0.45028683967918,0.753081326084936,-0.555907569307574,-0.302774307275659,-0.326690164021097,2.66466352163688,0.167853384912269,-1.49106604573869,-1.17428208844081,0.176305050636525,0.192869081337577,-1.14341325694936,0.313054292490644,0.622082628278132
66.48,-0.551948845382182,0.361866288420239,0.748398138482569,0.00388081669109556,0.305868881906354,0.435100917208893,-1.0138194927056,-0.163897960006128,-0.176764574743497,-0.903974155035585,-0.481779073201246,0.761601250517989,-0.541215989563705,-0.292765808128563,-0.281071514682941,2.31007288520396,0.0700180738945657,-1.5254163934569,-1.14920066252746,0.180525201377889,0.185591760776166,-0.872746853923846,0.399539545459648,0.645829112647379
66.485,-0.545550999692803,0.348030755934455,0.749809000545736,-0.0136381487563082,0.30999881029129,0.436943904064259,-0.97474695533419,-0.140694735720748,-0.147433471420736,-0.662355924807678,-0.500274380947453,0.765165627002716,-0.552903017998021,-0.262986732614658,-0.221188416892999,1.95394253140897,-0.0692010095069282,-1.51927929114969,-1.1195362239483,0.178871660401474,0.166649653152007,-0.668614360772238,0.443424782765818,0.655366524795811
66.49,-0.514157495862236,0.323862267658336,0.751233999462529,-0.0330399692046755,0.303006590180612,0.429920074397708,-0.964615999949562,-0.124002738453879,-0.120614691808576,-0.527212460381825,-0.491800561908973,0.765165627002716,-0.580854850342815,-0.241328951307548,-0.150280411272528,1.71865989788103,-0.198536628893991,-1.50537731862211,-1.07216290380179,0.165954929303071,0.141388723584482,-0.519475528316413,0.421916492925464,0.652540533267802
66.495,-0.517690367738454,0.305420685797923,0.765132132136454,-0.0422551964923767,0.298495229292533,0.431460853624961,-0.976563277239961,-0.0987337990499846,-0.0844703850200453,-0.469427377182794,-0.515905125581578,0.73350839696224,-0.629662659435131,-0.231431852102246,-0.100788672929266,1.58403695063184,-0.304022382706692,-1.51326480236115,-1.03480209487367,0.134583525993751,0.118982867966793,-0.455445010345206,0.375556062033729,0.645929797226184
66.5,-0.520128290446418,0.313552103576863,0.780435373727375,-0.0396660033716109,0.306797891503244,0.437088057222798,-1.04513738672709,-0.115813251592336,-0.0445868138502509,-0.536820925503887,-0.544732334871371,0.62951690305303,-0.687943321393008,-0.221810321038112,-0.0662421974362157,1.46553540883245,-0.39520400435834,-1.54012024237758,-0.983070075673259,0.108957201082996,0.107265645908354,-0.420186033456825,0.314826697197421,0.640762323897833
66.505,-0.513178905796247,0.323199099152319,0.784226635199755,-0.025610260706241,0.323946128797303,0.46279923448559,-1.0013283258171,-0.137107551701915,0.0481576751476883,-0.956022918465327,-0.527645682848769,0.641547458848016,-0.757190061621106,-0.220137194427805,-0.0818082580928973,1.35915441213134,-0.461819423677166,-1.56704753109882,-0.938587717680379,0.0872447223267983,0.112241082979775,-0.40781562602816,0.272621263338315,0.625908489228861
66.51,-0.507298990387865,0.328188923225374,0.788733216771499,-0.0515181941188704,0.345555183218219,0.474582567359759,-1.02758071841948,-0.139936824563531,0.0435037936764653,-1.12669892029817,-0.437513378839244,0.645892519242451,-0.87390403130306,-0.182898590812062,-0.122568172327668,1.21610763324732,-0.529526286803991,-1.50047612143796,-0.898338326704259,0.064514821614507,0.123212943093627,-0.404459091685273,0.243021211733091,0.6102286460712
66.515,-0.501130338655237,0.316767138138314,0.788734188959542,-0.047947985826017,0.364690956414959,0.507614792373542,-0.979534405620904,-0.106800265050385,0.0641055302206548,-0.948957587514655,-0.474037711297933,0.707043432469453,-0.902720732883116,-0.180867032970835,-0.166482718631528,0.992797550387753,-0.499351532578857,-1.40382889893952,-0.860875014687022,0.0574690765014159,0.130736137531039,-0.431816624604971,0.229168791912558,0.583141777930424
66.52,-0.502376032415587,0.319712785051474,0.782529849183081,-0.0464970841940574,0.365416413917425,0.517487823963165,-0.919091435343881,-0.0510849307389792,0.0736279097825359,-0.577568552986182,-0.426967580179504,0.709413410289464,-1.03385442503729,-0.0998309844992546,-0.168755781578896,0.784627733819764,-0.47336615552406,-1.32215857457459,-0.815202817933023,0.0457571070200064,0.13361187610014,-0.481222891757542,0.237233793519868,0.555477003798167
66.525,-0.504809589518863,0.335125212871137,0.766568923912642,-0.0479914697288135,0.352072130996431,0.509929552086554,-0.921048047822965,-0.0097067071847768,0.0778064459060613,-0.557426241681672,-0.402435383282279,0.703702550134421,-1.11456658900246,-0.00894793057637247,-0.183095737421205,0.566997642234311,-0.443805655143338,-1.12646600834324,-0.783251587994048,0.0338382807746931,0.138216897309622,-0.542288820345047,0.271077431534458,0.540769757043224
66.53,-0.497109809499063,0.370180551431002,0.766857726721682,-0.0461009529727836,0.323415023392099,0.512315481006755,-0.967812508921902,-0.0187626191916864,0.0609868298112586,-0.667766787019296,-0.332805692820694,0.679306597463007,-1.1687881980013,0.0893933944323446,-0.177547393674949,0.404980837946977,-0.434819601219658,-0.934766933479395,-0.768250053094746,0.0217585172324221,0.13747690398826,-0.606992899704126,0.316403168712443,0.535182651519087
66.535,-0.487036933990001,0.333212489329911,0.785681948675737,-0.076148763173579,0.319324729769189,0.481720786266379,-0.969268936339922,0.00800960532001115,0.0598391232305374,-0.619171812854405,-0.326739510037465,0.668549244063633,-1.17288368768822,0.169929570624856,-0.175171276407249,0.217346506190615,-0.343872339393775,-0.725227412423655,-0.768164345204419,0.00728948675535025,0.139139470856976,-0.695964930386756,0.369068485859062,0.539214404694572
66.54,-0.49821764636814,0.319596149507195,0.785264135851153,-0.0748404890597664,0.298420695203494,0.45529266699315,-0.969272646261372,0.0183949517071505,0.0837897473870248,-0.626759031150773,-0.305051436563168,0.668343845211988,-1.19950782677755,0.272921103586832,-0.149356617530306,0.108520449294622,-0.279653645584646,-0.647535629422688,-0.771215345882701,-0.00688834138232836,0.132752682575324,-0.792020440236727,0.436751023036241,0.549486777924292
66.545,-0.498425751287148,0.320012945392065,0.76880292094488,-0.0421662541158548,0.277973381207694,0.43080624350068,-0.961503297851771,0.00824945247269294,0.0759929418979046,-0.658995154852248,-0.263254811590675,0.629605877877349,-1.21910679914113,0.351202700011488,-0.129126559309068,0.0397645767252615,-0.221606517996224,-0.505299872278157,-0.788781175502733,-0.0245911969879269,0.128457287566095,-0.9098765413514,0.524956600700362,0.570036974816297
66.55,-0.470454177808643,0.289898468179185,0.77044464421878,-0.0176486517365916,0.242902210748792,0.376628420903725,-0.956386323456631,-0.000322538501381713,0.0956662164324681,-0.488949161962499,-0.188608985021468,0.589041538352223,-1.20706060966141,0.401839467074044,-0.105924157380219,-0.0474552011949378,-0.136740021257807,-0.311156039317815,-0.815953812145245,-0.0395535850033704,0.127477000115089,-1.0231581863757,0.620335928808991,0.589536907616309
66.555,-0.462172273903374,0.398163580702585,0.759391445790378,0.014686736340753,0.202533787707962,0.327515631335315,-0.975174476271015,0.0635260376868064,0.123009463553708,-0.287391014727068,-0.16606052534294,0.557748275767531,-1.18565414410323,0.430728058320065,-0.0424165593310131,-0.0815042231172614,-0.0726104227104735,-0.229432310491862,-0.847563783477633,-0.0382147123427936,0.126211987677641,-1.13336742421502,0.712419713836655,0.618430786564415
66.56,-0.466986342540607,0.406203540383931,0.750712553048397,-0.00019963560074411,0.178811528864257,0.273821366539967,-0.9374984531107,0.134823149749924,0.155735885075007,-0.223105584068689,-0.109706475641815,0.508950565027744,-1.17582719928871,0.420757838887255,0.0185683694491318,-0.0993845376365538,-0.0253288377793763,-0.197562126042728,-0.872058885630835,-0.0354890440828747,0.122690759926924,-1.18958454218814,0.744962439630348,0.623900449125146
66.565,-0.482023749191125,0.398105518344054,0.74498038731833,-0.0197382738856087,0.137443454361719,0.217494128551663,-0.93991108956337,0.104446876423372,0.0914391157888369,0.172263033661644,-0.0518431085202246,0.561794403359303,-1.17748022260292,0.395411326629668,0.115733656736323,-0.128434049951412,-0.000708174398850565,-0.155906721156646,-0.90539609714417,-0.0347319712258593,0.112874259803134,-1.24195647648653,0.765759728560507,0.632405764442301
66.57,-0.483863687460325,0.398521777009945,0.741709725421091,-0.0275254912986669,0.100993571341973,0.152163773483187,-0.913977285544826,0.264767425378494,0.1215252057687,0.472987327145193,-0.0521791737238618,0.612603630591013,-1.17592551807063,0.330280242396224,0.200666175528045,-0.113822655844455,-0.0212638457810599,-0.14291516907219,-0.929759217498281,-0.0263018688428356,0.105140389683998,-1.26006546904274,0.74773812524947,0.630842975489158
66.575,-0.486166825718072,0.417766264895019,0.746540708764051,0.017960160264783,0.0544908750600434,0.0959176141909689,-0.914804102415787,0.298598085090624,0.153724854013686,-0.24234620997709,0.0182799043073375,0.419860577727403,-1.20042749906693,0.295728094725803,0.305647110408609,-0.0554057851661181,-0.0844340802076081,-0.13030773980675,-0.955432510095392,-0.014646069191376,0.100919848879014,-1.24443908846067,0.696925227869579,0.612013563213858
66.58,-0.483344244634287,0.4205385327132,0.73808269647922,-0.019724280550258,0.0263759044634082,0.0465490729150185,-0.946441114860705,0.203942974788806,0.111787572896265,-0.464026709142251,0.0558766812208162,0.402787090193591,-1.19950296549801,0.216303327846805,0.395767771987569,0.05281438423324,-0.167707554629275,-0.0697891364115862,-0.9675309764855,-0.0122617737693732,0.0942245131262494,-1.22320911263936,0.621847774704062,0.583558385203604
66.585,-0.490009864102356,0.403711486012665,0.746342657367792,-0.0362934645315222,-0.00621254074357287,-0.00582718987973736,-0.965957169182541,0.158957981868358,0.109793733249509,-0.470509130105201,0.0932520329692438,0.365167464924441,-1.18239918140462,0.135097964800681,0.468126123046126,0.174257567806602,-0.231072190358684,-0.0334327816963196,-0.977180424983428,-0.00661848157540251,0.0844804882162084,-1.18533990281499,0.537463859401871,0.551059478792639
66.59,-0.498639096164027,0.397947463313502,0.730835658156427,-0.0247366342467467,-0.0264933450786886,-0.0374979667824378,-0.954151987278341,0.0948186360291366,0.0929601541214246,-0.444667756240631,0.137920259571295,0.334588002446901,-1.15115990828724,0.081518577366684,0.505247210957002,0.263867091964033,-0.275235799591835,-0.0439607837309402,-0.983465938409635,0.00570115074558839,0.0734575992098217,-1.13739574899802,0.430664501929052,0.506892837810748
66.595,-0.510132055149362,0.391899172243745,0.734080509072961,-0.036629293929684,-0.0450269753371115,-0.0611058084743264,-0.928232346671075,0.0657456070770001,0.063903160599633,-0.342782032075163,0.183090241224928,0.31002865242404,-1.10417627057484,0.0337363814869588,0.53066351579879,0.387051308087126,-0.317552333652199,-0.065918027552599,-0.982190893398331,0.0182621527316807,0.0606433960758637,-1.08258959054365,0.329213991100664,0.472585239899959
66.6,-0.535957965967245,0.356414920306167,0.74605339802321,-0.0276958702560041,-0.0534634245294345,-0.0580508524605033,-0.91659268531175,0.03744389786011,0.0395805814426314,-0.273709182811009,0.21097131753628,0.301243268567218,-1.05982510351409,0.0187669367094487,0.528796270527854,0.460414554333955,-0.336712090960678,-0.0594672642952914,-0.981455301507585,0.0451421618642251,0.0561155172327313,-1.03333025152224,0.228437998182727,0.433964599749752
66.605,-0.560879362211911,0.338736167216917,0.755734229455379,-0.0104968186057421,-0.0601746290922165,-0.0447645606115487,-0.908865120867555,0.0203314743773576,0.0155723004999349,-0.178234965104327,0.233021186673057,0.276167993142618,-1.00219474208109,0.0226318178919975,0.489848088683359,0.515985965588147,-0.336053653606937,-0.0233624082412336,-0.987681375187247,0.0679014752593792,0.0545840076472419,-0.978902730270579,0.16230185292927,0.414237287155436
66.61,-0.551211019855085,0.324999421651014,0.769281107370343,0.00562878046722894,-0.0532174765546334,-0.0268501041783386,-0.965424552876401,-0.0115300837712547,0.000579547808367765,-0.0628797346614759,0.257817042487363,0.262257170169116,-0.961210901365294,0.0313739678517892,0.43777235927173,0.554445219790084,-0.302554700942613,-0.0181315784255058,-0.988318529103912,0.0910585327826018,0.0607536224243742,-0.919820419052068,0.105356051799351,0.390587870074612
66.615,-0.547745833755851,0.326568867789119,0.774567543719852,0.0438004262084454,-0.0467127878109252,-0.00755936405647712,-0.996128072943374,-0.0109693731841242,0.0256388388821238,-0.101605583052095,0.25907610388854,0.231688933677388,-0.930055516876952,0.0268563087604937,0.376597893450596,0.637535014773499,-0.254818816910036,-0.0503719129360206,-0.986528856089317,0.10921435028245,0.0608447131549199,-0.860807823581731,0.0762535169413166,0.382427713090653
66.62,-0.557743272636307,0.336574032687067,0.772316671770689,0.070572408810282,-0.0244864908530982,0.0199747074172213,-1.02542350244456,-0.0269804177809795,-0.00372481853397104,-0.176747093392903,0.270087642945171,0.201377434005367,-0.921285160943394,0.0214995224186641,0.315796865975381,0.749019108065657,-0.18948532026444,-0.0913791470888406,-1.00329656325784,0.130319260848777,0.0644430004010125,-0.794380089223736,0.0711361463170459,0.375609262206919
66.625,-0.553518532547891,0.344234350506298,0.767319111105385,0.0846846883200948,-0.00715358139221239,0.0451777618426392,-1.01898795893432,-0.028418475924323,-0.029318377423549,-0.173741471784669,0.280645289177145,0.168171644999069,-0.928919674704372,0.014598945903126,0.271181564836078,0.843487665181359,-0.138729580724612,-0.126378710824065,-1.00778374039186,0.150497560493861,0.0707058420567955,-0.755849566772051,0.0772738706497591,0.373294409991303
66.63,-0.544436111395842,0.345990872750709,0.757717923525242,0.103351528586043,0.00763319077666716,0.0566054370807257,-1.00006282328179,-0.0173492331639529,-0.0336248283492545,-0.156929774270782,0.29297095843618,0.14542680471117,-0.950069987402918,0.000112100985755266,0.23349349051667,0.927933338702544,-0.0889404876059006,-0.160104006636433,-1.01853657128532,0.160563965064443,0.0756774879025741,-0.718710284729752,0.0894216567387434,0.369160509366588
66.635,-0.546681363330796,0.36115317552138,0.761184043925626,0.101962520289565,0.0180138181895018,0.0713377703249814,-1.00015385546143,0.0107322746452423,-0.0489108002823169,-0.151378122791505,0.290035754683711,0.123735760759848,-0.959659766766257,-0.00365239976998938,0.209858376521408,0.967153077556146,-0.0441758505336055,-0.165958049768388,-1.03242291762151,0.174505228232263,0.083466225156548,-0.674838453550051,0.114399110237308,0.377502103689398
66.64,-0.545954379051835,0.356724918525639,0.756324075179692,0.096923564018893,0.0239446538944859,0.0778959510876124,-0.986338585292673,0.0376970151193252,-0.0589645279693528,-0.207197009439167,0.300235450614698,0.0936864574086,-0.971279816195254,-0.023032290488882,0.202189025402332,0.967615826861696,-0.000998323756110839,-0.146027040444193,-1.041398167825,0.190693863587434,0.09005311648552,-0.655702148079045,0.138805979837403,0.380160267268705
66.645,-0.547240127422241,0.354773158636362,0.757754587702423,0.093861909908986,0.0297558577368702,0.0815132411423085,-0.986369533866039,0.0305193505230707,-0.0733188871992848,-0.189706569895538,0.284760231027377,0.101831551976005,-0.967491139022996,-0.0507561369130327,0.196785822538903,0.952960642185064,0.0307529806644193,-0.105882611914664,-1.05966837484061,0.20108083260617,0.0975547055833241,-0.657368734809362,0.16394389376982,0.382307603010401
66.65,-0.535506296644385,0.369247498746371,0.75320713448249,0.0987676618251926,0.0233565259621296,0.0902045618005049,-0.994944479598923,0.054002821391075,-0.0656832509061386,-0.201537072451574,0.277106706448141,0.0841213073346553,-0.940948597799095,-0.094500081179663,0.193442992845282,0.88872189069606,0.0770642782594287,-0.115608555718989,-1.07153170506781,0.201047708393774,0.104004671867613,-0.662650272527778,0.182707968316634,0.387410933956369
66.655,-0.534570021044042,0.371348055062731,0.755477084102099,0.0913824209126345,0.0231640729038877,0.0781887850609907,-1.00015494157695,0.0511983539360716,-0.0763591896704778,-0.238152198185133,0.274670703750144,0.0747763237844769,-0.964270053275528,-0.12240039833333,0.209575698260101,0.83833935973485,0.0876485525689676,-0.141682859697192,-1.08773731714786,0.201846401657819,0.110654197161869,-0.677640541971181,0.198281220883357,0.38828632235527
66.66,-0.532413832093575,0.369603632032771,0.759471879579668,0.0829652229354797,0.0263456802816598,0.0738217207929464,-0.993916337949108,0.0348189721048858,-0.0831089001018595,-0.215886082962606,0.256141004785796,0.0672778018951597,-0.989088530448534,-0.15220838644699,0.213120930111143,0.805351537461557,0.07397704415242,-0.100348255842101,-1.09373615832911,0.196470844551576,0.11528950691011,-0.696517640354428,0.20383903357993,0.387373214437237
66.665,-0.529571458473016,0.362595892587849,0.76691870467784,0.0851606281905713,0.0237530872684586,0.0525324348579336,-0.992382927819052,0.0251698074158184,-0.0885351321542619,-0.172159197058216,0.243308681883197,0.0593315404647661,-1.01585943665233,-0.177013617560875,0.207183551599439,0.762048340021498,0.0559345922326594,-0.0336183104613489,-1.09387704980519,0.191678326957274,0.118232943695021,-0.707179198574222,0.189452531391737,0.383577756719524
66.67,-0.532247413944134,0.358778732571762,0.760969196515095,0.0799834880187279,0.0217812385146541,0.0367030162172708,-0.98642793716302,0.00307451945850111,-0.0930112132232977,-0.10577735274673,0.229476471559148,0.0542875647855532,-1.04285829285264,-0.197284136908509,0.195347459943511,0.733382206986595,0.0390707713559559,0.0165533020302423,-1.08685277862687,0.186094581314226,0.124189455458409,-0.70951235294342,0.154823946882279,0.375801928344785
66.675,-0.52889656426187,0.360651965424048,0.760045062779719,0.0848194243049924,0.0101713121610275,0.0211645158163879,-0.990246946281705,-0.00494026261180186,-0.0966789883107237,-0.00477243374297312,0.224195932371861,0.0570486451015665,-1.05968895541963,-0.212965567714871,0.174892225105202,0.716917518768446,0.0127583017648973,0.0627343330042786,-1.08088796004516,0.180682069792966,0.128546210183966,-0.700766559774408,0.125906477706475,0.37118262052536
66.68,-0.536350942360881,0.370165714920249,0.755958753102446,0.0874279163057463,0.00769260639863358,0.00496590315417157,-0.990610306634813,0.00376589902882948,-0.0908670123473252,0.0908472709406658,0.213726624217358,0.0558853759473555,-1.05655700078782,-0.222223737341829,0.147191495600843,0.685687572867817,-0.0189814809002909,0.0939824602302094,-1.06885273452281,0.172757428058831,0.137291297315725,-0.694432367091026,0.0880256677067715,0.370700208927405
66.685,-0.54156245568641,0.364159229860797,0.757624743043334,0.0784199811652919,0.00956396422969331,-0.0019015722254227,-0.994987812843837,0.0131877525233725,-0.0839144039012461,0.129694271224391,0.200080669883449,0.0525211042972151,-1.04599602200809,-0.215887121412468,0.120473143801044,0.653943367799714,-0.0503535980156704,0.101342564863983,-1.05067757282481,0.165619301576519,0.146455559447928,-0.671178910812068,0.0505747524845734,0.366180601421028
66.69,-0.544533802491227,0.345232220843311,0.76350669080331,0.0747389019523576,0.0177090123949203,-0.00631433106337219,-1.00071862885124,0.00150722376530987,-0.0856391290155259,0.0819524340516682,0.197963493680424,0.0437569985851371,-1.03061299296134,-0.196913610484131,0.0864622756857393,0.6266567767659,-0.0903011537360438,0.126365427136615,-1.03598269127642,0.162715902163863,0.157267454066175,-0.6543517349402,0.0209688272385627,0.362778943235681
66.695,-0.543320615824225,0.342866969915179,0.766175577756774,0.0747897028923035,0.0228946756567603,0.00169312156984907,-1.00226853522889,-0.0145871512444769,-0.0922304949339273,-0.00516719807255596,0.192861640785437,0.0400334430919789,-0.998608421520733,-0.172008910876105,0.0442071690163017,0.617188112438863,-0.116247443572424,0.159703470637783,-1.02018952599415,0.152105419373719,0.159172522800865,-0.631401500976315,0.00323765479250698,0.359359477007225
66.7,-0.543710487266559,0.349216758743769,0.761525592413585,0.0758810257708379,0.0207421262177758,0.013237071143246,-1.0011163045526,-0.0289342692627318,-0.0832158616871346,-0.0552167717569069,0.186692420751272,0.0375570165477174,-0.972228836466637,-0.161107597023442,0.0135282685447573,0.595882998179123,-0.133494354300801,0.184368848505682,-0.999922625919861,0.153487117444867,0.16716176093464,-0.588469337917841,-0.0177919382053125,0.348517320718856
66.705,-0.531099397130124,0.359812599716626,0.765494891065265,0.073929320646785,0.0274260619224673,0.0243534174795016,-1.00274274727592,-0.0267063337183165,-0.0637739938953848,-0.0723988783516252,0.17709494333425,0.043050932293394,-0.942737507657946,-0.154594439171627,-0.00676929769081419,0.547788920814706,-0.138792518111043,0.188727300656401,-0.987216718753881,0.152952050134088,0.167844777253318,-0.527140920724232,-0.0317137685783833,0.333130159276664
66.71,-0.521226726718682,0.369132367462666,0.772332435692287,0.0530816856728604,0.0426076255395682,0.0387434787705214,-1.00545077454257,-0.0228397839568135,-0.0583298977694703,-0.0910511588918713,0.160625899690623,0.0522130180811332,-0.920651312814733,-0.148037257078343,-0.0169884078350239,0.468372333273643,-0.144478061327644,0.170225332295659,-0.980994731184858,0.151689915959684,0.168749136925287,-0.460885102613706,-0.0318225571926105,0.322051274699435
66.715,-0.516259263588918,0.359294846041372,0.767641006505997,0.0310066359060308,0.0594354382307549,0.0378737380444429,-1.01773343934074,-0.0229465483693257,-0.0791895358538342,-0.119614948919585,0.147762478049728,0.0609440578380892,-0.917293272418471,-0.140725569030357,-0.0256842163063426,0.377897810757555,-0.146065221480492,0.138903827280175,-0.97583701759868,0.147711649690111,0.158806399156392,-0.38074714527284,-0.0141051849669843,0.312915292108991
66.72,-0.511064551624004,0.35593146243642,0.771528630346436,0.0260495755515466,0.0519659447080688,0.0370701668547464,-1.03015691185423,-0.033292723253978,-0.0888021114464033,-0.153609877587403,0.12753511978397,0.0675668520278828,-0.927409782260143,-0.133470192374349,-0.0265386070339183,0.28894607033496,-0.145032331347466,0.115949065264085,-0.973488838500807,0.151680469719778,0.148124734830151,-0.311702744548559,-0.000228062351505212,0.304469589275938
66.725,-0.509064324724182,0.354017570576075,0.774057198530869,0.00955233882313086,0.053823105238254,0.0362214242651585,-1.04032925717534,-0.0253584599571397,-0.0865800145133924,-0.19980884211823,0.100001119116408,0.075732545044068,-0.938902050511574,-0.126302655346098,-0.0230687715104654,0.248160361865503,-0.134990699029539,0.100685526880233,-0.970607538086253,0.15275958530724,0.13715437788644,-0.249270786508703,0.0195146908555919,0.29232547323258
66.73,-0.508066233623078,0.358643857206597,0.77881097836421,-0.0101972041881465,0.0640031688683085,0.0268016555161824,-1.03749416570404,-0.0219516361690333,-0.0868763488098631,-0.249883007035148,0.09075644417073,0.0739032940109273,-0.951831342719177,-0.126640156837894,-0.0188621781029669,0.228360555567495,-0.116760061550308,0.0734438065504927,-0.969331765380259,0.156357269012049,0.122847939126281,-0.216589364716497,0.0426547102240696,0.268213121015817
66.735,-0.528034626987218,0.34347735708157,0.776713502499935,-0.0235993023665767,0.0734257000260309,0.021176840668875,-1.02879254133376,-0.0487385979257755,-0.133372510321762,-0.316685782243723,0.0629168511729299,0.0826223240518916,-0.961116653512502,-0.131892807027405,0.0138331639297871,0.198519893897767,-0.0936206861823609,0.0258349936252432,-0.970689889748997,0.155544946399047,0.119315913677781,-0.204350333125249,0.061027049958922,0.246534993449127
66.74,-0.54216294801546,0.335710596275128,0.769074846914689,-0.0239003599057948,0.0727228721390013,0.0125233152473287,-1.00811159292132,-0.0705271122716075,-0.148736325733492,-0.309399808889973,0.0464197177705796,0.0841647370320132,-0.979155255631125,-0.141842525917876,0.024468308169653,0.169246595177431,-0.0773815963853825,-0.0212798410493441,-0.970909145065173,0.16013089320439,0.113389097311151,-0.215209815688731,0.0752220420673904,0.217418540969113
66.745,-0.541923163239518,0.333933567242327,0.765543030170473,-0.0152943730097783,0.0658529182364953,0.0122206189935201,-0.998252142967806,-0.0762185588610763,-0.148332988663409,-0.257900158472931,0.0250428161334873,0.0826171103050303,-0.994691993300726,-0.155653387554028,0.0350335468780606,0.138261338587228,-0.0457040292503362,-0.076141995850126,-0.97038014713018,0.15483023472023,0.103863252825143,-0.237940092851648,0.0962887472775968,0.175779319170927
66.75,-0.543031510149764,0.342604882935876,0.761193946278752,-0.0190370478443531,0.0656111565522425,0.00940913079915253,-0.981599652700903,-0.0593687898903061,-0.134652536215883,-0.187527138582492,0.00825738185997067,0.0879866102560306,-0.999347384898561,-0.192534312372155,0.0692675690523383,0.105206602813704,-0.0251699662914221,-0.11507653953353,-0.966400233401937,0.145575235534511,0.102352537908503,-0.255015857777483,0.112513082006895,0.13058706802361
66.755,-0.538254354826893,0.35259671906203,0.757272011968668,-0.0128654368481213,0.0552089176248989,-0.00386887567849701,-0.981655790403407,-0.00915415271195135,-0.128296721286206,-0.0946283238586863,-0.00745681727677138,0.0892037994730437,-1.00362426745794,-0.219524633897158,0.102141188988548,0.0589588062718382,-0.0222143718315382,-0.145180161174154,-0.968610738503707,0.135691078577966,0.107114626937348,-0.270407350907464,0.131109531224527,0.0993260938269523
66.76,-0.534165071271995,0.356928403009567,0.760657587767292,-0.0222604330960846,0.0441169066226865,-0.0164814516949841,-0.983784568894927,0.00168915954517769,-0.130471413843246,-0.0556955721579684,-0.0276153384701294,0.0957757604757652,-1.0065452085507,-0.235260977363542,0.129526052489525,-0.0185279839319309,-0.027601910507679,-0.136793885228916,-0.974768253384945,0.117693375771183,0.121061344363214,-0.269449630960738,0.158508400999488,0.0647644089325273
66.765,-0.529686189936113,0.364747277130516,0.757790713553053,-0.0203979077090476,0.034059089234555,-0.030621976994273,-0.993180239687111,0.012411429220127,-0.120892182914369,-0.0558849547148069,-0.0422570765802807,0.100168042564014,-1.01165472368658,-0.240475852008058,0.151438473888729,-0.105542364520723,-0.0361079564478578,-0.101303466777802,-0.979282386483309,0.105666275596637,0.124521581616884,-0.277941067310269,0.198001529554064,0.0392050267694769
66.77,-0.530374112686517,0.364845387155723,0.757384676388961,-0.0181205824977137,0.0314524583518505,-0.0428394979586722,-1.00085956401638,0.00040072425375627,-0.122200997366972,-0.0859026439267812,-0.0622355171838141,0.0994265764223309,-1.01087284937938,-0.230629294659237,0.158514500513818,-0.162690503144332,-0.0453020461431538,-0.0724027181119816,-0.975863188166037,0.102827233098596,0.106561131804479,-0.292498098529111,0.208108633756638,0.00809937271411039
66.775,-0.536795949928922,0.359915482683562,0.750780928304138,-0.0278326421976089,0.0192717019434761,-0.0631048493355734,-0.991593322259258,-0.00277977663163889,-0.118615536100412,-0.083995450931234,-0.0811856465264282,0.103920202573649,-0.995981788775004,-0.211514552451192,0.158381189611824,-0.170841599399482,-0.0623954689314393,-0.0323485501218925,-0.991537898320871,0.107017845375255,0.0705808598499607,-0.305669411507108,0.162950916104496,-0.0372555900143514
66.78,-0.53682660522211,0.366702824381159,0.743134627860594,-0.0256089233632396,0.0185629936511171,-0.0694814890174155,-0.977118021161844,-0.0160722594666761,-0.107040978842608,-0.0470952577078111,-0.0938522268303463,0.108426190079599,-0.973505702271817,-0.196099198063006,0.149114180118312,-0.161776168238841,-0.0715024080237671,-0.0151073634624481,-0.998168034773683,0.114510254064099,0.0647860068337932,-0.298662531622376,0.0863141487676755,-0.0598065702823192
66.785,-0.538969032823149,0.375274718044146,0.740993986144816,-0.0297177985094631,0.0034404290544853,-0.0718402362008383,-0.9664923392041,-0.000959125188036546,-0.0930825879134547,0.0260359359673194,-0.0937363705026782,0.111586702317612,-0.942114814063122,-0.17232048797832,0.142666482457498,-0.159765740194713,-0.0760716030942951,-0.0197862329874481,-1.00151431097961,0.115390173779086,0.0792007344863081,-0.260342074614644,0.0119076354253162,-0.0721250693442496
66.79,-0.535366219722254,0.37002103243851,0.745211251725347,-0.0408845914071687,-0.00497741105887935,-0.0714241889237522,-0.966245731123367,0.0309093231244497,-0.077153373415129,0.084993815962856,-0.102775367522156,0.115066147332175,-0.912783111746645,-0.151594063000668,0.13769134034928,-0.158898475610873,-0.0833214152761769,-0.0421737435188195,-0.998854098398495,0.118397219095552,0.113918028806017,-0.208305125932242,-0.0432456560052519,-0.0820988185715492
66.795,-0.535729447670079,0.369495713361445,0.747816822643383,-0.0705275193025057,-0.00444822619567191,-0.0657748550648494,-0.965217003688426,0.0448304276733414,-0.071567269145239,0.0788343734773801,-0.109087943491439,0.110337346792221,-0.895960923272448,-0.132133517966728,0.131319611991843,-0.159354951632325,-0.0948261701383583,-0.0703238118865525,-0.989924316699503,0.114718055266559,0.141037690600391,-0.174659086731507,-0.0597040953904413,-0.0902191313104951
66.8,-0.536032518016133,0.36617430573618,0.758117819784767,-0.0531551661146997,-0.00475406142078674,-0.0589297230036651,-0.98661967905429,0.046009037932158,-0.0603963799016093,-0.00429589910249467,-0.117433494600816,0.108210791031264,-0.889573755385041,-0.113903933281145,0.129790008657553,-0.143180705842672,-0.104260599033983,-0.0894028236056124,-0.979407931511686,0.113558675653086,0.162975587173384,-0.154448308013137,-0.0349637209623089,-0.0962500414928045
66.805,-0.537355753589717,0.348789684265325,0.766641229486465,-0.055444308703651,-0.00617299460061179,-0.0559742253666024,-0.99557170388294,0.0197151810940185,-0.0650819485034023,-0.12339842772662,-0.125165316247144,0.101294246840468,-0.899450456677982,-0.101237288215508,0.121309708888377,-0.118345643259212,-0.108752135471142,-0.087667755215095,-0.969078489205627,0.111193836384431,0.178230520575047,-0.149198588546542,0.00586632741856757,-0.0931717604371275
66.81,-0.534880807908539,0.350423206003171,0.766255953700664,-0.0429880221208493,-0.000608626412367072,-0.0473310940862512,-1.00074844536911,-0.017017483122626,-0.078789524069834,-0.202920059716767,-0.123258510519804,0.0970448636933858,-0.920754830091852,-0.0894010635540664,0.11432301030953,-0.0849026830024961,-0.10735025266505,-0.080333300756425,-0.958707027162789,0.104311340795372,0.182801337839758,-0.163131755434224,0.0669443144604616,-0.085203975414602
66.815,-0.540020425404507,0.344119053293589,0.766238759740001,-0.0382659294957355,0.0109646319813044,-0.0395132839235118,-0.994339744371934,-0.0401380080047759,-0.067711855005318,-0.179761708478273,-0.129760664335748,0.0901936226525283,-0.956081440287838,-0.0825233926537923,0.111939925630128,-0.0430039670628746,-0.0868676573084275,-0.0662397427996585,-0.949267900162799,0.111593177390421,0.181691348661572,-0.16527676838374,0.130475120119902,-0.0787637029002433
66.82,-0.537732951772296,0.347741460225207,0.762825698150837,-0.0217301705017687,0.0189613587374278,-0.0233176288575563,-0.990655509100092,-0.0382453061284998,-0.0662516641262184,-0.0630877547438078,-0.12314682579305,0.0817197099252424,-0.989693669483286,-0.073992653236957,0.116473846820919,-0.0034484011279263,-0.0677553627498792,-0.0633991035192187,-0.950468518781623,0.119585194015362,0.163915581647455,-0.166188545380035,0.171156370959977,-0.0612106783874083
66.825,-0.536455919230932,0.351173880480986,0.761695982110574,-0.00965294941952244,0.0208270813612108,-0.017020365458376,-0.986811257603255,-0.00983069324165407,-0.0611719622407022,0.0625304057034766,-0.114084721667513,0.0785321599118622,-1.02225895901388,-0.0647766705472047,0.127768837783631,0.0330473946045216,-0.0397309477280318,-0.05482206361979,-0.954913933273518,0.125090798389577,0.143013449403317,-0.156746664332184,0.184514353145908,-0.0457084742980487
66.83,-0.526538726730497,0.36164970855576,0.755900918276183,0.00229818000040915,0.0146059470454997,-0.0186817551811353,-0.984334533325817,0.0248535382985986,-0.0619954201806943,0.137786282674224,-0.115560071121135,0.0693180041274481,-1.04474509546252,-0.0496171165050441,0.146445449036147,0.0607613451171482,-0.0145204616536713,-0.0450004856963959,-0.970970971909095,0.12787269939594,0.127573465055286,-0.13716734016533,0.161902307752867,-0.032786583501621
66.835,-0.530038554237176,0.357055491279915,0.763936659968908,0.00680546797334095,-0.000783702362653375,-0.0322747230529785,-0.972917871449112,0.0421827240110935,-0.0550171639221414,0.116173023049215,-0.117003887891769,0.0706073441752078,-1.06733450092869,-0.0335283140372637,0.161361861747854,0.0724469453803993,0.0070954408246514,-0.0305464155814136,-0.983179673346234,0.121108084038963,0.10345562762385,-0.120970907152763,0.130866195492594,-0.0142686129445961
66.84,-0.526708512592247,0.356455935619616,0.76729154789308,0.0190819923921361,-0.00490579756990035,-0.0360386366705803,-0.978420983786933,0.034154113448957,-0.0599921740974352,0.0654546484494296,-0.117517613167929,0.06500939645105,-1.08634653578887,-0.0203636026999856,0.170288270096811,0.0632372991984319,0.0313334714207907,0.00726100087641065,-1.00071376945357,0.123719482905722,0.0907948332144805,-0.119198166600187,0.104153050882471,-0.00486989195700565
66.845,-0.527665966498488,0.353870180852868,0.760403648927871,0.0276184306791979,-0.0101865392180619,-0.047612642951893,-0.983480308571476,0.0132833005812669,-0.0572802806315197,0.0379766705860904,-0.115751708614898,0.0540479533543994,-1.08788435823166,-0.0125411380874635,0.171698973566888,0.0516477303961384,0.0505904844086081,0.0550938288213413,-1.00896150602013,0.124883865313087,0.0804629619753873,-0.138406521795829,0.0850621730713653,0.00810955704643795
66.85,-0.530358227290613,0.359607306164027,0.760208368289906,0.0400523644808939,-0.00896943935128559,-0.0576123739518968,-0.993668288091142,0.0015657135621802,-0.0608222443244563,0.0920086013105208,-0.120285951830716,0.0424586734777879,-1.0774155710695,-0.00651143946355509,0.173909812009963,0.0376914624552901,0.0621733217758464,0.106418055178531,-1.02719224167072,0.132502747912013,0.0859854994537332,-0.179343742200198,0.0623682521263284,0.0107827335596085
66.855,-0.530771172264976,0.365136368747389,0.757296818786753,0.0547248250999424,-0.0181400303560934,-0.0632933010497587,-0.992761641030963,0.0157234127553557,-0.0534118317849591,0.193584139920625,-0.114652523979455,0.0295716100871397,-1.05353183775293,-0.00342711835768565,0.178517434270032,0.0531175819490197,0.0695734750564934,0.114400046864742,-1.03383023474806,0.137899654773625,0.0944715640313567,-0.217834476763917,0.0435134478079597,0.012782060216408
66.86,-0.532499570154842,0.364549796635802,0.759433263025076,0.0516226738208316,-0.0209639554324827,-0.0640839502993512,-0.99098199653343,0.0353315306092277,-0.0444175653972478,0.292096102559312,-0.104114158686365,0.0185428894855025,-1.02843970148587,-0.00309567846984242,0.175948620745657,0.0426124812001976,0.0754874389107025,0.102315305613103,-1.03916461391696,0.14880876346716,0.0974148561750885,-0.249319134206192,0.0285594876378016,0.0104122307956554
66.865,-0.531069439416911,0.360503167697337,0.762925825667475,0.0598817344276135,-0.0280432437426851,-0.0740517397624291,-0.98815553509414,0.0596250348633832,-0.0387824597760522,0.33624861256799,-0.087923635425338,0.01138009224087,-1.0136201710813,-0.003088375144043,0.175235855596454,0.0150714394603032,0.0761284906396787,0.0843708453011251,-1.04393695075568,0.155274284896289,0.0999846360200416,-0.268350169714897,0.00415662559930806,0.0112334379144873
66.87,-0.528572844735028,0.35812441310109,0.762857089063116,0.0719473979124857,-0.0331200562163824,-0.0797878338340595,-0.98490482638266,0.0539420364450897,-0.027328490944978,0.310119610213139,-0.08978713403486,0.0033034883866502,-1.0051950119202,0.00114990233888711,0.168262714238381,-0.0137266318909737,0.0748726800084114,0.0668465387565967,-1.03570253566392,0.15668605965064,0.0991287719588651,-0.266426287361919,-0.011721102027127,0.00750673872315249
66.875,-0.52111692062699,0.364245368997649,0.761394105925418,0.0860271640004987,-0.0274310950072879,-0.0845547541508177,-0.991300680867753,0.0412799726930318,-0.0235701845031888,0.270527428193365,-0.0840181261301041,-0.0113565576305917,-0.998741639148158,0.0065272621200778,0.157359969081879,-0.0497322713520318,0.0734716628234368,0.0615119346565412,-1.03443108896925,0.148021982512447,0.103712291555045,-0.252924422841522,-0.0271896210563209,0.00177711417020499
66.88,-0.525330133967285,0.366708012274679,0.760641426960662,0.0892389034366082,-0.0306428318908545,-0.0895888001161725,-0.992377357620772,0.0355917850344478,-0.0221976758682918,0.268788418647503,-0.0786690668800782,-0.0246632142551276,-0.993009951238259,0.0102460315827658,0.145639679959905,-0.0716721468564459,0.0787810667371651,0.0599051952819331,-1.03458158016516,0.144395982713119,0.111652477408729,-0.231351780569752,-0.0571962933891719,-0.00425698052275702
66.885,-0.528363282901773,0.368148860168161,0.757672910740072,0.0944136191484946,-0.032457288467963,-0.0925961879609438,-0.98569724275342,0.03790050999358,-0.0297758124215833,0.312701553439243,-0.0628095407785981,-0.035879476487758,-0.98255307101387,0.00514643655994813,0.131821191335962,-0.0934043770325146,0.0804093139135825,0.0552245146917045,-1.03352508838266,0.141573823071144,0.11142213569731,-0.212742497581573,-0.0758367696501273,-0.0124425725021496
66.89,-0.529820847310972,0.371440551142688,0.753208889067429,0.103763517391306,-0.0297313686075787,-0.0945315920386459,-0.982110329529229,0.0372833506382241,-0.0286260821664051,0.363870172196757,-0.0560648441113956,-0.0410070829294197,-0.979127532691382,-0.0039152822641523,0.11703981277616,-0.104417246735032,0.0799499356783972,0.0385683736124477,-1.03414474940422,0.139002871443687,0.105233798881357,-0.19781805585846,-0.0919175041186563,-0.0201938633050073
66.895,-0.531356039980431,0.368993024319771,0.753866608694307,0.106098829540858,-0.0366505943039074,-0.0983893100387379,-0.976126166466304,0.0427568567651895,-0.0156586287400115,0.404965604369679,-0.0363464314154348,-0.0564303557472537,-0.984109423829127,-0.00925169868506172,0.108753115934406,-0.105557301947097,0.0793076549980262,0.01957800214287,-1.03083735488189,0.130220580443288,0.106150752832986,-0.184421366175438,-0.112885651110964,-0.0251384098297293
66.9,-0.52577541548549,0.362003240161263,0.756635545557871,0.105005495030489,-0.0419702154082154,-0.106592520522094,-0.97261475788439,0.0453120656566157,-0.0152628286605293,0.379097916255943,-0.0254185452678493,-0.0598993389561532,-0.995282995810615,-0.00588317956318814,0.0995621760533743,-0.0985250518982448,0.069200902606345,0.0185750024600632,-1.03013619494241,0.127818720243955,0.112984929236816,-0.171798878275337,-0.129589237124555,-0.0290498863535207
66.905,-0.525830063352569,0.367292937277542,0.755908678497488,0.105722297447154,-0.0467869811736661,-0.109631713943908,-0.969787687745169,0.0353074226271665,-0.00728697855963292,0.351790100765862,-0.020565056224212,-0.0719856391794112,-1.00916304790945,-0.00043817030435528,0.0882853307007057,-0.0795893918177333,0.0660219801655375,0.0343317405201291,-1.02382208799265,0.121211796957152,0.115518118186766,-0.151400293262275,-0.141577073534007,-0.034446201379428
66.91,-0.528287708973888,0.364856095147008,0.755745087331786,0.104176468468356,-0.0502688749300481,-0.111552664505148,-0.977362386521269,0.033424618051249,-0.0144641184979404,0.328158684336364,-0.0134284773399579,-0.0778036117553711,-1.01425682745089,0.00563507195249344,0.0812981159827638,-0.065383832768693,0.0673121400861687,0.0409753971356834,-1.02074385034425,0.12292982294682,0.120508159751546,-0.122278716021501,-0.140752068621143,-0.0389678632407267
66.915,-0.531481776925645,0.363363579758077,0.759697846581287,0.109682598788011,-0.049179382622242,-0.107517515795624,-0.981376859465055,0.0352091554396732,-0.0164271915230012,0.327857520541155,0.0085144114056833,-0.0881663791354204,-1.02156496849991,0.0124820492515777,0.0846749813615354,-0.0469955343666434,0.0720575774131835,0.0393113131858644,-1.01254155006371,0.127471623350804,0.125267361099819,-0.0969534340199462,-0.135610178194589,-0.0454719855293769
66.92,-0.527029074047009,0.367609245606822,0.760386510382465,0.102349569633526,-0.0475620708910296,-0.107193707719677,-0.991889912959067,0.0471342913669582,-0.0098254154304532,0.342444756993709,0.011980852331667,-0.0981885558527752,-1.03476824385427,0.0176572490838618,0.0917836587902069,-0.0605248003523796,0.0719618863789243,0.0381797916618985,-1.01302231696742,0.132047547886952,0.133143580443793,-0.0605240178542995,-0.131623789161188,-0.0566131892945805
66.925,-0.511256682913682,0.373681008430032,0.765048602491885,0.0999549600059934,-0.0463703102084424,-0.112665517116557,-1.00588935041382,0.0485407540435169,0.000968673368110453,0.340491742266013,0.0237455410087568,-0.110161575143446,-1.04824086648138,0.02545593784223,0.0967918363192575,-0.105183325173508,0.076495429117318,0.0662432014276578,-1.0112564901952,0.136347052577422,0.137282689982105,-0.0282861823819399,-0.13317419081666,-0.0731717552910846
66.93,-0.508041111653724,0.376766667742391,0.770033902660819,0.0957446340971779,-0.0409377323676465,-0.116447559214063,-1.01006814841204,0.0458830004973013,0.000291056614191493,0.288858028242904,0.0341452756624995,-0.120136720327236,-1.05994978937808,0.0280669947270856,0.103184607315159,-0.131943688725976,0.0784328893756417,0.114701402392109,-1.00972590398612,0.133735787099692,0.142545203519407,0.000441419463270102,-0.133728944096416,-0.0806074787428587
66.935,-0.515515005941408,0.363398303184719,0.761349330822532,0.0972877407456403,-0.04371937417928,-0.125414890479755,-1.00939295114383,0.0344485118105258,-0.0234751395265548,0.235662332680174,0.0471739962191592,-0.130053377986962,-1.0590031992727,0.0252391997510562,0.108708157568215,-0.123808824092717,0.0753582242971723,0.156723452174707,-1.00620055435754,0.134712064616767,0.139625194136721,0.0372730259339377,-0.132466792762544,-0.097030064893764
66.94,-0.521056334897575,0.367266199557081,0.762668170212843,0.102640560144358,-0.0429678891293281,-0.133530265738895,-0.994991423429849,0.0263432307435026,-0.0323960059682698,0.220135499836296,0.0415000507225918,-0.136761300716397,-1.0549813131033,0.0274386667680601,0.115274984737653,-0.101336457969043,0.0808730515102368,0.183058010701772,-1.00597579172453,0.132424123084904,0.142436384310791,0.066496386470551,-0.129855859349866,-0.115171567308525
66.945,-0.5281107923701,0.366139007681615,0.759802993778132,0.104326832122746,-0.0432873746242349,-0.138299224106194,-0.991297448932803,0.0164399643892786,-0.0461093769688931,0.218845565262431,0.0492753539469764,-0.142189118032321,-1.05241243858194,0.0274907534224886,0.125816467731244,-0.0999502233008105,0.0878288326089027,0.196132916019278,-1.00774881245212,0.128557902550546,0.147438500992788,0.0866602501606203,-0.129852140575946,-0.133778074149118
66.95,-0.529609747284506,0.360906350308187,0.760516064797575,0.0972725007379427,-0.040873672984261,-0.14558462162813,-0.978169879519731,-0.00241756678885786,-0.0626434403317575,0.23616488999049,0.0597103584302963,-0.148316724402988,-1.05095685484694,0.0213091399666548,0.126516947806325,-0.114288379490806,0.0906213502401967,0.213925857422948,-1.00641189460346,0.115096972482576,0.148929027538168,0.103191230008193,-0.131341886471149,-0.155963335016939
66.955,-0.535551657108199,0.347343590991967,0.76850327627882,0.0962783324337725,-0.049179382622242,-0.148821074580568,-0.982887381753495,-0.0140583428259512,-0.0702580469381782,0.249112651068061,0.0641494007679266,-0.148978795770981,-1.03845289067789,0.0172395733948189,0.112745148419292,-0.12549080976585,0.0938635546330578,0.22817621286987,-0.999667368573013,0.111094936170644,0.150511302862084,0.112054473919185,-0.123310153540206,-0.175751433937541
66.96,-0.535419566618294,0.343962010444203,0.766409822629706,0.106024588114848,-0.0515721582706152,-0.15269330972686,-0.982544785063515,-0.0244871612762197,-0.0796454337590832,0.290510462361465,0.0592345441989921,-0.155992060899734,-1.01888790553638,-0.00837751423062633,0.102089210771195,-0.159117352741095,0.100951027573241,0.225546488081854,-1.00750719140123,0.114207344635383,0.150015465447335,0.118300216899342,-0.11647269838063,-0.194690967394156
66.965,-0.541268785731882,0.33821488252835,0.762919606376019,0.112846921196036,-0.0575977165005737,-0.155665874481201,-0.978676701907325,-0.0283146435471511,-0.0881073223243948,0.323810160869604,0.0554723792705105,-0.158218105734817,-0.998053152834106,-0.0275678877615213,0.0941953879100426,-0.20169579056656,0.113012469403362,0.211860576873534,-1.00969885872819,0.112418344206437,0.154794226377504,0.129667870241724,-0.110399511579978,-0.210875154101391
66.97,-0.541586023348018,0.339298729551846,0.763140673367902,0.11978649360564,-0.0589529350399971,-0.147474341188914,-0.976511785562667,-0.0190644957571876,-0.0947758053690088,0.345519771567718,0.0494530823241015,-0.15622194447652,-0.972725799156217,-0.03976273210787,0.091525942855374,-0.253151082732556,0.132240600560003,0.182518764510235,-1.01118222335789,0.108525600709175,0.161887536678241,0.141168651102229,-0.101652160267257,-0.23242558713383
66.975,-0.540661939601932,0.347501968769158,0.765699330401802,0.127068109019648,-0.0540156172811792,-0.148285159615602,-0.996805322257854,-0.00250048428148629,-0.0938228418053111,0.412096811695534,0.0349481493987219,-0.165862760280092,-0.954463369852085,-0.0626019354462528,0.0940719252817539,-0.307202746712928,0.144327655999531,0.159697323275397,-1.02483656100728,0.105603595957752,0.163642993703553,0.165125034388324,-0.0974886904315795,-0.246671395395314
66.98,-0.543810463258474,0.36361744400323,0.759705853303621,0.128288340071109,-0.0437106990760565,-0.138527103532768,-1.0055354178542,0.0141870119101825,-0.0890178344819204,0.459243506086624,0.0322331866815319,-0.178326342592649,-0.940430496196249,-0.0774668962468252,0.101215534770502,-0.341944636689955,0.150870558392372,0.132450696484269,-1.02453008655021,0.104023656030627,0.161944203516354,0.208375096094483,-0.0926688372408967,-0.254892626359438
66.985,-0.537262397076838,0.372627571182809,0.758664188812984,0.135217094534772,-0.042883677505302,-0.134991343594775,-1.01642817205107,0.0399440030955882,-0.08666103014612,0.465601736942259,0.0292212361426606,-0.191108242995784,-0.936068984809325,-0.0816762049474019,0.10804646438511,-0.348373128205496,0.153061121702194,0.112282253259821,-1.03354694650758,0.0996422637616073,0.155162163741199,0.23708412769031,-0.103925917161462,-0.260928249625613
66.99,-0.5306672974328,0.373374708982933,0.760810615722189,0.111963631432584,-0.0287593027608062,-0.142102686536571,-1.01441450882697,0.0553849187559464,-0.0802369546168947,0.433045931726776,0.0308211520314217,-0.203346994903362,-0.94190605331553,-0.0842872693400376,0.117085967693819,-0.339996143873903,0.146375778741997,0.0799982971504599,-1.04468976752218,0.0990233872679107,0.151758747546595,0.260058345914453,-0.12251578091318,-0.270525976256014
66.995,-0.530998702342974,0.377615169800393,0.757812130587646,0.109252789405399,-0.023992696423041,-0.140252739573553,-1.00225831160275,0.0643393689117166,-0.0792334288910844,0.403107175000871,0.0198259055614471,-0.215581827314032,-0.958825737188971,-0.0812796605738575,0.142298455617444,-0.343597759285682,0.149769938980856,0.0657570732571355,-1.06113744947892,0.103109125542967,0.140246387266577,0.280919846958268,-0.173085213149899,-0.276561078459011
67,-0.53215085109799,0.378192543816505,0.755500266537147,0.105332061648369,-0.0324764458538964,-0.151440628674693,-0.997092788533647,0.0587615199213804,-0.0771883477574787,0.371173363471876,0.0193111132892263,-0.23077653555544,-0.980213178072893,-0.0810307550502817,0.165586310952144,-0.365475699611359,0.143287569284439,0.057256073420722,-1.07949801196467,0.110993963636908,0.12758546722051,0.290406847650841,-0.239924123509917,-0.278310187729936
67.005,-0.531146303576232,0.379350739763818,0.759475587045065,0.0993655747920414,-0.0319619794499238,-0.164558763667691,-0.995072826344784,0.048596613563252,-0.0770091426062878,0.359886670367071,0.0119747183965063,-0.241989018342807,-1.0004185152712,-0.0801565024053036,0.188137926936616,-0.39379855913069,0.136275639954627,0.0666583616539077,-1.09302128609306,0.118135294347122,0.122436532832269,0.29425937489206,-0.318132334638317,-0.278297668253724
67.01,-0.530155658883722,0.382918803407098,0.754442003275754,0.0910620372560816,-0.0251357999862303,-0.175888244651042,-1.00143296730005,0.0296828157024017,-0.0719906513739483,0.373419669045702,0.00771315589603333,-0.249541534371026,-1.02014422786908,-0.0720403066616755,0.211480104623534,-0.412466850053146,0.122660839827628,0.0760651308692054,-1.10247522921133,0.122115357393328,0.115651092675818,0.306278061392033,-0.432012309242909,-0.276657513411938
67.015,-0.532780334636691,0.381417936659108,0.753907895147177,0.0865163216977718,-0.014244671047958,-0.177668707085644,-1.00111704961471,0.0241067509479056,-0.0698777657536801,0.405751845555881,0.0110533944815795,-0.266827151357968,-1.03561890643543,-0.0624945268677941,0.219675415760753,-0.422713354381679,0.120075382292271,0.0951996008274367,-1.09691028135422,0.123458174655295,0.111809770105491,0.332306837232655,-0.528782458789486,-0.279066046310507
67.02,-0.538976485341961,0.369872144173105,0.760510927766128,0.0829521414566119,-0.0216174443338288,-0.191779669722634,-0.997912174263674,0.0236485559943022,-0.068347772023806,0.43192614039957,0.0105651202476517,-0.273395216157353,-1.04594785797836,-0.0529873457573333,0.220479258786817,-0.43342155759228,0.123345322812645,0.11302713258673,-1.08277124557947,0.124897302917922,0.110113406143701,0.362975135199358,-0.609412602512186,-0.282098490591822
67.025,-0.537809039133655,0.36763455264673,0.758972988850529,0.0825776234668657,-0.020622650121434,-0.19361419003746,-0.994109443475529,0.0228528484265069,-0.0612061409907167,0.447783243534403,0.015357414269347,-0.284289898407221,-1.05305847731255,-0.0450274041358315,0.215890622642327,-0.442551144549471,0.134749283663048,0.138853303344596,-1.068082718263,0.116906353364387,0.119459179395209,0.39255136338387,-0.647446632984171,-0.288132332223818
67.03,-0.543590880662969,0.367500267996019,0.758378124057155,0.0786785027378194,-0.00703529784566035,-0.193594327313887,-0.998661120862105,0.011685053809344,-0.0578165740569988,0.454854502272304,0.0185245373119155,-0.293645207706784,-1.05092198535843,-0.0338124947374806,0.205546910505006,-0.450220532309535,0.142875112187388,0.164053614769389,-1.04894074315879,0.10875466902065,0.134239497482017,0.420458725175049,-0.662483364302939,-0.294164687354391
67.035,-0.546004769474322,0.368775617104242,0.758690335653111,0.0766454284166696,0.00133278197817102,-0.194337411405285,-0.997027078270415,0.00300795927166607,-0.0566952795804062,0.442411703111198,0.021984575968796,-0.304754068584632,-1.05066409961689,-0.0226713419132554,0.182926605703367,-0.468812117424864,0.159916824470855,0.200329962665374,-1.03639784669892,0.10415365272114,0.147332473634258,0.448754020687227,-0.616402744027411,-0.297484035554746
67.04,-0.549090424683903,0.356895035067974,0.76206881509162,0.0755268189350822,0.00905926472621378,-0.187129633368794,-0.996291618033674,-0.0126639110532514,-0.0515280238780676,0.431620318586266,0.0311098660265368,-0.312890909324812,-1.04481912103174,-0.013045270376491,0.167198939013183,-0.485860475892005,0.177539996896995,0.218079609273393,-1.01271584623708,0.0902737943043985,0.153755487178681,0.450733736429159,-0.55275629347423,-0.304973859579581
67.045,-0.554805225511392,0.354089148346401,0.758011958327082,0.079009854750568,0.0143084145653812,-0.18506718224292,-0.989114250511612,-0.0275287852586531,-0.040590478186615,0.42622115049645,0.0473840811209643,-0.326101816699008,-1.03874463556291,0.00186938192728499,0.148031054338583,-0.491246020102948,0.199716082194912,0.241844261065036,-1.00269546146133,0.0866258318795378,0.152917800707111,0.446396772547155,-0.485781376270073,-0.314224429013237
67.05,-0.565223472388154,0.346569970253976,0.761067927348687,0.0880081103487565,0.021293504584491,-0.161763900510395,-0.976606882966116,-0.041823855046835,-0.0350143402856893,0.426834145174628,0.0665096708462709,-0.337543397076769,-1.03130269488318,0.0134314470040257,0.132605547646991,-0.478751328315256,0.21810181809008,0.257724835351941,-0.982345186501064,0.0886857320529073,0.145638021736093,0.432980011878423,-0.412220547456163,-0.331511228141112
67.055,-0.55936834357497,0.35005099332811,0.759408532327392,0.0695993517351571,0.0499498207309146,-0.135233535271771,-0.968134801138087,-0.0373009625734627,-0.0248731214937154,0.437989771366119,0.0883783101219954,-0.357063938959652,-1.02735117297165,0.0225358695697216,0.120870345124369,-0.464617507791793,0.233822886174042,0.270353218950508,-0.975105850679956,0.0855919716820705,0.135602963656814,0.424095293370787,-0.368929280235542,-0.351736574163851
67.06,-0.560426936740297,0.347533164814075,0.759743455325677,0.0800435067394861,0.0602435528841453,-0.117221831713524,-0.970000516256806,-0.0342295601244953,-0.0196351222436094,0.436980826560112,0.108024878080527,-0.368645901609761,-1.02645465034543,0.0334185642411594,0.110063534846221,-0.456137114054909,0.24366796238987,0.285358017646752,-0.962943575715238,0.0958921707938326,0.128105691114835,0.411809243917602,-0.319184412148604,-0.363883388963987
67.065,-0.555082945351449,0.344638937414043,0.764858345234097,0.0838027502254951,0.0738559435292928,-0.094856030919223,-0.981941817951313,-0.0333005778850578,-0.00938777016709364,0.426541822963708,0.126969133959453,-0.379599360730483,-1.02845826935876,0.0408177031709872,0.10057575228998,-0.441502226634254,0.247491722424762,0.297003643469582,-0.951545968901879,0.105422346122255,0.138025170232333,0.400308107983028,-0.259152857757056,-0.383885359576527
67.07,-0.550878725158177,0.356281231330744,0.763414394779726,0.0857238335355898,0.0954077630768451,-0.0710028755192942,-0.983074944272664,-0.0393479044068011,0.00723762682604734,0.40392128606619,0.156006473653019,-0.390047158861194,-1.03040626750446,0.0542038211217223,0.0875719265230254,-0.432729487547744,0.24835330247879,0.333681776939568,-0.935754450277556,0.113443961107255,0.150091012885768,0.389547285163467,-0.204222613786355,-0.397602677199832
67.075,-0.549983287768554,0.361767198637805,0.760649457281307,0.0877933650688109,0.101284154428098,-0.0636038094511156,-0.976907755187231,-0.038681847472056,0.00929063462486674,0.373596050337171,0.186855673303775,-0.404212449165893,-1.03174540149573,0.0584743146630452,0.0763888817784407,-0.405460501528341,0.249055719988087,0.370042385845595,-0.928749937566557,0.108826478762253,0.154080677826243,0.384058893547538,-0.160333555061027,-0.40856772825337
67.08,-0.54692684756447,0.357430758462775,0.759329575566159,0.0749309054633311,0.11424527813247,-0.0474998677669405,-0.975733025132972,-0.0358692499768601,0.0221912867083033,0.367512615393477,0.214153641847143,-0.406248872870886,-1.03433868562626,0.0693897632783119,0.0640985076966482,-0.37592083206397,0.250139326196371,0.41483745577291,-0.918979505490425,0.105668550519075,0.158215941902767,0.392555830711893,-0.115788622281284,-0.412887131219052
67.085,-0.550256940641774,0.357321697092129,0.764589308473877,0.0693089933106207,0.128044507599793,-0.0309748471310516,-0.97272845014919,-0.0292916600296463,0.0249517067552978,0.360546564222543,0.241678278381226,-0.414287602780384,-1.03632910924189,0.0757720337127725,0.0568295341319754,-0.351334540192569,0.258474925503274,0.473031145591266,-0.91038244032145,0.0930312361474351,0.157146255305964,0.420580887254624,-0.075058248196068,-0.419013265266766
67.09,-0.547098271735517,0.364289372061115,0.76214137822659,0.0733243524918573,0.134026061352875,-0.015609579911787,-0.980418451551749,-0.0196553317678831,0.0216289747186869,0.363178519424975,0.27257086847202,-0.426632459992528,-1.03155883680864,0.0787129685433414,0.0535053278892226,-0.321793006348662,0.261603811578205,0.523093209285652,-0.904728748930533,0.079636638623973,0.154048043707194,0.450198996804874,-0.0469023093920743,-0.417163724170009
67.095,-0.539913220538851,0.370754215816741,0.766962505986169,0.0750336452913216,0.154591729464369,-0.00173632357010595,-0.99299636903818,-0.0112959079909237,0.0229722735504524,0.36214161297817,0.299343964274933,-0.441736278960083,-1.02921023992371,0.0860553413482028,0.0473934504345722,-0.303356308030078,0.272539476518292,0.579256597655121,-0.913824067773594,0.0565920479895045,0.144420327511249,0.48369935035636,-0.0507050696108863,-0.419957345749736
67.1,-0.537392519097235,0.384287835183635,0.769201742368016,0.0760113969445229,0.180731792060707,0.00966179071273292,-1.01897028705913,-0.00149941509048216,0.0218503675705403,0.354586602202871,0.323462032740382,-0.460849891881858,-1.0313129037479,0.0924955521209689,0.0353273636349729,-0.278052623188989,0.281410087848299,0.609320620108829,-0.920032679787186,0.0394032200596179,0.132087569074352,0.510799605158766,-0.0628241057585845,-0.417258439864688
67.105,-0.525728695235317,0.391797104483797,0.768317300768032,0.0953955249890725,0.201228996991051,0.00412118544940243,-1.0396987468349,0.00308186379670496,0.0263203007532458,0.345098490911602,0.353087672506268,-0.474091810200781,-1.04137995726478,0.103051176309464,0.0274739959514647,-0.243997403030529,0.289813475268231,0.644266432697518,-0.935439021424953,0.0222040324486906,0.125932955244754,0.541556758786224,-0.0843681764993334,-0.416500431304516
67.11,-0.51910736909453,0.401612539577489,0.768102769510442,0.101839048587986,0.230003635111351,-0.00723859059605854,-1.06081513095584,0.00420165329400432,0.0344020602819675,0.333688324156103,0.37224049804174,-0.486306989726725,-1.058282862088,0.105261114049517,0.0205326979849743,-0.217090914927472,0.296472745932674,0.670761033697456,-0.960736438395155,-0.006346311161802,0.122413032993253,0.595678360500724,-0.0975255855632681,-0.414535476987968
67.115,-0.508502650091381,0.412062583694043,0.774116144478669,0.137841527279941,0.269706151302534,-0.0332660234977342,-1.06765586102773,0.0039652188373313,0.0237517281049259,0.332832108486564,0.387463997352989,-0.493954810936702,-1.07372837977395,0.103584191040207,0.0105025544627016,-0.204069865843196,0.301086660129619,0.692836620307098,-0.981111182579738,-0.0261450980682027,0.129852975428184,0.649075223795264,-0.0968534962258526,-0.409860275317609
67.12,-0.506909210214683,0.422541020446044,0.77480980131784,0.164029422258327,0.300562169394107,-0.0631328836398137,-1.08252637341391,0.00101830989942996,0.00998078700833995,0.372055805019712,0.412221206192551,-0.492991378771252,-1.09206010447009,0.0933986293794562,0.00768505714910297,-0.197592657403462,0.303022023052529,0.707512392217663,-1.01101152151502,-0.050858860309066,0.136484127025321,0.716687130219817,-0.0756034778762849,-0.401194642881957
67.125,-0.505082942360215,0.434598045524269,0.776684134172606,0.247826911701192,0.337838886239827,-0.122541755165703,-1.09134794940349,-0.00212744348669699,0.00829557658347438,0.428345195821324,0.426663083094609,-0.493582678348031,-1.11007111278708,0.0782850220961628,0.00620689866221143,-0.196813733337399,0.305308688013799,0.723504695853978,-1.02462582969848,-0.073104563579048,0.151854417331661,0.786060129977151,-0.0407416790984099,-0.38619518495399
67.13,-0.518823668354265,0.451097059992023,0.774392479369387,0.353198086008199,0.37222140993016,-0.185102701447635,-1.10675808231921,0.00184299281943481,0.00805369629067117,0.508900487215743,0.429012996909137,-0.493179738521576,-1.12686367486863,0.0629010764403452,0.00124846635495817,-0.199909473404936,0.307940193266108,0.740686412933944,-1.03804276494269,-0.096931874844299,0.169916368911103,0.842949673650171,-0.00426678600079098,-0.362975343659444
67.135,-0.563289443574579,0.452325508187309,0.77496061934108,0.415389236641124,0.395761406044819,-0.266568352536428,-1.10156274277606,-0.00283110253556672,0.000506814128299802,0.629551478158707,0.419128791538495,-0.46954261498307,-1.14246394497677,0.0423468351278449,-0.0124155197265571,-0.199231594587341,0.314261507800754,0.74534639125379,-1.03408144043743,-0.112281339160609,0.200287658215702,0.878544776743259,0.0414998521532709,-0.332333118152772
67.14,-0.620099283508942,0.448523740506251,0.760806292118998,0.457154470813133,0.384359845712421,-0.378749022495297,-1.09863898764448,-0.014037714208544,0.0158249732696003,0.766964804244499,0.402677218521014,-0.437636355303903,-1.14609199090666,0.0266322771844638,-0.01718198565009,-0.216106898269235,0.324879081984705,0.741582126816355,-1.02207609413488,-0.112456799926615,0.21784946624213,0.874462269418712,0.0759081044910421,-0.306953186047524
67.145,-0.666186335408271,0.437216218205591,0.767587174461414,0.47871336215857,0.347653828700863,-0.47045861560387,-1.08200846454928,-0.0266514525083808,-0.00254255957225009,0.905596190769274,0.374101074453809,-0.3937683326775,-1.14145790221556,0.0112201953656293,-0.0285268942378641,-0.236768555934266,0.340233316433437,0.74157196429556,-1.00763352555786,-0.105263541645874,0.238690068674482,0.842972879806706,0.113008805696336,-0.287935219776538
67.15,-0.661357075478921,0.386519519520739,0.760947539614797,0.547784340766264,0.3155355746648,-0.520345823680177,-1.06566371421018,-0.0492974279731597,-0.0452571621580711,1.01515515942781,0.370452225208282,-0.356994270406102,-1.13199364889375,-0.000263755831830189,-0.0482433530801195,-0.260848735980762,0.35212849729006,0.750180991779932,-1.00256378576018,-0.0974806222650311,0.255512239016662,0.751316973146312,0.150554671476043,-0.262792211665707
67.155,-0.706570845906974,0.350265615193952,0.765537443924027,0.69420087457698,0.287006804571075,-0.528062518666702,-1.04452664842516,-0.0964474264447587,-0.052037457094409,1.2478617383629,0.379573092562482,-0.327709893953719,-1.11594600295211,-0.00897170740749601,-0.0640792160722118,-0.293029952890591,0.372787369751297,0.748451709747314,-0.996922523100269,-0.0784636605687557,0.279020097114322,0.653963596182214,0.179993455853358,-0.244551420211792
67.16,-0.7817832267542,0.347964823899616,0.78503317359197,0.973043653619654,0.255551573566846,-0.533066681618463,-1.03359601275978,-0.129164987501402,-0.149909923580765,1.27842742248142,0.403326556608307,-0.307853785148474,-1.1036710397352,-0.0219497836592146,-0.0725517638738835,-0.321380894527586,0.397366924921653,0.748451709747314,-0.999636075091745,-0.0669381807025805,0.278458962739163,0.563535794313823,0.199354243196388,-0.240223232609946
67.165,-0.871391304286509,0.329255399018286,0.796901290233676,1.1800208807937,0.247827726042944,-0.462390950223029,-1.01634674493359,-0.165834723706011,-0.185446783625559,1.36066056554099,0.461003329756269,-0.316092318790513,-1.08919324998807,-0.031803512651882,-0.0866399180052568,-0.349167413058001,0.412027883798936,0.747677205149101,-1.00466362308441,-0.0640705388028958,0.262855564261651,0.483695108353635,0.203402052618679,-0.232334494590759
67.17,-0.911377197721965,0.28297571164171,0.785734285672317,1.444583844305,0.263826686480613,-0.377713640361596,-1.01733877789197,-0.165790367982865,-0.209629275858593,1.32737520379443,0.525993526352388,-0.325647647723908,-1.07257137074245,-0.0425461853114052,-0.093144402256468,-0.360125487503774,0.432621485367064,0.751708405032973,-1.01426241551213,-0.0513763856359271,0.239442754787533,0.418385132194254,0.189913009356237,-0.215852003950481
67.175,-0.919602906068652,0.354587036424802,0.780369110775358,1.643772434295,0.329971485737515,-0.176149807290667,-1.0177377812194,-0.163568766200883,-0.295354901651198,1.22583894228566,0.565779479209783,-0.33422603835484,-1.05615138825675,-0.0470261261582201,-0.095209590664062,-0.354528804313238,0.457057773035203,0.762501678062496,-1.01788787332884,-0.0406918377610524,0.212560853833767,0.396031092269727,0.146052533571186,-0.209592940175381
67.18,-0.826111375437621,0.514625642138885,0.772482324448697,1.91933174912488,0.302625879375188,-0.0374736704311878,-1.01637179557097,-0.144861648185842,-0.31188599644369,1.27279144171755,0.58304656548961,-0.319397443073575,-1.04454109887635,-0.0499739831796044,-0.0887917590900079,-0.337237567586438,0.472756205076611,0.765943940787677,-1.02478404758636,-0.0396507529806294,0.185290531418279,0.365075574039168,0.0931489205836266,-0.201456590079891
67.185,-0.746073553029911,0.645160124050044,0.765192599979306,1.96581985048639,0.26912477189244,0.0141455329742038,-1.02501526860831,-0.138509254723169,-0.247241038706397,1.28238577140843,0.576498336093516,-0.289420472562621,-1.03050981917603,-0.0469102945437526,-0.0864066345190186,-0.323252181216503,0.493362772084527,0.791789737400565,-1.02465307680574,-0.0347105995562295,0.174387655051753,0.334235397457443,0.0396743916305966,-0.191652431895593
67.19,-0.713857104155266,0.573299872078994,0.798313439951004,1.6215696203649,0.227406694237972,0.0563122028028059,-1.01257576858413,-0.15895423473687,-0.217013378086816,1.16400476118467,0.57569694519043,-0.263514731480965,-1.00958748707535,-0.0387610028943302,-0.07709879606595,-0.281300765304245,0.518716971653159,0.818457464950736,-1.02291896472304,-0.0432600695767208,0.164840602699427,0.293031066521328,-0.0117339105112265,-0.183128795431966
67.195,-0.669023188222335,0.464266266238636,0.7568090085556,1.43098742729954,0.17838022705799,0.0945645966762006,-0.984491768754984,-0.174115067406095,-0.179849068531107,1.19509418928269,0.563129813405056,-0.276678492592991,-0.991111217044802,-0.029347754889331,-0.0611477703241196,-0.24197272553036,0.543492194108542,0.836027293592651,-1.01697486686112,-0.0553965535376454,0.169559569965117,0.231466729908099,-0.0513358192245842,-0.178690339586932
67.2,-0.584952253802552,0.423124439428924,0.670591465455014,1.37359107585084,0.157040943345518,0.136885502320739,-0.962607631169593,-0.148928432058145,-0.218008942202969,1.26423931800933,0.544302414444819,-0.291444105921247,-0.980504659349803,-0.0166797394611982,-0.0399878426489334,-0.196407536281918,0.56203251985768,0.829114084149921,-1.0208484846116,-0.0623417479991728,0.172927834366439,0.172140589979162,-0.0670097267205757,-0.168687816688071
67.205,-0.630730154587018,0.467000992959763,0.633234913814472,1.32937583574223,0.152162700206952,0.10393670678042,-0.945707684563375,-0.0978800326906558,-0.234398773145168,1.24335056603339,0.554535200382945,-0.299344703472732,-0.967850824942505,-0.00790048702191915,-0.0257250776610279,-0.147975853135803,0.581737449502377,0.819356146542421,-1.0188525096299,-0.0669652370561115,0.186386160963096,0.121135716710205,-0.0858602041761584,-0.16565293604735
67.21,-0.713492794587829,0.463854039238819,0.651361644679237,1.20979633716043,0.0658960252267139,0.10883346075121,-0.947704099403639,-0.0778777231201398,-0.341999765339377,1.10296570783292,0.572788882126452,-0.301261298472475,-0.964089902334873,0.000604375557420961,-0.00723694126685996,-0.109232298685902,0.597275050399229,0.797820319782025,-1.02477195229342,-0.0696462428192115,0.192916884691574,0.0438187548051983,-0.103327555026871,-0.158940492859294
67.215,-0.724222924634603,0.423191004824441,0.625105350902895,0.826487609340827,0.0287197755619811,0.0438163095881974,-0.939907592534117,-0.0691563743593026,-0.329543004233541,1.12869061649458,0.576138458170655,-0.323156289620155,-0.952150692928214,0.0130588548525604,0.00226854211044415,-0.0640348181945361,0.60953901636732,0.761347634692804,-1.02392837208128,-0.0818255397922675,0.206273833442373,0.010329026765332,-0.122298523681432,-0.147356270387672
67.22,-0.677139175865652,0.475198659352015,0.643149811698201,0.68187318844799,-0.0306455973926515,0.0902851421607296,-0.93875856252842,-0.0587751383750253,-0.29132899863917,0.988449270548574,0.581212482831013,-0.32264855722019,-0.943876486494399,0.0107545171652289,0.0180493278643737,-0.038000765739886,0.610840771340413,0.733079760698242,-1.03121897849439,-0.0809929945385805,0.210288630479237,-0.000884395146507449,-0.144613994408489,-0.134955031891687
67.225,-0.665862663001677,0.319259075872385,0.414619564642518,0.574966805428377,-0.0900134055978734,0.0814477412512555,-0.924296695454518,-0.0758438028222306,-0.300693720206111,0.766429503907107,0.581792459976384,-0.330674985187813,-0.936091758912125,0.00491479307978724,0.0222081651079631,-0.029512306120066,0.588803013295216,0.707238886052506,-1.03758448021584,-0.0941615732741058,0.224257982466231,0.0208290705941103,-0.16377898920204,-0.118958365400081
67.23,-0.65083437936406,0.254967922482581,0.227721155903608,0.705403746398731,-0.0280880478384846,0.0203672531781185,-0.891060603838008,-0.075726154969901,-0.386656062243162,0.629784404063083,0.594469123623401,-0.341173000940447,-0.926273887824137,0.00803697290732441,0.0274755678038362,-0.027097228719737,0.554471431604591,0.658258619450883,-1.03199350930055,-0.101178391216034,0.238638746063262,0.0655578557141751,-0.173194293322453,-0.105765405952935
67.235,-0.83477414507213,0.753410141505192,0.275270729372256,1.02207725427281,0.0291391978853789,0.24107549788879,-0.865933137633767,-0.0423206743946712,-0.506995482404754,0.479999338491612,0.627697957825695,-0.347878253098538,-0.920813458267483,0.025319613785068,0.0273111254847762,-0.0343212951917711,0.5113428147433,0.599272188686643,-1.03103552542732,-0.0976266604399283,0.247197692397201,0.111633182741859,-0.170726087727099,-0.0892867922405908
67.24,-0.943677294561653,0.89515367800719,0.288444219596945,0.527067468740359,0.119341482485511,0.375482043897189,-0.881792517246899,0.0464589065352939,-0.495282250744043,0.520689449597898,0.656976635236444,-0.37517163089273,-0.918948312012054,0.0455043496043568,0.0249902958341049,-0.045090281530853,0.448176898563754,0.525628879136355,-1.03074265301467,-0.100504326260859,0.252187381927827,0.158361755470562,-0.185650209491127,-0.0816129071808708
67.245,-0.816164470292042,0.691812078218811,0.290672290285505,-0.0427470302592846,0.143132996463731,0.433010704282988,-0.901733039767404,0.0740104690433776,-0.467414554854535,0.261571939530098,0.663308953936582,-0.352428645607815,-0.917509717879115,0.0545869958813603,0.0294900289957756,-0.0421392197021555,0.38733480122901,0.475765789510546,-1.03050248943327,-0.100619999546812,0.26195985035714,0.188164545742326,-0.20624587860527,-0.0763262122734978
67.25,-0.719099128138132,0.43902788573298,0.269844301761603,-0.129860842082638,0.223051732330757,0.496619696301869,-0.884073392146724,0.0402262776134731,-0.434026888567507,-0.101897435646288,0.683848247616695,-0.338188296217658,-0.917490324891847,0.0397466097733584,0.038764610417701,-0.0481594647856389,0.319041851409015,0.447186757439984,-1.02420256197952,-0.0977252173228144,0.269676569332953,0.211278055729303,-0.242623417669364,-0.0661196616816172
67.255,-0.703417975838127,0.418272584211656,0.278759799413969,-0.126322584538676,0.305213316080247,0.540325597858102,-0.874971968476711,0.0271447842149714,-0.416286040891398,-0.25922094926518,0.687922664635827,-0.367425665300486,-0.921601748415865,0.0177801634999367,0.0640454577287882,-0.0560997798479173,0.230523715126009,0.432536326513721,-1.01542729907324,-0.091999808686551,0.278225028600739,0.220714968642884,-0.264687120914459,-0.0597939751224359
67.26,-0.688499749158497,0.407543356252092,0.308530149142838,-0.172357474493619,0.409031932223036,0.529121900664276,-0.865323440075848,0.0114607686310925,-0.419108761035223,-0.477884302181591,0.680308697467509,-0.392739865293115,-0.925466619046455,0.00345109326144752,0.0889977662369182,-0.0719076842069626,0.156632274095115,0.444259364561816,-0.993844144186552,-0.0916367707708499,0.293064135684976,0.21089416452375,-0.260672350823452,-0.0572306819429215
67.265,-0.682613437584272,0.43404841285139,0.372086870942972,-0.25126419371557,0.482000932305985,0.474706758491269,-0.853344497784255,0.00648799012996446,-0.418242496779932,-0.743301885037197,0.666555994647069,-0.420387474450408,-0.925725180443873,-0.00410966439410665,0.106329944028645,-0.0711359060186817,0.0807144358176989,0.463090916958332,-0.975251913750386,-0.0845753210968631,0.30824700692538,0.191352747209034,-0.227675299027067,-0.0556591053131354
67.27,-0.677257887947054,0.38266599021419,0.41192398173236,-0.366472045116049,0.511638919051515,0.443121677633622,-0.835742928274779,-0.0544731703557391,-0.431641645479368,-0.87244209264204,0.655028173916782,-0.403362092446497,-0.91405479907991,-0.0142549140697149,0.123904627350016,-0.057722339716201,0.01239616968559,0.492167582840421,-0.956129078152483,-0.0715958228803937,0.31346616328261,0.170298483315123,-0.197684686723365,-0.0562223120436172
67.275,-0.648527982001407,0.31755079336737,0.446538795732043,-0.462862347372749,0.515944554538873,0.383080628334659,-0.829534123421266,-0.0921856928239503,-0.404507263126742,-0.932710259145853,0.650514524902403,-0.396455194951292,-0.896665915525818,-0.013011117795919,0.139730036142695,-0.0488063035402912,-0.0268823019099215,0.4600620244782,-0.943645125679017,-0.0689214298133114,0.317146461784639,0.141558567507377,-0.178110365260905,-0.0629749088571467
67.28,-0.609638893123749,0.290036476881431,0.47155918897522,-0.455144816416196,0.521071053597523,0.344492141283964,-0.813910193340141,-0.131897071975215,-0.383335783821517,-0.951315617765721,0.629690206255253,-0.392861941028576,-0.882854245720271,-0.00938682991242567,0.167487352539468,0.00361244050141135,-0.0848392731278736,0.400232627982354,-0.940228202057316,-0.0712873048569643,0.310751042951829,0.12549320296755,-0.150888417947904,-0.0636048633120332
67.285,-0.588177754468373,0.260716949419382,0.485307009464824,-0.455326716847812,0.51871057499964,0.292355458818796,-0.793516415192898,-0.173075600990635,-0.354104488133368,-0.935073820242767,0.609325662820357,-0.380265664633479,-0.865393915310211,-0.0105067214496503,0.184046533796401,0.0643465124840827,-0.138801587292714,0.355365171522915,-0.934379210884078,-0.0896314014938095,0.303559663354317,0.115326489943297,-0.12355562867042,-0.0543571128688329
