Header,foot_Accel_X,foot_Accel_Y,foot_Accel_Z,foot_Gyro_X,foot_Gyro_Y,foot_Gyro_Z,shank_Accel_X,shank_Accel_Y,shank_Accel_Z,shank_Gyro_X,shank_Gyro_Y,shank_Gyro_Z,thigh_Accel_X,thigh_Accel_Y,thigh_Accel_Z,thigh_Gyro_X,thigh_Gyro_Y,thigh_Gyro_Z,trunk_Accel_X,trunk_Accel_Y,trunk_Accel_Z,trunk_Gyro_X,trunk_Gyro_Y,trunk_Gyro_Z
37.005,-0.372830080262393,-0.120227789079994,0.922841524116838,0.203424423933029,-0.0449949044228075,0.0469157380765256,-1.03581762427366,0.235265957109171,-0.174519596429701,-1.2698851086251,0.764047429830717,-0.0893389060811319,-1.1099463101979,0.211917403338683,-0.0428638962210839,0.170022563054288,0.897828970058965,0.262238105763059,-1.19855742917145,-0.102208425833928,0.367047841856164,1.01243877112022,0.147698174196868,-0.913880968466198
37.01,-0.36129072967959,-0.116343622666497,0.915957009496009,0.204029010942859,-0.0339787389816572,0.0236721598615288,-1.04776575008853,0.209388938721861,-0.152881925072938,-1.07499877831316,0.746716499885338,-0.134047111276685,-1.12758519822606,0.201991264878944,-0.0286482870681676,0.313073381106877,0.962249827828608,0.157845565762701,-1.16344090830791,-0.116166259658752,0.382389683668041,1.1473617477957,0.116971970536974,-0.963288914644861
37.015,-0.370011800281814,-0.105899955491462,0.918331602483341,0.207663394232896,-0.0180712666472166,-0.00437872776358243,-1.04947133198686,0.177482757207324,-0.145563121236331,-0.782311565243867,0.718048624848026,-0.170283908367089,-1.1149841914352,0.18524356864828,-0.0157693391859218,0.48003231401267,1.05429308095612,0.0907147350148699,-1.11870650718779,-0.136886668423197,0.377655814970536,1.25339578878518,0.0606693338304918,-1.01413097231499
37.02,-0.373856390157585,-0.0855896553759973,0.914553194191257,0.197866742204733,-0.00156918563027773,-0.0339427252245148,-1.03727010075842,0.133847429405271,-0.141260365058354,-0.419274688111952,0.703141337493704,-0.173505512300825,-1.07789081900716,0.163183194995974,-0.00172217235758458,0.718084378124008,1.16320484694522,0.037998873288599,-1.06028397711175,-0.175455932335118,0.356140428676841,1.40972865629495,-0.0423066370579878,-1.10064221894302
37.025,-0.363830562684932,-0.0751731456160831,0.911329895825495,0.177934599976785,0.0099885924188103,-0.062926514428893,-1.00664686527273,0.0759299689262377,-0.148990555956078,-0.0567677528475601,0.711404502937131,-0.149468793266639,-1.03931335218953,0.154345626515288,0.00766722050875768,0.971348327948978,1.23632716893269,0.0171392107836652,-1.02681555179409,-0.203410929326286,0.328356603896259,1.55076045688911,-0.136977220796672,-1.20267558181303
37.03,-0.383008118202499,-0.0849942262596945,0.907931832259103,0.152968987948942,0.0128963877189762,-0.083511428095042,-0.967649204639596,-0.00386334685991337,-0.148895391417117,0.397188376920204,0.756625950336456,-0.0713785525446363,-1.01000753801803,0.171291797328597,0.0121047706286998,1.25310289024935,1.28147012691885,0.0585078185717964,-0.964630409164345,-0.233015547824582,0.269964793194761,1.70625506690519,-0.204131256516491,-1.32019890375657
37.035,-0.397488433334403,-0.0953040801548315,0.909187119323711,0.127857917441959,0.00758345086034785,-0.0948053052206565,-0.944505183984703,-0.0288040509686548,-0.141866931991637,0.772339934992493,0.762793534119402,0.00114917474223491,-0.983293743873681,0.189542001964339,0.0190880145619232,1.54923895445535,1.28448275279608,0.158028789914886,-0.923714235283533,-0.242873449731514,0.224141557143161,1.82049027368343,-0.224588422250026,-1.42606571218754
37.04,-0.395347672473884,-0.112449464221697,0.899411278729185,0.100467422407423,0.0123849533840713,-0.106902715632259,-0.929331800196444,-0.0122697996622929,-0.144944704004313,1.19053824174913,0.757091223577548,0.0805164262973922,-0.96282569688378,0.202957579188821,0.0194620581720702,1.75119416829511,1.2381418749516,0.262319117250247,-0.889535423217464,-0.235846455944685,0.183442009687852,1.89264620856095,-0.195881284891881,-1.5167302823223
37.045,-0.394777696281433,-0.131942147513909,0.896888876655436,0.0792373260332259,0.00660012976801049,-0.109567664563656,-0.935599832428967,0.00957022571311442,-0.151378994572165,1.49732921889174,0.755384962835256,0.151898256423601,-0.932206556063784,0.204338210976154,0.0134325677176324,1.93474320642364,1.15175643800281,0.386095367527448,-0.857185191701286,-0.221354517656597,0.155960429588302,1.91576174919519,-0.112400949493493,-1.60366542460457
37.05,-0.393270021828257,-0.142750074939903,0.897267104596392,0.068524165802011,0.0106955172712898,-0.0993448861160559,-0.946276583118339,0.0608881723807797,-0.162390057217898,1.67657734413924,0.730341256856706,0.192866981454244,-0.895013268220565,0.153425185397458,0.00658594429164709,2.03552640644975,1.07686131897837,0.413745852818209,-0.847275846009205,-0.188642619316102,0.144697884706829,1.88450989018074,-0.05983814093114,-1.64085750761673
37.055,-0.398734635888515,-0.157198201668102,0.902798840345288,0.0659312855982634,0.00762996269131294,-0.0858181409540382,-0.964457411749155,0.122229150910198,-0.160278427221097,1.76121397590738,0.726055950919365,0.21031399956352,-0.874649923644033,0.105332873965942,0.0130022188340212,2.17366080806093,1.00604633189436,0.36861479065512,-0.833720462291207,-0.149861811436866,0.143555547460994,1.7718927486144,0.0143056387877312,-1.6975926492065
37.06,-0.395878269657243,-0.158026246676178,0.906682834715729,0.0781685082469849,0.0146046858104199,-0.0805556469926996,-0.978897902193987,0.212642778217857,-0.16107304599575,1.75635742254577,0.722717067323271,0.190393378961744,-0.870527952223891,0.05423347999867,0.0264761552774321,2.31644013538487,0.940537712209416,0.273288500190034,-0.844389978630884,-0.115926874182677,0.163336768267622,1.70302892705155,0.075973292422236,-1.72176110563405
37.065,-0.35463516593073,-0.143391694260984,0.912508981171913,0.0812549814581871,0.0149739387451915,-0.0826555711210462,-0.985982954163229,0.332787419505374,-0.154850079149155,1.65474550227672,0.716346408374847,0.123382320073539,-0.873871649610228,0.0311075392057169,0.0356281986786756,2.41110076145515,0.888356339543303,0.168744059029354,-0.852450896667209,-0.0596966660040883,0.203515825121461,1.71552104798776,0.159136928292552,-1.72634605461906
37.07,-0.381040317394703,-0.144927791520869,0.911315210344945,0.0951475323696926,0.0353240373605742,-0.0769312011632645,-0.976199891588396,0.386417768927591,-0.146389973491368,1.47347040184519,0.73915544217283,0.0852222404053225,-0.903975244262813,0.0351435735498911,0.0319838224734798,2.48672346218929,0.872986056892312,0.103642806536014,-0.854825309834306,-0.0287262574493234,0.231615069605678,1.71672527848884,0.223756303749659,-1.71028618396503
37.075,-0.376636039313126,-0.133403374473636,0.907821457391162,0.101387191862451,0.042246985644867,-0.0863554701209068,-0.964887615425932,0.442522918307514,-0.15600090623267,1.28624689672028,0.733265756159012,0.0256900344996946,-0.945302391446993,0.0560920105420026,0.0255784911798788,2.51958195403474,0.893036733005003,0.0742308014207064,-0.862470426940451,0.0241232341791244,0.281142175307366,1.72353028365641,0.301829366944531,-1.64687417836859
37.08,-0.381091716079126,-0.134436705698991,0.909234819715808,0.100239798157419,0.0484871683707575,-0.0908154356456647,-0.953069538803521,0.453460038561795,-0.158712722301431,1.21283885862554,0.74042600120604,-0.0144222465324698,-0.98129294124028,0.089661814552883,0.022046419023489,2.53133285136521,0.921569214234676,0.0992090242382355,-0.855771023939196,0.0684874550425427,0.323879135179539,1.72885779019537,0.340335461913181,-1.58037892450138
37.085,-0.387209220938137,-0.138618307262,0.907958256280906,0.0864641461224629,0.0419922502339135,-0.107964974388507,-0.949421505175938,0.427682809543765,-0.16892368211559,0.708169861686747,0.737136187674668,-0.0476246382583339,-1.03345754457724,0.14613505892953,-0.00510170593340881,2.56183149902032,0.958323003620633,0.174622900369678,-0.839581083166043,0.114242742608517,0.373809484552203,1.72847853513023,0.371860182455588,-1.44982902682116
37.09,-0.400029525146559,-0.132018949205865,0.904298516716805,0.0825133008754637,0.0504048896825697,-0.117786637842924,-0.957403714929102,0.376267631371836,-0.189924748956444,0.530285376814446,0.728200680258032,-0.0758379967280829,-1.05913037604274,0.213377196021075,-0.0225818280651983,2.58769250220781,0.97036720667956,0.244031059573471,-0.8352946307962,0.135441786947652,0.407145436493166,1.6943261601741,0.374604603227841,-1.313610273009
37.095,-0.405586652491275,-0.143992405786507,0.901145427926694,0.0715948405799819,0.0473045779196973,-0.119360126966525,-0.963798813566523,0.31516201024741,-0.210529994200532,0.36046213110277,0.712644934654236,-0.0914006445481114,-1.06864631414172,0.285991989065156,-0.0347669558170373,2.5480092923569,0.961707354422761,0.316711484392539,-0.829088082884916,0.145459093189917,0.430995444003625,1.67572365167921,0.368312285329209,-1.15307536547442
37.1,-0.408430435234026,-0.136693080728961,0.912289377958564,0.0668677431480037,0.039775429643089,-0.11721403693002,-0.973632637606737,0.263916362033617,-0.238119710785859,0.0616567258053028,0.699811129977393,-0.105145828990027,-1.06715193987957,0.352019445694751,-0.0294935100081271,2.40765701002241,0.94572972593626,0.365834760476423,-0.819587482152307,0.154739698993859,0.439939515936184,1.66923226831754,0.355348194655975,-1.02334056976356
37.105,-0.411582809942116,-0.154254911786836,0.877775077739749,0.0557633649304618,0.0429561169444671,-0.101228961993423,-0.983371903777922,0.237817176658083,-0.234098872548042,-0.0495992184328435,0.69432650270851,-0.107896020354283,-1.05289779078044,0.409347821792131,-0.0414607095132651,2.21151173501361,0.915256222815144,0.371867503194178,-0.812093946149192,0.156085895103563,0.443527666922843,1.66182636430503,0.327508289306632,-0.862318519201234
37.11,-0.406261815400923,-0.161882744343802,0.904512939231486,0.0543355320748069,0.0396678988711283,-0.110283942136641,-0.974899477774571,0.202741076334777,-0.226318809833627,-0.126760608146523,0.685157483008169,-0.116746674074065,-1.03342203926422,0.446729160100326,-0.0353346602926942,1.9148436535319,0.891880356363447,0.326184534960335,-0.817779201089131,0.150883060987512,0.432202075026408,1.66612053536178,0.305089758512102,-0.758498125618354
37.115,-0.401922510297457,-0.145507869804736,0.90249195008406,0.0568343693455601,0.0418031295696353,-0.0998073885282422,-0.966470115855799,0.183065434802075,-0.21298290132246,-0.155216867938121,0.686989367008209,-0.113978203742066,-1.0079033314204,0.462890242938844,-0.022895900194584,1.67346144348514,0.861028100393379,0.237071910266017,-0.816753441869645,0.142823193000402,0.421219419448059,1.6753183274114,0.272277476528707,-0.610266388845116
37.12,-0.396253819388629,-0.14217639926222,0.899914419029272,0.0583404522616131,0.0430381000041962,-0.104054524794909,-0.955677507259264,0.168780339902048,-0.203237865786757,-0.167077292756758,0.68329667611441,-0.102947115013126,-0.976951953608967,0.467665156826343,-0.0244297126925928,1.44061377871342,0.824089396563392,0.105872665981716,-0.818224682413706,0.127194858630668,0.398761225768472,1.68702750275119,0.261423755583274,-0.504356541625136
37.125,-0.395224154322704,-0.141904295073458,0.901653531537896,0.0556620186214025,0.0382348167425229,-0.104701761591579,-0.948423148616111,0.151527524213284,-0.194103644027319,-0.137106174790102,0.694210459589643,-0.0884510376706482,-0.948728245157783,0.452108061005018,-0.0299873279882598,1.14975510739812,0.797971780298406,-0.0701392270860433,-0.81241352704703,0.0989489789222955,0.381710784430509,1.71364039918701,0.254621765731899,-0.397212962694376
37.13,-0.401684911693988,-0.142256075971807,0.899606198657705,0.054683744563659,0.0445633606177569,-0.115370099778374,-0.934673599894873,0.12917368282662,-0.199835908957615,-0.0857615498494591,0.714605845243213,-0.0679306459347115,-0.924923263556941,0.411637994988374,-0.0240084261629074,0.916682817889846,0.774583583537619,-0.213621886013739,-0.810905180281461,0.073745654725827,0.361392621394278,1.73862595743317,0.262783989794931,-0.333252704638298
37.135,-0.39791876633689,-0.136789513906671,0.898347054093232,0.0549888754192046,0.0424269275821185,-0.119338621264248,-0.924736463014654,0.113051241485502,-0.206611766773006,0.0327200508610001,0.705414720061624,-0.0662514862359158,-0.905436920197313,0.362103848194694,-0.0226053244286745,0.68458747212613,0.765941382118599,-0.335076464937827,-0.794139016990555,0.0464987163602548,0.349239912528974,1.75455425964167,0.292506525901661,-0.282886598423704
37.14,-0.39669423997692,-0.139556128714759,0.895120947231543,0.0615028249617472,0.0412568197260851,-0.128681206767774,-0.919952617530214,0.103759876257252,-0.214155707320382,0.168848665248869,0.715931700063607,-0.0557345373983293,-0.904745253077439,0.312157965584887,-0.017648020560091,0.533766608060042,0.76952793255951,-0.393487613108114,-0.788928792297287,0.0261303576013411,0.338183958385472,1.76924751536967,0.304512697904806,-0.253329791611619
37.145,-0.396295454555131,-0.140547754078276,0.882804915011367,0.0725137387156318,0.0346215087902355,-0.136309666890899,-0.91402391226138,0.113842647753191,-0.223541758221292,0.300445417748926,0.722414355922354,-0.0541345104575157,-0.915512612033957,0.251190594954572,-0.0109429283892598,0.434963789524057,0.77799719795659,-0.433021337316841,-0.778807909925791,0.00337045007302897,0.326867936225847,1.78938076147373,0.31924515679508,-0.242183450706582
37.15,-0.392690506208411,-0.11393711277115,0.892397417799444,0.0745812901458398,0.0336384026112043,-0.139644918068758,-0.90944567420015,0.138179151138938,-0.217208409991268,0.453561991810288,0.733416030716566,-0.0559659122629262,-0.933811028175567,0.186168511183155,-0.0125917798495458,0.383997644167072,0.807867180794384,-0.438287709209196,-0.773786898193045,-0.0262805153243061,0.316531730305258,1.80872723438636,0.319446408148252,-0.250092480165335
37.155,-0.389873652435978,-0.115006305292137,0.894049900094756,0.0714930494435066,0.0320312256805664,-0.158924285487856,-0.912475206869097,0.169452362441257,-0.20863486241369,0.543277459515605,0.749945563006815,-0.0480087288281637,-0.957567236283706,0.11280437729501,-0.0044131516533394,0.384138001126643,0.827534915862649,-0.413281350902749,-0.775905894018694,-0.0572989045077143,0.310694256149302,1.82030711246157,0.322947919368744,-0.277829267925295
37.16,-0.382735641256721,-0.128777613134672,0.892069415988493,0.0711681722538777,0.0296307689124099,-0.180958519087794,-0.930650384250531,0.202172837014997,-0.215034385460284,0.639105789086565,0.748054865568012,-0.0400706183680368,-0.978858425043496,0.0558644326939678,-0.00255327578803067,0.410424634345012,0.844470686027316,-0.38879437361849,-0.773572034442933,-0.081105390610793,0.30371647514764,1.83481439049491,0.321032969627473,-0.317521080600348
37.165,-0.381554782055535,-0.130058118893768,0.894405640921889,0.0702745866370841,0.0283777639269829,-0.198573139304645,-0.938389419812176,0.221128221118596,-0.227807646555579,0.69987217606786,0.73954572031988,-0.0346014991580178,-1.0049184629382,-0.00700128881191337,-0.00572490275745052,0.503326911501549,0.86946991613572,-0.34067829727697,-0.783361399285623,-0.108746692141617,0.297537317390898,1.84889300680427,0.318061143159866,-0.410311561701453
37.17,-0.380801335028254,-0.121021649285778,0.897584315284851,0.0672564146522982,0.0259343758225441,-0.236488101872858,-0.951588467876437,0.230843541405677,-0.227867600087162,0.688720475553157,0.74562579368252,-0.0138185899704695,-1.01470735437427,-0.0549745088590013,0.000998108936037996,0.607289991023842,0.900633366777643,-0.302978325569883,-0.791173081295297,-0.123354815405613,0.295592626330912,1.85760407555147,0.319450960564722,-0.501701336633036
37.175,-0.379937668645465,-0.13064848750037,0.895619164971941,0.0575004331826713,0.0277375618896657,-0.263305466983949,-0.953478773343917,0.22858861904253,-0.220884257141193,0.671902279025417,0.749311375688941,-0.0046363751765525,-1.02541699279413,-0.100011026965197,0.0168903329800481,0.732854449936049,0.94511957414222,-0.258356724889765,-0.790986549052759,-0.131383185222158,0.297965833981332,1.8698069994886,0.321645678449688,-0.619732637597591
37.18,-0.38258850799648,-0.144678658852529,0.902136059099626,0.0549394950322268,0.0322746858268744,-0.286419034111407,-0.958695129453458,0.216193851483118,-0.215069297272432,0.649791091575135,0.758429623674083,0.00721235614465649,-1.01882525549543,-0.129472891954561,0.0349669891784769,0.87869736194123,0.990623169897455,-0.209244259433625,-0.790728734337097,-0.130449620696179,0.300088726150246,1.87531451120131,0.325219137019124,-0.723340953259767
37.185,-0.388841182328262,-0.140521922356466,0.890678313997383,0.0520437150701346,0.0403759078175899,-0.304601172254445,-0.958022884561622,0.185188630553625,-0.213257271683123,0.64029797866911,0.763849150709459,0.0213163604809384,-1.00353078555698,-0.138275450152334,0.0540721916649134,1.04175179739896,1.05469354639092,-0.167765971228867,-0.796251815221401,-0.103572289688063,0.304204724650546,1.86571363073487,0.327652874742132,-0.855207316575818
37.19,-0.393533814908514,-0.135532176910721,0.894180998627056,0.0340832319335481,0.04097252715032,-0.30522355632629,-0.961207051022983,0.17098414384397,-0.210090232468748,0.635343651537018,0.790211494489807,0.0362561785471062,-0.979131443870494,-0.118795915413497,0.0652058969125362,1.2972833941786,1.13797600752574,-0.110028007130808,-0.796889761449669,-0.0833108134302953,0.312521739514874,1.85761060195032,0.313859882739643,-0.955075533661391
37.195,-0.394692689013818,-0.148045305340912,0.895658684263319,0.0263031324857321,0.0393486130683054,-0.312918790317948,-0.95068787555916,0.169887592148341,-0.213087746471655,0.591944662879995,0.804241250308862,0.0417751046420206,-0.963937494963907,-0.0823348944828757,0.0819875858147924,1.50023072235157,1.19905969807221,-0.06026166241683,-0.798796837239788,-0.0499474084282075,0.322885895700736,1.85589782540193,0.304603016948244,-1.03836004122051
37.2,-0.399458048236573,-0.129053003093928,0.891323599572549,0.0250570327043533,0.0215683877365504,-0.306067879259039,-0.947060451389284,0.177139646044342,-0.218684649964828,0.559537559463708,0.838473456927366,0.0509286356634035,-0.947888293519853,-0.0293435428459656,0.0959558673653224,1.68536082823311,1.25240858600077,-0.0144475706484015,-0.80208359107295,-0.00963799617816071,0.332862358381124,1.84116136402552,0.279536445576615,-1.10226359041797
37.205,-0.391731073113391,-0.128307309863905,0.894608870376651,0.00116655320071923,0.0316624597399968,-0.313346111984266,-0.939864369599445,0.184863875394587,-0.224268154807779,0.528110862245444,0.8675089513098,0.058210004858717,-0.935726415516064,0.026758603093492,0.100226833805385,1.80840944339602,1.2992602562516,0.0217931780947463,-0.811017348332679,0.0271605288481904,0.346808903105023,1.83485914186524,0.254311634524279,-1.13132948422714
37.21,-0.39831299202081,-0.156131315400686,0.893949571112126,0.0015902818871403,0.0218926548983834,-0.320839421241191,-0.928047706966589,0.200234121387414,-0.217960153553241,0.49997484927474,0.901702339110278,0.061315572607245,-0.924351033421236,0.0679054618415479,0.108521859509861,1.88651845124713,1.32448814323299,0.0493265091404867,-0.819393552212958,0.0532869119451693,0.360401406818561,1.81485138243485,0.234624054641085,-1.11472176825028
37.215,-0.401986064774022,-0.125722679901257,0.89938373368614,-0.00485582311477678,0.0277731367795785,-0.328250974416733,-0.923674999183819,0.206961094708274,-0.216703776467641,0.499048158168333,0.936374272151496,0.0662404857725091,-0.913080632203039,0.108248012308629,0.130951251802131,1.93805932657996,1.32867101615754,0.0725400954059291,-0.83067148726214,0.0861733320146079,0.37382670388042,1.81703594923891,0.203286588417548,-1.07339057779157
37.22,-0.404680321544826,-0.138067556512099,0.901892500491553,-0.0165622455674457,0.0316357148776196,-0.339898067815802,-0.923654621590301,0.210521867784778,-0.208804565772584,0.511716261094265,0.970653456650073,0.0692991578118372,-0.904836970888042,0.138985476412229,0.162416222881472,1.9629574277782,1.29879077579039,0.0747584434602221,-0.845699892234888,0.107941314974137,0.38309538812289,1.81534294203018,0.187399586660787,-1.02178820221871
37.225,-0.398311060278728,-0.139214154359616,0.908605802414321,-0.000947722355906393,0.0380640305672326,-0.35133222948317,-0.92138054499334,0.211059177837204,-0.199106011452445,0.539799445749666,1.00437564319178,0.072882596116609,-0.90466950659865,0.15626103656948,0.17778871573818,1.96080786877172,1.24926210089657,0.0766174420714378,-0.855764119694787,0.131552556854564,0.390858411390809,1.80485400325046,0.18367475271225,-0.930936748180294
37.23,-0.377348480592537,-0.118328856977837,0.913524051949362,-0.00210773730570153,0.0509289063205723,-0.370363590656584,-0.926631680536268,0.214042679567717,-0.187443469648514,0.605003083333802,1.06278099274658,0.0784595470666339,-0.900191058543313,0.181845380728088,0.205025887975973,1.9812899350225,1.16088819394485,0.0759434005607107,-0.866561286435238,0.131430224649442,0.394102892439283,1.81067313709277,0.186478374681759,-0.854449191247265
37.235,-0.371033098037668,-0.101956490823608,0.919775884012467,-0.0108958097734477,0.065602099536596,-0.383750942484871,-0.93369241733752,0.210985323232367,-0.170214204892867,0.659886175544372,1.09580356279392,0.0826836229452531,-0.893727413022145,0.205137649619757,0.193771797393449,2.01624230627777,1.09436587983822,0.065189079632939,-0.872451407618335,0.125739925530108,0.400493909793599,1.82377434263532,0.200002998978339,-0.759337154703782
37.24,-0.353152335194423,-0.103670741403377,0.924742013619716,-0.0215161644383227,0.0737292642916964,-0.404204153982422,-0.931874800273875,0.220385874071836,-0.163748473464507,0.728924155590475,1.14212627348928,0.0723865525833901,-0.888793879304708,0.228635394333208,0.154010844332735,2.07258337158675,1.03494043657871,0.0505453310860689,-0.88097158259533,0.115594021397664,0.403750665569495,1.85269045096863,0.209447450555481,-0.683583623204171
37.245,-0.373108608767504,-0.0772682784393144,0.928005645518171,-0.0345117736226666,0.0962369024937423,-0.402970510596229,-0.938947176257479,0.23808523496888,-0.189062515718457,0.804838018989531,1.1658351239664,0.0546600477781076,-0.887785838327126,0.259193798765016,0.121160824569697,2.13220499047067,0.991942542923141,0.0411082305770603,-0.899179500412776,0.0841321845196208,0.409162309990105,1.88217642041862,0.21951931127777,-0.614180921041485
37.25,-0.388179902990976,-0.125335073850733,0.919057381100642,-0.0631307260527368,0.115231352841739,-0.421024797556728,-0.942846367630598,0.252353935489334,-0.232382572012764,0.871655378960034,1.20888131559303,0.048125316124246,-0.900513306537947,0.285057275134555,0.113917672474612,2.1691570141803,0.949953642380474,0.0356299446828811,-0.917798911198182,0.0619478905428636,0.409778303538053,1.94629024954888,0.235513406640298,-0.551890951746695
37.255,-0.414624874155482,-0.0971365419409753,0.924253666228152,-0.070352037396471,0.162028069960589,-0.443592569570606,-0.952567144663838,0.275923303076706,-0.287084780454046,0.927325167063633,1.25022707825496,0.0295071447454847,-0.916365496759479,0.310014082401477,0.09298685032004,2.18549304450378,0.894178635480002,0.0319446887725179,-0.939112564060147,0.0437733779696978,0.421419515243798,1.98327644834572,0.256822041785398,-0.533189907342921
37.26,-0.408558155823851,-0.0898624314686267,0.922562834224413,-0.0589454577599558,0.188655564755798,-0.447991698150448,-0.956519384393458,0.298629754871983,-0.306218472934157,0.935459333510625,1.29659980029606,0.022860573733965,-0.928961426725473,0.324141366306418,0.0723014344171934,2.1705542953626,0.85107034963903,0.0207185807672017,-0.95453328281689,0.0360296884646208,0.433519583777621,2.03627840316708,0.28124498253185,-0.514889438679307
37.265,-0.420474608995755,-0.105526634395487,0.919994439297067,-0.061609668249206,0.235231584602914,-0.471895674664099,-0.965912941632365,0.320542481862324,-0.306040114821166,0.918715305692128,1.34547091631549,0.0155048296195038,-0.937736775077511,0.341032610491553,0.0527670196788231,2.09959445936367,0.808634660138296,0.0129894750288093,-0.967051840761821,0.0386535457988138,0.450419301973425,2.06825298208411,0.326787931894846,-0.515884016385512
37.27,-0.439707913132757,-0.0705927814114272,0.934803005210628,-0.0445492032982898,0.309629313819138,-0.516714440818904,-0.989593992611337,0.382951169413731,-0.337696627280117,0.905867621078449,1.38249202896133,0.0118673051964652,-0.94423209541509,0.370086900995254,0.0446225271874882,2.00159953633615,0.773735912467941,0.00418042390830922,-0.989784339784295,0.0431929613598545,0.459802608296695,2.09567435335593,0.379155944782541,-0.520830333584779
37.275,-0.389030734033041,-0.0587072955433921,0.961494431585166,-0.0577410045262316,0.3862020017551,-0.592599622408957,-1.00308469673981,0.439554751675898,-0.340760455062814,0.928267803273039,1.40865132381043,0.0263175765778799,-0.960828001344234,0.392061510698548,0.0502481286708172,1.91016019385176,0.729373679276827,-0.0125209175922326,-1.00628196399988,0.0622268615639318,0.471164154666605,2.08735466606403,0.428440534471708,-0.529291622519342
37.28,-0.317620299591304,-0.0674593733797002,0.980255212324344,-0.0681395669651655,0.459857399616425,-0.674212033901398,-1.01763819114492,0.452401669322264,-0.30266717651469,0.961742799241989,1.42901696747207,0.051892646846602,-0.98217556453671,0.421733593107307,0.0463184842695981,1.82905353573539,0.637981443015926,-0.0429029249032854,-1.01918570533007,0.0923474733683318,0.481252115150215,2.05890496393423,0.494116385931755,-0.541669173114214
37.285,-0.309972871890565,-0.0575155888122128,0.990729263514697,-0.0797732201217089,0.54136890183235,-0.754525368152296,-1.03670960349687,0.44614479463628,-0.261340814576404,0.962691605091095,1.44917199861993,0.0764201459063448,-1.00650310953027,0.448638604409684,0.041623990453147,1.75115328228085,0.543140982541396,-0.0800795014910072,-1.02820625385182,0.105419538186552,0.482665658013522,2.03234628847124,0.512514681820121,-0.535139780249956
37.29,-0.305090664316413,-0.0586068209332725,0.995411042613063,-0.0982286714652142,0.637395709663645,-0.808101468781661,-1.06262720900363,0.426027450844326,-0.230923379229226,0.991168301970156,1.46244538738679,0.0892399908093523,-1.03227182843,0.464863007821073,0.0731054253620764,1.67058335162205,0.428284463097396,-0.114229426077405,-1.01475358509795,0.137387353884565,0.490103251331318,1.98029637713996,0.521910385177424,-0.526936574890325
37.295,-0.327318878255265,-0.126167814362756,0.987298125010614,-0.121571814004827,0.758055480303079,-0.851102236334396,-1.09032294972342,0.37214784760718,-0.227336019258677,1.06571422418265,1.47020328510926,0.101066884753988,-1.06048197885034,0.473412643547474,0.133368262622741,1.52941907534714,0.292318661328485,-0.134922783168872,-1.01535322253485,0.149389940809521,0.488888069014813,1.92486681329847,0.518621930418613,-0.518413878194514
37.3,-0.385755191978566,-0.136006066999854,0.979143957114737,-0.126110556769027,0.871502290711513,-0.855108627125703,-1.1194478528589,0.308982497065919,-0.262449872246452,1.12947211682281,1.49345619377911,0.100983589691218,-1.09027069737296,0.486647853379113,0.20333888967797,1.38113307763994,0.167912530750009,-0.124164982890874,-1.00550320546568,0.162341605030758,0.484885895465221,1.87521713672916,0.489464970648556,-0.492144971823915
37.305,-0.34923687760441,-0.184089103554946,1.00155585175047,-0.176632177734962,1.00800673867467,-0.839280706618619,-1.15090746782465,0.246227612410678,-0.264156061682374,1.22169619071346,1.56921910360245,0.0805380894203617,-1.13348450957156,0.503081636545506,0.285252289078082,1.20609962439377,-0.0114705662451803,-0.0893165468470644,-1.00409742402333,0.173380806824621,0.484173871761937,1.82713418133101,0.43239232976636,-0.465474915200231
37.31,-0.31569043669108,-0.225954763973796,0.986550123334532,-0.212846348656751,1.13964327131228,-0.800510623454595,-1.18642202884434,0.180313774491241,-0.235038391846045,1.27101339167141,1.63918345815905,0.0506852273931793,-1.15422355444177,0.493909398269646,0.308948935839532,1.08390156180717,-0.162053082798155,-0.0553487386538612,-1.00126860142266,0.182288686990843,0.478164751131381,1.77444511771221,0.398275654178862,-0.451336246636517
37.315,-0.335363404365084,-0.25566040523359,1.00171358517772,-0.209595756858395,1.28871338024767,-0.72010215080384,-1.24726049387458,0.0766443552933872,-0.194977396891977,1.28088727164265,1.76125495683909,-0.0012569416965488,-1.16272042533203,0.466946236574213,0.316468139152033,0.949326391759199,-0.290653718348273,-0.029822381146059,-1.00797661702719,0.190789303230224,0.474316622572881,1.72565728635418,0.363863063023106,-0.433469459377054
37.32,-0.350330661713356,-0.230472201967267,0.993688194177668,-0.195182772067818,1.44571985867024,-0.619002362062984,-1.29020109527622,0.0218018317868403,-0.219071106748166,1.26736983169138,1.83674187969706,-0.0559704165509124,-1.16505492021065,0.415717825918097,0.355539618572686,0.775592867627391,-0.368715464425849,-0.0174319606917335,-1.00656179095417,0.195553976120095,0.474498536191059,1.69373443451698,0.340019234448298,-0.420316455496351
37.325,-0.376159859002504,-0.273946710364309,1.00038985887253,-0.213811431563302,1.61245850872867,-0.53424380080558,-1.30015587720088,0.0412432027096926,-0.265876985754016,1.28022047490931,1.90099273398897,-0.102744442366801,-1.17011322233022,0.331075988561304,0.401305381111157,0.502876104859532,-0.448583098482494,-0.0223398115485907,-0.990504297869546,0.202371491649222,0.479315155582179,1.65873675770619,0.333975641546791,-0.406744699520696
37.33,-0.382358145741384,-0.332413576825857,1.01006745427221,-0.193588277436931,1.80208655837202,-0.395864599577231,-1.29733521534297,0.0301024488998368,-0.302180676433132,1.30476605892181,1.97609119501089,-0.136128935251313,-1.17735291114669,0.203405577872711,0.440307918545461,0.192394568336217,-0.607471036244454,-0.0267498503731901,-0.987935427695509,0.202260662691699,0.489126196175518,1.622751299571,0.339745620080089,-0.387232406158507
37.335,-0.369471068467152,-0.359720083072824,1.02065627613209,-0.179471689970403,1.98776438401147,-0.271011208937766,-1.33636927707909,-0.00411762700562758,-0.301949682200571,1.2887137560401,2.08766704637407,-0.165465902589879,-1.16782520458234,0.124744302550401,0.468307828974009,0.0426304071603744,-0.717127505057385,-0.0491293248700595,-0.980876967999116,0.206469788866512,0.509276795666611,1.57398805699636,0.349080814118673,-0.341906113930266
37.34,-0.363681445018419,-0.352682525661714,1.03873499807267,-0.18418231877947,2.22517047870685,-0.109773326834321,-1.40189938909155,-0.0284924585262806,-0.267817226246103,1.24578297018143,2.20616740318842,-0.206280761992451,-1.16346706555485,0.0636364049102723,0.509796812312867,-0.036205245353545,-0.798836053504229,-0.0739193466437115,-0.982758748561711,0.208491143638859,0.543110213733274,1.53294701201796,0.346435293277421,-0.297855174917309
37.345,-0.364985646168802,-0.331500451299918,1.08064674163368,-0.189858370316371,2.47562115207314,0.0423090557141688,-1.47392025657382,-0.034854320919296,-0.234611772305808,1.21333625340407,2.30628126517914,-0.242047005876748,-1.17511085396924,0.0308559936783591,0.565140820063928,-0.0317592980895957,-0.888688875023844,-0.109609382568035,-0.996890802022516,0.199543327477789,0.588297409624685,1.48520200676223,0.307564141672328,-0.205653616534285
37.35,-0.358271899847578,-0.363872548435487,1.14434767411678,-0.211700753553272,2.87502169405594,0.251506541822223,-1.61503484617683,-0.00764039397635972,-0.214557270954776,1.20432971470232,2.45905075761535,-0.310762528906629,-1.22573820061687,0.0741240726063986,0.589530274157001,0.138192200231601,-0.96184179424515,-0.152061096354877,-1.03244451529145,0.171610429014577,0.61667700358574,1.44562876465182,0.196139621042225,-0.0859950109506805
37.355,-0.327012143558183,-0.406567679161423,1.17079558696239,-0.0774674134536434,3.24983202773584,0.454149507374104,-1.74476813345854,0.0420186195015134,-0.209972130111576,1.20080509530781,2.60522130031729,-0.391687762476315,-1.3374901354877,0.160748261606436,0.569888733935475,0.50519537976684,-1.01270425743278,-0.194322911526291,-1.10293296638047,0.115122164296858,0.60470564310345,1.3874274981108,-0.000411064801300952,0.0755823597916619
37.36,-0.229726514758924,-0.313409936668303,1.15927592428795,0.138435720052806,3.75740931470096,0.674324102629333,-1.89848962515938,0.0872617379931147,-0.245772297358622,1.1643829700732,2.7307141966806,-0.49846918157717,-1.50258271605227,0.231974720326382,0.516864079569147,0.821132334421529,-1.03919136964393,-0.23065406186709,-1.19854012457982,0.0592510402848863,0.555116137899783,1.32777361969514,-0.219343696143008,0.220613413702943
37.365,-0.270345318860359,-0.297855209053703,1.15389672629262,0.328864552836143,4.23388197038418,0.832541199898059,-1.98906648905002,0.127408065185345,-0.267885294897376,1.10371954827839,2.822989286695,-0.576474293354017,-1.67449026737076,0.237335372548721,0.493881008962244,0.928001482917755,-1.09616980539782,-0.24849165840696,-1.33388956393557,-0.0200036574766739,0.461630780371432,1.24388533381592,-0.457871024605487,0.372376736509944
37.37,-0.319732008659441,-0.303973666878845,1.1887565238329,0.564646523002418,4.79287580760687,0.947541077613694,-2.00342139552716,0.135342006916839,-0.321618966303944,1.06623721535932,2.85214659671587,-0.589511248366901,-1.83274234245862,0.148464354006623,0.479744036986732,0.733241696640148,-1.31399462927801,-0.260901859267049,-1.47449937329104,-0.0897821712376712,0.354353910604193,1.2458451435223,-0.501440783511148,0.418828696012497
37.375,-0.330872984389177,-0.310817630506037,1.18287449223045,0.878149196631692,5.41080599088727,1.04164200240869,-1.97584943578234,0.112390951613579,-0.329581514591539,1.10431727157729,2.867084114923,-0.514237066247933,-1.88146857162436,0.0020786088517122,0.507494103178802,0.405784264266395,-1.52654505344442,-0.256708555435576,-1.56623673789892,-0.1454904842376,0.240269921897592,1.27612117589639,-0.370662749293023,0.383052364830677
37.38,-0.337056974615281,-0.246866944338962,1.15051328715046,1.15155231251005,5.942072260535,1.07727747320294,-1.93496350435202,0.0672155103922524,-0.292452502169958,1.19930700538102,2.87656759626311,-0.378312526344537,-1.82091920593535,-0.266821953595873,0.562613585650497,-0.0633211746343657,-1.76724513676039,-0.239779811513544,-1.55906640389405,-0.171537381186039,0.154248001072945,1.36214373859717,-0.0208106533890473,0.274153991590209
37.385,-0.375702628671071,-0.151459544054725,1.12026058891362,1.30561102951294,6.43958855737193,1.05043706219532,-1.88791184142031,0.0341332927025185,-0.206661884508124,1.44578112815363,2.90519991931927,-0.200362994732384,-1.69153279900339,-0.520510357714959,0.619730331921533,-0.358688980070193,-1.93784598245868,-0.235115326863899,-1.4313581051171,-0.147274509436216,0.0759411151714501,1.54758178361044,0.561313946134472,0.065656712269989
37.39,-0.359153641687551,0.053816623937765,0.959456005830638,1.39885788624002,7.05166209243569,0.961719335975972,-1.87728963861304,0.0425040551961672,-0.180427048158348,1.7373528059082,2.89952095302845,-0.0617699572772148,-1.56861930002558,-0.713426333122314,0.655625189667944,-0.421682341603377,-2.05730285810008,-0.277211672407201,-1.29240950367813,-0.118903034338575,0.0271880634571227,1.5561904537,0.923318675443788,-0.0834816680745089
37.395,-0.484878564287637,0.108412567226312,1.00732442890938,1.2018734790624,7.55830990361453,0.750705951418787,-1.85135208859164,0.0639523835147988,-0.193740886858757,2.04651344217145,2.93310725365384,0.0785078492136092,-1.48171659877736,-0.882810325853941,0.63577174977464,-0.226355801951471,-2.14120104914155,-0.360268080434829,-1.16912171467216,-0.108162729865733,-0.0104375597926118,1.36841376238755,1.06084627317668,-0.167488665124882
37.4,-0.503156154242116,0.13294947395306,1.09244371276704,1.03646454025731,8.20804752156513,0.566363935022389,-1.82535893347948,0.130365913705188,-0.15598661407545,2.46736549817598,3.00339675645625,0.201600990984698,-1.46140210168084,-0.990575132537507,0.583929688769833,0.137286443032404,-2.20322094711529,-0.467893759961822,-1.09848231797887,-0.126694225149049,-0.0325244635449124,1.09004156687552,0.95739174265376,-0.21786737453772
37.405,-0.372944627154463,0.131555058141366,1.10228318756873,1.02006644714009,8.70002692137805,0.372311141369399,-1.79321509753976,0.197638135607945,-0.0541911501442974,2.8216008527076,3.03852848857354,0.311343042262325,-1.47836199676324,-1.03743412829791,0.501792271428462,0.507108003373727,-2.26527236385213,-0.569490153618974,-1.07197688486106,-0.217047650705889,-0.0573806569673169,0.871511496726843,0.733076752908798,-0.286517862044926
37.41,-0.393287168116987,0.277451237278782,1.07405486840587,1.00859934355359,9.19955718762216,0.30747696292643,-1.74765860430048,0.23529003277462,0.112264842539414,3.13702790593432,2.94725046325848,0.478087032922995,-1.52874531313019,-1.0128287603663,0.334935747890072,0.963316346443256,-2.34616901325042,-0.691439802523775,-1.09117417315946,-0.32718572477801,-0.0646530554424534,0.772056905607882,0.484737136226578,-0.435975138088587
37.415,-0.332649240594646,0.332526352190005,1.08405512699486,0.638019735888261,9.67561843782781,0.0527489083804456,-1.61501260827655,0.272402727537097,0.254269885242155,3.57982021561352,2.69810719851937,0.688513525770592,-1.55493077701929,-0.966177544742743,0.161662319649352,1.25286552417508,-2.38710335210247,-0.763025502156379,-1.11641307283874,-0.395815072435169,-0.0489938629348879,0.810259742452868,0.408963966566829,-0.610607526950513
37.42,-0.462725379235961,0.361223178830178,1.02151442363684,0.521323034056361,9.89281248086674,-0.0706269062403971,-1.45465604635927,0.295817179895962,0.274725407990909,4.00539285528642,2.40106589976623,0.876266046580433,-1.54457325133606,-0.9152832678728,-0.0691931176245259,1.53100240560261,-2.40907043275707,-0.815899704485865,-1.12806588639818,-0.438227000428139,-0.00547021822216041,0.920080928338261,0.433073243987093,-0.824237015777983
37.425,-0.628833025623793,0.305322618023703,0.887167990880528,0.595756104251715,10.208638771397,0.0663185860423338,-1.18557416722195,0.271648860909065,0.0844565302367741,4.33354855429226,2.03365267242682,1.10472303124147,-1.51355090344598,-0.881785360846242,-0.300613855544454,1.75550872606374,-2.35759103764831,-0.819906936437701,-1.10787060596738,-0.432424250509752,0.0689413018519559,1.05964291231184,0.555918008654335,-0.999328224902297
37.43,-0.485594903073551,0.104046305115059,0.866263271052462,0.213162506328499,10.2109095397975,-0.353161787653709,-0.996633780122655,0.282085016862325,-0.0916555158288305,4.42148653729677,1.86304389236473,1.24250729970618,-1.45044381666586,-0.867123192335935,-0.514272718916355,2.05850718186916,-2.22291889645253,-0.795134424796822,-1.05641904999217,-0.364829086505338,0.180595045936588,1.25390551952303,0.717173472080945,-1.16193629175854
37.435,-0.596914526170275,0.158474371464888,0.928198072375123,-0.369076498488911,10.2003185119437,-1.01266816030509,-0.846921087612986,0.310864709105123,-0.107658631022612,4.55926939626685,1.6408369252165,1.39704652091587,-1.37983663631494,-0.843696325663624,-0.74711932292698,2.45100073444952,-2.01471172198342,-0.76128526020578,-0.992740750847646,-0.293958458415858,0.272748294512399,1.42589899223684,0.808363962113032,-1.22983085502004
37.44,-0.692396937677974,-0.164454528783378,1.09069039858672,-0.666865826771722,10.2423950274252,-1.3769127457189,-0.729357421885235,0.367920521561397,-0.0118194873992718,4.90632370807206,1.27423010058541,1.60037082791361,-1.31920356095018,-0.81681845056368,-0.900795476223849,2.7899573331787,-1.82336476564514,-0.729418551230056,-0.929413963848885,-0.193463938474531,0.370987860735895,1.64070425920461,0.81937651163201,-1.22901982315999
37.445,-0.868467213698472,-0.338153054066059,1.21895661486447,-0.415664348527915,10.3103021940009,-1.84863665704293,-0.595057875830863,0.429407271181518,-0.169813766454697,5.5364445217275,0.901256550880612,1.83474332863346,-1.23972817262687,-0.769654925296695,-1.04276238258877,3.23404199782003,-1.60231309135576,-0.673442697550726,-0.893663272773714,-0.131904806685956,0.426516509923426,1.77515599839477,0.761778160336579,-1.18775485825571
37.45,-1.26975212768001,-0.0607152406193348,1.70980454746765,0.273146238075169,10.1015489969292,-1.83063658099976,-0.35621344318977,0.389885391987726,-0.773846955743201,5.98420457860383,0.785280374648348,2.08210193105372,-1.20395838134311,-0.713441962100728,-1.07604535297082,3.53729619244469,-1.53017182259896,-0.618360486401636,-0.848609379617158,-0.0540119929848575,0.483194983917519,1.97271992268969,0.549119818586034,-1.0645785944927
37.455,-2.02443531152976,-0.389770147776489,3.0716896362472,0.932170876247966,8.63109271307111,-1.79647012256835,-0.192136341663157,0.334723918768803,-0.993514293946696,5.6331003390588,0.882955893483072,2.12297691981377,-1.14206627109714,-0.627676780645373,-1.07147388745141,3.85022391259188,-1.53160909918032,-0.514831691173746,-0.80905385849859,-0.0080495954310011,0.506209429482602,2.09558465388205,0.381045164951541,-0.92924714586983
37.46,-2.4880551714937,-1.8176436203002,4.4100745427107,1.77527527901912,5.08541895631944,-2.2597743182053,-0.0487128797134804,0.258733927237605,-1.09309165198736,4.77386289810098,1.21904339499837,2.08307862224998,-1.09924818960996,-0.543108572138455,-1.05144084401197,4.18760662450708,-1.60379177621477,-0.376998580598799,-0.793614912110319,0.0227329150930616,0.512087998141443,2.16239806363787,0.241556406740093,-0.776049095720176
37.465,-1.90408211070983,-2.92874129472701,4.37836358564335,3.52419812609412,1.26943192122838,-3.25240515953487,-0.0688379258672298,0.242102150512746,-1.00772431753346,4.32014322825339,1.3865828597863,1.99735974443524,-1.06464461447157,-0.396321153302666,-0.986646012549333,4.51179216816194,-1.69654910933508,-0.22626110920432,-0.822434264098816,0.045344255657144,0.493644956426898,2.19063131727536,0.103526479846063,-0.613083727702726
37.47,-0.881910880256382,-2.69620531813417,3.21445713049339,6.23561830571878,-1.52546575436675,-4.9565209302052,-0.253035542218636,0.364551032713743,-0.59338809661477,4.13918837996749,1.2711918548074,1.89541694251628,-1.0552765453561,-0.247047214265476,-0.863662949454313,4.95221065174692,-1.80770887889574,-0.0455414545868005,-0.850012809006111,0.0582435813101042,0.468279574084215,2.15159786497187,-0.091816800412673,-0.444622417139507
37.475,-0.0689172676092062,-1.16819439547008,1.50692678337999,7.61779232221295,-1.82988920056755,-6.11574546226762,-0.416625891863905,0.47629024059119,-0.18226571485268,4.43100985256084,1.05659825640327,2.01232804172084,-1.11178869312461,-0.168135342440836,-0.707644687206893,5.22473589805072,-1.89840196249452,0.0786990807006455,-0.88205505118276,0.0676208468870927,0.431019870568184,2.03911693536256,-0.268736175941656,-0.278606691186312
37.48,0.181903297781053,0.534864701657154,0.818417192714103,8.0658073896635,-1.21216369320883,-6.3207445131185,-0.671465277072095,0.564372530783518,0.304527613762147,4.84769025791647,0.610010233014215,2.26678619103187,-1.23368408834126,-0.0996290825416668,-0.508813467553659,5.40036938773535,-2.05444635428284,0.302266015403167,-0.901301263421433,0.0636050659185058,0.402878910341267,1.93708090616516,-0.378962838644629,-0.162248902948127
37.485,0.523962762469941,1.70912484503941,0.554821715512666,6.91758241191089,-0.505348097384845,-5.49366215390314,-0.87069647394598,0.690617123601927,0.705828752763984,5.19142509280321,0.0320261475723653,2.5778439122307,-1.32208981334279,-0.0929786996717777,-0.435078465353369,5.37566784299643,-2.16646461246624,0.431854776090621,-0.918000442321317,0.0685887121048427,0.375290866237273,1.84157702442411,-0.440317368555818,-0.0933772513480524
37.49,0.598433716592451,1.64783036204825,0.552536952087511,5.35525935231328,-0.140880097972541,-5.00620681595321,-0.930246800917016,0.474577967735965,0.797166289097439,5.41310116546587,-0.456279821845557,3.00237780295784,-1.47151385897988,-0.164918922321749,-0.413375254084361,5.24841265983024,-2.26935433321964,0.557160224649436,-0.942539206925673,0.0534439049077906,0.33366202026002,1.71097299661244,-0.417281204228393,-0.0386767592768033
37.495,0.264460293675059,1.08285495047145,0.779869866007812,3.95176667951231,-0.164461877472241,-4.61216376838372,-0.848564011634444,0.0880462078817503,0.562100343435013,5.07279428667769,-0.891918081421593,3.22674262466193,-1.520586534384,-0.230912291884185,-0.447961402786597,5.11201211865195,-2.22368250876377,0.572882172524928,-0.968495154630678,0.0565461331787911,0.302747370321935,1.61042067981928,-0.368658585593493,-0.00264292866844742
37.5,-0.129707199418784,0.421873187598791,1.06621755697213,3.45614675340907,-0.382611054643114,-4.2878922398013,-0.686308521633386,-0.118780790580263,0.304633649722327,4.47420507610519,-1.12779641411289,3.21538894084183,-1.48141235917421,-0.304454336104684,-0.519640556710485,4.91731902390272,-2.10492376561569,0.49355073801222,-0.997403663376226,0.0682197445111876,0.271445493778711,1.44604389542439,-0.264836148863933,0.0250585340158861
37.505,-0.270584919851756,0.134106266757837,1.28262138138467,4.2011509057833,-0.80649990966747,-3.6515621711824,-0.533707117091015,-0.202240194753369,0.122362016883935,3.91112939621044,-1.22665682214452,3.20540509862263,-1.36881088800569,-0.339853114264917,-0.617154793663997,4.73655301692554,-1.97137720247296,0.356322032231248,-1.02249827269414,0.0689449234853128,0.246699681058681,1.28041797521447,-0.145103023530049,0.04781263055388
37.51,-0.175786530488953,0.477442400160822,1.28371501273669,4.99426472697837,-1.24679246656984,-2.88691500524188,-0.512584032224166,-0.3137000588506,-0.0221895167649973,3.78288420417132,-1.16513823975538,3.26794509809982,-1.22709231473563,-0.342283813846442,-0.691555383854631,4.59549042988259,-1.80508516375137,0.188772828240179,-1.0447220692749,0.0419720857233715,0.227401714791918,1.12306747055123,-0.00606036421770757,0.0711345288963047
37.515,-0.0985885644431592,0.854203194412688,1.28132220447657,5.18410049113838,-1.70637039513497,-2.09943323248306,-0.523612816772609,-0.286502091369992,-0.0180527429518982,3.85243290577677,-1.06461486944514,3.31656987356723,-1.09387661873501,-0.302295973093472,-0.739979104704357,4.43080145513229,-1.64203678649374,0.0378753152816429,-1.06272473248728,0.00930084313325883,0.217584150918932,0.964790721566501,0.132154406397246,0.0870961779869718
37.52,-0.0713233667601726,0.838108765704683,1.27971301274117,4.79677665616062,-2.02941562170036,-1.55239474696846,-0.578366264902102,-0.143766792601605,0.075794765646687,4.0217126312805,-1.01723613771544,3.3324409159895,-1.00675997562529,-0.256796144438922,-0.728507669000627,4.28875992051304,-1.57427448469755,-0.0361305864147233,-1.06833491513733,-0.0576178124879071,0.211649617654941,0.870577814769169,0.243909427503856,0.0893255144114245
37.525,-0.0909150905469656,0.461924746524289,1.25304152141663,4.17525559011691,-2.37004193995195,-1.00578736526749,-0.66775521148529,0.0323104516151284,0.149096797345479,4.03078615193913,-1.09445969978744,3.41812476859448,-0.913368053593598,-0.201020359963289,-0.657802911219711,4.04701570206108,-1.56729329348454,-0.0279300060044003,-1.07065762813028,-0.140773658845092,0.207492474182659,0.827109457561034,0.350149069813147,0.0579160315179027
37.53,-0.118630453652009,0.0812620704936706,1.28392371584191,3.90715807527483,-2.64104927892732,-0.684800731817743,-0.758863288907439,0.181819693502241,0.153756581222435,3.65707517219259,-1.2968438324657,3.50792330970982,-0.868916413761412,-0.171687093689295,-0.598675763831806,3.86163064517086,-1.60728235976406,0.0456500627662496,-1.05604083100978,-0.184989935291283,0.211271598864413,0.829938153442279,0.370327106431126,0.0142556938942827
37.535,-0.131839101620534,-0.269435320515978,1.31402156679041,3.91301109713088,-2.99270310821228,-0.419333126966998,-0.831816431088215,0.282950707887513,0.103760669960941,2.95168203326705,-1.53933200980216,3.6832631855981,-0.835753150147348,-0.13628177479365,-0.529660576649985,3.73130120684834,-1.63115340850333,0.14891711375912,-1.0342744243629,-0.24783711324641,0.215713860382772,0.921155332709832,0.383298495464572,-0.0790757832910938
37.54,-0.125112565392482,-0.47139110863085,1.31269530188072,4.04152634947036,-3.26684501665464,-0.271378850153749,-0.847531524570743,0.290720894274989,0.0658039608485407,2.30043409561489,-1.74202090843068,3.79086878347599,-0.818055674467439,-0.101525949940745,-0.481355046468382,3.65293078619651,-1.60395313355402,0.238058456771879,-1.01777837677772,-0.291237732407127,0.221013651529153,1.05721791208385,0.36089915655777,-0.18060271455995
37.545,-0.130499706483265,-0.581245322530727,1.27539686388598,4.16695937639448,-3.5480420220039,-0.21715436741004,-0.851253485180114,0.206488335762882,0.0471630822117758,1.57819036124662,-1.91482920294793,3.84508919191776,-0.813407742915076,-0.0779670107731508,-0.446585779975341,3.58356655179367,-1.53197179465918,0.300520173011638,-0.997954986341763,-0.322868805225917,0.229476679587126,1.25139465690974,0.332440280578995,-0.319423078103701
37.55,-0.161781629047074,-0.682480268852764,1.22734015946376,4.18946307418212,-3.76488112996034,-0.239254287192696,-0.865254299082173,0.102208165683039,0.0417646794854799,1.17564976141651,-1.98794074137662,3.87021732001822,-0.816722190351671,-0.0606051441693586,-0.413313515093941,3.47716438578699,-1.41312505114249,0.345528161132003,-0.973930931886991,-0.347406852962848,0.229948153441079,1.41918987353533,0.318397841472947,-0.418898098996892
37.555,-0.180917437984756,-0.845466398363092,1.15569726908469,4.16251956811556,-3.92196475728615,-0.341020414944762,-0.891249433684101,-0.00448238850607887,0.052634628405098,0.884945040781701,-2.11417156462418,3.89492216030509,-0.817257390491009,-0.0565555853306519,-0.394287889558198,3.40298918040524,-1.35071274342842,0.351454207638848,-0.954510649974174,-0.365241542487456,0.236245445353557,1.61011124128557,0.314748904714941,-0.515978006042915
37.56,-0.173825271115062,-1.04196903892939,1.08571854956082,4.16587901468191,-4.02754649416567,-0.479070913834937,-0.928853156813413,-0.083617044543261,0.0671759212634017,0.620042371816439,-2.23574307633782,3.94085651363536,-0.814553370914817,-0.0453273503798184,-0.384439385102744,3.347713155438,-1.32609058875573,0.341780110567016,-0.926943592449291,-0.367398696960285,0.229513639706988,1.75695619273162,0.311688987643557,-0.610953609092624
37.565,-0.156700061867831,-1.19521085215246,1.01921651747886,4.22801232305996,-4.07770584181607,-0.616174039671903,-0.985615513025935,-0.131473988511549,0.0892129144479609,0.369540364774064,-2.35482293184666,3.9987156930899,-0.797829542329839,-0.0365739354402814,-0.377566423104856,3.31780118733209,-1.33862112966968,0.326915989619168,-0.901117182186375,-0.366151899885929,0.217748684062127,1.84885887810129,0.304252431370455,-0.70029387216948
37.57,-0.1465498134671,-1.30465114865681,0.945975044949354,4.27600356849185,-4.07297139792387,-0.833495642986931,-1.06577341474916,-0.214264146058713,0.0999362895490133,0.0508574192165274,-2.53749130492166,4.03761006999445,-0.772173750020162,-0.0271567056031778,-0.359924196212585,3.28665455406798,-1.36426451116109,0.294107864642512,-0.862976654852346,-0.356683735875876,0.209909933145937,1.95077596381605,0.273288105970991,-0.789442873116842
37.575,-0.132784279087526,-1.375081940995,0.91368343304663,4.2488220561256,-4.04323519515373,-0.992556300650979,-1.11949249166245,-0.317059759574965,0.110850734146696,-0.158261087325239,-2.72035995169561,4.00187876804544,-0.754418483317332,-0.00366732289940492,-0.335121854155548,3.23564163199361,-1.415639760575,0.245016455710362,-0.829796119160437,-0.342008188636257,0.203754843736986,2.0595049603754,0.229200454446809,-0.880653348349784
37.58,-0.122593446002132,-1.45876162426773,0.890786496989858,4.19745626750442,-3.98953562968884,-1.12306932589259,-1.15622057100209,-0.430302732734712,0.116909662096312,-0.348227261219068,-2.89597338799077,3.93315297684455,-0.752008534612636,0.0213968677287601,-0.295620110884324,3.16550971779156,-1.46839255740757,0.198629072944547,-0.812682803548424,-0.329586874196302,0.194976415471047,2.14219595044671,0.163060730494419,-0.950310223186093
37.585,-0.121157992810503,-1.55992766661167,0.8804402111845,4.0896470129674,-3.88689988652483,-1.26932316218162,-1.22425256570788,-0.593727534288143,0.127611092364136,-0.50386319856263,-3.09396521150017,3.77930970195422,-0.76596385319155,0.0459838861204099,-0.251353388220647,3.0573186449856,-1.56113586065269,0.131419822263789,-0.791804469373456,-0.296876180093449,0.199480013628077,2.24982012099331,0.0766793017171368,-1.02359310189951
37.59,-0.116585348794951,-1.66023293165878,0.889778200143311,3.97006458358556,-3.8073557881018,-1.40351759379507,-1.30232461492375,-0.723721750604119,0.133518828138291,-0.49806482484113,-3.23666664132153,3.63150836543848,-0.771273223935148,0.0682862961358447,-0.215613917121097,2.94474471217412,-1.63468103802693,0.0874165445069164,-0.794348695432801,-0.285071267746,0.193028061589881,2.28542781034609,0.0274023466636394,-1.07609574214367
37.595,-0.10979524008126,-1.7914056294247,0.897551944011955,3.86181981939367,-3.72959533099649,-1.56572650449441,-1.38177879718417,-0.859875087708986,0.109317113484811,-0.357197830887773,-3.37096143306642,3.48684019588513,-0.785298890821798,0.113407463953527,-0.20159245346805,2.7296085362401,-1.77104198330117,0.0312092464689076,-0.788758663067129,-0.264001845158851,0.190710872234389,2.34350232525899,-0.0260493430987988,-1.11211740726922
37.6,-0.107616597292047,-1.91788014451914,0.902953011171654,3.8037623183451,-3.65651729371562,-1.74822296972422,-1.45141757589999,-0.965496404982088,0.088166386035901,-0.112508109090842,-3.49646014429183,3.35004052484683,-0.799274011513453,0.131015241375994,-0.154440610473725,2.54653464072598,-1.86664481506266,0.00363385983323991,-0.779478549517759,-0.238921021981329,0.189409599495082,2.37211583865782,-0.0421672795405449,-1.13541858965007
37.605,-0.106757513585581,-1.98575093549399,0.9037202865286,3.78684765598313,-3.60324955096735,-1.92011539880947,-1.47686928854209,-1.03468791591763,0.0591526714954035,0.196793284182726,-3.58589681289777,3.25728067103844,-0.806245432922749,0.15274748559323,-0.11786621263516,2.30028033434571,-1.97554531988077,-0.020182761228079,-0.779313664000492,-0.207631863579199,0.187957932365457,2.36179773538869,-0.0223700018693115,-1.14500048991727
37.61,-0.138977928766057,-2.04800019981692,0.904785650339266,3.76984962293372,-3.52175224870813,-2.18563967686815,-1.49079101157108,-1.0518788637615,0.016471434147277,0.646736920968737,-3.71839296147748,3.14771818885301,-0.823194620774278,0.177589920550891,-0.0997781936695437,2.04359095034714,-2.02422258081943,-0.0474336942441436,-0.764424730693117,-0.199605519245599,0.188556389818827,2.36788189843782,0.00228074688622725,-1.14253318614331
37.615,-0.195147713489519,-2.08636705236962,0.903476893339483,3.74218957908397,-3.47295645135792,-2.43449801642097,-1.45618953707329,-1.07364908700468,-0.00766235994783542,1.07756344971905,-3.82735477356174,3.05736276872576,-0.834950281595507,0.198142726387081,-0.0845764147744534,1.70642785609043,-2.04913670839051,-0.0762217889818405,-0.765857579432456,-0.17137968897519,0.194783955553155,2.38234477604421,0.048523862574131,-1.12701583649392
37.62,-0.236826985170129,-2.11471532538587,0.890693169201925,3.68055109166087,-3.42522418419368,-2.67605269165199,-1.40800591728995,-1.02526167121983,-0.0463634114261527,1.48219645614946,-3.9440642488759,2.94908194535259,-0.841481284517235,0.184590054262772,-0.081901329867097,1.36436880318626,-2.0468041373294,-0.112144454636378,-0.76756731562303,-0.139278193495924,0.20633505165307,2.35377990238665,0.098293604773845,-1.11858222635319
37.625,-0.291584644291184,-2.13610988864418,0.840949334623023,3.62735457628993,-3.35438589936728,-3.00851507864981,-1.38501328125233,-1.00954795650834,-0.0876943064338455,1.8979919758415,-4.0282369211652,2.85654768219708,-0.854904702594493,0.16874497198927,-0.0759838399371702,1.08898720527998,-2.03190472241162,-0.157081581069919,-0.777728891133558,-0.118030674908166,0.216788169795666,2.33885350248037,0.123363026765109,-1.09669959203327
37.63,-0.292742496144421,-2.13095064350838,0.767673534151943,3.608578172615,-3.29840228755466,-3.2467329968853,-1.34965979965988,-1.01535179462969,-0.10937840860934,2.24858853270601,-4.09290396770521,2.74779801038432,-0.856089465613327,0.149157946628029,-0.066975230322899,0.800429513469865,-1.97895446360681,-0.194674193398696,-0.785987520205892,-0.0826662546505283,0.232962019973107,2.34977238546934,0.158503714908937,-1.06352366387545
37.635,-0.31064046427028,-2.07540377522432,0.684762798220058,3.61540289219068,-3.19234149975706,-3.48301875566161,-1.33026954648634,-0.998482633902897,-0.121640911160122,2.54832734303501,-4.1545645066185,2.6324228597927,-0.843305048861889,0.136566524204141,-0.0564922064665865,0.641084772522067,-1.93507113358506,-0.226083720642012,-0.803941333906508,-0.0510406058316419,0.255646010545188,2.34872260529575,0.180072721132615,-1.02231132294817
37.64,-0.336233204852191,-1.98624874718813,0.618579510431136,3.60238930508377,-3.05465081831259,-3.69628800792732,-1.31477424896666,-0.981001423493718,-0.140791312513831,2.84617618501403,-4.20772800341895,2.51230424332532,-0.833299295823121,0.117488724786399,-0.0502894960689854,0.520182523211314,-1.85669706460741,-0.242829356419565,-0.82332600604906,-0.0197435341379467,0.271928754594408,2.33730031216253,0.198134929121099,-0.974409921365002
37.645,-0.360202279350561,-1.92653027059317,0.58563883514737,3.55305261714853,-2.92758186877777,-3.85181501596643,-1.30608435916227,-0.953103459405579,-0.165876552106533,3.1238804130791,-4.24023653323436,2.39111103520443,-0.813663597511252,0.110712266509562,-0.0485081492964711,0.474740085497057,-1.76450008853844,-0.248248022607264,-0.847165015828073,0.0126669445802571,0.30437690489009,2.30734442695036,0.20557955551152,-0.883711498569218
37.65,-0.414652846162941,-1.89866354571014,0.588223019734305,3.46708957544467,-2.77188726430821,-4.01549615654568,-1.29660401271922,-0.915191683373711,-0.193496855192159,3.3851751181981,-4.2706864659144,2.26057128380986,-0.797364989302136,0.0942633726177368,-0.0500974457807091,0.500123345499245,-1.6707228085635,-0.246406761003742,-0.861474862558219,0.0285717314422407,0.316853470453878,2.29384062136084,0.200661007555479,-0.823225963581057
37.655,-0.462300917331211,-1.90416346659651,0.609519755445247,3.39802617624789,-2.66116868318051,-4.16210111944068,-1.29737807234928,-0.888958028308788,-0.220200977801197,3.55901046201164,-4.29797608841488,2.17185946539468,-0.784937380993106,0.0902246823640714,-0.0489388735497088,0.558470389987401,-1.56903708331358,-0.248155098117419,-0.872961330043528,0.0451887668909698,0.324774881310134,2.28009865382975,0.208874625022614,-0.749629901951679
37.66,-0.507343683878993,-1.93618617689963,0.638293860930553,3.34383131574893,-2.56911920043088,-4.31240242670808,-1.303487935486,-0.864380089907846,-0.251239967477731,3.72597970236975,-4.32895868061984,2.08712173362737,-0.779023576357436,0.0888996840757657,-0.0412130919032235,0.663916963736514,-1.4399346275046,-0.257210213567774,-0.884725144934925,0.0587409975009701,0.338120822574513,2.25096506695354,0.226998899801055,-0.637147895371088
37.665,-0.566227214491332,-2.07439490049967,0.661994402243655,3.38718823507052,-2.46207438187136,-4.5699214804789,-1.31369265703589,-0.822036729394181,-0.311244732183656,4.05377961697233,-4.38620239097419,1.93158997477139,-0.780414184863333,0.0939410854457831,-0.0232985385566458,0.794912604581688,-1.29400872403237,-0.273188126333925,-0.893903866558075,0.0719900384935149,0.351832476069878,2.21363640311064,0.254880172914186,-0.51304145124409
37.67,-0.635413909628827,-2.13376106792119,0.661460877047355,3.55176332592871,-2.38982146844977,-4.79464321700143,-1.30494063983465,-0.802941666151349,-0.35037586080088,4.25197407002425,-4.39877677394395,1.85137600531682,-0.789135068120653,0.123662816077164,0.00746176588957205,0.871223817248599,-1.19711126540749,-0.297459641319134,-0.898796098601457,0.0841990391108835,0.353441958068192,2.17852229680384,0.293780306219093,-0.421136218624322
37.675,-0.698833512994247,-2.10044951622932,0.640642559646558,3.67549742189214,-2.31069704806723,-5.04956095537016,-1.30208825835494,-0.792910271183684,-0.374663106176332,4.43038389535322,-4.38569674349286,1.81853951544993,-0.797821910369378,0.167641608437161,0.0504408302311594,0.863935729098963,-1.15879551257013,-0.328637549863436,-0.912675541460671,0.0887430846202988,0.358854025148069,2.13225058261282,0.319249043742809,-0.33455822378061
37.68,-0.732214421569129,-2.0538965008514,0.606980621644862,3.72416792281027,-2.22612736995381,-5.31339427866263,-1.31106692131431,-0.77637588911135,-0.388124356250808,4.6557515539624,-4.35687799963983,1.80934117011634,-0.809111026058102,0.196697056074185,0.0939682890680105,0.801812284092223,-1.16951490054583,-0.362412255750653,-0.925272017404608,0.0868612419665047,0.362152436578392,2.06814050199541,0.333142040820578,-0.255218382229962
37.685,-0.775370687773735,-2.02437171688644,0.542193245200028,3.74400938581993,-2.10610345424262,-5.63106781246781,-1.3223182731058,-0.764375537436645,-0.403062699696666,4.84533429381366,-4.36710009001268,1.78607846898076,-0.824882707711827,0.207744568241118,0.141585250518582,0.677275374081213,-1.27799867921467,-0.41312507064002,-0.94539578200262,0.0821263067627024,0.37336198214102,1.99665431352515,0.326265586073764,-0.196318102323576
37.69,-0.816650655288113,-1.93357746850361,0.447622456497837,3.75419104227348,-1.98667129644604,-5.8536967204978,-1.32312555027761,-0.764727101453813,-0.434702110365352,5.06196996285194,-4.37214300662493,1.74471958404239,-0.844579783314222,0.204211452359073,0.183788304251449,0.579543418271952,-1.41674343458431,-0.448841452771542,-0.97534347233059,0.0839513303041015,0.381679786434191,1.88606893609457,0.2930081812336,-0.146405404137355
37.695,-0.860175988258496,-1.80285394624542,0.359046208642021,3.77437082511193,-1.86075462142909,-6.08658365222225,-1.29562436956067,-0.759428472864027,-0.456227040645411,5.19318627956371,-4.3476129218181,1.71350697600357,-0.867632012438947,0.162350366323376,0.216657356177429,0.480721967100354,-1.59979630172624,-0.486772648309004,-0.979958139847848,0.0583583821544099,0.384000563011622,1.78053797836291,0.256223830521308,-0.100628315534168
37.7,-0.920606271817542,-1.5505650391371,0.235743413210727,3.80654028027872,-1.71852739334309,-6.24335385705147,-1.23411678193138,-0.73880774716758,-0.488467700869085,5.35918087268992,-4.27118874934837,1.67649506680286,-0.85678299989177,0.102859187206089,0.205269917817473,0.458904237346375,-1.72291558418954,-0.507715281753535,-0.988346677402046,0.0486742583481712,0.384553897669668,1.74452804708081,0.229161633029438,-0.0768667726033784
37.705,-1.10116108403418,-1.37375184634753,0.176830790856308,3.79971339476675,-1.46896664360425,-6.35612581342799,-1.18905958846105,-0.73014965722684,-0.560296724294264,5.35929067873467,-4.20232955132765,1.6811414351757,-0.808351344356191,0.00991665936230733,0.13272770871105,0.511068005987582,-1.74858850949165,-0.510138610122137,-0.994897631174795,0.0453059830199209,0.378041514737717,1.67411827143907,0.19314214506796,-0.0651878572624607
37.71,-1.2222725065597,-1.21704387130471,0.176442229812391,3.78283080628596,-1.27208695391812,-6.29671570086749,-1.16547388824706,-0.689180456665399,-0.631440808067141,5.3012666432178,-4.11278801647095,1.67976199076572,-0.764663383902313,-0.0711752659699444,0.0900398197117508,0.734660448869489,-1.62491495543108,-0.489556902993825,-0.998554389356833,0.0340314578148685,0.376612926452112,1.59822674419837,0.149354652711551,-0.0600755475461483
37.715,-1.31068262480529,-1.06379546695493,0.172758110208022,3.85432282715784,-1.14028937308361,-6.06856673417255,-1.13931746153217,-0.664761868525931,-0.706978538301718,5.2032221381632,-4.00434623407995,1.65655049246469,-0.6766328072333,-0.134195613518133,0.0883233330018732,1.02123226947786,-1.45233407955551,-0.475763608473446,-1.00934203727707,0.025286428773051,0.374723741542257,1.52994357257315,0.0949774156129849,-0.0665741409166434
37.72,-1.37966287189772,-0.864954081435335,0.127761020014457,3.92919495365796,-1.05606022057857,-5.74766204166558,-1.11949408565582,-0.642983384248823,-0.770555239313071,5.06786709376718,-3.8794282196256,1.61096983929132,-0.602398079424946,-0.16726323790926,0.110427422608839,1.38522946479734,-1.27803404524042,-0.484225022513223,-1.02555641750644,0.0222205973622646,0.372129293292936,1.46620867811336,0.0427876333424907,-0.0755480368809239
37.725,-1.45274942929598,-0.61383683761113,0.0221843619410423,3.91514249744017,-0.958845790148188,-5.21083273138755,-1.0987157467632,-0.619445536471677,-0.83032180388748,4.82911705566013,-3.71227515447753,1.52808353640485,-0.53401888825474,-0.172993800947105,0.162510068272305,1.80071055748746,-1.15010038746576,-0.502327703563858,-1.03598873170292,0.0137838348134674,0.355346146413388,1.40597778053021,0.00930211030132107,-0.0886205350273078
37.73,-1.52228968560511,-0.40585913071683,-0.088793447055417,3.79553299450611,-0.826152672956154,-4.62935859255625,-1.09061526044342,-0.588435390222556,-0.882012389295654,4.54826888323693,-3.54024004811351,1.42758627129309,-0.49590485703255,-0.128179728497708,0.230280400016416,2.38814863870491,-1.00191331731104,-0.548644602006823,-1.05705802562993,0.0166312401635151,0.348128865257926,1.35529410596536,-0.02375022379471,-0.10707510045992
37.735,-1.57086449996397,-0.201150402241764,-0.199790753237137,3.50936184781971,-0.618730834749892,-3.87393622734465,-1.0580105288728,-0.551673755287667,-0.924641351004032,4.18547834060092,-3.29825395409031,1.28441606325706,-0.49172959499438,-0.0704138759620009,0.297601344193386,2.86082391987235,-0.860724065976962,-0.59051997040717,-1.06419786728015,0.00673484674492302,0.331680417096377,1.32804668947275,-0.0242476615131241,-0.113886979708534
37.74,-1.58651395641588,-0.0782843507060702,-0.291447325250977,3.20731607980787,-0.427208571021349,-3.26234334227452,-1.01495757415707,-0.509846973480788,-0.941563396762005,3.87377117655954,-3.0833723815447,1.15408092093589,-0.514692862388792,0.00241361112955839,0.382721318867847,3.25317963662634,-0.726143756714301,-0.62520664606636,-1.05821585759681,0.00469194000789243,0.319765247007632,1.27451066673349,-0.00341501832944794,-0.117843618353344
37.745,-1.57271548208911,0.0493842324350729,-0.428123066876984,2.77508207349034,-0.0927964596307385,-2.49034784992341,-0.976755568441277,-0.425707657655235,-0.957915608875371,3.43830643135746,-2.7989252292682,0.989592230610831,-0.552655488589817,0.0940199990927949,0.486223847062179,3.5333199866208,-0.646941279677638,-0.642197170730037,-1.05196841621568,-0.00564635132412295,0.315213343357323,1.18939549963695,0.0352260934105245,-0.110534087586767
37.75,-1.53281253099035,0.142007529392864,-0.5168594482404,2.25586078330172,0.325536190686129,-1.67965788685399,-0.951059433624762,-0.325621224052793,-0.977287007679469,2.87149602925524,-2.50040419253897,0.810947759278277,-0.598754512096371,0.182330107565096,0.583857513942068,3.74232586815277,-0.632900488141635,-0.622868701562936,-1.04354784961124,0.000244921711956678,0.323596803977576,1.0855086684959,0.0740122100314283,-0.0932766414520954
37.755,-1.55682007048461,0.17567704344572,-0.564931910324359,1.80335082264683,0.700913799499725,-0.964566103660134,-0.942045265875125,-0.255266831747535,-0.995798838483117,2.29755609218527,-2.25275404544828,0.678020996139386,-0.588837517606754,0.257685383617356,0.650543580504731,3.93912153783632,-0.614787789122884,-0.551781153440114,-1.03519596555117,0.000646350154795179,0.34115905663277,1.029610628437,0.0771855011189116,-0.0737514446748782
37.76,-1.60548063870509,0.15661367296294,-0.529148964482766,1.38129300761792,1.04644491087227,-0.224372873826667,-0.941112954915196,-0.204839205202248,-1.0225103804087,1.535033201034,-1.94668763100022,0.516545726918372,-0.673746499395735,0.318235242516632,0.707040255691077,4.09541404241639,-0.582961950363639,-0.470714133259086,-1.03088657619549,0.00464744561447185,0.355127752404869,1.00318798439148,0.0556168914398415,-0.0736557453205743
37.765,-1.64043855386471,0.117984528194813,-0.483377260998326,1.15459854224476,1.2766971075631,0.43788843906876,-0.933644327389056,-0.202717659989427,-1.04268763654631,0.908098033287019,-1.71823083761652,0.391584041454272,-0.7255382518813,0.348770579460458,0.743742958392611,4.26810529469688,-0.557721665087735,-0.38108082746723,-1.01691973615316,0.00856007929890731,0.378013633889645,1.00344124325825,0.0157509412553612,-0.0773171818305219
37.77,-1.64059794204958,0.0950193823197513,-0.449196430194119,0.995452048839424,1.50088861639906,1.2973967816376,-0.908437312263982,-0.245614653844534,-1.05295562437358,0.156139849881967,-1.42950784111968,0.238654164000934,-0.810925466581552,0.357488062917056,0.821746306482,4.44881556716631,-0.583501978144091,-0.307238560528013,-1.00810645641038,0.0157079365415618,0.398493877610168,1.03107084457311,-0.034910423369978,-0.0784715672946332
37.775,-1.73467902227292,0.124221260044749,-0.405141367874064,0.925808535975524,1.58274086751275,1.79060763675439,-0.851615596573851,-0.299134125124624,-1.03141330301705,-0.393094491320234,-1.19729607411297,0.106585203251292,-0.890517082349109,0.36813957009711,0.879490293326254,4.53337912302391,-0.682204789102701,-0.282374818491558,-1.00105541016117,0.0201492861280921,0.421511918684484,1.06176871236384,-0.0799101283004485,-0.0826075168889535
37.78,-1.75427530011631,0.168422665886084,-0.34784462418802,0.759777583768596,1.65739423622483,2.52602300344977,-0.776632484379885,-0.343073702929811,-0.992072571795914,-0.86413576774482,-0.953175996625052,-0.0288044260385229,-0.910115530091553,0.379058339258668,0.867942326392515,4.55188238266749,-0.767550804724289,-0.320992086474341,-0.989338570747533,0.0307989803017187,0.450359432120846,1.06862706847874,-0.121572809445228,-0.0755010675052837
37.785,-1.73086821583752,0.185788271438568,-0.296286949824097,0.552334857937329,1.67347347940881,3.08235290843223,-0.692328409988083,-0.367484124990016,-0.933802977293801,-1.25077389620426,-0.711946054889172,-0.176358573675838,-0.855409008137986,0.397336405777125,0.758045308354744,4.46453263482774,-0.635760395967367,-0.416592874691745,-0.979929895087197,0.0331986031579355,0.47408437546389,1.05602533416915,-0.156479823960373,-0.0522873202684719
37.79,-1.6209401190477,0.967841432110908,-0.20415503447263,-0.621036764966599,1.81196226293853,3.33215500338672,-0.619688129786752,-0.345365245296147,-0.953510040047879,-1.4854561459408,-0.517047902159433,-0.29374158529486,-0.737095308078781,0.42844464121296,0.612127014831316,4.27058311958236,-0.180266813535297,-0.550654889606475,-0.970952256998905,0.0451048108407084,0.497040229840778,1.01878395042028,-0.211781174221421,-0.00965505753210899
37.795,-2.55073132542291,0.991582043564497,-0.239592238074272,-3.40395951421968,2.25319801935287,2.90663921016468,-0.528576790067423,-0.104402167631401,-1.17990173203732,-1.68338973987953,-0.286526077280762,-0.379225413545767,-0.554275347413675,0.447256452439459,0.427761227785805,3.86411064682214,0.81103770227639,-0.752995430801259,-0.958026686516539,0.0520268934938294,0.51503568068895,0.960478269185585,-0.250743202468857,0.0310012515785776
37.8,-3.09857228739228,-1.35995656426796,-0.104641028637946,-4.97552780232014,2.31992458650283,2.79112108995645,-0.350009617523239,0.160677099136683,-1.31851259471618,-1.73124400696008,-0.150451265624829,-0.439309691864347,-0.461047972461256,0.444998853988593,0.350116534169588,3.49380372595087,1.65992933307335,-0.914133152576009,-0.939764772679987,0.0662943776325641,0.531618002026639,0.874669507676808,-0.298261934901631,0.089936708124383
37.805,-3.56905665531567,-3.75810348687358,1.69260145202507,-4.65655457226887,1.25985845946494,2.24652071967797,-0.270646713847067,0.15449413310237,-1.61169578948278,-2.1965579539956,0.189841180072466,-0.550984612391508,-0.429560118931491,0.453592106073695,0.387415775753374,3.10688742323116,2.39654060422422,-1.04771756835099,-0.937027265206243,0.0867925338431959,0.537665274250978,0.794754412668172,-0.355641843040844,0.138724461774061
37.81,-3.71329100628027,-4.79276461557135,2.53001802349708,-1.11577137187798,-1.11610545918907,1.08416945119916,-0.397555169862232,0.175267179546891,-1.85187718637543,-2.89307318957067,0.651551803810873,-0.63784191638678,-0.437249749044921,0.487073104073991,0.388722209618369,2.46621467406984,2.83294053276305,-1.08828196065104,-0.90305817224698,0.0936506595508631,0.539080025440289,0.639486460893264,-0.460686301809448,0.18204547823639
37.815,-1.34709860749844,-3.01720280677531,0.856608055722785,4.20636721365111,-3.42824590771609,-0.723455349269766,-0.523596830523583,0.30029007328292,-1.65043238066351,-3.14120908507838,1.11590682741935,-0.697913102560335,-0.44714325098543,0.530513122446154,0.259019465281815,1.79620497433295,3.09553841317659,-1.0172259428878,-0.890737162578068,0.088066919482614,0.54013024212158,0.592745403459261,-0.510579064205793,0.255106544447333
37.82,-0.72744130654151,1.0682269446581,0.363218168721107,4.1055414293598,-2.97655006408233,-1.90767622481,-0.69706037057798,0.720040695662913,-1.07746199458573,-2.65292644463335,1.59945984398799,-0.822253511061917,-0.476926049632174,0.587687199634059,0.111712069359316,0.832033063889495,3.13605558127567,-0.847495377796156,-0.898419123179712,0.104565096242608,0.53760122523156,0.534816512263289,-0.594043408520197,0.304548110980362
37.825,-0.752039050898611,3.78107202802687,0.812831516586627,1.84302708635825,-2.02827656679032,-2.40007951956199,-1.09797799865285,1.80590647342254,-0.104432206293396,-1.48600900331395,1.9179350694169,-0.713839883152846,-0.599023896651642,0.673580206394756,0.136929817694125,-0.356716453744876,2.75128076440175,-0.597918394118936,-0.90308141308398,0.115519382209233,0.529482478159963,0.434091046648537,-0.679990298824862,0.350221558841493
37.83,0.844126861416529,4.12840936401273,1.90780930748263,-1.22496038900112,-1.03865308643887,-2.41701439015949,-1.58108873071981,2.72753769921808,1.15395824764478,0.127545283414155,2.1826791055551,-0.22931642334183,-0.865839549598393,0.791109092524079,0.397150215694759,-1.48065633018309,1.85687934614674,-0.327129264495522,-0.911681497411358,0.109893933899338,0.507749291885677,0.317463375996978,-0.761705035770691,0.398177155735944
37.835,1.45025124309751,2.61630440994206,1.98190078918168,-2.91190041940215,-0.642869157741352,-1.25572971371852,-2.52891490159036,2.5853640747964,2.15490921970043,-0.150311504693709,1.89638097607336,0.177742034507706,-1.44253369855274,0.989324304052937,0.569095122653135,-2.71253760589806,0.378205985035532,0.0618282549872259,-0.927093248686071,0.0944811725440226,0.486238440303535,0.253415386755884,-0.794201436645345,0.413422107583201
37.84,0.079788913719334,-0.727558327290762,1.08900560285681,-4.14277969959759,-0.590079447049419,0.0436071901707485,-3.67081998696413,1.27293709651155,1.47009291449237,-4.61656518265869,0.549468509111592,-0.0124340121320003,-2.12381898264684,1.13497385188461,0.236276057362024,-3.40660323667141,-0.263123219850689,0.327098422601179,-0.975525790635025,0.0926650363739543,0.446062581177441,0.118604270759605,-0.850918533938688,0.406840519799596
37.845,-1.25246595760773,-4.01397912397338,0.766881148103703,-3.46643718277766,-0.280863425624019,-0.212363106094575,-3.1433999303543,-0.0923746646307655,-0.0174198329392468,-7.08786391964448,-0.261264626092475,-0.327136632709493,-3.54061440842654,1.11483301820396,-0.270282906276442,-4.10583386325227,0.0712379217228519,0.452521227322647,-1.03924347136066,0.101885619854719,0.424060418828981,-0.0246177313720607,-0.897276345028645,0.369475858609012
37.85,-1.66177346690862,-3.65051979309266,1.08822075078086,-1.46023395980278,-0.247842696968881,-1.20514605573152,-1.48060180655248,-1.55309100006833,-1.02611120349911,-6.50012672378317,-0.121333397259087,-0.64135320968235,-4.29008822782816,0.772121099721804,-0.389782688923657,-4.80180378870426,0.530866759173577,0.338258826321988,-1.15389198396,0.114458181867641,0.408021524259145,-0.224377240810018,-0.999512445849957,0.303694672640743
37.855,-0.57435851642923,-0.818513572016504,0.857086261930821,-0.258290242979544,-0.404359435874498,-1.34779788308666,-0.841856379593898,-2.14220122390281,-1.3525082500196,-4.34726685096079,0.689032640779359,-0.878337045908498,-2.82910275839723,0.49594251185871,-0.116790772234791,-5.21735657579484,-0.0452452498368887,-0.0661469694362923,-1.25094659384705,0.101073294842149,0.403132683573915,-0.373690341336875,-1.08853836684869,0.26380017552061
37.86,-0.233622021027557,1.11021332345301,0.731262071568525,0.0301472106339172,-0.0367182020130152,-0.614151487541585,-0.859238164301218,-2.09220122665501,-0.987857912067116,-2.18004410765334,1.40331139242744,-1.1097973064124,-1.42277065964941,0.382268066471212,0.37620277574425,-5.05971463363154,-0.531190800642269,-0.386688088693057,-1.34509393524802,0.0435250525890649,0.383733382755008,-0.498226639517916,-1.12871129991689,0.233289266999449
37.865,-0.811917503149455,0.563007106153603,0.874318018773633,-0.485670194198139,0.209061356144513,-0.126834547214206,-0.894555819750854,-1.28501822327263,-0.256658094177045,-0.50879552730949,1.68288787946783,-1.15731225257979,-0.97730465671837,0.0654491262103643,0.588392650267581,-4.61541574680949,-0.0318983605092017,-0.505651708545677,-1.39702426927407,-0.0586704552131864,0.338084094805437,-0.568350835087396,-1.03391126723041,0.188173056267203
37.87,-1.00444935637088,-0.547803498194239,0.872086123675952,-1.03900904080503,0.117432105288186,-0.209326831259867,-0.794167907694358,-0.271819614562784,0.0938830616259406,0.793912695596657,1.52082288850652,-0.635600008664602,-0.633014547038508,-0.558159341027081,0.342076948694681,-4.42724104952545,1.07644407396808,-0.627921168656909,-1.40574780216509,-0.19396401415992,0.261840840943855,-0.587634947294003,-0.841258777308,0.119455130391241
37.875,-0.466517253353949,-0.77133749837016,0.829434547530924,-0.847637275724995,-0.153121166156263,-0.342797126271287,-0.616618357227553,0.114823578427937,-0.113187362994029,1.52810834417989,1.07473603572353,-0.0342700204648543,-0.465548918805617,-0.955352610996142,-0.0335914193990022,-4.29067524917974,1.88780484798276,-0.674220621312593,-1.35790578096195,-0.31871225194893,0.173251744935927,-0.559144033675519,-0.598906832311474,-0.00769346484027334
37.88,-0.304788675891163,-0.251948778242923,0.837856755008606,-0.520967157102261,-0.334685234423624,-0.318451064545263,-0.395791972122595,0.093904370210766,-0.516894473398406,1.62001679063081,0.75961359582883,0.316358803564909,-0.316717304171126,-1.2491658100199,-0.345662611076437,-3.81591950085757,2.45558667721273,-0.608610984889272,-1.29095843003685,-0.366691880322552,0.0985492895624761,-0.543089861696625,-0.467968709848307,-0.189063888477732
37.885,-0.445754509583711,-0.155485274373874,0.905883340553627,-0.471119545967436,-0.350851295421364,-0.341114462074359,-0.457742388405681,0.00024360452334032,-0.453014400990797,1.50851836235234,0.791513143193272,0.455143406333333,-0.422040281817546,-1.36110819948111,-0.254811272707316,-3.03202895761159,2.27769544049701,-0.285610231383614,-1.22547312502139,-0.329319289799011,0.0383683215857502,-0.560939620504635,-0.5577720656603,-0.413823024046319
37.89,-0.471347445972127,-0.237149813286676,0.926575731530518,-0.353818892081348,-0.266253316756466,-0.321673536203466,-0.828379146753755,-0.185586588524768,-0.134669726996012,1.77387330503006,0.943808213335692,0.461173132368204,-0.13312431357442,-1.5238886316212,-0.161800837237268,-1.60655216556118,1.71728378278077,-0.639941557397485,-1.18533293785528,-0.267836952377487,-0.0368087312136301,-0.534519673770218,-0.721851388325945,-0.688899683939385
37.895,-0.413604588907269,-0.287978213990666,0.923516299238666,-0.166634478225494,-0.143754400741491,-0.300237388497904,-1.03046602488817,-0.229970121169377,0.0384314387036589,2.47551212254815,0.864377777975914,0.383805284734479,-0.111129564685865,-1.35527704351665,-0.143134120121512,-0.124530578099626,1.13955157554036,-0.828804125449247,-1.16743471392529,-0.219865381261279,-0.0836881651150733,-0.398242825857928,-0.793279169514415,-0.93925959535706
37.9,-0.398120672569073,-0.247813307801319,0.90041181423123,0.0815907227480377,0.00230144544785637,-0.240499356498876,-1.08354051934489,-0.0885316802510303,-0.0670012438174517,3.2779070928218,0.670211596645949,0.329687754171972,-0.281810783197974,-1.10366787450469,-0.0237194588169956,1.29888421552413,0.867225340888738,-0.664085502026701,-1.14828138246112,-0.135388634004364,-0.111439095301869,-0.189952520995365,-0.812226207879056,-1.16963161277345
37.905,-0.44721716975424,-0.225926935009192,0.881729363237653,0.231151902892441,0.0824986596329472,-0.179656992541011,-1.04939010991795,0.134818078448898,-0.280822175068914,3.74826797417342,0.583183837924469,0.224089139421166,-0.658070133398125,-0.722923061752106,-0.0260333184426235,2.24102166540496,0.723629811638578,-0.310805190868901,-1.13998022162928,-0.00284684553068582,-0.0928422921501129,0.0320982124523573,-0.791349926700454,-1.30858637672551
37.91,-0.488624150766262,-0.212844079828354,0.882865774499263,0.289685240492402,0.104200774518663,-0.133640628442756,-1.09133111376377,0.394873495127768,-0.415319824318805,3.68828400061437,0.675999839869512,0.0769124277105003,-0.978073345009887,-0.513408344461274,-0.111229500448351,2.7691494738396,0.822744571324579,-0.232624841343992,-1.12556304010843,0.13882549306642,-0.0592429057864524,0.245703717121539,-0.73580422759621,-1.2952273824742
37.915,-0.489916614830837,-0.178559705729799,0.895788675930081,0.243243180494879,0.00380045289388318,-0.121511095212759,-1.19156470804368,0.584091088036107,-0.408470026365998,3.28469286022285,0.858034471073174,-0.0228167340456881,-1.37328916806028,-0.176329347955304,-0.224099250653374,3.33780782712024,1.1054088930561,-0.0568712138045799,-1.09884200542467,0.267160154860155,-0.0186067646806347,0.452021760706505,-0.631745430555588,-1.11495764186033
37.92,-0.468916398824162,-0.202843612302066,0.903765768190966,0.14231895468452,-0.106407676174,-0.148483115188284,-1.33344854621241,0.735809229505659,-0.287892979925005,2.22266222162331,0.851521268778328,-0.162561836256222,-1.56815819688594,0.0322472795107231,-0.303912023870993,3.38183322487298,1.12831330847361,0.248273496934816,-1.04178920333303,0.354203013841863,0.0474589404195843,0.61011074322454,-0.475287463096843,-0.790045002372958
37.925,-0.444735646584077,-0.236462646811598,0.905064506022533,0.0816341960593108,-0.165426260734616,-0.16576561331749,-1.33332936955453,0.778919718920348,-0.2161231618144,1.15977705436249,0.666141296555362,-0.183998252756909,-1.55602026520846,0.248560783109572,-0.367323334815837,2.98819649248675,1.08647037277882,0.401256074761964,-0.981224635074276,0.379908242778968,0.121738264442351,0.66200719096011,-0.340623260932791,-0.410742094706357
37.93,-0.411101037834142,-0.256945321480008,0.909544010625394,0.0690380334854126,-0.158145680744736,-0.141891451711682,-1.2076260516874,0.662040952373837,-0.190782198432532,-0.0744672562915041,0.519819973867664,-0.107193561332401,-1.48214016136386,0.433227129064073,-0.297991144156758,2.41057801034477,1.02176500543676,0.268571668825757,-0.93554582739354,0.345427007007556,0.188171217095919,0.621366903072255,-0.295663411774788,-0.123512646791497
37.935,-0.377841199393719,-0.278024920127292,0.918354350737423,0.108158940150505,-0.112832321012647,-0.0895718391260223,-1.1032041538988,0.47177117548017,-0.19415763652289,-0.86147183811913,0.451524900148387,-0.0555271218002844,-1.28307932737473,0.534965887635484,-0.212268037977284,1.92245743238329,0.804484991133407,-0.16400616934826,-0.907359550228604,0.257391135941766,0.253756371191431,0.594267688190049,-0.35609951629724,0.0694561691225496
37.94,-0.375035635759755,-0.267459223495031,0.908015192132862,0.174312779683253,-0.0377222741282978,-0.0354595378122428,-1.02604525479361,0.31863383532261,-0.185913456592706,-1.46827641973709,0.370482828113789,-0.0708745989748926,-1.01552416389184,0.619576964063432,-0.133803916288323,1.32684013665174,0.475640280611836,-0.631910486679927,-0.887029032890373,0.178105944277601,0.325189087837104,0.592579546358386,-0.463391508630334,0.0942923225885521
37.945,-0.390628679390569,-0.223613949245403,0.895329822941094,0.215697681444212,0.0171994083413206,-0.0114166671596,-0.98305663884681,0.244345162867794,-0.192497282119415,-1.94380632298095,0.266301412651146,-0.114072481466612,-0.903455695228067,0.635583661704807,-0.0884709419545475,0.743245702513834,0.284439856912477,-0.77239211558808,-0.880203015724927,0.142607960031655,0.370655439722943,0.575876087517355,-0.619824057571157,0.0501632532434985
37.95,-0.409604683717415,-0.172756909731043,0.893102809883956,0.218706234590032,0.0195985534362131,-0.00255572148943605,-0.968788520957911,0.240129424022358,-0.205644539181851,-2.26879561074943,0.184427926745145,-0.158358815137251,-0.905720291990519,0.576755703562615,-0.0299813463104224,0.158822680407724,0.277745689540344,-0.668279236507643,-0.896185947241909,0.166173083906775,0.374950226493578,0.478584093062667,-0.793149519664195,-0.000429637209918123
37.955,-0.422182436772747,-0.115877023675694,0.900733234042119,0.157726382876091,-0.00057753524360699,-0.0187969021817454,-0.968485756761747,0.240195053653214,-0.208084192064451,-2.43371499081411,0.0750929748386572,-0.191520791159229,-0.946845991861167,0.525213058438753,0.011246808986739,-0.0929005432639715,0.341682812686044,-0.28732868384972,-0.936620846355695,0.211072235396843,0.352860708396494,0.292711546477821,-0.790911503210016,0.0394409817677689
37.96,-0.434650426469641,-0.105630570766146,0.895015559538711,0.0876343066210789,-0.0405111404522076,-0.0572661645382248,-0.932280453834548,0.199793643464516,-0.209096650188041,-2.32555162162791,0.0449237232679062,-0.187156784656866,-0.947310565178331,0.358106756922711,0.0287169074517147,-0.161775967452576,0.300958533385822,0.288293980749985,-0.960856392164242,0.240823799506215,0.301796507336551,0.0364795153553048,-0.637102764820306,0.160055823952688
37.965,-0.415839544460627,-0.108476182204761,0.890465319024041,0.0112000753717872,-0.0809580190664515,-0.0986787927261612,-0.902610508657952,0.0923678230531308,-0.197350725734776,-2.05410788078994,0.100537408917125,-0.140252942800134,-0.898019411280121,0.214490911612612,0.00303824167039316,-0.088181604282719,0.24551013898945,0.711316683790258,-0.982581832943309,0.215068899701352,0.247788896570911,-0.187893512590881,-0.374475667314453,0.304138442651624
37.97,-0.400960394215158,-0.121798726286418,0.892122046292792,-0.0213433999328848,-0.117485625845001,-0.121760653406958,-0.909833861650679,-0.0291670473202373,-0.176139274284434,-1.69640855603859,0.206071277610658,-0.0626410493256624,-0.8764397515486,0.0910415474031565,0.00595834904116911,0.137660554968468,0.296592784161985,0.859153973276366,-0.992361202088804,0.151972729325133,0.221696914081671,-0.285353440733908,-0.104010350133124,0.397439388620617
37.975,-0.382612400601366,-0.136970825134204,0.890825873229198,-0.019792279558043,-0.104433553112262,-0.126503951602473,-0.940210987108068,-0.0924824037038372,-0.1354494977865,-1.23733499791576,0.253591186117614,0.00743114565267011,-0.943956793176721,0.0499339096442896,0.0155004606500332,0.346425215247105,0.402830740139367,0.90839353364008,-1.02090899815079,0.0594957282125081,0.202781101319037,-0.260758753395048,0.158881722725326,0.410664177538562
37.98,-0.372870000996471,-0.175541676333642,0.902091654635605,0.0180849387152752,-0.0747784580646921,-0.125449687242508,-0.974836352163774,-0.120411790493484,-0.101824243763206,-0.664360485509068,0.26356851960635,0.0691560463133333,-1.04247779179809,0.039401612696341,0.0033046078803686,0.520965652535185,0.484662414985434,0.890537334768705,-1.05526143442268,-0.0476189366281415,0.211283344151307,-0.1474887426604,0.40731652705424,0.342366938203454
37.985,-0.378414685159597,-0.185395278154912,0.900050329347831,0.0792761976844776,-0.0440237155890355,-0.125449687242508,-0.995021044328334,-0.0963175620121923,-0.0910696371067279,-0.121354804811032,0.238938630456369,0.0965335335026751,-1.10557833767958,0.0238810445658953,-0.00661812195722683,0.608207157460559,0.507874125534013,0.782705874249211,-1.08324955722446,-0.122142762484295,0.24660368672365,-0.0391991309766637,0.551146233074894,0.229970263509362
37.99,-0.385541758816332,-0.189639344502013,0.90700397115106,0.150899275355021,-0.00968579756197747,-0.118951451079821,-1.01267412597253,-0.034689590642264,-0.119538468933214,0.586277779664236,0.167923376675021,0.106131142780273,-1.14403138660341,-0.00947457634283192,-0.00680147868785308,0.727604639760354,0.538191512242236,0.45851286982993,-1.11119515848095,-0.190439817975458,0.277818867463002,0.0754384696750237,0.648546929610515,0.0436668187902021
37.995,-0.389557857526296,-0.195656084223115,0.904107370567912,0.21051119244373,0.00837406859454166,-0.124047382099362,-1.02628340710179,0.00677716828971779,-0.139242353404377,0.963009507581161,0.117622921731578,0.0872455270010978,-1.15089246027057,-0.00400513668742027,0.0110733371482023,0.883548482312138,0.576196946658868,0.0969598868629936,-1.12123792758324,-0.214929052734459,0.313638495074511,0.137827988720526,0.6823026029668,-0.0838947024373723
38,-0.394486309409692,-0.194387145512359,0.909442321158996,0.272244939112998,0.017916350685347,-0.124438470562189,-1.03130060990899,0.0741997455278938,-0.155145757676487,1.36152641608975,0.0380279540955713,0.0547077382037946,-1.14275702463885,0.0123125603914225,0.0400691500416342,1.06956401693842,0.608792990227457,-0.264250317847628,-1.12489367248032,-0.235510940937751,0.353825215925258,0.217984563175859,0.685007268367747,-0.287438368487365
38.005,-0.407339674206212,-0.184426006051198,0.906805595847716,0.311600458661905,0.0157117577910841,-0.128989301124563,-1.02467261383343,0.125894562680514,-0.160704697707203,1.53797659465578,-0.00294545538124482,0.027612850190297,-1.1176494238016,0.0325299175880268,0.0585401950930701,1.23855435095517,0.628398001194,-0.532248309427708,-1.11316969768884,-0.243550312446856,0.377373545298414,0.254778434300608,0.627761304342985,-0.449470728982528
38.01,-0.400072391097039,-0.170818182013468,0.904933871674929,0.327346493172203,0.0129101955774872,-0.129252931618933,-1.00386704670686,0.177649262716297,-0.160691597884713,1.64411261468858,0.00288240591648486,0.0149238799704388,-1.09981897278793,0.0470942751481853,0.0649533800074762,1.3630664990519,0.653212098894864,-0.653874780590385,-1.10454347528204,-0.245746388459255,0.390373702318542,0.267469769783978,0.489537786599188,-0.625381802731541
38.015,-0.392163863109932,-0.169727328086696,0.904622412970542,0.334836254276902,0.00776827999960744,-0.133328786515974,-0.993514645624016,0.206556855988837,-0.160213379588621,1.6975760877561,0.0342814788008009,0.00122726336973814,-1.06909921093632,0.0847747411367568,0.0535157768240819,1.52355944925601,0.717323217838127,-0.672741711151827,-1.09400862439402,-0.243619411941216,0.38330746471706,0.268558339898639,0.322088788591584,-0.749823391261303
38.02,-0.39192558361892,-0.15098627189688,0.904335752934746,0.32619974002441,0.00195903828971897,-0.143775120377541,-0.997778516985344,0.245435645925903,-0.153575291944203,1.6391541677224,0.0607962848215583,0.00132429310678278,-1.05602947787175,0.128855287911901,0.0441757933098085,1.64502058824653,0.754734672240589,-0.584179483375418,-1.08484646485554,-0.230772556879912,0.367999027336395,0.275691226865916,0.143761849909657,-0.729360209493874
38.025,-0.400067526769324,-0.141973543859937,0.904744104425054,0.297414194224045,0.00999174593018782,-0.147409898219346,-1.00126392524005,0.288251113354589,-0.15012229894033,1.52025516519664,0.0887424598265733,-0.00687180938708519,-1.0373910133902,0.171865277020545,0.0371189817519317,1.77521466822328,0.729440986661241,-0.419590271545397,-1.08019487963385,-0.224085566019809,0.338157780303392,0.315513836676496,-0.00730830416875151,-0.853292028091136
38.03,-0.41084966126573,-0.129507662504298,0.897273672879339,0.264978480450576,0.00222059363495383,-0.149883583188057,-1.00314125178687,0.327130659132503,-0.155919213204654,1.3816704503413,0.0800710772488658,-0.0188466583484764,-1.01877074507224,0.204720374083271,0.0320960592249522,1.88332128629957,0.663765662256691,-0.260549912985302,-1.07502614552326,-0.222552667446811,0.310793198818694,0.411201865184748,-0.162815750343344,-1.07092130984976
38.035,-0.400039453126602,-0.113276308581639,0.897831296753515,0.224579893031336,0.00419350445540229,-0.152000010609027,-0.989804661685416,0.353707498693427,-0.155018713333921,1.16712137078994,0.0633921044227054,-0.0167817629795929,-0.97700298606173,0.257269260937896,0.0221208832127997,1.97674329370086,0.617806274644815,-0.150811380092007,-1.05966585737375,-0.19290874411489,0.279316009278422,0.554617208355923,-0.218839784674606,-1.14820102151045
38.04,-0.404850382555204,-0.111582536160437,0.900279434437407,0.170458012255011,0.0178730903574427,-0.150345325969755,-0.993800438513054,0.346424974896559,-0.152197427997309,0.976524683126658,0.0461583085089153,-0.00824371010790689,-0.945113364853211,0.297351299056077,0.0219799022006445,2.04492529761311,0.589830190044559,-0.0846651857403478,-1.03718072502274,-0.152010151614231,0.253868578184256,0.691476385063299,-0.25840574818338,-1.25824598799096
38.045,-0.405033577884383,-0.114901666327111,0.891528883917311,0.1299915658442,0.0177668479893104,-0.14956176711877,-0.991450212209641,0.330147187801269,-0.149108825031018,0.791787088293567,0.0122768182915913,-0.00238662437508534,-0.93845986151202,0.334467487288967,0.0142027322645465,2.03325393640041,0.561731426348687,-0.0801428082898372,-1.01714378131178,-0.110530501298503,0.239122252584798,0.794592729408418,-0.262288454974413,-1.3093974042536
38.05,-0.406691536054286,-0.116716150359012,0.886705474092721,0.0931004220918163,0.0247145306207239,-0.155260154225,-0.987327620418449,0.313523524278097,-0.150989861535396,0.657213468456508,-0.0241322534552354,-0.00837277399036419,-0.949786567063067,0.360922055804045,-0.00185095990067526,1.94009467422615,0.509434134816908,-0.136685603367201,-0.986049949760132,-0.0395749991287354,0.226948551198511,0.904449275359754,-0.246136607285499,-1.34152595212106
38.055,-0.408126996375827,-0.118503446620803,0.881914403343387,0.064281558836377,0.0190998663607103,-0.14565768870512,-0.972591655929673,0.301281148090642,-0.152570503597405,0.570454817740543,-0.0597553660055238,-0.0205942335050383,-0.971000518803882,0.385681839478717,-0.0165025195405069,1.77687215853493,0.449824783485546,-0.183718389204447,-0.955626901048525,0.0175564917813863,0.218082101369516,0.944367619326326,-0.209255469160186,-1.32328206716685
38.06,-0.404053148188325,-0.13120587021122,0.891972955665226,0.0455567770305814,0.024236366863131,-0.150867119786679,-0.95948483251044,0.290822874762645,-0.157983836035619,0.466533023555912,-0.0670020506725663,-0.0380327386084339,-0.984817696447089,0.406206026029728,-0.0349464280416649,1.43162359173211,0.400916764297401,-0.27181585574911,-0.940215061518985,0.051453805396561,0.216584975519278,1.01138829662265,-0.163175620392896,-1.26946908649555
38.065,-0.402805603357145,-0.141078115577213,0.895848164997224,0.0436366689109233,0.0271560698747635,-0.153894691344238,-0.96069318604367,0.281527533038095,-0.159777999641005,0.400933338315913,-0.0631770308300742,-0.0600130703682322,-0.988603509970831,0.413404026725813,-0.0432944937279399,1.09569516082063,0.401686058986913,-0.319861340689295,-0.913142495998493,0.104575928679687,0.227144158366112,1.08069365827599,-0.101721185237483,-1.17540110697205
38.07,-0.415667044260491,-0.146978841284315,0.891004801958093,0.0447348116123698,0.0260650424444697,-0.143860085093997,-0.958139898982605,0.271519836951223,-0.156972841033773,0.33735323872068,-0.0762264326744122,-0.0839724678312822,-0.983792752820841,0.414692557810727,-0.0342718031600637,0.650107451220986,0.47481120445029,-0.345893715629432,-0.898465044231143,0.134404787274326,0.241473412421653,1.10399848006371,-0.051707137891584,-1.0651443806611
38.075,-0.414391417630877,-0.158387511725197,0.897033837972702,0.0646292887968433,0.0306795083056963,-0.131930002374986,-0.966212238380785,0.267118287462816,-0.150998095526835,0.257374704815322,-0.0836256874816706,-0.111726914611568,-0.975667059378322,0.393742499700103,-0.0261756494622392,0.31845477890123,0.561896064258461,-0.353653471758714,-0.883620485182915,0.166534104684557,0.262103636043462,1.14005462175306,-0.0304835261437136,-0.943060338889677
38.08,-0.408562189981186,-0.155122941648045,0.893625331624651,0.0837076428632784,0.0281876716657117,-0.123096712923314,-0.972600572125268,0.265532556292104,-0.149585972556273,0.192869316424572,-0.0934440069614981,-0.140856157331679,-0.978389106231134,0.345318279282531,-0.00451918253517663,0.0202353305572841,0.639264259069622,-0.343915595465265,-0.880990057177757,0.188928790937208,0.286250096774236,1.14899735208512,-0.0269894817275501,-0.797519831231133
38.085,-0.402183532640256,-0.152586191779161,0.893647227437907,0.0903951284846737,0.0267035760591161,-0.120110424668564,-0.977374214916955,0.251863279586794,-0.143971687583375,0.114191488234405,-0.101769697084516,-0.173457903698758,-0.989177410619531,0.285421539801852,0.0187744029269009,-0.227940349095386,0.680942123669848,-0.325305981536649,-0.882292903355903,0.186265399671067,0.307598371894407,1.17121739870762,-0.0385012439957923,-0.671124771519063
38.09,-0.398754300299445,-0.161314162515182,0.899879578050793,0.11140399694595,0.0206364021327359,-0.115129862032521,-0.983142897253943,0.238546189911735,-0.138611238190402,0.0343833751842442,-0.11944103257285,-0.196086410832561,-1.00118331251428,0.211312569765148,0.0318941138120167,-0.381369726893899,0.676818935309762,-0.313587377023931,-0.880822324869359,0.181582083373849,0.326504934880488,1.21832673915653,-0.0687073338630474,-0.516932015689135
38.095,-0.397468356983169,-0.163098503936407,0.897560686268834,0.120665148444273,0.0179723081833364,-0.111895177361084,-0.995056977832691,0.219507206137913,-0.127968452246417,-0.0251481697379633,-0.136517186741011,-0.207887466088753,-0.992816969210122,0.119792902504995,0.0513450580507987,-0.444289052683961,0.655073388905268,-0.311046407073799,-0.881069040169861,0.164985631575735,0.338839592357788,1.24827351093036,-0.0916078149806479,-0.422521747304202
38.1,-0.396613512469974,-0.148752343209179,0.899288181557757,0.122322144481935,0.0160697018906537,-0.119811678666349,-0.994311761040317,0.181474724252977,-0.113562147172289,-0.0588975040231272,-0.152075847858464,-0.207829123610531,-0.99056548949965,0.0580162937525899,0.0708232332654469,-0.427785755308632,0.626765175463869,-0.317231801855658,-0.887239832441121,0.149500440304487,0.346906622969559,1.2822341065231,-0.127249843659355,-0.276381694252344
38.105,-0.397690688320552,-0.155812062728602,0.89581539127206,0.113831373363231,0.0105384687782177,-0.125980587187761,-0.986829037369297,0.146841379952461,-0.102165588562928,-0.0642392533903668,-0.159050445137513,-0.202987998817876,-0.989528866774214,0.0134552346145016,0.0913483406500844,-0.376936255736731,0.605617385951428,-0.335878132264756,-0.892532639704836,0.127766393483997,0.345650704349111,1.29860345858049,-0.150369539854704,-0.172356041256413
38.11,-0.403039631528453,-0.15677880261363,0.895864929453443,0.108267904465197,0.00733766642795467,-0.126942679906026,-0.979868233165741,0.113079971896544,-0.106210526690643,-0.0268712567297436,-0.162088304758072,-0.186109110661196,-0.996549073020852,-0.0345589888169549,0.119254885564871,-0.241861715388646,0.578818122220119,-0.342423766851425,-0.892042660421986,0.0995427749054865,0.330262255909699,1.28637723283197,-0.153512954711914,-0.0559794611501075
38.115,-0.402134619343772,-0.160216188615177,0.899786861094387,0.105126168045194,0.00513818158421151,-0.12458488088773,-0.978097806681931,0.0930024804054157,-0.111739337197649,0.00823556136924938,-0.152952332833222,-0.174498160221985,-0.996443302995541,-0.0452815031630258,0.128761876822532,-0.0339160394116285,0.588324365605432,-0.336073038255103,-0.894029420218778,0.0726167410166718,0.324253606180938,1.27068668729534,-0.143808949331719,0.0139321739467538
38.12,-0.398763299654661,-0.146983479377281,0.901391313941293,0.0918541444893344,-0.00500407382292909,-0.124778407716464,-0.973040231661241,0.0818094430819972,-0.0958797621773102,0.0741117148997302,-0.133975418579115,-0.153063948330513,-1.00434270348644,-0.049031409624845,0.135082725868245,0.145303560771215,0.608276285599007,-0.317664779321155,-0.890106999123402,0.0406016113092304,0.318555721492693,1.25295614094043,-0.128655772089188,0.0661264858934501
38.125,-0.393648832011669,-0.151750208063904,0.90234760513278,0.0896667513005416,-0.0133335961068989,-0.12178461253643,-0.976664986805664,0.0918029304245009,-0.0845105467778214,0.151751465679614,-0.121697956652667,-0.133998491025823,-1.01412925901856,-0.040862857999424,0.141860040075771,0.379924405449117,0.644569643642239,-0.284302169339455,-0.884314429320273,0.0101928111670546,0.312472728310061,1.23488800319607,-0.124227755417438,0.0816055229625224
38.13,-0.397290935323878,-0.138087803973213,0.900567582778343,0.0834461846846459,-0.015603244304657,-0.115285455362755,-0.976212240509242,0.116590132635948,-0.0785462877869268,0.246660615075693,-0.105952828913161,-0.116503397280261,-1.0252889996238,-0.0205423623159081,0.143370891666597,0.565496861821572,0.680894489248969,-0.252863171042523,-0.877656155942556,-0.0115284753454025,0.304917556368384,1.22826189463809,-0.11630727979091,0.0633442857743751
38.135,-0.401908956680049,-0.14787550903912,0.903666544378488,0.0807367121834124,-0.0227668442813404,-0.123700432057786,-0.972190464880517,0.139974252865549,-0.0810099680402001,0.330041385805847,-0.0988704440205707,-0.10376826120671,-1.05896530236458,0.000461042446574861,0.208132389284279,0.837414809265979,0.697679292334125,-0.212828353029813,-0.883433159977558,-0.0355779538388565,0.310080873014026,1.21835571691224,-0.130164403131802,0.00997003682615428
38.14,-0.393989134373835,-0.146643674360702,0.904593597496442,0.0873114414992935,-0.0304766993258751,-0.124389121349253,-0.963540169486017,0.16306224911068,-0.0829599968035114,0.409842266683857,-0.0802347734570503,-0.0969062607575301,-1.0998324498464,0.0266985214088024,0.182366802995142,1.03220600058532,0.679514624741813,-0.19505787670268,-0.881196758352831,-0.0561047505687875,0.301100399157808,1.21555420206553,-0.158855310105471,-0.0803414594815484
38.145,-0.386489494676583,-0.149776205353534,0.903693552356586,0.101072274509665,-0.030389172830605,-0.129563879143027,-0.958876646426652,0.180965763895201,-0.0858300746455895,0.47220629838304,-0.060634216883255,-0.0974228118212572,-1.08881875874898,0.0419193776649704,0.0831965899283677,1.08030902267202,0.706883902470008,-0.210788490334062,-0.886671960797159,-0.061332905744449,0.300503086465962,1.22411721128458,-0.184691660993396,-0.170008791122219
38.15,-0.385974302973187,-0.142740545182715,0.896596001892292,0.110172074170324,-0.0344777269662384,-0.138899311513554,-0.96631353706418,0.18922326162888,-0.0899792269620562,0.54260732909716,-0.0307022366828455,-0.0912038420961687,-0.991148298085181,0.108622556414989,0.0411236857885668,1.03489591517786,0.735851837587353,-0.249829315672193,-0.893401482879629,-0.0558168485503453,0.297533431052804,1.23262767334593,-0.215553192561839,-0.284156957930096
38.155,-0.394759988316283,-0.144869409988568,0.895705397876799,0.117701108055385,-0.0320018929148606,-0.135223254561424,-0.965863091508798,0.190435633069817,-0.0916625844530834,0.587282193947558,-0.0195137044361795,-0.0957738944532585,-0.939687120043432,0.185005180489917,0.121002502643753,1.07719061961164,0.68522472034855,-0.246119895986839,-0.906088513493173,-0.0515662330808703,0.298698552999855,1.23080817810264,-0.229432849950221,-0.366405071852516
38.16,-0.402935527212413,-0.127901648448506,0.900345919230314,0.13324966766909,-0.0351503491401672,-0.136652163033214,-0.965222405339176,0.194004089638072,-0.0893119075933054,0.630805133526154,-5.10717205863516e-05,-0.109586564358228,-0.947409774568941,0.200467796159118,0.146061085438651,1.04766127228858,0.5747739428186,-0.256564616259764,-0.922289765535727,-0.0396663920946361,0.290510566849637,1.22578836102069,-0.249476907177399,-0.449227888015847
38.165,-0.404629052280468,-0.126989619293643,0.90458181929266,0.133923634409772,-0.035919553494669,-0.138888329267502,-0.955838714846798,0.203238539468246,-0.0877398268116795,0.669096373889675,0.0216436011690483,-0.119672872807055,-0.974091844284425,0.210021372684967,0.142006190983177,0.937509131611223,0.487702382089051,-0.281450570387189,-0.935447056424702,-0.0294401981962982,0.291619391034026,1.22610513601165,-0.266047114306696,-0.516459050345354
38.17,-0.395651186624797,-0.147245529272236,0.901621212987362,0.127069917631691,-0.0385705425100192,-0.139987581904851,-0.960879675276941,0.218831935460292,-0.0959386397462745,0.684618604245414,0.0295306530005311,-0.130259399535224,-0.99703383388658,0.228503793602143,0.118192164215158,0.816204846117716,0.456374157551903,-0.301136650581965,-0.951094548089223,-0.0245470091638726,0.292353280449516,1.22687351703644,-0.294899306475656,-0.590312521501241
38.175,-0.41001739941437,-0.142028160431048,0.900632642431418,0.133274796084309,-0.0334156159321612,-0.142724435105494,-0.962417745750296,0.215953150654577,-0.109942833836089,0.666811109559005,0.0388141281884897,-0.130472986677952,-1.00524118485143,0.254884698474608,0.113574236376542,0.722429145556687,0.428571012396103,-0.313729943504405,-0.951661418651923,-0.0224678516480351,0.298989673469026,1.254353617194,-0.30584024822218,-0.656330645409751
38.18,-0.406405102899035,-0.130596639594565,0.898884163688037,0.126742033310364,-0.0350931867069593,-0.144258078809736,-0.968477892115444,0.223791076008134,-0.114386666031002,0.644186750933414,0.044400700574445,-0.148766077280655,-0.992062301821626,0.273213669193705,0.122179164280864,0.641350852803893,0.405554626417227,-0.311551440177309,-0.946420377679287,-0.0194225624254743,0.304371057159472,1.28657293494847,-0.3288167354059,-0.729567611744608
38.185,-0.410398159384677,-0.132128244101738,0.899175117833305,0.117724065285283,-0.0470967095798157,-0.144996806979179,-0.970996313032727,0.22427277219563,-0.112471072224656,0.594630557484185,0.0512020372594738,-0.162001379243798,-0.972565321056536,0.273692941686278,0.133665023962757,0.549977851172933,0.4023879115003,-0.298032527133426,-0.940297585347545,-0.0224939691827939,0.313628767903718,1.33870146261521,-0.352112053664595,-0.800748258098649
38.19,-0.397816435181676,-0.120553643525385,0.897760002891183,0.102540842339953,-0.0411962910794951,-0.143920015210191,-0.969204315781148,0.228599296168621,-0.101930758404279,0.544856218483452,0.0650736733467896,-0.166177260602611,-0.951735243389668,0.266792264745417,0.137252234550347,0.449857441787744,0.425226569051008,-0.288009336400666,-0.933735656635401,-0.0144868276362518,0.319771149945405,1.37776680371717,-0.373532740247389,-0.85621745524173
38.195,-0.398511273195733,-0.122765879666586,0.904018391034733,0.0841566020950064,-0.0374410333996276,-0.135375958406403,-0.966847086935056,0.229022811601899,-0.0922772951402784,0.473473593101354,0.072075180654329,-0.174024545135426,-0.934375809569951,0.245024978068018,0.125870205604135,0.340424116013846,0.471747732469121,-0.278432613589784,-0.933820262584114,0.00148562594465505,0.320795554590846,1.40282204899173,-0.430569466717861,-0.915359910248018
38.2,-0.394728651816708,-0.1232573997115,0.900346375401124,0.0640722348643315,-0.0363720506429672,-0.132637251458534,-0.972687599041431,0.222965730095914,-0.0819226255037839,0.400794073217788,0.0836929608798714,-0.176542839844504,-0.928675335064233,0.229023882481736,0.12639702177837,0.266395070937951,0.483559782081802,-0.284095791432095,-0.932544269042226,0.0188058580825535,0.329221756330522,1.40837598638836,-0.489423248766742,-0.952944632161241
38.205,-0.39565469761277,-0.116070609291387,0.903977868703559,0.044156081789297,-0.0379446070962916,-0.129816501651957,-0.971757951170556,0.222065191857235,-0.0874438611047957,0.322375257834967,0.0844938797989502,-0.184316795744785,-0.936561162376829,0.207355672784293,0.121555338884366,0.184050263259705,0.502631048128553,-0.290326280537734,-0.938858373476414,0.0363454168542551,0.330567982818466,1.41104088780862,-0.544739332699633,-0.978629508702753
38.21,-0.39702580921352,-0.114774539599826,0.90757009489916,0.026642519371803,-0.0377378731952988,-0.125092811070923,-0.981585301376086,0.212302503990277,-0.0948509604006009,0.257349091272281,0.0853127132020911,-0.196108019775155,-0.951843114498491,0.185143419450657,0.107605663570935,0.146828953675735,0.517588061544629,-0.293460732669478,-0.94280630128306,0.0628221663633795,0.333184515143496,1.41486150972702,-0.600115360731187,-0.989326430919865
38.215,-0.399584811037755,-0.11813049896583,0.903386383004048,0.0041609344375718,-0.0383617882823551,-0.117677841852682,-0.982039359496287,0.198993291739627,-0.0935200555306302,0.204419713363963,0.0864777636925861,-0.201808126953237,-0.972870990232196,0.150787025679367,0.0812109412621315,0.127211731864423,0.548291901854373,-0.284642294893333,-0.952162082756932,0.0853923906166519,0.331146129089481,1.41195041956988,-0.628897475276044,-0.996286292264386
38.22,-0.399159147728867,-0.119548339086249,0.902545520740157,-0.0220700083155497,-0.031133940235909,-0.105902582406998,-0.984774723304989,0.186973301069031,-0.102674294065204,0.159797785501018,0.108146708639082,-0.206195399755965,-0.991964491370609,0.124489532978504,0.065198201025936,0.165772979617393,0.574526392293221,-0.267057472675002,-0.967466598481313,0.109580195204151,0.333919931246943,1.43219733082584,-0.635372922240581,-0.977094901520256
38.225,-0.401658649842454,-0.122978418375526,0.900486179248878,-0.031461481211108,-0.0249161348827201,-0.101336372275679,-0.984403112322527,0.180766812613519,-0.110192449330149,0.122153485812725,0.122319719992694,-0.213352136808663,-0.990961426352201,0.0883127010946929,0.0507300292351167,0.223209646394684,0.6010229000387,-0.241127669250188,-0.978834524215647,0.122491441780693,0.338046560845116,1.46898183135155,-0.643492244650249,-0.93738454811908
38.23,-0.413971540815842,-0.140519199914268,0.900666214813359,-0.0418802595405913,-0.0198839864306032,-0.0864882434912744,-0.990791641599357,0.167854973545039,-0.120303914059794,0.0810682152879966,0.13015724282368,-0.221293081368378,-0.984086426500104,0.0580474442230809,0.0498184813500625,0.298211426470456,0.624641334144661,-0.19844702457489,-0.979883261828958,0.138528377687522,0.339398137482983,1.48661470814636,-0.644771182615505,-0.899665628835626
38.235,-0.404324988904305,-0.139021045955117,0.899692476522323,-0.0402191160624006,-0.0178647512184835,-0.0777971829194021,-0.998866840123644,0.161319567601872,-0.134346332224531,0.0717000928767944,0.126326677527062,-0.225264786510999,-0.977469854822213,0.0250167446034982,0.040242036869233,0.37740289344706,0.659902498950057,-0.137778765671491,-0.971257927400689,0.153747511626784,0.336837780841008,1.50379947658573,-0.605034263314824,-0.855169849376011
38.24,-0.403814054995682,-0.156360930900642,0.898684148758039,-0.0395873495360231,-0.0217489229731196,-0.0700021265056485,-0.991362479991374,0.143229760766809,-0.139656847744539,0.0627147002418205,0.132079297240237,-0.221039906251647,-0.968161143862897,-0.00874179882247485,0.0258526243447218,0.440348760531426,0.691358197057492,-0.0956979775329104,-0.957341687586174,0.162430201412417,0.344279699041224,1.53102161288248,-0.553008900810422,-0.795484677007893
38.245,-0.412292630674152,-0.163855236655361,0.898440613304968,-0.0320356821803779,-0.0203524663339328,-0.0646058888334145,-0.990577109182639,0.125626286938739,-0.132712976567017,0.0453371164654377,0.137088768638607,-0.218356214682959,-0.966107900776359,-0.0429482422701306,0.0168782452484914,0.520762106375459,0.728618214839425,-0.0626227133016652,-0.932512878420267,0.16448518832669,0.348495382931615,1.54458214826272,-0.505336703433668,-0.722049240793515
38.25,-0.414432271454085,-0.176136623533406,0.898970362141452,-0.0235273778639693,-0.00827306509017944,-0.0619215779006481,-0.98713349046171,0.115430246878143,-0.138713274812733,0.0448743193777269,0.137551560224374,-0.214284728152955,-0.966391729697978,-0.0687038606879734,0.0236460287986785,0.575513499749113,0.754450083830184,-0.0471921078392736,-0.902400179545812,0.161629550916108,0.355868984179629,1.54110830560893,-0.46910926413302,-0.654228417096127
38.255,-0.409599911628623,-0.181328093272802,0.901578285121667,-0.00546560269630528,-0.00390424341826913,-0.0537018624802818,-0.993367419124688,0.102408967731021,-0.135122498680292,0.0569693017519073,0.1338546188945,-0.209100397684969,-0.97444935319744,-0.0879926955858002,0.0238881554857875,0.695553293422068,0.772002827643324,-0.0464284070267966,-0.867379617917523,0.141739772755543,0.362280021065046,1.50436044258646,-0.425302201962843,-0.567576332260293
38.26,-0.407314038759471,-0.173789396080316,0.902323572893678,0.0091750044375658,0.00416863668083594,-0.0426114645213687,-0.987985309789533,0.0997216013103064,-0.134909909703761,0.0796116322332845,0.154843462647389,-0.201448514776434,-0.974635087317814,-0.100587962078102,0.0236953393720813,0.803604224832345,0.790059147971166,-0.061285144760208,-0.846997276170609,0.134136451345947,0.365800754420127,1.46343907658632,-0.408702974371683,-0.510704400746876
38.265,-0.402492432139687,-0.171255918251254,0.906756904586561,0.0226243233622218,0.00609666543026946,-0.0424444455612909,-0.983113554919023,0.107140973476562,-0.135201298828449,0.108352496476774,0.163849539453456,-0.198590692744482,-0.988729567464033,-0.0938230161531515,0.0106613277098552,0.914320890869508,0.816738662334065,-0.0774492098874562,-0.841402830514419,0.121282847949083,0.374428388107813,1.40763310967357,-0.40649462712771,-0.464859886886079
38.27,-0.404633008147925,-0.180471753658955,0.90517789555213,0.0442058247557274,0.00833218582337037,-0.0422498491601768,-0.989873283711181,0.119318865338208,-0.13702149297271,0.125257956567523,0.166967158444896,-0.198638203318506,-0.995765259308513,-0.076598932980886,-0.0064311099286699,1.0015437466731,0.846531480867647,-0.0991996092863746,-0.840378740706291,0.105935264702681,0.371198540301605,1.32937787472323,-0.418029450415728,-0.429250749092303
38.275,-0.402549147120907,-0.176167322740941,0.901345179693878,0.0589729593065022,0.00838542607830917,-0.0396236675638174,-0.988712046878035,0.117924495030213,-0.135041923528601,0.135220465571934,0.173823392075428,-0.191639142032207,-1.01553013516668,-0.0562483024750808,-0.0255313939381663,1.07841031108371,0.883475452015178,-0.115130677681272,-0.847385881929305,0.0953379657775488,0.370347067786704,1.27887652231104,-0.417177452448696,-0.413145273923874
38.28,-0.402103586432843,-0.179863697345809,0.903289134169615,0.0785847118569233,0.0193039004411128,-0.0357931767425294,-0.98903490435689,0.113014270048781,-0.142745546011168,0.154377103153376,0.17728202728087,-0.183600926517878,-1.02092159604947,-0.0323877779661267,-0.0408640065612253,1.13924692881775,0.892373286844642,-0.128347189120075,-0.854746007922513,0.0843722877062332,0.365657040449609,1.21713468031661,-0.402354581425265,-0.412157934933342
38.285,-0.411589514231458,-0.178429424232442,0.899524230683046,0.0958891056967375,0.0206929637816402,-0.0395764430400085,-0.989709962370259,0.107581869375039,-0.152296150405443,0.187065957290683,0.177517399773626,-0.182263014899753,-1.02630407943556,0.00118865442131086,-0.0483101776121589,1.20123000919585,0.884534682397324,-0.13229948347366,-0.868177845265428,0.0773849933067439,0.367979403162449,1.15656992115464,-0.358646096903679,-0.406536927314658
38.29,-0.409713462321059,-0.171007630931153,0.902118715877108,0.114014355553345,0.0291167690400136,-0.0391920723970877,-0.985398864336609,0.105493749061414,-0.16346283085154,0.231997823107956,0.176722346073245,-0.179362678285051,-1.01271108036396,0.0261873119048793,-0.0433405193592601,1.20957867271482,0.865551966765494,-0.131252871028817,-0.873850811164025,0.0791442319641528,0.373461528664529,1.10595439616657,-0.304273496496973,-0.402304507954295
38.295,-0.398832676103464,-0.158903891976963,0.904571323270758,0.132779552731873,0.0348183325422259,-0.0373216365033164,-0.988020419712428,0.113953745286831,-0.154874602832907,0.289229482762061,0.186306575934301,-0.176841580147485,-1.00812157459957,0.0603163316723992,-0.0439270450516958,1.18433404435012,0.82723039255015,-0.123338668420718,-0.882334934300792,0.0805375215158319,0.389357426062849,1.03875544489382,-0.234723153294006,-0.396809716017861
38.3,-0.394737171452566,-0.15356042489568,0.904829134842752,0.153008057310821,0.038360275344381,-0.03626599162817,-0.994442380118511,0.124802157054844,-0.139131001073585,0.348671355605957,0.19764318237997,-0.181467390475279,-0.985616997654145,0.094214240806779,-0.0584534773706524,1.16142340311928,0.78430585633568,-0.128015034619623,-0.88257163925324,0.0714530246110925,0.401070805176494,0.974538406590088,-0.206173693786364,-0.389997016634268
38.305,-0.395479509420579,-0.149165214577604,0.902669996305648,0.16600758445373,0.0476019750128166,-0.0401589179539945,-1.0014942152739,0.133664985270448,-0.138336893246592,0.37406414547577,0.208362941717622,-0.181239274128289,-0.98558136577067,0.135656099677512,-0.0564785616623975,1.1160012439071,0.79017011206671,-0.11417175581716,-0.890254481629294,0.0593495999956986,0.414965628431636,0.911957627328388,-0.198013106665934,-0.381314045708103
38.31,-0.396205742042113,-0.140127782371156,0.893681676053124,0.180312508669819,0.0472015917445723,-0.0390831906456875,-0.998347200648372,0.141148365824992,-0.139713559029777,0.409754319499644,0.209533605298066,-0.174427501962174,-0.990705672693295,0.166130404586956,-0.0466033562215739,1.03649367058702,0.778799127676919,-0.090526246166223,-0.891598909673047,0.0525945172303349,0.429449375334622,0.849984751638539,-0.221696816611569,-0.379014269487723
38.315,-0.392234670425265,-0.125071374430475,0.899958465570207,0.18143393099308,0.0520638688117259,-0.0434381895194453,-0.990535938116708,0.157579455074247,-0.138900805222732,0.467125171985356,0.207084206027849,-0.182912902393409,-0.98990467466866,0.178890401014819,-0.0437186391081816,0.941594581318263,0.730499867325227,-0.0738661880681748,-0.897326510635244,0.0394672654859972,0.446901939166806,0.773671539000087,-0.278793062564869,-0.374903651962127
38.32,-0.382335348823431,-0.117381270672038,0.905592561127804,0.17684669756963,0.0543375938417,-0.0419157422722122,-0.983620391147,0.16958146826013,-0.126360282083127,0.493354958810832,0.2211558665428,-0.176833833403275,-0.987345735917121,0.186027350997274,-0.0528782458559281,0.897623760397619,0.686690807283365,-0.0732795075247698,-0.91130392009398,0.0257791727733787,0.46452346102379,0.742505118971311,-0.336038199083473,-0.388482494390305
38.325,-0.379080540068513,-0.117615974215995,0.902456520339653,0.165438165212606,0.0543231806816326,-0.0471988869056013,-0.982685028183871,0.188082733319102,-0.124486661484396,0.514471763740745,0.223825072873864,-0.184017735867727,-0.984309996266748,0.200965128900683,-0.0502825925466042,0.815155328574842,0.680131069581943,-0.0821588793066922,-0.933903432821158,0.0166793125854209,0.477750721650247,0.724314227141217,-0.400236571901744,-0.407965081871022
38.33,-0.390661728158045,-0.115591960760005,0.917062827165302,0.165290262108883,0.0639820445778575,-0.0465628256796496,-0.980947688778282,0.202977736382232,-0.126838953657431,0.503611139535314,0.220302075147629,-0.196381207710506,-0.990218212068767,0.214904945301954,-0.0497466603399524,0.740509223199656,0.679709196090698,-0.0834245383739471,-0.945624610594132,0.00452061760897217,0.488576189607053,0.720000655409374,-0.445285388102407,-0.434027491871277
38.335,-0.390538702379529,-0.124060060286592,0.907285528349713,0.151548149392375,0.0683688080134851,-0.0492951227157185,-0.983614732044101,0.215976269680388,-0.129371307109907,0.473359338277497,0.208710528379755,-0.21217378964364,-1.00954149510445,0.218604826018113,-0.0571389296061796,0.686198672381148,0.680965726780549,-0.0880786613984801,-0.973138106351779,-0.00219976461362877,0.502820869145205,0.731501435784948,-0.475976975838719,-0.459005003030094
