Header,foot_Accel_X,foot_Accel_Y,foot_Accel_Z,foot_Gyro_X,foot_Gyro_Y,foot_Gyro_Z,shank_Accel_X,shank_Accel_Y,shank_Accel_Z,shank_Gyro_X,shank_Gyro_Y,shank_Gyro_Z,thigh_Accel_X,thigh_Accel_Y,thigh_Accel_Z,thigh_Gyro_X,thigh_Gyro_Y,thigh_Gyro_Z,trunk_Accel_X,trunk_Accel_Y,trunk_Accel_Z,trunk_Gyro_X,trunk_Gyro_Y,trunk_Gyro_Z
77.84,0.0233960860163478,0.959516429456719,0.287300843721938,0.392671348368394,-2.97573678706726,-2.2437247862624,-0.436386330261975,-0.0475833458662019,-0.119143378733024,3.19039816313836,-0.31395260158511,-0.795363566372183,-1.15616549914301,-0.645804496268321,0.0690958469452799,2.74613867059233,-0.560093022766916,0.243608649465925,-0.958456945018001,-0.062582196460781,0.144198097700637,-0.549290312331539,0.151985745700621,0.0315960565678675
77.845,-0.0297457061793807,0.917198322122968,0.29775090838014,0.506052174569017,-2.73974076738904,-1.88221967217314,-0.326922886250504,0.046032668290256,-0.216447708150697,3.74883119439327,-0.51002476709464,-0.610860869201637,-1.09441344652603,-0.643666101311007,-0.0490799104626162,2.864756491862,-0.680632757432244,0.360322406412167,-0.947831641345614,-0.0518498656632087,0.127063240563244,-0.698230755672114,0.365909094025166,-0.0864284308218787
77.85,-0.114918425427277,0.924914329483647,0.370392933318215,0.678832113618142,-2.68047783549531,-1.50686969373025,-0.249674830148432,0.0863846915345755,-0.258289330801401,3.89398406829666,-0.5812558761586,-0.463878529262179,-1.01779216413981,-0.612307162606369,-0.133459640920877,3.08666294327809,-0.794275377246242,0.539166963434847,-0.951029997810966,-0.0588579692976096,0.0937501147847464,-0.810122382275967,0.477771089808854,-0.184205789550434
77.855,-0.245790992440924,0.937092334787537,0.461120081049228,0.845485350485982,-2.76742728073562,-0.977634867144693,-0.177801020392986,0.129036359489571,-0.271148785883642,3.78151502165271,-0.614886894744718,-0.400492479329421,-0.97025833459722,-0.559966235664213,-0.202788651672621,3.33515763530344,-0.903869124964696,0.640728421396017,-0.957122561224268,-0.0639342790184245,0.0574897036900719,-0.925259161813062,0.532739695905653,-0.278899451915089
77.86,-0.379564753551063,0.935353220269001,0.524456952687229,0.90480546112197,-3.05087783727753,-0.654391524650711,-0.139979412301797,0.158166549747915,-0.272391635726775,3.28139986547679,-0.768374425076102,-0.420160063332107,-0.921229635657377,-0.46495615804384,-0.25045638570845,3.27259242002566,-0.985262327273966,0.817242638326133,-0.972617982775586,-0.0771435243557209,0.0322562603005292,-1.02976206453924,0.494607993244346,-0.345758572530869
77.865,-0.478441513893844,0.962245147942947,0.592668721680985,0.869314871521131,-3.43350468588225,-0.163393550231772,-0.134631036469126,0.256903853516862,-0.264186979212952,2.58899554138168,-1.03871483903885,-0.537135616745389,-0.873474066293183,-0.423472659209864,-0.262648563518227,3.06414422207536,-0.988598942384815,0.867733664149977,-0.982710852920045,-0.0919650077575911,0.00918120199070797,-1.1332262024419,0.379093693584185,-0.38599345580493
77.87,-0.511613253755477,0.975546184871719,0.651674808216481,0.750205359792924,-3.70977403141873,0.230720742369141,-0.276170553789819,0.456357449778029,-0.341187132474788,2.30404782783654,-1.17619466559124,-0.579947653769972,-0.847921619238569,-0.404779595363433,-0.253230743131734,2.67520406319565,-0.89908306456183,0.76740439244443,-0.986460840616247,-0.125841512455001,-0.00395628007878573,-1.2482148239671,0.176045734599192,-0.402514911010072
77.875,-0.492832235474497,0.980276435372122,0.691494755305136,0.4522057582791,-4.02282674001636,0.62738874270581,-0.281632933649234,0.608247300283983,-0.420385460020043,1.3382318180341,-1.41363876456252,-0.598119205293747,-0.829590964085566,-0.435488379088526,-0.237880557499382,2.27952609908103,-0.745116801916611,0.64415833527813,-0.982558621337135,-0.151408643782746,-0.0117594750140431,-1.34101524052041,-0.0181309372022217,-0.399995092140827
77.88,-0.445059100436059,0.950938101538913,0.626542902445748,0.124311214972264,-4.2419721287254,0.899318640594729,-0.131385887289429,0.659937796498531,-0.32791567210446,0.785947152200554,-1.8318066458747,-0.584004644035169,-0.784478216776174,-0.472587549633697,-0.239988063364434,1.86554817847493,-0.609562687950276,0.633312434913938,-0.978549464682514,-0.182874361650907,-0.0171489063190679,-1.39320631494909,-0.151064324797898,-0.383328351132812
77.885,-0.379515533193834,0.937544826391609,0.521487778381573,-0.118432250281073,-4.44908582580696,1.19633456699319,-0.269544114117047,0.652742623799266,-0.224166233241662,0.14634591678221,-2.06994239506801,-0.499146648434932,-0.762070846158985,-0.5176842328814,-0.235406546630216,1.47245262378489,-0.493108607185194,0.709341802828191,-0.963249219976191,-0.205209099801508,-0.0143547516260662,-1.44017020453096,-0.250195908054468,-0.347527155132655
77.89,-0.337430577533494,0.901013893879111,0.414101895536896,-0.238058010207788,-4.50417734530351,1.52536197494533,-0.412564116568813,0.503863490030207,-0.158657790730388,-0.538658497999504,-2.31277632035486,-0.455210024114397,-0.764093351202202,-0.564869075396209,-0.206737361605608,1.27517593103976,-0.448004148426208,0.842565568782583,-0.955889517399018,-0.230917792013948,-0.0148816361871665,-1.45912621009087,-0.276844490896949,-0.308347729366414
77.895,-0.310385132111533,0.846007669451337,0.350432769262736,-0.325383002805417,-4.50085733270493,1.90430676735338,-0.437570293992146,0.479604191797285,-0.162541529269091,-1.02421298524863,-2.59575442019869,-0.431641861923352,-0.733754505295887,-0.611128455659567,-0.151661300947671,1.21413413806128,-0.470810888970582,1.07908282809893,-0.961513007287483,-0.244692776838071,-0.0204245946503141,-1.47550869597607,-0.267136681459219,-0.272662705941738
77.9,-0.300749624756205,0.775616036002398,0.373206640219931,-0.351806919922747,-4.52869206232342,2.11164087789062,-0.484712131662269,0.408204496350906,-0.183253875324599,-1.65484990311169,-2.834156203342,-0.361700880814199,-0.722019822816623,-0.619189392990194,-0.0892821805801545,1.2411079960836,-0.544200748288935,1.27177332186472,-0.961341042596911,-0.257012540629347,-0.0319005652149092,-1.47432763220248,-0.246396197222884,-0.214714726270717
77.905,-0.311658148019549,0.677132727574636,0.445467055226066,-0.262771886024335,-4.56533944858927,2.41464096554581,-0.523412414873948,0.338226119433327,-0.193691616283239,-1.84598330303729,-3.01299287352722,-0.397651460431964,-0.741539691060159,-0.612259023504988,-0.0152430078536856,1.24333435781121,-0.598704460339423,1.42232629452478,-0.975647210211416,-0.263239241555284,-0.0324694614422504,-1.44887385856701,-0.22827708740248,-0.160975365987428
77.91,-0.360485784608095,0.588196916414588,0.526777797983611,-0.127245534125792,-4.61966714045392,2.64428527062659,-0.541401451162393,0.297772045033867,-0.262129457984195,-1.97940173941304,-3.23239433934433,-0.507489559885814,-0.761173827381399,-0.580887033003148,0.066511102690318,1.17105822553067,-0.597086144968987,1.53311232987936,-0.980317556692123,-0.260270260433983,-0.0385496308830246,-1.38979125231852,-0.225098598445927,-0.0860204990450524
77.915,-0.373399843295218,0.518832370847612,0.567642897571347,-0.0205106738788226,-4.69444883642989,2.88504492790118,-0.556146883421906,0.268180586528437,-0.345533569148743,-2.13202058860077,-3.45873757365309,-0.548496642143863,-0.769859382474136,-0.551878156745908,0.116070240167864,1.04261222131469,-0.560821715198821,1.57244943236321,-0.988743405454511,-0.258442812869744,-0.042310380995081,-1.32514811646671,-0.265503678031983,-0.00411392400413843
77.92,-0.428223416861904,0.477315585049922,0.646785300601631,0.16266563706987,-4.71923530758612,3.07550671765638,-0.59156683465321,0.267139981669583,-0.340744957987733,-2.13053260059168,-3.58134487245507,-0.546134610305463,-0.761326779884681,-0.531601832245077,0.140825121760026,0.904248700125298,-0.488866500272175,1.55922816656381,-0.987696050836366,-0.250413128294663,-0.0496768361922894,-1.24978286474441,-0.337731749903326,0.0649078835680572
77.925,-0.524183397592752,0.403343547718908,0.739004374340557,0.4262102341249,-4.79013235660634,3.25963154022378,-0.611562099126637,0.26430920951414,-0.377494293504373,-2.14485422481968,-3.69710119159416,-0.536093560099625,-0.745877518243463,-0.519898429063247,0.153069118044243,0.7838100360654,-0.455258625556672,1.49299521911365,-0.985359807906018,-0.239303225909521,-0.0473574281876532,-1.16551801001457,-0.455891719140145,0.141200737764756
77.93,-0.657393178692835,0.318053631203571,0.761756639129027,0.550383318902876,-4.90153500383287,3.40577600808246,-0.627875214043429,0.260837262517648,-0.515437100418518,-2.37071591233874,-3.89269127135379,-0.527923027760334,-0.737297202974682,-0.516126573255355,0.157067445155533,0.719767464579279,-0.454628972913005,1.39587069475369,-0.975054674257736,-0.224809080632612,-0.0435029172434416,-1.08367031011535,-0.602052635043141,0.220607932830914
77.935,-0.748945809009232,0.182563602486663,0.643371954922021,0.537416815237399,-5.01974114386397,3.49404155472447,-0.641815042820504,0.253408981188828,-0.593844154045383,-2.62716582457047,-4.10119155300708,-0.542169433342978,-0.726382283476412,-0.508600304782845,0.170819337470783,0.714293432790479,-0.489332809101432,1.23265083713252,-0.958049568047036,-0.210782515663614,-0.0338880359648932,-1.03618338103735,-0.732069044206936,0.273877125662711
77.94,-0.752044201487408,0.0892296772848213,0.565689832621453,0.574809584714898,-5.02597648468169,3.51736326139684,-0.66053021829839,0.232321537070142,-0.557813021889983,-2.7669200893164,-4.25060572792999,-0.612592176184566,-0.716503369281178,-0.500506470107568,0.18879740137562,0.788674723118142,-0.555874397312,1.07095756835149,-0.936088407928162,-0.202235021222093,-0.0269385590168559,-1.00167830906357,-0.83214917257007,0.321100672581623
77.945,-0.722254575730938,0.0072516388082988,0.451533136472266,0.647354375858741,-4.95577272506157,3.50305515987319,-0.688234194512322,0.159350676749741,-0.541021301128168,-2.85138126356569,-4.3130585136361,-0.67465319710236,-0.70071077713752,-0.494288446670835,0.211602211180501,0.940567898246172,-0.647967448059634,0.856808131899284,-0.912296875236604,-0.19253700256311,-0.0130297699592481,-0.987848416273578,-0.912362106152674,0.345510326949592
77.95,-0.698615659722825,-0.0309955998262368,0.362430066596767,0.653731718372929,-4.83333480571143,3.43220369212244,-0.700269108240339,0.0940041787935875,-0.58103342224581,-2.92194795222661,-4.38160013025286,-0.720402678801345,-0.687594107004278,-0.491527240715705,0.239669312380986,1.15373584514395,-0.738090943680431,0.620541153730422,-0.883311759286294,-0.193020947532341,0.00186638101178843,-0.988693741416556,-0.957301800445864,0.373405329077669
77.955,-0.686124766716806,-0.122408266089426,0.278892193010299,0.581271933604335,-4.61587963200205,3.25254913652459,-0.712343727628481,0.0253924431252173,-0.615980517971388,-2.97907220660052,-4.46594926856813,-0.711759949219732,-0.679466318488237,-0.487559119094609,0.265579106127986,1.3899281323247,-0.803248330720748,0.40489046175109,-0.862434302232191,-0.199643101363592,0.0132360883141433,-1.01281358887313,-0.957812456979203,0.387543491701188
77.96,-0.716357153436575,-0.205802456994422,0.286996697437457,0.528505631946793,-4.39456755956793,3.07444584296649,-0.746580253010724,-0.0612787312376999,-0.67047063538147,-2.93526819254527,-4.5107913278427,-0.6606254651375,-0.682466633212109,-0.488302246929616,0.290590316827907,1.64798946565549,-0.846257977032234,0.402801390966783,-0.83258857600113,-0.202544433483288,0.024332768420519,-1.0741731222161,-0.913606584372447,0.388087461366105
77.965,-0.807039590417413,-0.274795289779236,0.358109202387771,0.550134638900808,-4.14872977083647,2.87325042722293,-0.769760904272803,-0.109468797158056,-0.722606467131926,-2.79183536618882,-4.52419116363498,-0.633825741321079,-0.692897304698671,-0.494365905408329,0.306729352192722,1.95061433049539,-0.824356532600889,-0.0547729911333213,-0.810361377144882,-0.208269295050672,0.0231108715371174,-1.14573241212208,-0.849639920191476,0.387564815920927
77.97,-0.927942009708902,-0.314397532361991,0.49975615381201,0.617034501148998,-3.93640825227039,2.68755735537749,-0.797375204030065,-0.144652247529812,-0.793140762817701,-2.47558677063893,-4.51654575482692,-0.652449038589317,-0.698906348265048,-0.506737406963432,0.309752098364354,2.18697108344426,-0.766720022423762,-0.232362452060583,-0.79474931102065,-0.214972743362129,0.010080912834794,-1.24822621316225,-0.763386647150662,0.378694931833035
77.975,-1.05941458934203,-0.304409010451128,0.691490049458122,0.704472241775831,-3.83480443871308,2.50078668372598,-0.824206993178204,-0.182250025594725,-0.826910141603499,-2.06446669455319,-4.48533978213546,-0.707308060825356,-0.700071622682525,-0.526942841026165,0.285424416070768,2.44977097794331,-0.648266271961829,-0.420289222217115,-0.772052275854457,-0.228149621881167,-0.00321975310775975,-1.3566248492366,-0.657587460967995,0.364787690940201
77.98,-1.12473258379038,-0.248716420210826,0.812191074836721,0.716555377789544,-3.82750985928953,2.39540327390116,-0.860481987731454,-0.2166389230132,-0.813480883725369,-1.59403995491165,-4.4421836928803,-0.76668148325122,-0.690579081212358,-0.544518456923424,0.246644622394705,2.6383481785645,-0.525341547464199,-0.542417739085559,-0.765344060183637,-0.230451712547088,-0.0213554280034462,-1.46615081290222,-0.549290098436085,0.345020711989356
77.985,-1.1846496078303,-0.128660134386344,0.950489449572128,0.693367767745559,-3.87561251208397,2.24726858358469,-0.909777072116876,-0.25696919937471,-0.785416723572371,-1.10130074555948,-4.37714270702823,-0.826268068079547,-0.675544443265229,-0.562327030321303,0.192744145869631,2.84828935454808,-0.378802140496819,-0.623480288299638,-0.767828519544008,-0.238279274042587,-0.0395088793810108,-1.57651429728029,-0.426826045366711,0.329144865109946
77.99,-1.21297786628471,-0.0167125617459568,1.01723670022295,0.600261796417953,-3.9400286876079,2.12092423469265,-0.965529513050499,-0.253555892372472,-0.806859504984473,-0.701506895633659,-4.31934057820961,-0.865007022900479,-0.658163911353834,-0.572874794767564,0.143722404637863,3.01504524802726,-0.210266698528757,-0.675280616937006,-0.777152048647488,-0.250228034250804,-0.0612330402319079,-1.68234843572143,-0.295697501649791,0.312381870582631
77.995,-1.22518560399065,0.135425954559131,1.04262299383223,0.441550002723673,-3.98892869698076,1.98210716573105,-1.03194897055395,-0.18838991519417,-0.867220449828165,-0.251154143025474,-4.26385820241778,-0.890289989487935,-0.641333492349961,-0.585136348202615,0.088488985493392,3.08637196179041,-0.0536050782325936,-0.65522552458624,-0.797555865068514,-0.265643584317083,-0.0769265347681226,-1.76314958952472,-0.188931835128647,0.307654500007629
78,-1.25604305264345,0.262159502524405,1.02134823066753,0.235456876065257,-4.01638153193246,1.84222168164519,-1.08788499708654,-0.0647221166215236,-0.93815163733133,0.270379878575679,-4.24655086157423,-0.892226482292074,-0.626058544731652,-0.582883396446004,0.0374384378088944,3.13910199093957,0.154347384324263,-0.540549422061949,-0.813874535417154,-0.27980358334881,-0.0902021148930846,-1.82476235151192,-0.0707519682839524,0.297124203475727
78.005,-1.33597065814575,0.366740764150469,0.981894578566437,0.0285992357002963,-3.99216735331385,1.68461598721124,-1.13552167358185,0.140047662421246,-1.01289488771164,0.779917645487671,-4.24228198917106,-0.860500543554454,-0.616014874785673,-0.551939038538953,-0.0259483223749743,3.14776285731758,0.316448172005317,-0.391754065480709,-0.848130671779531,-0.295155149208714,-0.0867617176176266,-1.85057497024536,0.00257424690449905,0.292029686322852
78.01,-1.45400305438798,0.400726907015893,0.9376302264149,-0.120006965301035,-3.95309467666999,1.59242336185396,-1.16455859664809,0.312534889802177,-1.04722975737002,0.976794145012898,-4.26740311347127,-0.799611667688741,-0.60502857905419,-0.534799498759384,-0.0570444690620248,3.13382150827245,0.442187417773096,-0.250903659488599,-0.879616194304006,-0.305262195961129,-0.0792669843842489,-1.84662170150373,0.0619415812345092,0.284225468953342
78.015,-1.56318784972923,0.400734417117878,0.882143062919616,-0.221391642104409,-3.9432327747345,1.52574285384158,-1.16465427991483,0.399612076564894,-1.03611460941516,0.93040158918951,-4.29161823863462,-0.730260467051429,-0.601257769716928,-0.50058130177194,-0.0780542704440942,3.07737077704822,0.557247423718294,-0.125886704054966,-0.914874191779451,-0.317617772029779,-0.0589349860224548,-1.80247667533536,0.111525542345007,0.278567235844571
78.02,-1.64604232510969,0.422812530576739,0.769537711074291,-0.3151439678061,-3.92760154245679,1.53964268774891,-1.1440096112826,0.423626962258162,-1.02193567084062,0.677480725660237,-4.31535289990407,-0.668819877209549,-0.614292900268045,-0.471404680108052,-0.0858625230064166,2.99989778922803,0.627195033511387,-0.0543308065554243,-0.941272870121327,-0.330753925928742,-0.0327526233641765,-1.74924372660288,0.125466028832006,0.263787770740315
78.025,-1.68354348611602,0.472134830340763,0.679322239409703,-0.372251456701072,-3.91443958289924,1.59479226814267,-1.11615566858037,0.411443228635416,-1.0147887594154,0.255348387253135,-4.32435817447899,-0.607628957673924,-0.645693070684483,-0.442848079900998,-0.109062036838629,2.91465593198674,0.675550191131263,-0.0392125245276844,-0.969231065028817,-0.348934708781104,-0.00598588102337877,-1.68303511223712,0.119857534710762,0.239304908706351
78.03,-1.67858958591255,0.560452319020211,0.603421635812034,-0.469784465180035,-3.89439029658131,1.70780473512907,-1.09913649446293,0.390907228678211,-1.00142893568975,-0.294227018119428,-4.31649694659928,-0.573881743783975,-0.695698421508287,-0.422270296850658,-0.137989955546072,2.79875075042341,0.690190843382901,-0.0849252043301169,-0.997452255436489,-0.369755074646597,0.0233034538288661,-1.62149237164304,0.111228336216115,0.220975383057885
78.035,-0.211385306294219,0.660594512165911,-0.553104359520377,0.50316414936485,0.00343172382002493,0.0588080648329839,-1.07112735796045,0.381190971914533,-0.98404533156119,-0.990510797923938,-4.30310692049268,-0.576971275379158,-0.752435594865837,-0.416450079790604,-0.170219940099972,2.68768156316117,0.672303927145929,-0.179281983493649,-1.01949948251876,-0.385201876432589,0.0421265835473327,-1.56901652731392,0.0898838071495494,0.194597931104735
78.04,-1.61416546392051,0.740739768867039,0.51464952215195,-0.838815531249571,-3.89060232143274,1.86442620320091,-1.05492920705214,0.395357855531495,-0.950754799557437,-1.5766489003895,-4.28551515140373,-0.561684306103958,-0.828200740661984,-0.402379789044401,-0.204797969437806,2.54740744904948,0.611291599327978,-0.325264971420709,-1.03604412956796,-0.421500558236068,0.0506077843680968,-1.53912517021748,0.0691967849498141,0.175203500247652
78.045,-1.57470548968682,0.793486879388387,0.47658552365471,-1.14701091271009,-3.8029964925066,1.96470766890916,-1.0266246441708,0.398554406908099,-0.916383980246836,-2.14930273001629,-4.26088179076447,-0.524647831203752,-0.885116190104481,-0.385756701747935,-0.21796738566917,2.40658742851536,0.565959934732321,-0.445658106559369,-1.04348956089475,-0.444835212128405,0.0554559043730793,-1.52328627616388,0.0339927920913219,0.152244376305701
78.05,-1.55211758640304,0.803335052223526,0.449950311600325,-1.33359771367757,-3.65823908920413,2.045310324945,-1.00570457858571,0.391905744745856,-0.891976142232967,-2.739503092935,-4.24646104400577,-0.454348251551553,-0.939816493079071,-0.374556756161682,-0.216652949175943,2.20800970851712,0.524145188266139,-0.525654200433714,-1.0321592006014,-0.461569433534846,0.064758121971528,-1.52449556160313,-0.00736153559934618,0.131394180461633
78.055,-1.51770668579397,0.796506795449851,0.459259591625315,-1.50358122542606,-3.41284526743951,2.18200395904164,-0.994988842056157,0.35235599044926,-0.87568817996514,-3.18655699483299,-4.21754785382859,-0.346498791878801,-0.976702897477549,-0.362562119901114,-0.234790692216153,1.97798285558437,0.484047901667565,-0.527164860430873,-1.0218593059263,-0.470828737180419,0.0735605938005173,-1.54019165952823,-0.0557940162008751,0.109061977252649
78.06,-1.49313858006314,0.799912617260119,0.462587194797496,-1.60328700931875,-3.2728943852614,2.28748178203597,-1.01630003571892,0.301304242683638,-0.85411904620455,-3.48248541364549,-4.17895177854405,-0.295216481968863,-0.987998788894334,-0.359567836729995,-0.244134826467881,1.7735847825735,0.418515139976396,-0.446905579990234,-0.988992608602881,-0.472495831419393,0.0817366606244119,-1.57254454772009,-0.137812102300532,0.0879757072289208
78.065,-1.45487239652139,0.798356765720513,0.466026710960954,-1.6939147612682,-3.09487385779413,2.47696124727756,-1.0296505745478,0.228412643886247,-0.853522509904837,-3.69065455274541,-4.14009751563779,-0.254976169360135,-0.968219262232607,-0.357581971242489,-0.237479585450015,1.57861508710891,0.341321695873293,-0.289351522786362,-0.963539152645539,-0.460959938726482,0.0963584759141302,-1.60405698044861,-0.209519611096062,0.0813570353356996
78.07,-1.42024385785717,0.777868387427134,0.469119582136562,-1.72230901156777,-2.97080247458276,2.64143347393616,-1.06997855305238,0.148898565820837,-0.837293715572072,-3.8162413642608,-4.09725548454134,-0.24644981991745,-0.934230550296055,-0.352634070608469,-0.217943083791004,1.3772321425188,0.293362710773073,-0.125973295073052,-0.933593367958475,-0.431535075400728,0.110667180717148,-1.6288096272745,-0.289221285088038,0.0823842783831774
78.075,-1.38070776674733,0.730623633779229,0.468959857028054,-1.70872616519467,-2.82305690209853,2.85191618793667,-1.09869277052099,0.0840052948213917,-0.819992210598023,-3.84445075345119,-4.03130227679321,-0.251060480604785,-0.880103567407204,-0.340158427762318,-0.183089698803292,1.13309817260215,0.252235368664098,0.0964792529913767,-0.909705499114945,-0.393368268781439,0.117285035441074,-1.64101350060965,-0.358295153973026,0.0885367038198897
78.08,-1.34445029983867,0.683028004880294,0.480161715690528,-1.64403310890698,-2.6812975700211,3.03050812144848,-1.13025448171347,0.0185524879434106,-0.804603310794238,-3.78570376753241,-3.94762145116044,-0.277728505429031,-0.852915405493024,-0.319168446450049,-0.176911898291214,1.02042654647419,0.260579255589173,0.237855443305376,-0.892073354015322,-0.362503513996491,0.137553951801542,-1.64471578983643,-0.410810767924556,0.101802716986416
78.085,-1.32290257490468,0.644486708236304,0.498383317983481,-1.54208722107287,-2.46884520538069,3.23701437506444,-1.14266490284117,-0.0218804214759612,-0.795116608816505,-3.65104216558189,-3.87943626712485,-0.314978035110184,-0.822373870666601,-0.276195651968796,-0.185369133559393,0.868260580800386,0.288851876165506,0.444512250827589,-0.887789820301785,-0.328977177105622,0.154439581812168,-1.62580300650962,-0.453792260125563,0.121719200617382
78.09,-1.30724330940545,0.613310837256415,0.504988353786698,-1.48044820323944,-2.2745967997452,3.37904916337897,-1.16990866490634,-0.0415822090840241,-0.786929388096951,-3.48471985601934,-3.81584949771023,-0.330299518836603,-0.81171527986161,-0.230320978664394,-0.191216110805509,0.781587162916215,0.308148870017622,0.587320374612411,-0.890089796700912,-0.29774995006333,0.172909802578628,-1.59922792513222,-0.490060845495724,0.145751033486744
78.095,-1.29883006423358,0.556642278932124,0.507674612455934,-1.48139429360784,-2.00559414443189,3.51302646780365,-1.17363992550002,-0.0515388626329839,-0.768558186230264,-3.30054458947635,-3.75446912169742,-0.32954401138673,-0.81058644111425,-0.170048950706326,-0.220207586936593,0.729831093019126,0.334418362659967,0.716335184572495,-0.894744847395083,-0.283534033952586,0.189275322993943,-1.56512479102755,-0.509915029264922,0.165605235883955
78.1,-1.29203301151192,0.49899611398254,0.532182994834387,-1.4899536357897,-1.80108714207884,3.58711186092696,-1.16441169099308,-0.0469903067722127,-0.734899817176993,-3.08159650844022,-3.6859150937641,-0.309794927515569,-0.826333679910478,-0.122580390760753,-0.25177077098568,0.737250977347578,0.343920410262211,0.750827677032196,-0.910975636054422,-0.260968027326551,0.211807200711827,-1.52186560946178,-0.509169004646513,0.188504587708387
78.105,-1.2714760298557,0.423714514653711,0.567849227140208,-1.51108658685198,-1.6129018625759,3.63076450402184,-1.15486506226077,-0.0446144395368904,-0.710122066441778,-2.89994032312006,-3.63771877638898,-0.268261298661892,-0.834884302621603,-0.0730344819434082,-0.274590627966888,0.780928307132188,0.327877503785222,0.748185268225225,-0.917121252881771,-0.26009565268826,0.219752257887617,-1.48692388356499,-0.490801510868672,0.209585831966177
78.11,-1.2588037702057,0.330357515837706,0.580797071516077,-1.53086052761418,-1.48752415750367,3.64324283722576,-1.12962160096498,-0.0317755048483444,-0.693110195420017,-2.73624886276356,-3.59852929977914,-0.227473481442113,-0.847551578298805,-0.0320996477061588,-0.294885117298918,0.892186327128335,0.310276503597092,0.673738293405162,-0.933391118781741,-0.256323839402041,0.224593748796519,-1.42427326651208,-0.456527976338495,0.239271101755773
78.115,-1.23589932678266,0.196739418494641,0.597287632674414,-1.53085582249733,-1.3619580023704,3.63362902915462,-1.11096937224733,-0.0228466937420161,-0.687734488235728,-2.609599083379,-3.55481051112881,-0.196825526492935,-0.847698365551542,-0.0206241859558103,-0.297669696658932,1.06448450592904,0.32057117825587,0.587365562454254,-0.946494781816304,-0.259671045976436,0.221394056716595,-1.36852202464455,-0.410465585537456,0.259796500193062
78.12,-1.23354548073298,0.107386258595602,0.618254222851457,-1.51185532840036,-1.27182616398532,3.62157259222355,-1.10914511957254,-0.00776992789186465,-0.695806724893479,-2.49064716680393,-3.50466744708058,-0.156892369021939,-0.852615200887095,-0.0091407014214176,-0.316776195706978,1.33436197761365,0.334151119550339,0.472842581739047,-0.966820060807764,-0.269570251684934,0.207351233571803,-1.30287148448018,-0.355929865803808,0.295853666702435
78.125,-1.25035096162944,0.0349769365279417,0.637497998134353,-1.47945160747422,-1.20131090940201,3.58798147282093,-1.0713745894458,0.0257080264094999,-0.698335820317772,-2.43213858690763,-3.44658166180912,-0.135845893070183,-0.858080022637257,-0.000309080459614371,-0.324804772989924,1.55286516172223,0.347052329571627,0.382347981925616,-0.976068815792597,-0.276699862328634,0.194845597514942,-1.2491995380233,-0.29935696082182,0.331220379003329
78.13,-1.2764050668143,-0.0173024360236284,0.646483684753411,-1.44255139255211,-1.13795481725441,3.51839184740823,-1.03772454575539,0.0611868171695876,-0.702203307151791,-2.3584356725539,-3.37603877241687,-0.149479130729985,-0.849634947733544,0.00494440707574503,-0.318035282676874,1.80650522302471,0.336881086640806,0.237195086219628,-0.986696254757754,-0.291867652961738,0.178164542729644,-1.20954216629249,-0.259117966585227,0.368112771523761
78.135,-1.31591778278035,-0.051121810134572,0.622113527718639,-1.41361392500751,-1.10161444509645,3.41884922356906,-1.05977153604016,0.0874755768769095,-0.68816167112217,-2.27155597488782,-3.28819038481584,-0.149963483503653,-0.836513158888543,0.0122824053561166,-0.300693091107517,2.03650800417857,0.333769904184314,0.0454924035267825,-0.99466781967371,-0.304347660739944,0.154912123271517,-1.16089144181607,-0.238192051570106,0.420583714813023
78.14,-1.37099639660493,-0.0831375602089538,0.549584798185785,-1.39861125443394,-1.03151787582925,3.267071038705,-1.04699718094388,0.0915022915850177,-0.674769929811855,-2.27856121826796,-3.18987712525329,-0.126236862322719,-0.827955928166858,0.0227493893082853,-0.283156996930682,2.20741128826835,0.344465617091831,-0.189064155534881,-0.997149618671299,-0.322603074088747,0.15048236222736,-1.11294356414729,-0.245773167256544,0.477062045654432
78.145,-1.39953394929847,-0.104467299999308,0.48370062826492,-1.37570455357733,-0.973308625151795,3.15277845258873,-1.03957363315679,0.0832353738266193,-0.679404869847239,-2.3302816276426,-3.08826254020929,-0.0987303874284588,-0.82744322557667,0.0416688130461483,-0.264971808730465,2.38215479477543,0.369947364393905,-0.455488817999066,-0.997925964257978,-0.339287238460559,0.132558691813989,-1.06660332787989,-0.275519345958084,0.543130513848804
78.15,-1.41759573673001,-0.132352658110811,0.414924601162617,-1.29859928302703,-0.889300100835746,3.02881349287311,-1.02006355656341,0.0798894751881409,-0.705424174653033,-2.41807102438426,-2.95916566557333,-0.0636898990470104,-0.83262507674467,0.0621414524652631,-0.254456663206491,2.50194014994352,0.394173833636311,-0.649438113482751,-0.992130187326788,-0.350173613174544,0.122505851694768,-1.01591420861615,-0.318642446629663,0.616072546393696
78.155,-1.43365755818226,-0.14819509613292,0.364250683685905,-1.19314184750635,-0.795057620909441,2.91296732835516,-1.01901254075431,0.0818043646137174,-0.735759536328288,-2.48642673111305,-2.83507673704493,-0.0442102939699845,-0.848245992050752,0.0851454534392085,-0.242249068066729,2.61750536928659,0.418893405787634,-0.844831612866214,-0.989464577312765,-0.360470725994797,0.120818091356058,-0.975322315103697,-0.355064351782854,0.677996240066626
78.16,-1.44923383213578,-0.147614999370268,0.338241607284542,-1.09453748845833,-0.723029818180609,2.78612753427023,-0.953487355429973,0.0983665364234244,-0.763324240525406,-2.53252785601691,-2.66560037315743,-0.0547123831458489,-0.855172334398292,0.0931069751286527,-0.227076435047497,2.63812174548464,0.441279730691261,-0.960850406273859,-0.986705371505816,-0.353083416289766,0.116402496400264,-0.924020223763592,-0.405714698843828,0.735735605957044
78.165,-1.46147071844119,-0.163437999982325,0.310882556494779,-0.986989925535143,-0.675152384649257,2.6259395133566,-0.876261783697266,0.0997573917950961,-0.797652313979408,-2.5102889414099,-2.54284681008049,-0.0735480126553778,-0.869228698160218,0.0903837872113905,-0.200973654715427,2.60009795720883,0.472192469858495,-1.05914662604065,-0.978679874854014,-0.343103908035261,0.105265346249697,-0.884492343267726,-0.43662441478392,0.778906930762617
78.17,-1.46093134928614,-0.198062765843283,0.287825323326528,-0.859626881098561,-0.644837555180519,2.43743254635997,-0.826865982056485,0.0717258181057292,-0.817438242265371,-2.47579039173142,-2.41421607231762,-0.0772412370379398,-0.880688295129235,0.0879357739745068,-0.182827013431286,2.51505140121775,0.504448314813754,-1.14342190630062,-0.973672120854019,-0.339614725492691,0.101839122469875,-0.850277308485449,-0.458400707899844,0.807096043234855
78.175,-1.43991026457217,-0.237617462207911,0.260705368358492,-0.795395638150065,-0.622665680987825,2.30229146430204,-0.772551689394307,0.0183867463862223,-0.828766779247102,-2.41615197964522,-2.26157822586408,-0.0548215187993417,-0.90928642060099,0.0834426625350665,-0.177583304082226,2.42295397987622,0.526607943515411,-1.17865816759733,-0.960283709735415,-0.323237767068892,0.0940025286241055,-0.813848592934121,-0.467018711103973,0.8279089498867
78.18,-1.44914140478074,-0.293023867750072,0.160769582483248,-0.476787789121916,-0.578558089341684,2.03567245700524,-0.749217276632448,-0.0114097006762833,-0.840117695317225,-2.36099268851744,-2.13252001183822,-0.0339830230718934,-0.962898375275053,0.0752254242850857,-0.170374503006671,2.35112557228333,0.536569939234331,-1.19183150002736,-0.94948439896648,-0.307019236294317,0.08963496519348,-0.792015338792529,-0.464200276966463,0.832040758355429
78.185,-1.44244470870524,-0.31925313361217,0.107321262505013,-0.529173610198905,-0.552986230017851,1.96551758520883,-0.743722836517155,-0.0458299746819912,-0.849028935187935,-2.2861137590818,-1.99085476010755,0.00952610202945228,-1.04012414617602,0.068510491901874,-0.163465593355031,2.24737302800622,0.556525994152347,-1.18162120776129,-0.930950607114587,-0.296607376969048,0.083844864009831,-0.764990970203062,-0.468265382816429,0.825375687532392
78.19,-1.42743654497375,-0.324268623985131,0.0436808229808322,-0.364010151992892,-0.454133613387565,1.85093003049908,-0.737541465921742,-0.0669754221901891,-0.848514995938585,-2.17332614229361,-1.84783655629937,0.0367138865789571,-1.10063672545683,0.0606693018816583,-0.163611903839913,2.15823481033248,0.552167708167656,-1.15987938909867,-0.915119699536586,-0.284824974188115,0.0801371487356026,-0.741010888489156,-0.472756648944533,0.814392193230061
78.195,-1.44270807254034,-0.337309829167913,-0.00383927879974138,-0.182907304866319,-0.327218240711557,1.74444858958698,-0.724207681560522,-0.069051992601608,-0.815500545488183,-1.97173730314351,-1.64238232629025,0.0634746724064285,-1.15511431003834,0.043158943266108,-0.160838223635667,2.04715566185179,0.535456763407603,-1.13235491515054,-0.902183365189412,-0.276802939823315,0.0833166147854054,-0.717557810460477,-0.474704644476071,0.789831395670157
78.2,-1.47407751209575,-0.318791441799819,-0.049172203866792,0.0540707630975057,-0.216085965020357,1.63548668825316,-0.713396685507078,-0.0782281891084043,-0.816059377999075,-1.79748982909214,-1.44228363220945,0.0828448413638827,-1.18058047305781,0.0316626481822658,-0.165339443917498,1.9382543612807,0.514383856548724,-1.08536226451637,-0.89044840902358,-0.2694497394205,0.0866060447836785,-0.70789411372602,-0.478896243903339,0.765932176419354
78.205,-1.49741689345533,-0.276067916277914,-0.117692759509362,0.244806085468678,-0.0689229578975966,1.5636267967675,-0.704040664393041,-0.108700748439914,-0.870545285875905,-1.66309636469137,-1.20968651577856,0.112701498678449,-1.19231294210559,0.0305533072028619,-0.168117136152663,1.81553769199422,0.462302993028521,-1.00517678961371,-0.880402635377141,-0.270607647365002,0.0987933886167492,-0.711482252041972,-0.482820923432905,0.731214560993017
78.21,-1.51119366904482,-0.225120412080855,-0.208184529471195,0.393113230280522,0.0680197719274968,1.56879927499072,-0.688516442894545,-0.122358008853445,-0.887288176263693,-1.50860450690327,-1.02625352804639,0.117541475808223,-1.1839614400659,0.030127502413795,-0.169374923809157,1.63861132427195,0.377300038409784,-0.912530683645445,-0.876695228405113,-0.271443673291522,0.104175440829052,-0.718562254479763,-0.492859226737681,0.697600623074735
78.215,-1.50430642422796,-0.164026256714237,-0.277944136313656,0.544833810069007,0.241652916488968,1.61448492402952,-0.664221026806979,-0.110801469012919,-0.879985394525494,-1.3206190501554,-0.833689809905243,0.0914842972327081,-1.17392694580826,0.0419815672009009,-0.17190244236719,1.48054145317769,0.290955075400177,-0.804994813184664,-0.868207604824895,-0.271595130569227,0.11686741790021,-0.74903993582335,-0.508766503196508,0.654037909036122
78.22,-1.50376287265832,-0.0494562974759524,-0.359104683511181,0.713369420477062,0.493069648099394,1.70838791644511,-0.651792276974063,-0.103245019009894,-0.869470570765063,-1.08971477533789,-0.587987360794631,0.0661222634327941,-1.12255030619286,0.0885868142131521,-0.148478608117169,1.32244945078903,0.182505740281488,-0.68896716583593,-0.872297170760101,-0.27328667275507,0.122125038365076,-0.770486559413694,-0.516698954082308,0.630065727472504
78.225,-1.5138482714537,0.0456794461134463,-0.410496229094779,0.789877998210606,0.737396808430862,1.79094819976748,-0.648072640969215,-0.111841033895768,-0.86830515668919,-0.976472774692176,-0.399115101570572,0.0688285869217549,-1.16059716728506,0.0807527660728855,-0.166896375036002,1.14703285307863,0.103966846456659,-0.616607750681195,-0.8709147838624,-0.279720598079569,0.13048258707872,-0.807477383574048,-0.534367500969065,0.604411539808007
78.23,-1.5302495303091,0.114112257302381,-0.42379671674268,0.778151619518608,1.04300789507221,1.89152258353312,-0.643661843656019,-0.109310518251923,-0.86613175474554,-0.872751532744337,-0.225442187989921,0.0779118566802382,-1.15317362917296,0.0985041710486145,-0.17095738526174,0.910355924864052,0.00964681630851166,-0.53753728289061,-0.869420132777069,-0.287383455716824,0.130630392786189,-0.835661784762125,-0.537956260496074,0.590722398270752
78.235,-1.51806042367669,0.115835163496952,-0.404444545383606,0.710643895836443,1.29136853757932,1.95938619885672,-0.632758158431961,-0.0744815093088935,-0.83355639945373,-0.733708770912939,-0.00184067832241614,0.0855246992557931,-1.13932547434402,0.111559639787468,-0.176091800332678,0.744390417075506,-0.0768937855457579,-0.404610303030699,-0.87849892756108,-0.29287436949067,0.135522135052941,-0.872842255523331,-0.531690238265859,0.583209459946691
78.24,-1.47394439366851,0.0696573131789992,-0.410650476092073,0.619563640552061,1.46639919997858,1.98367964786853,-0.615686244370304,-0.0397359636790725,-0.797799007820478,-0.646073988822569,0.188694826247396,0.0953345060574221,-1.10960706809202,0.127239092038279,-0.185072535442353,0.550107653213907,-0.154806991141897,-0.261329122980757,-0.872379779530933,-0.294502256823882,0.132237145812591,-0.900642310848084,-0.523114648300262,0.582735015564672
78.245,-1.39729799628028,0.00726930828721796,-0.439225558191096,0.530183341968499,1.64484520331437,1.98578759296755,-0.602869968883506,-0.000688101749977039,-0.750624922431191,-0.580021392621013,0.379659764728855,0.115568465851822,-1.08150563962116,0.142770403940055,-0.181064522977649,0.416100273903786,-0.242144433074237,-0.10554960777582,-0.875291349465738,-0.293211489811472,0.126345360246586,-0.928596943802646,-0.50634188330249,0.586785835435994
78.25,-1.31989376725917,-0.0188466184998525,-0.478113152736128,0.428113450318241,1.81667787038285,1.97642373436187,-0.645665828353052,0.0213907449562486,-0.726549207609967,-0.575361664887042,0.532238072964321,0.135624894277537,-1.0556605256329,0.149327502098632,-0.162161766953127,0.317395214326616,-0.308458103141643,-0.00613784953871509,-0.87535549354364,-0.289563864003508,0.124934173275324,-0.954653901288572,-0.482574916020789,0.588647792024126
78.255,-1.24570621666071,-0.0311269879230171,-0.495341668694562,0.305066261218031,2.07553033306153,1.95427428223026,-0.642710759249646,0.0457771422450758,-0.700075310708946,-0.5999787472773,0.667202783634379,0.157935008061291,-1.02200831788974,0.150823504886622,-0.141980889698854,0.208031799376989,-0.370688313145283,0.0564805896819376,-0.885399027209767,-0.281215489825635,0.123576995093711,-0.971970873772397,-0.458396546548651,0.588525304722283
78.26,-1.20604755443122,-0.0398878790475503,-0.457358528880667,0.252768457796061,2.28289209346887,1.89804202345578,-0.65675702305579,0.0682234750927738,-0.675844198744664,-0.678643257273583,0.809429148650304,0.192345040211231,-0.984521593871565,0.14224522945516,-0.121836097183318,0.10494554029285,-0.417561624595908,0.0671046585866513,-0.893544286599272,-0.276901599674352,0.123443861475875,-0.980098428630383,-0.421809781310374,0.581352596558568
78.265,-1.15916766110883,-0.0626590701646247,-0.396590574017116,0.184779693910241,2.49777306862635,1.80498268141169,-0.667146007899188,0.101427799846593,-0.643923518788669,-0.757600755741028,0.952109671730219,0.226421837234043,-0.947912523918592,0.11943643057504,-0.101535493399133,-0.010793111488041,-0.45258647744739,0.0401917242868164,-0.905284920268892,-0.272914938828348,0.12061730103602,-0.983670553433966,-0.396306197456337,0.568723428563843
78.27,-1.19825707037758,-0.132652822700955,-0.31565483521995,0.0891417450511833,2.75449989355406,1.67214665452195,-0.683269060912219,0.138401751966783,-0.632294321690222,-0.803704326107162,1.07712469075943,0.250439108893914,-0.942900032998362,0.0909780590873156,-0.0981327645347255,-0.0443958752060564,-0.474050751491852,-0.014378083627818,-0.913071040243144,-0.27101220386775,0.123223318319909,-0.98517608538281,-0.376437126285254,0.556976121245478
78.275,-1.40708948180804,-0.217298621183262,-0.211531424577277,-0.0257496729435045,3.06527770855573,1.46778284525043,-0.690830404175745,0.164414349417178,-0.697531260570266,-0.830386660842608,1.18628882236239,0.27161752678572,-0.956867298938978,0.0598413001503355,-0.100478942408209,-0.0442265262644485,-0.484454521110139,-0.0638072285844978,-0.927933521403142,-0.264816524802524,0.125567905335728,-0.985615313053131,-0.361889247271741,0.543481623901145
78.28,-1.84991927720927,-0.135591422271215,0.799445458880246,-0.625487373171525,3.24281342744004,1.34392848937687,-0.675266521763324,0.213804623969779,-0.923665355323243,-0.888057032271802,1.35728784933069,0.297023003687425,-0.990045574366622,0.057097079351156,-0.114985398306992,-0.0291784705322578,-0.48733774200477,-0.0581933050648007,-0.928626909032796,-0.258741785861167,0.128054584110851,-0.972457863884591,-0.364679941938401,0.526619004443852
78.285,-2.89830558744714,-0.0842251893477712,4.44230252596582,-1.39313006242831,2.04385898094841,1.14678108076384,-0.664986941030635,0.351798267026435,-0.977353702183042,-0.847524360650667,1.6140614709751,0.315615644874586,-1.02775221695275,0.163781828042024,-0.162608089626201,0.114873032561824,-0.468861635149702,0.177243385935068,-0.929295001045911,-0.251604934673868,0.135435981586999,-0.967793842362218,-0.387162395819956,0.52094707865829
78.29,-2.67435545775755,-0.648744920248101,6.60313354840388,-0.966960289385657,-1.2522080697053,0.590075774132848,-0.737396285506059,0.554389274768006,-0.58713420016355,-0.512984467433921,1.72223360396052,0.368694212308425,-0.932060581364247,0.241632188390343,-0.200983601174142,0.379724228984873,-0.448848852612905,0.694299534619528,-0.925812431108017,-0.260184483556559,0.139741703174723,-0.959779084365249,-0.431683715336031,0.514672313623922
78.295,-1.55902975422382,-2.53650032474502,1.12084288262601,-2.92127377392087,-3.05393904512172,-0.190933771326205,-0.992277381927224,0.429225162102208,-0.238855334034954,-0.191158562190833,1.58432466585724,0.536960996804556,-0.567074684054118,0.104677322656599,-0.167571547636585,0.743192268413163,-0.454657431539229,1.22012680787092,-0.922170354645528,-0.265980740045094,0.159281287394196,-0.936404216672968,-0.471002635100595,0.501794052689399
78.3,0.113821599447887,-2.00951133248804,-0.114415825946994,-1.89515429001213,-2.06148640669792,-0.967618124534614,-1.31753456536059,0.179598873721065,0.403951745463419,-0.295041145362717,1.5251693838527,0.830413873841818,-0.331088760656282,-0.0995736050410957,-0.103076563004295,0.750932512762237,-0.506172697332153,1.16269012531928,-0.903607497588592,-0.25396633425928,0.174679097722574,-0.909820165575068,-0.524958167135198,0.504730933679906
78.305,3.17320964657459,0.300894161717177,1.02276994084064,1.09411637357377,-0.0220587824317725,-1.91666677707252,-1.65535682522651,0.408646689219149,1.04727992478656,-0.307567132314766,0.972837800908536,0.920084706277004,-0.0950556114659805,-0.485515719077877,-0.00254917760998263,0.635755468801586,-0.504523655370707,0.476784844948182,-0.899775841196592,-0.239001367897108,0.207642731769205,-0.885449946093468,-0.554580466521009,0.505835776073372
78.31,-0.387241357621138,1.97309314074695,1.41158390065638,-0.701125399379356,-0.280809225873114,-2.53728947712334,-2.27331972403926,0.307248475511311,0.432814976747476,-0.599113481011629,0.708123993998435,0.975481390141492,-0.286469049277765,-0.859408500031996,0.0426992063997474,0.524914966956848,-0.425977853609145,-1.0747024918997,-0.913951016779353,-0.211125611424259,0.246095284255901,-0.851229059592465,-0.603503540916132,0.501903952288617
78.315,-2.79453256218038,3.02101053445515,0.310809939660641,-1.29801209220727,-0.716947349672967,-1.13680602655425,-2.8858210421423,-0.251982541966936,-0.108621759366197,-1.13901463144448,0.960861975764595,1.26779044462963,-0.924887530441652,-1.09439284112042,0.070343437179733,0.48230734139976,-0.289236400941676,-2.75640532968233,-0.945967622475681,-0.187961199400111,0.271669502517129,-0.823976139554488,-0.645014901892029,0.485281482551228
78.32,-4.35385311379701,1.25191440297242,0.593257857686766,-0.954445296008252,-0.266797696939109,-0.399260311929127,-3.10822744442038,-0.939072460727736,-0.911010864449608,-1.95264267050568,1.15861808767276,1.35259807020359,-2.00074354258272,-0.968415156039372,-0.10404417913369,0.445046483784861,-0.128487043271838,-3.99736453834496,-0.971036995671736,-0.156398617206501,0.299021247522276,-0.814964306174012,-0.652216139974122,0.445122396822387
78.325,-1.33901932627176,-1.02662804457174,0.842410416919102,-1.75330351970286,-0.765605034246764,-0.490325942989094,-2.69710351427861,-1.13995251543387,-0.961809710643169,-1.28714387387645,1.50504080187498,0.823614613401152,-1.99175939940955,-0.732665868242092,-0.621994087263361,0.329402981884607,-0.2045510495647,-4.42526141848167,-1.10845568818088,-0.12574216674559,0.178527694772312,-0.833069693026057,-0.598944523643209,0.415472690304122
78.33,0.5526984768761,-2.07193067795505,0.87777660297576,-1.32886917174979,-0.644510197568325,-0.743833293852843,-1.80027775436865,-0.995213122201431,-0.846383669140439,-0.528610532155652,1.84366316740341,0.0162426010566274,-1.98975257817986,-0.748139500748021,-0.756855129051276,0.465430433956672,-0.285287579432732,-3.94775783721852,-1.18472435206425,-0.0906952495815539,0.068632464815103,-0.890114524764436,-0.465611228657547,0.389200132166754
78.335,0.969326146464729,-1.42389678927061,0.936052197758131,-0.628995666496082,-0.535872046605259,-0.0901113726028263,-1.20756505780144,-1.02964979791251,-0.734581402326649,-0.0412756754008957,2.10767721708688,-0.490374773163559,-1.99715122825209,-1.20851234914037,-0.405157920606541,0.521630151509454,-0.690661934785671,-2.47142000728177,-1.26634929007209,-0.0386297597235509,-0.0948927577402265,-1.03273558294637,-0.154696086552308,0.337708012549259
78.34,-0.143426868216022,0.547507716102783,0.811677914554987,0.597261808514349,-0.0903573803230089,0.508368553945203,-0.776904520552944,-0.868278897080678,-0.506240180960638,-1.18596825218705,1.99847190138581,-0.724696241806442,-1.22188858493887,-1.46329747069115,0.0900749661336663,0.531663317028504,-1.18681715334218,-0.971670552222161,-1.30113294332598,-0.0127919417325333,-0.231839302090996,-1.14964082208662,0.172525346083282,0.284398712831009
78.345,-0.827233405389723,0.77593579812823,0.915876284941999,0.166330312471466,-0.0140466502904688,0.537423249674682,-0.700476259731819,-0.655843257147873,-0.142171619792684,-1.57289751476361,1.74589008847305,-0.588484300749478,-0.318428134499158,-1.23114713916198,0.569385720365922,1.01899777715949,-1.17771322867062,0.150041869709469,-1.33817784954401,-0.000581445687507078,-0.31666028926792,-1.23052543232868,0.478220432056006,0.233052514865238
78.35,-0.71914250375954,-0.100031748805293,0.925243123879143,-0.628407215290253,-0.0514894233524038,-0.111211942271365,-0.733627484112003,-0.341284588204735,-0.0657041850332159,-1.02308869302561,1.56434361849634,-0.136124598422876,0.171119639425207,-0.794767377894761,0.749452846093781,1.41026623613573,-0.630542645904499,0.698580610096257,-1.38390920496065,-0.0216129850762778,-0.336189399421357,-1.2344543270465,0.642042366945231,0.211153868287106
78.355,-0.404141861872176,-0.653992405185404,0.735218808346129,-0.557165962347459,-0.0674019332419408,-0.372535387001631,-0.520287734308434,-0.0570342319216342,-0.334307639149278,-0.374349465202211,1.34255182123757,0.335570308791304,0.310712833353816,-0.100595435077511,0.546116008645833,1.57359352046354,-0.145130749029282,0.752842120991163,-1.41827921293994,-0.0805955379652318,-0.299783386635273,-1.18609065844271,0.707510267249025,0.196254018135856
78.36,-0.355875977639673,-0.371548510620171,0.789441150495133,0.091814394621139,-0.0930080141555307,0.0450824590628377,-0.448694490802602,-0.0180145651856988,-0.371340029433113,0.186781338171389,1.305853276304,0.759004158143092,0.318368913447102,0.359365647003587,0.274655714422571,2.12973231946342,0.0830857878237563,0.302421698531037,-1.39416804499944,-0.102677691814076,-0.235077590512938,-1.05525500959672,0.623829465798585,0.180598273873329
78.365,-0.412160210641052,0.0737130403111861,0.916422711811258,0.547773505237508,-0.12215879265884,0.33355573098293,-0.368300337097009,-0.0661585675283726,-0.266342315630208,0.49319988847768,1.21178193405314,0.97170567765475,0.190118345874841,0.548231098510402,-0.00980774079737756,2.49243496584441,0.0825282485431974,-0.355438995947253,-1.36462605502637,-0.0553999384466137,-0.186545379169038,-0.959821480231095,0.542059197061101,0.181589716843756
78.37,-0.326659240208378,0.0983896367551309,0.925056327430235,0.45504293323523,-0.136798868274473,0.237328274249975,-0.355639051379863,-0.0436957048327328,-0.197070046179473,0.628366065532178,1.02173274993905,0.823108016812002,0.0607496687381157,0.342601298380041,-0.162044210531722,2.38351537899541,0.094172011007788,-1.16128381881409,-1.32142710510838,0.0145553751705072,-0.128495349041644,-0.857895101040042,0.439195374327191,0.190342378290676
78.375,-0.285403216968916,0.0695717505405462,0.854594355606214,0.377344692979503,-0.0575627012817238,0.150289781901165,-0.583212893587261,-0.00516181628526324,-0.210838169514684,0.442980487236332,0.867038011657869,0.545495122059642,-0.0686519087101428,-0.1535927443693,-0.28391584769283,1.50860085814206,0.192817269702643,-2.09933228835032,-1.27886209256952,0.054518615288216,-0.0640415600168126,-0.758890018440382,0.333449180937852,0.205164955465971
78.38,-0.416619448604979,0.127617464580822,0.829204565738598,0.404902627298872,0.0849278214803817,0.142038098876611,-0.683699527827014,0.0615345457286928,-0.237019919215564,0.450855663387128,0.725459586129949,0.372286458050615,-0.344585856125805,-1.0232384441432,-0.390423491910327,0.622232164068028,0.23909099234214,-2.45892934555473,-1.25497041616937,0.0701659396381646,-0.0268205753287112,-0.700909183271908,0.265786034662499,0.218834089912545
78.385,-0.518723887530599,0.156452730566402,0.844966079784051,0.299245061442279,0.0706205161787345,0.13680785451875,-0.744440066347327,0.165351147408125,-0.350646651745601,0.518659485094832,0.627876799198367,0.340708617121933,-0.608387590424418,-1.57048003870371,-0.564275059247642,-0.330269159550263,0.287259883981519,-2.44885207022068,-1.22884150088866,0.0551357314252439,0.0206963216230656,-0.613437952863904,0.127696597887531,0.2532846777665
78.39,-0.536275641128445,0.116019507353938,0.830477310784001,0.161428856814958,0.00452579297818103,0.104770145121161,-0.857022284831637,0.213984352924383,-0.406785347231611,0.528474331446986,0.593430397979663,0.36484558913527,-0.887775585199143,-1.75030392656492,-0.705161262990053,-0.595513663008541,0.317774623049415,-2.10797449790803,-1.2006731327742,0.0365863846801262,0.0771909185091764,-0.55558687283491,-0.0367052721538593,0.298406249551256
78.395,-0.50119591065715,0.0539203502671231,0.855387988351632,0.134223751724492,-0.0856601673102148,0.0995870361077024,-1.03469270626148,0.236860078642584,-0.396533345901502,0.482296635785038,0.585602309508467,0.41018380130576,-1.11770111362257,-1.66305556438787,-0.736965372302215,-0.701275508119109,0.288083732524231,-1.38867972157796,-1.17245845799933,0.0220827571700907,0.1250678299709,-0.51844291843832,-0.192589205591485,0.329343569673569
78.4,-0.405702416320978,0.0120817612994321,0.904727920385984,0.126467797947969,-0.151517671871878,0.0983249597907932,-1.27261898114488,0.215569761569697,-0.352791208913693,0.080078308121407,0.493778202678415,0.53080843855653,-1.20212993125324,-1.32461450771639,-0.488758319978077,-0.306573805146446,0.118309762773731,-0.514548438701445,-1.14668741879039,0.00637107589072595,0.198656276339271,-0.505715977075186,-0.308049324428168,0.344504351301265
78.405,-0.365314611577488,0.0115525307608333,0.891898988248939,0.10827887909133,-0.113164768180669,0.095716427246609,-1.51179586595099,0.156519736369197,-0.332557596446041,-0.341805765310853,0.375847676082701,0.608365908906093,-1.20094033695784,-1.00249930824418,-0.024462681545295,0.0695675347157446,-0.0818355677917711,0.361082541278919,-1.12784004855485,-0.00736300459129706,0.249708782027346,-0.501089249063343,-0.36628655496193,0.336766474653368
78.41,-0.432959001008367,0.0287430413757556,0.889817015667288,0.0830100961649954,-0.0332932819259185,0.0833914147614693,-1.54849624233184,0.131848216342467,-0.317444933661489,-0.929576460862691,0.223900456145253,0.576001799945067,-1.06581537377326,-0.792675452608715,0.360123052077084,0.0713248772135869,-0.0709063202824936,0.907537415545202,-1.1166963001902,-0.0267396316033314,0.276256054974577,-0.506621373629288,-0.369599706004533,0.301949541822354
78.415,-0.453294250836913,0.0263482391542729,0.893521209578601,0.0387411320759437,0.0157340069945607,0.0709363896526239,-1.50851695873582,0.061458958365394,-0.253882897982621,-1.23503022324193,0.148112203478311,0.477803073768328,-0.774240218482505,-0.604016640725631,0.651786813329224,-0.102948400993193,0.122430957861875,1.19240995814241,-1.1127562639775,-0.0482162026153676,0.279221413977513,-0.508057438884579,-0.32293139729286,0.248865514315844
78.42,-0.413695954019562,0.0290418323621236,0.889960859394042,0.0303072327399531,0.0462941522774854,0.0665656875452679,-1.38417791652148,-0.0344531291659402,-0.230518713981739,-1.34591325685086,0.0658345056466069,0.329325855415555,-0.568928150431625,-0.500087881160731,0.719485875075167,-0.157905081576485,0.295316347790939,1.11505283249358,-1.09085196708642,-0.0540865728632518,0.271652257978557,-0.520351528968264,-0.198935667724099,0.188139371519452
78.425,-0.408229182818656,0.0352382776212703,0.877859090656731,0.033105599396949,0.0285645220887998,0.0688860933783614,-1.18821915790429,-0.110490342247666,-0.258889546956152,-1.40315689871731,0.0488306447458665,0.162079115139865,-0.504233576934392,-0.3774027332085,0.68814560382589,-0.110315718932607,0.417729080227752,0.841512715084438,-1.05911265897582,-0.0560402955585716,0.25655281424844,-0.536582936140521,-0.0988603963860003,0.151527584741258
78.43,-0.424956085910619,0.00519940220141623,0.863136404359199,0.0564029761675997,0.0211658719927073,0.0788699315006218,-1.00409930568845,-0.140070440620458,-0.263251614725862,-1.40618866933087,0.110565008568667,0.0486724286708416,-0.574626806771153,-0.275992855982898,0.623901422199611,0.0876396810129391,0.511532192857315,0.541232500295858,-1.01707846434659,-0.0542222418204639,0.24773388594853,-0.570461214098417,0.00239390549541726,0.133430632185368
78.435,-0.421929203782757,-0.0197529345644467,0.87238444805146,0.0776834396817629,0.0339917588103218,0.0791416030411792,-0.902582918978469,-0.16066577031047,-0.268090853204595,-1.20409249674402,0.138999411373799,0.0494382766696094,-0.639175002870778,-0.176823920322226,0.472612321865088,0.31741469749802,0.597294454142494,0.322408757387012,-0.979318480286415,-0.054833099714158,0.228034843237692,-0.633847462160446,0.111459383554499,0.129287093877792
78.44,-0.424233087644511,0.000407929478230941,0.868505874021824,0.0811489663428719,0.0617823329694789,0.0912872874331717,-0.857545158956626,-0.230124049486506,-0.270975490545249,-0.665031089216835,0.165186875051633,0.196475715526049,-0.863516275017577,-0.281938541440105,0.429545668033797,0.568438885471206,0.597461594922119,0.034794767196494,-0.950467641765907,-0.0615814069356888,0.217607533973325,-0.699323866886983,0.163030833411954,0.148689197764711
78.445,-0.412288907888257,0.0338411365047361,0.854155694513153,0.104907428512819,0.0860886088811694,0.110293770395953,-0.810548199157021,-0.295228885907848,-0.248418896256709,-0.177964494464059,0.201014483070195,0.345420201255688,-0.964470018809228,-0.316851528835414,0.258030773637959,0.834425351380074,0.564115760900648,-0.282804107714109,-0.925704515434464,-0.0656735646498679,0.193367513924011,-0.80432060032052,0.151968733330349,0.217626732211734
78.45,-0.417894364201327,0.0371075664157634,0.849204416645861,0.1473288185937,0.107193779504783,0.123445336172621,-0.810346780805036,-0.342785805822981,-0.239342694020855,0.293437277500443,0.213224805767871,0.459786989206053,-1.04302259486234,-0.359268191059768,0.11545133463097,1.05591747498329,0.515854077163377,-0.517853548227564,-0.895994499399716,-0.0671696946114052,0.167665451872547,-0.913290420222952,0.101816373688197,0.312254713269037
78.455,-0.418975886312142,0.0239473890308077,0.860053986785531,0.207599377093566,0.0954307461906952,0.132483752808843,-0.829434582456143,-0.318977359605125,-0.217763933264871,0.795727462579586,0.215146157322676,0.494567645304805,-1.13310422118675,-0.384375498882955,-0.0457784673986361,1.23170903939192,0.407142421258213,-0.782312321509348,-0.85491802494301,-0.0731815445857894,0.12997746429552,-1.02314717512496,0.00621095398111049,0.442277361044077
78.46,-0.399049346124777,0.000609819952764464,0.870498820008607,0.249032613794243,0.10916576816146,0.141592317018445,-0.853079895792268,-0.236196345313127,-0.159829916481745,1.13085692448403,0.234431410364024,0.439806878428186,-1.17891430917414,-0.390174719194679,-0.147901231924697,1.29030879518568,0.304280233706721,-0.911242512996865,-0.820982229829072,-0.0738256353720579,0.0943994154964871,-1.07531052387826,-0.0696707176725402,0.548385403422503
78.465,-0.388609258827454,-0.000648964975888423,0.866909960396593,0.297148764172253,0.140241191689149,0.14744508266449,-0.908422860943107,-0.129929816146199,-0.132540855520745,1.38445663505895,0.246136345526339,0.367716342698935,-1.18634007755855,-0.385306190716428,-0.206064599362127,1.26518344521857,0.221823154536337,-0.967960613165632,-0.792232000537147,-0.067632383299191,0.0705406945569448,-1.10123001133209,-0.100463120068947,0.649729753625203
78.47,-0.397243242016846,0.0257803217419018,0.854484926124759,0.372445685015839,0.174788048432377,0.149149871581636,-0.983934602838818,-0.0385141985738213,-0.131194165007456,1.55929095294758,0.239205387966923,0.325838828445484,-1.17487575592626,-0.375604576713608,-0.236554847648991,1.16990807328096,0.187762582471887,-0.95676180263584,-0.781502228473735,-0.0597677607534501,0.0547271627371393,-1.10935020676866,-0.0694809792741472,0.718127378377146
78.475,-0.423377267154355,0.0650240126309484,0.847734043825195,0.423596569388625,0.216123276775802,0.176561926086761,-1.03114524006538,0.0295069787509755,-0.121968189606173,1.65415832359372,0.233848989282437,0.318176439820875,-1.14342153514988,-0.347235723978445,-0.264068024160749,1.01683429155075,0.164735925789512,-0.906781554975001,-0.774832925634837,-0.0533708011001725,0.0391451497320341,-1.0980040264522,0.0287904377930273,0.771919853040919
78.48,-0.428192928504352,0.0654911457057426,0.857537020211156,0.447375243386363,0.232308414007651,0.202870661075222,-1.07344463181312,0.108424379698993,-0.109316628355722,1.64130574471794,0.241704020843825,0.290453721870046,-1.06466592161946,-0.308820833810467,-0.244044679660312,0.82774155947164,0.106111975685174,-0.803978127203922,-0.780519375425899,-0.0498602773648713,0.0300563468841078,-1.09199788891283,0.126624462000126,0.785619292543309
78.485,-0.411457610475668,0.023555183701859,0.870554121648559,0.445598075531146,0.21371385794341,0.206991346200376,-1.09025099062179,0.161062098631411,-0.111390705759602,1.47077316927073,0.217442467451099,0.264119060808663,-1.01499300944176,-0.286442162483754,-0.198577554937131,0.692995415492607,0.0876760469291619,-0.671279630227711,-0.803813070157313,-0.040591898621357,0.019253619697593,-1.06581930587503,0.277939554467263,0.771902773091048
78.49,-0.39316123201182,0.00657530095158149,0.863299340865171,0.438013445352885,0.196617060229788,0.203643023967743,-1.0968093535844,0.202959522771477,-0.0939094351620886,1.17540359771187,0.180577344393099,0.225052654042812,-0.968137360864741,-0.249096674712781,-0.142734676060848,0.488674172001424,0.0874779653304248,-0.476686604547772,-0.826935192644026,-0.0263878130880852,-0.00106809548768188,-1.03643794316962,0.412942350196331,0.716404438767853
78.495,-0.387133799940326,0.0420316324950683,0.856710844781427,0.436141282320023,0.17619867257931,0.218684424440449,-1.08909486927808,0.224056865216874,-0.0574424462470164,0.652360738132451,0.148365176636942,0.183303116339272,-0.941079404172229,-0.215095090875573,-0.101494298913305,0.27028515269584,0.0828144391919898,-0.277786616069355,-0.842522426850353,-0.0215368153801371,-0.0166881062378378,-1.00040932958247,0.530122821040101,0.637117977484691
78.5,-0.393272174592443,0.0990450654563931,0.867657309582492,0.38946746212492,0.167420792117974,0.23291638794521,-1.05474563933802,0.224793530620335,-0.0416879399202889,0.179192146805953,0.113981866107907,0.165370588027119,-0.912281669397965,-0.198639365516246,-0.052101826890544,0.0847894185071455,0.0636577257637733,-0.0992317331371622,-0.867900441658195,-0.00372597473054241,-0.0242866576948633,-0.958882846667902,0.613776539942038,0.539264771319234
78.505,-0.38731353152725,0.124558525102862,0.870142932056177,0.284177703204292,0.154607125576283,0.22645178364355,-1.0177005988356,0.219702946639669,-0.0412781791037298,-0.252105089891597,0.077713838726889,0.137321102391153,-0.903548669673174,-0.170407938164337,-0.0127576715881792,-0.0790611647921282,0.0606178383986634,0.0292947656061362,-0.886955425306708,-0.00244384639829699,-0.0248732098178083,-0.909589062803525,0.658683909232542,0.443681660051328
78.51,-0.379949867144662,0.12256374776048,0.868643013853674,0.154579185700945,0.141642804539438,0.200508270363209,-0.983693468910994,0.202018859193667,-0.0445374302140897,-0.522569470162403,0.0594432753019168,0.124537485626944,-0.903162302982021,-0.14061869546315,0.0125995119377872,-0.228387945288158,0.0536607901627205,0.0660536074804559,-0.901429149221447,0.00153018846401363,-0.031093695093154,-0.861539541204271,0.643182649363782,0.380764606478265
78.515,-0.385714779208741,0.0970786064809358,0.859790759425703,0.0482098254923861,0.0981703520246055,0.152296611289061,-0.962684895760125,0.188629496324143,-0.0494986172562707,-0.704606207227252,0.0586620761029777,0.121504636383487,-0.904493748569489,-0.110023238074776,0.0337405096948169,-0.444217494340278,0.0561097193615334,0.0383730632817946,-0.91190513055528,0.00541159623859891,-0.0365144344085277,-0.806345784065122,0.578090200847805,0.34477410646102
78.52,-0.396240208086411,0.0817117202114982,0.857170237650681,-0.023774741500106,0.0582502317400943,0.118574657585126,-0.948008237379482,0.139323871921981,-0.0597204539492822,-0.794452723207359,0.0579304048979205,0.130750540112207,-0.926895431982385,-0.0826082244245855,0.0488466125813478,-0.651741987454709,0.0656316124637931,-0.0290469043941421,-0.912911243807409,0.00287245563252353,-0.0273706399099359,-0.755391511060158,0.494409608338897,0.324169247879102
78.525,-0.396975617948792,0.0919649730186949,0.855965933233977,-0.0790701194567195,0.0144892102472805,0.0867730369300379,-0.924298878668681,0.0771308827849095,-0.0561883470334712,-0.790063921805672,0.0621445550136589,0.140195419815925,-0.932086780299761,-0.0745378852459032,0.058983062922637,-0.833541080539426,0.0818723199337625,-0.121614177789232,-0.904292576476458,-0.00746974752720244,-0.0189367188844477,-0.678934060828532,0.403108993496933,0.297679180041949
78.53,-0.37749940441913,0.103782763281195,0.861320667914271,-0.115422724722576,-0.0279607257641293,0.0590378995392108,-0.914332977119075,0.0308211043145188,-0.0481425006132507,-0.697446147786755,0.0789540017137022,0.138338970292883,-0.937535821941768,-0.0701643103239091,0.0671809089358812,-0.991641148183293,0.102270435541642,-0.221000609916236,-0.894132925645048,-0.0125010511670531,-0.00518813508339242,-0.625627637163383,0.367338255314752,0.277114066809256
78.535,-0.368832953594644,0.0982212931519834,0.858902768475684,-0.140925658228805,-0.0726430931338839,0.0229348453499106,-0.912282968351328,-0.0276580425275172,-0.0318499240948734,-0.503633378303814,0.11347393569909,0.129123123321448,-0.939312841197962,-0.0779922571689939,0.0747361771470709,-1.13409268856096,0.0930339136271813,-0.331025279147471,-0.891803707345627,-0.0210945596456999,0.0112207158652491,-0.578168520524794,0.380018897309336,0.259866363001349
78.54,-0.38458878724348,0.0663642454321808,0.857754849308408,-0.144362823223422,-0.0863432437181473,-0.00681301214729985,-0.928429938514594,-0.0599056195538203,-0.038695663563511,-0.306672144705521,0.149649398925026,0.11723127028894,-0.945657013508556,-0.0978237569274102,0.0779683231538715,-1.20510231573607,0.0631624510657223,-0.388487759308254,-0.893442369609523,-0.0331989181441438,0.0419575921891764,-0.525276769270342,0.438133858975971,0.239864800456348
78.545,-0.392972691628558,0.0515031977239415,0.847240969933834,-0.125747391345412,-0.0885353261993475,-0.0267546195303006,-0.93372531938657,-0.0734263171354311,-0.0445688007121069,-0.0741786882007568,0.192148756255943,0.104461446638983,-0.981516184886846,-0.100231219648449,0.0793845675966369,-1.21269105276695,0.00727040745572709,-0.436929816447211,-0.900783413307125,-0.0368033516576457,0.0701633064450167,-0.491027761247004,0.495529937529005,0.225780240862517
78.55,-0.39787160631377,0.062350635849285,0.841312016416601,-0.0722357370529813,-0.0912300199270248,-0.0355928021018234,-0.944225119899632,-0.0749227893174577,-0.037222830171733,0.221059748482556,0.257206539846851,0.0841505591944213,-0.980431146643936,-0.103866266436866,0.0739608085836667,-1.15905419381991,-0.0498402565059228,-0.483551938788431,-0.914945677313452,-0.0356631489690309,0.102727883808573,-0.456413197922,0.550703574712668,0.207189369977337
78.555,-0.402158148560403,0.0737803266922902,0.849983016724357,-0.032921571629857,-0.0877471238727319,-0.0405136823301566,-0.947647361271128,-0.0809432426619253,-0.0406520603177445,0.480037296941511,0.312891298876796,0.076281937882014,-0.981188149962167,-0.119765239741179,0.0781117954033812,-1.16382798677308,-0.128399746273216,-0.483606662108967,-0.928899831163687,-0.0313503337134769,0.125202770884399,-0.432400645613432,0.583736110767808,0.189142401879207
78.56,-0.400386694904407,0.0543258607853794,0.859953830300472,-0.00854804343024126,-0.0848757138378333,-0.0406958684325218,-0.948620977987205,-0.0908408024151885,-0.0403084277172128,0.690039756402575,0.352443184995374,0.0706742406784938,-1.01389765057114,-0.11660569994864,0.0591898515310617,-1.17453475435594,-0.205530465644016,-0.446257578501126,-0.956320351662351,-0.0260505417155335,0.151514605424588,-0.417330079160651,0.581470197752844,0.174566303749806
78.565,-0.409020860920636,0.0298990147352779,0.862278971265604,0.0323116307969108,-0.0834117410395219,-0.04399486465854,-0.949806655448766,-0.077548548905583,-0.0395081994186578,0.865878339042563,0.400679590316844,0.0556573078291759,-1.01932932606499,-0.113291264308336,0.0625920750023665,-1.13896305385705,-0.258390189384133,-0.414153826440798,-0.968973991193723,-0.0144918666807816,0.170481580030169,-0.417792161368944,0.551037489988699,0.159299801743667
78.57,-0.418588507233544,0.0254837876140254,0.861368620011688,0.0550292560959793,-0.0818998049806813,-0.0446416973012129,-0.953801059376006,-0.0403310290720413,-0.0463153367710705,0.950813894823662,0.438030068923195,0.0462554766060189,-1.02321121294862,-0.0916291511399075,0.0604319331303351,-1.110847233959,-0.311391704499634,-0.390196598102186,-0.989370792746263,-0.00014894966179303,0.178337154083087,-0.428781581396465,0.497916798728282,0.140524918002435
78.575,-0.426399410803544,0.0461705877689214,0.854779817337093,0.0703193161100333,-0.0696677560369641,-0.0174605505874519,-0.961106726698175,0.00551505832001692,-0.0341959377461391,0.974112319366198,0.493534876965295,0.0281346670358605,-1.01940986502324,-0.0789064718424394,0.0638482824992131,-1.0792525490551,-0.363368687600237,-0.408094486624723,-0.997249011568256,0.0120813288815056,0.180645634991008,-0.453334377195275,0.425961915807587,0.130738291522203
78.58,-0.414896498765568,0.0477616554955655,0.86517199392424,0.0713851844588855,-0.0709917803603899,-0.00555819125563174,-0.973313376836269,0.0422528003356408,-0.0375125623355742,0.902507678139122,0.528321904181063,0.0231446314256568,-1.01579500793422,-0.0725153871562115,0.0764116223928602,-1.03581675011582,-0.394260915410509,-0.483027215894504,-1.00357505892,0.0271890074314032,0.174701429164299,-0.487180268425392,0.331467115323409,0.110633305149665
78.585,-0.390706208175798,0.0494366338365857,0.858967168948156,0.0586317441244289,-0.0663928503416485,-0.00595663879191069,-0.980789814388864,0.0718026349715139,-0.0325607444697912,0.784417980190241,0.542392543659808,0.0169041158782053,-1.01848925807794,-0.0767428203645715,0.099078953572768,-0.942395011940251,-0.418177466660985,-0.608596480638494,-1.00310945380224,0.0456549785724938,0.157929221787698,-0.519107321084878,0.277530015140871,0.0984430151656034
78.59,-0.378817764683621,0.0533363481253102,0.860043446671167,0.0482739377557954,-0.0713122649557826,-0.0208878801904958,-0.982251319943681,0.0879211026906162,-0.027746834956088,0.621371430957543,0.554367478865471,0.00802992984143966,-1.03043414150339,-0.0903830450297292,0.12792349143808,-0.840815267475509,-0.408462623219307,-0.710139693150288,-0.998456441056593,0.0618698933932154,0.14298716287702,-0.562121883095943,0.229281817335644,0.0781964980771497
78.595,-0.364832357389781,0.0452838325547982,0.868278064724937,0.025559813580992,-0.0855901830761239,-0.0246883301225163,-0.990864568380988,0.096751931219734,-0.0208589539787913,0.400707455249845,0.572344848504524,-0.000382521312562295,-1.03858231442823,-0.0979217530253056,0.153858144859849,-0.759215942183581,-0.391688195655606,-0.760693461803096,-0.997583572282774,0.0745670424446523,0.132857708419444,-0.587360049280153,0.207653463585861,0.0606360348755248
78.6,-0.343140212352205,0.0626412506756428,0.868153803035693,0.00464593389394892,-0.0851150385943941,-0.0321374945221258,-0.984615007146301,0.0957409177638785,0.00531771162177997,0.19699165801771,0.571800570136749,-0.00734259966582609,-1.05490206844622,-0.115142804525044,0.185637374811643,-0.705000614036105,-0.382041066884995,-0.793728127944232,-0.995366056267162,0.0761961001172521,0.115064927123947,-0.616760369268778,0.194719272149266,0.0357059987116334
78.605,-0.358385727194712,0.0693333444107234,0.872573726746718,-0.0163736396546402,-0.0986756567890862,-0.0462381926695386,-0.983810621208841,0.0779869431188912,-0.00555611426081097,-0.0380335709900168,0.571336190432354,-0.0179577847737877,-1.04793699893636,-0.134462056809232,0.230862317010862,-0.728409148693875,-0.378015311490955,-0.785635950099887,-0.994328487075186,0.081163178882136,0.104544645640143,-0.634046991157592,0.191027009639054,0.0195259045785287
78.61,-0.381292472072783,0.0518052728800391,0.868646813883949,-0.0507208972461909,-0.101735243475631,-0.0602497422428692,-0.980327970961794,0.0638611244065957,-0.0434636006221001,-0.176646939247016,0.561079081675976,-0.0363077019071149,-1.03575818144267,-0.166530335891448,0.291026422460468,-0.44619293878244,-0.345232635132073,-0.749576300502155,-0.995197477136748,0.0789768011910039,0.098101675751512,-0.639875769615173,0.199515168144783,0.00755262005481632
78.615,-0.379344876042856,0.0536875387298604,0.862172402231161,-0.0773167364271443,-0.10333025082687,-0.0685614049382899,-0.967410745654121,0.0528386560221117,-0.0687224209014732,-0.260531097289158,0.57437911684605,-0.0628824120894944,-1.03389418357718,-0.189606336931578,0.339635242105092,-0.336211796781428,-0.256344897658508,-0.704217060067047,-1.00107523705823,0.0779607124471028,0.0962715906100222,-0.637639087919368,0.206473452495938,0.00254099246307808
78.62,-0.374652146433061,0.0790585004855337,0.862407036065166,-0.097777553736745,-0.112492613901548,-0.0658704383818097,-0.957388918132886,0.0481232601216488,-0.0746097399983958,-0.29482405153568,0.582507934758276,-0.0928308934407026,-1.02092302921943,-0.212162524349201,0.374596775035466,-0.221271856217662,-0.184959028748576,-0.672755419034513,-1.01259289304263,0.0655015377388956,0.0862538071539417,-0.602637161373192,0.203423932893693,0.0113889632945379
78.625,-0.395520208351709,0.0840483655711452,0.855641054487624,-0.124419569624098,-0.120998584542956,-0.0748048422995367,-0.947555210046513,0.0318637456326753,-0.0996626847274792,-0.317240753674444,0.586537141877132,-0.105747572712639,-1.00356164644787,-0.24497604690452,0.405871328602026,-0.0873225231002723,-0.0732523089214344,-0.668713927268982,-1.02511586644612,0.0674554665947012,0.0862975241440222,-0.568505515561838,0.198990617616204,0.021883623525829
78.63,-0.419465035756183,0.0708451744374875,0.849876852168601,-0.148698306915433,-0.130815549615518,-0.0848029686860683,-0.957432134388676,0.0362280581304196,-0.157257324947931,-0.305497487505888,0.590444713929493,-0.119778466325237,-0.97740662296391,-0.276712879035954,0.421536699140646,0.0360538545610225,0.0255500593935126,-0.658870750459073,-1.03950830464648,0.0637072383031782,0.0853112726192203,-0.514178388856252,0.182091551816879,0.0441175092090297
78.635,-0.426136900028642,0.066002863616638,0.84749352805398,-0.151553044042198,-0.122246433817601,-0.0882234395396007,-0.963009355907821,0.0494483570636512,-0.175875630585351,-0.251541823748304,0.614579016757992,-0.148449785662052,-0.941843835547806,-0.310148869719012,0.425633701103641,0.195918632517555,0.132757899326667,-0.632628046121056,-1.05907901622861,0.0603768065244883,0.0785643133164197,-0.451420271489281,0.154092911157365,0.07223254306898
78.64,-0.425054146962151,0.054315250451303,0.861686319875576,-0.151016481296947,-0.131813019666533,-0.086642950849464,-0.964876388177287,0.0485487638238312,-0.182713578540303,-0.175499372998587,0.632564580852578,-0.159657135605812,-0.911409224648457,-0.326835732914794,0.421275569608938,0.348381135520156,0.200854471191228,-0.590145045296916,-1.0605221233308,0.0553476371150464,0.0740539692698929,-0.415103342078245,0.135475621508865,0.0962916483769237
78.645,-0.418298739455826,0.0401246011907705,0.860864869061609,-0.141325270182775,-0.12843265472266,-0.0824696893626414,-0.957851525883255,0.0192051882094724,-0.184325248456197,-0.137835026931225,0.635559916496277,-0.160734369905105,-0.886103461323829,-0.335802071074656,0.406731298029881,0.523909279926657,0.270112749580255,-0.518282419751863,-1.0711623352034,0.0464760071357973,0.0770830726157258,-0.34717693816157,0.0989155180002638,0.133792963051738
78.65,-0.419504361562827,0.0408475790886606,0.864884569691712,-0.125067775791161,-0.115344743619904,-0.0746309113395974,-0.956505910920266,-0.00717686061918062,-0.181624114142228,-0.0946213656645595,0.644883800346713,-0.162100538611412,-0.87068074735376,-0.335124285226509,0.385971080202065,0.720619389789008,0.33830725912392,-0.435322777803792,-1.07789053993841,0.0293193002160876,0.0753279158032606,-0.29653960519504,0.0630459185033221,0.173782959968579
78.655,-0.418735871235895,0.0550107515812285,0.868134875465332,-0.104838723016965,-0.114177942960104,-0.0805493116870821,-0.974235066525785,-0.0184594639106583,-0.182443786956738,-0.0461342371192787,0.664959079668473,-0.172360855181865,-0.870068333434699,-0.31849020846816,0.364308000717903,0.889974441622307,0.392593633666322,-0.360115494731535,-1.09058627317217,0.015515540264489,0.0713691789520178,-0.248667514841186,0.0294076389923431,0.208796418639112
78.66,-0.423861611925407,0.0425071431719514,0.868059937046094,-0.118511526079165,-0.0853561076327048,-0.076860122854225,-0.975222123618597,-0.0149392511629976,-0.170404458325012,-0.00746454672948509,0.676631163126612,-0.180134855161245,-0.889472645522704,-0.283142742023216,0.321582733266055,1.08033878311616,0.476484530925365,-0.25505703791724,-1.090816932481,0.00296701998470835,0.0785214103830256,-0.208929460182437,-0.0177480450950149,0.240793861977536
78.665,-0.426836948372006,0.0145007363351886,0.868655463394481,-0.118430412155508,-0.0672701098562339,-0.0858576933226329,-0.971299968144767,-0.0306292962368967,-0.161724760270016,0.0211710555178959,0.701310560670756,-0.181950094639191,-0.913051544144766,-0.25436782338291,0.279248978503779,1.2240891001329,0.548640594713525,-0.180914735625717,-1.09552759787952,-0.0154156364200248,0.0801189672439152,-0.164234962821912,-0.0702033874685637,0.265748690605395
78.67,-0.428567115789351,-0.00613864618438296,0.87031516771723,-0.107262613820257,-0.0507792930268687,-0.0923725715795167,-0.96026277525081,-0.0533734455592646,-0.14816551696877,0.0211440411565922,0.724859748676952,-0.179204255342484,-0.938717498316929,-0.221169490637768,0.235836731696343,1.37837919721391,0.642092244295001,-0.105653726975944,-1.09492515439223,-0.0374142158148088,0.0883953501372861,-0.113493937049711,-0.124365432654751,0.278703619324387
78.675,-0.421271071159634,-0.00838649008467769,0.873499980884491,-0.0934769650187523,-0.0332756520881984,-0.0908477908477439,-0.948071193752603,-0.0710653745303704,-0.135065015372265,0.00168160642463502,0.751557384519586,-0.182642531230906,-0.973267880574473,-0.176870994017491,0.173513579325223,1.51412203530757,0.745006338887757,-0.0454768702125896,-1.09447221764064,-0.060293818588465,0.0981736574940717,-0.074191336594736,-0.188346331347842,0.283111367517502
78.68,-0.396952863450253,-0.000410147604071157,0.878296792695733,-0.0737001698615123,-0.012915479800472,-0.0727472582953899,-0.951426116557339,-0.0760447581620292,-0.113907045529712,-0.00536611620121413,0.783128600173989,-0.184091031551361,-1.00326397697221,-0.141285452286648,0.117245520801792,1.59451341477933,0.829675250724331,0.0195195095343637,-1.07965355757493,-0.0818308333919174,0.11643617384364,-0.0209332948940164,-0.261367473916701,0.274286240348337
78.685,-0.365916709975125,0.0255244944960937,0.884636179043529,-0.0565755506254774,0.00563301982078976,-0.0666007417703696,-0.972117696501458,-0.069797808973744,-0.0903590027833545,-0.00822982655013259,0.820756481968761,-0.191589016108892,-1.02697101766772,-0.109682010254304,0.0599329330386702,1.66718015487798,0.909068749520307,0.0958106855707733,-1.06974610150409,-0.101786914065157,0.133397576770349,0.0163736196123167,-0.317046908108917,0.25060734784378
78.69,-0.353061779802842,0.0445131789169248,0.884966516679951,-0.0440886165357291,0.0344876039670498,-0.0647528539347795,-0.994372067581042,-0.0392694284584304,-0.0723740831500302,0.00617068695508954,0.861175499653876,-0.20535761941131,-1.04144832403965,-0.0798655456347408,0.00121452226923359,1.67642915578043,0.985275916428358,0.168361300524617,-1.04802471089028,-0.128174951370635,0.157834058271763,0.0617979826425482,-0.385971665012662,0.211899110438904
78.695,-0.342274247849962,0.0466210484616897,0.895842463970457,-0.0554595982797496,0.107210281588538,-0.0593066773631791,-1.02297637691531,-0.00790572695283704,-0.0759541335234458,0.049652919302851,0.902397028015059,-0.221133971266688,-1.06583858339656,-0.0655706361222881,-0.0516558414377238,1.68125207303844,1.02785065904005,0.225750290334806,-1.02424374839558,-0.143898040177794,0.184480282126829,0.101409978099207,-0.438125141197373,0.15018542384679
78.7,-0.346090133943093,0.0561815553907588,0.893678816014409,-0.0320267409486227,0.139782494747566,-0.0727189369787797,-1.05393457069044,0.0335964289438858,-0.0817582420650383,0.0878134805657884,0.939061595265602,-0.248069174859252,-1.09796199205268,-0.0430655402985624,-0.0928370369684019,1.60905392076776,1.05488843822122,0.294837072399131,-0.998932867204176,-0.154888590358789,0.211340181863508,0.12867717980159,-0.468273168906499,0.0858587728528368
78.705,-0.354350295109892,0.0725527676461212,0.891035003521634,-0.0227491518120758,0.204543573958866,-0.0677241417605353,-1.07572563531108,0.0559557201315947,-0.0945259903944,0.118186472724957,0.979837722429838,-0.281045842171396,-1.11944840346355,-0.0295597599533604,-0.11621523994198,1.51356413269314,1.06051113243944,0.324150648563417,-0.988857663383558,-0.169629331299554,0.231831814034694,0.15613780826145,-0.469451955676082,0.0030681779997654
78.71,-0.360648242093212,0.0738178804716512,0.896077891247061,-0.00828050383772965,0.269333256413268,-0.0697315351577758,-1.09865858357782,0.0654327906455123,-0.116217502929474,0.151622613028126,1.01506489432908,-0.319648088050077,-1.14360220163468,-0.0238883125687627,-0.145521657078316,1.34871648676102,1.04624679075318,0.343163302841936,-0.986783718785619,-0.177455233667018,0.243511721190242,0.184597118860594,-0.459476761450687,-0.0848764502724562
78.715,-0.36008105612254,0.0722046015549701,0.899719562368135,0.0160087559527903,0.32318520642624,-0.0735603597132054,-1.12940519086513,0.056313726899356,-0.135647306865351,0.174353077124423,1.05043740402579,-0.36151097712022,-1.16587579392284,-0.0266045323352503,-0.164056494435563,1.19011028865749,1.01671353854831,0.35217359161449,-0.991774524184437,-0.185307236265677,0.24479940915221,0.214554907844011,-0.416222114910302,-0.191129105386453
78.72,-0.360096542255108,0.0715659876286786,0.9037106991799,0.0477785427749866,0.410256191717901,-0.069765388126359,-1.15237924676278,0.0348854448210927,-0.152787264266415,0.189002745292827,1.06306767412324,-0.391006262903719,-1.17768147787095,-0.0346191014979088,-0.179164495062666,1.0184093415959,0.960962190029252,0.375792798492656,-1.00957364283263,-0.197782122187696,0.231180830893023,0.251645596683744,-0.363112897940232,-0.303221342601576
78.725,-0.364985070492801,0.0520372914148901,0.926486571970146,0.0798231603926454,0.493260777249636,-0.0693441270908768,-1.17710886760246,0.00181192350064906,-0.160211849350563,0.194273537527271,1.06762999944305,-0.400567422227466,-1.18656563780797,-0.0490230517632191,-0.18765310753168,0.817813284145898,0.863875265574229,0.41469791586717,-1.03561203196818,-0.215066272718796,0.199280751512795,0.29813809718511,-0.29642907407383,-0.415947890360483
78.73,-0.356230319029442,0.0536157287248275,0.941277212557844,0.127157329116736,0.598876504736463,-0.0665712562746648,-1.22444761552596,-0.044804632984054,-0.164329741400356,0.20739670257561,1.03338632091138,-0.403996050357819,-1.19424168115724,-0.0646164750722205,-0.177470135061644,0.653115696282219,0.773503490244687,0.457624505814481,-1.07253853496726,-0.233470200536358,0.156082604440702,0.354154461816029,-0.219511108385934,-0.527131573117141
78.735,-0.364025980452553,0.0827015271748778,0.943200564713989,0.172012914721131,0.750824033722914,-0.0522875736445005,-1.25400356099302,-0.0808003649126694,-0.162033543607571,0.188839174836491,1.02636563344296,-0.405149485808105,-1.21292368428462,-0.0984672343759588,-0.181212397267579,0.463068356350688,0.655600287595322,0.514044224780406,-1.11370308838847,-0.248344299133913,0.107345944508737,0.437509508882819,-0.125059706968976,-0.645406957935187
78.74,-0.395548029444981,0.0893842020872342,0.942317301968773,0.214279090173471,0.877596102727433,-0.0408031672896149,-1.28944385273941,-0.115061879583681,-0.166707167239105,0.126427742039804,1.0496965440611,-0.392577638360228,-1.23258109115513,-0.113674114345247,-0.177577742622957,0.317160344490078,0.610794415440398,0.546561009411572,-1.15913961150276,-0.253746050094534,0.0388117098296613,0.488783967819702,-0.0567153039350131,-0.708890807085307
78.745,-0.427326968000041,0.0734221267165309,0.949597870905914,0.260986584473437,1.0167689461813,-0.0276521057319288,-1.32512431537541,-0.148859522654099,-0.172545217430405,0.060950556227216,1.0522033124641,-0.377435585540365,-1.27609226458234,-0.139591795054528,-0.205438190549131,0.154878744090982,0.565816087611423,0.568038787146957,-1.20963341273702,-0.247507462750572,-0.0533175250882302,0.599774726901628,0.0496422659543328,-0.784829869264074
78.75,-0.467316476786917,0.0390486202100054,0.961529105184281,0.326960943330781,1.14071044787858,-0.0304876336255943,-1.33729733391437,-0.163928284193417,-0.165493228651947,0.029047490347247,1.01568059198301,-0.376374168991935,-1.32662978393509,-0.158202452312472,-0.24036820253234,0.00761101858792428,0.539368282786914,0.572922980792547,-1.24098863680631,-0.224242908107919,-0.144535068649527,0.714747139889211,0.137764146102566,-0.822043889315614
78.755,-0.458748237650503,0.0285322943462241,0.977266447542842,0.357990825585799,1.23867090682753,-0.0379142816930082,-1.32618555876885,-0.176363919411013,-0.158456095132842,0.0159871602389432,0.984330651542281,-0.369270584475883,-1.37601154957362,-0.173734001399239,-0.295244652093105,-0.1703464090652,0.490361274198545,0.573624440208406,-1.24717894583111,-0.216372105520977,-0.202000948291787,0.795927996172397,0.179892123787095,-0.841699086778717
78.76,-0.446834239949504,0.0292723590024578,0.974625948061417,0.336050329704857,1.31868785909774,-0.0441201312357171,-1.28536681658173,-0.184214806009206,-0.150474448811538,0.0298017573418693,0.992323147371879,-0.363992645113945,-1.40640186774764,-0.188020924011629,-0.351226515234534,-0.462449379714818,0.363594193612989,0.588613429195962,-1.24057682322867,-0.201123095648593,-0.25577849122092,0.893101418338185,0.186284554039176,-0.825800248811663
78.765,-0.465958949005508,-0.00109512766364494,0.960587763132479,0.302156385510967,1.39137302432911,-0.0403827716273038,-1.23669182763586,-0.186563454473567,-0.169552658485764,0.0190216269375969,1.03414802019507,-0.353061901150023,-1.41602055258877,-0.209292872525634,-0.38658106090253,-0.609234123764359,0.225962798372406,0.602392002978264,-1.20508032567531,-0.21133047553721,-0.268855047589463,0.95544877942341,0.140273367006234,-0.788901858304445
78.77,-0.48164787802461,-0.0450503733073077,0.967720726217885,0.301857757667457,1.4761150108814,-0.0387381891985875,-1.18746888111164,-0.179835406129266,-0.184983424268598,-0.0097640900279582,1.08435553815262,-0.345807392260165,-1.39594498385116,-0.230670490446304,-0.4096244561334,-0.813619368864835,-0.0239702759993414,0.641218594197041,-1.17181877553496,-0.233588653783631,-0.264204171111826,0.974359469224473,0.077421506642274,-0.735661145088814
78.775,-0.472827369076528,0.0206283516202545,1.02763511607411,0.390574172742656,1.59495007584424,-0.0289826095203126,-1.13709219574656,-0.140578060246518,-0.195482388507066,-0.0305309055036939,1.15397009445143,-0.360423407274392,-1.3582938570702,-0.24178986940569,-0.404971782040687,-0.998441346683921,-0.209472414625954,0.696021033492001,-1.11581155541238,-0.271394411497543,-0.212914425557545,0.943866701880805,-0.0131738347728727,-0.670955602463226
78.78,-0.446486704855901,0.02402397045352,1.05142702161209,0.396344713138647,1.66211430638634,-0.00303609067356851,-1.11499954589577,-0.100553919083935,-0.190990396083458,-0.0361296595589124,1.2385857288057,-0.387214907824121,-1.30505018682395,-0.251824119298054,-0.35828544531784,-1.18613573594902,-0.468022890825584,0.73602449581752,-1.07827588244553,-0.302585623342278,-0.172686941491377,0.859921364293292,-0.076385479802108,-0.59668231193872
78.785,-0.469166481488608,0.0169164117854518,1.07686140163804,0.390128804699176,1.72347937570481,-0.0611479554915642,-1.10967116867343,-0.0581334608423994,-0.205285258207454,-0.0273290145874405,1.27966705456633,-0.394751321329521,-1.27204929365193,-0.245322102542521,-0.328620420623268,-1.29522311449592,-0.660565422652653,0.679236363298654,-1.03449329751412,-0.335296376387225,-0.115865491321902,0.744085862890899,-0.129466983030538,-0.510438980657931
78.79,-0.522528690687334,0.0267032205855978,1.12102484702613,0.431922715065598,1.77716085085061,-0.15917174821367,-1.10689904400141,-0.0167365818304691,-0.258372788286673,0.0271798956201398,1.3128936384663,-0.393772336214612,-1.26361789682493,-0.202531267406439,-0.301498191103259,-1.31391819992466,-0.862367992750304,0.527948497074217,-1.00608760066037,-0.349066536103355,-0.07472505896007,0.647110702166753,-0.135629167399435,-0.44368485669621
78.795,-0.541340826948831,0.0369011284732436,1.14691609866679,0.547032062643028,1.77351717309653,-0.236994789414691,-1.10682795838638,0.0191131982939036,-0.29284070929313,0.0651378858192215,1.34619766705859,-0.388420691452312,-1.27135253627967,-0.151681345582464,-0.282394164834501,-1.19320417266485,-1.01048232229986,0.361353500131869,-0.981698963356341,-0.349293863185227,-0.0405238870438423,0.536351470600014,-0.102811586994265,-0.357381429456167
78.8,-0.547451320556856,0.0716010242103861,1.14294016716648,0.794874910516633,1.8493588107451,-0.327646883591785,-1.10217317650775,0.0173719482223254,-0.312542221644389,0.0463644999828114,1.35979711685974,-0.368733523680061,-1.28184939103897,-0.124792150618391,-0.254438755064348,-0.922512037622125,-1.07293887673251,0.210761405386506,-0.96815102269776,-0.325936663854008,-0.0248607720623935,0.459851776392837,-0.099164812465657,-0.324576835886091
78.805,-0.566777052431558,0.152984996000496,1.00102390975101,0.791804233326463,1.92219453061646,-0.375114952202667,-1.10139089604487,0.0319045701766664,-0.296731805151511,0.0492641765024114,1.36521947120324,-0.353981033086743,-1.30433945907894,-0.10048779165526,-0.237175459469455,-0.569612116059516,-1.10540911554033,0.0334188755956523,-0.950196141011231,-0.291803042238678,-0.00163383323403198,0.345903342581071,-0.0697304547629157,-0.271226674548328
78.81,-0.562268215483527,0.228324337761714,1.02049229180845,0.816369476772134,1.93573098944931,-0.400702933209998,-1.12523019570605,0.0383025191604652,-0.294209001138686,0.0704016485699461,1.38195122915916,-0.353739586603402,-1.31145952100019,-0.0972319909785512,-0.203526945024831,-0.434106642862146,-1.12409228270194,-0.0465827410786614,-0.928749130578467,-0.248651797566067,0.0250383685629631,0.238333066249681,-0.0489613353074787,-0.238200164584196
78.815,-0.54362979565535,0.202114434695518,1.18084539263515,0.896496435645541,1.79832791307109,-0.45131970967943,-1.1277805470625,0.0203442344201093,-0.311038021271277,0.0407845706155372,1.40863757619376,-0.34716707534374,-1.20287200473982,-0.211468517524848,-0.148027951879461,-0.365770578335432,-1.16461373664078,0.00311135550214457,-0.90922140538262,-0.20270558853661,0.0555039567004721,0.142007148281786,-0.0268143833292722,-0.218727046154661
78.82,-0.516591312557101,0.112099533859252,1.22208908184237,0.844559123609259,1.49164201940858,-0.528207003595374,-1.08126141011578,0.0276317382369243,-0.289433335365063,0.00617466096528467,1.39778375926301,-0.354944522943078,-1.06538842717075,-0.345414438586468,-0.115202155032656,-0.168340523272084,-1.16828196418288,0.0821465987865564,-0.899462269545753,-0.162035138114283,0.0708912945294703,0.0778243094171762,-0.00313973184088631,-0.21682806253177
78.825,-0.505373626515528,0.0669484417957633,1.09218010222117,0.626478805519872,1.13510635215221,-0.642111864048784,-0.983885191214872,0.023479724126893,-0.326771662215146,-0.102631864519444,1.37565866658494,-0.393234406126265,-0.838029373751727,-0.602139505699567,-0.0526630151915778,0.414354427932108,-1.11282864152351,0.0609320417826726,-0.889656397592322,-0.121158388438507,0.0885283814683032,0.0344470870118547,0.0274029513984661,-0.226002685110069
78.83,-0.467135338268777,0.120186315114839,1.02830056744397,0.51383577937406,0.891211140968789,-0.692952890053378,-0.917660297093385,0.0224854692565382,-0.33181080852474,-0.137667053303993,1.32749348374123,-0.407635592642799,-0.717213383769363,-0.756931669031764,-0.0174616697026982,0.968336092528089,-0.998962090089835,-0.0817649352757727,-0.89425319713163,-0.102655957996131,0.102072610158899,0.0332583091152023,0.0669447901904441,-0.233911060860353
78.835,-0.415681158050054,0.226010516713923,1.13243852299195,0.579215401263995,0.758946992390572,-0.63121312352479,-0.854494669235166,0.0322587911299725,-0.319653967424957,-0.166689670865816,1.26060499757567,-0.41369843481036,-0.651236114257645,-0.849597939655132,0.000323295369596072,1.35339126656054,-0.872421034393018,-0.233230164442156,-0.910447581686448,-0.0930478113519718,0.119752288309773,0.0557695128597883,0.111482467222634,-0.231623917384474
78.84,-0.424816826167007,0.40740899294194,1.4543557110164,0.540119259640066,0.447062771263927,-0.487459388288392,-0.854885709364192,-0.0109640533174065,-0.286758955428754,-0.195225072961392,1.14745651823387,-0.416549294151838,-0.592111643078593,-0.941061032338517,0.000398481008544179,1.77891079692528,-0.732113886766995,-0.283567543425675,-0.918459945375579,-0.0855337082985941,0.119228036674018,0.10577947717727,0.145513234807169,-0.224226963087824
78.845,-0.303609266103865,0.564477553020705,1.74927192855306,0.333631264086325,0.0503348385347089,-0.324543566419376,-0.875072180965652,-0.0143287203077562,-0.140507292495673,-0.212973652318805,0.990769956565653,-0.310364822740383,-0.510386145620843,-1.04224418772307,0.0349570921053699,1.97044984213617,-0.664736374774143,-0.225983447619766,-0.919688799526482,-0.0847696874945529,0.130315289212825,0.179961439034999,0.16700798690823,-0.206986592271948
78.85,-0.107460356376791,0.713841252486806,1.75207749267677,-0.0418394340340474,-0.483521325017334,-0.214847893900044,-0.865272343833503,0.000433606995661309,-0.0200979384705984,-0.310909261315096,0.777832857134054,-0.251337957160482,-0.462818430275491,-1.11188631762279,0.0751871214652182,2.13041354004554,-0.650344893977939,-0.147218338480073,-0.912827471553716,-0.0863498972651657,0.127934697255899,0.245793089431546,0.155997223514192,-0.180644515885117
78.855,0.213031146720819,0.787833573132546,1.24288726759799,-0.714503799713719,-1.12594111326534,-0.126079142839955,-0.848477578278387,-0.0126216567962261,0.0579428634607705,-0.374605871950206,0.574069647749568,-0.194235003410394,-0.457415689986701,-1.16846368460175,0.187731232342262,2.06782074076564,-0.616317438603488,-0.00725535566788329,-0.911100431714801,-0.0889705600615813,0.125599675710741,0.277707748224877,0.147696062305513,-0.16088120944666
78.86,0.50627587718225,0.611619281210645,0.888504705582357,-1.09262550046986,-1.33495200416876,-0.0659790294884729,-0.883196943889145,0.00508322288984009,0.153468707846642,-0.335313028110556,0.408772821356242,-0.177446440123104,-0.460423960891105,-1.14829954378485,0.263595536978565,1.86527624783283,-0.57794950766169,0.144622291804905,-0.88512915607788,-0.102682728611007,0.128157297403243,0.317940481532491,0.111174686859695,-0.129700571744436
78.865,0.635519590750959,0.285855187612776,0.933662004720183,-1.13368966272277,-1.28269803899425,-0.0631655654667016,-0.883934498178931,0.00907772010981576,0.197164739790952,-0.352555687494544,0.184722227357849,-0.118201028139554,-0.453720521520689,-1.06674683035716,0.311214710370388,1.55539928868299,-0.555175664782849,0.214719034212809,-0.87990549350972,-0.121286772968908,0.123402310329397,0.331655672592555,0.081288214411069,-0.100844997834935
78.87,0.719797991779059,-0.0238399371704262,1.07465548588466,-1.03519060669989,-1.33409555077776,-0.13320820367563,-0.837116003680981,-0.00582411399215071,0.216711208041493,-0.422011818314227,-0.0101178678854518,-0.0470048689178759,-0.452200870142037,-0.925659280012627,0.32757244705339,1.28038211489851,-0.542080440415266,0.213742763724291,-0.870397218423513,-0.141397221082388,0.11854181563343,0.328979647712423,0.0450496693477098,-0.058331870752027
78.875,0.809464617984582,-0.166182483379863,1.08634525343269,-0.866569902171497,-1.52313536235799,-0.209189896316466,-0.74874312240451,0.0279578935030423,0.204035649469833,-0.519340915121226,-0.210945862013502,0.0160798483883723,-0.463548966350426,-0.780559633283139,0.325769468486399,1.06773211909997,-0.538594697407532,0.200440990740149,-0.867118508208032,-0.158589105006137,0.11376129430039,0.314128418789328,0.0120637406891215,-0.0250975268869555
78.88,0.773290319216579,-0.0476004991916862,1.09488743214003,-0.524450652739683,-1.66383569184021,-0.158520975262054,-0.726947843594602,-0.0682358950652125,0.162946441382985,-0.640630751751,-0.447592123485958,0.0378088342386902,-0.486193068137074,-0.660156221980613,0.303652122067029,0.78845059899055,-0.501937444503998,0.228071555866423,-0.868430694959671,-0.172324008386371,0.0999468316624062,0.294149273398612,-0.00014468398632586,0.00768895064156011
78.885,0.656547049856862,0.140596734687264,1.18111436983507,-0.285710010294511,-1.80362740292465,-0.112396110476366,-0.631323532289791,0.0303608041606038,0.157601427477157,-0.588232911044456,-0.727574265519719,0.0444360457833888,-0.469038093818246,-0.615454535110469,0.288123570819291,0.622874798664513,-0.448852070676871,0.265868739109894,-0.863094908112985,-0.192706105666757,0.0982409712370634,0.26466272905061,-0.00274627650321263,0.0366772584148521
78.89,0.592085175595109,0.238310052154559,1.2257327397069,-0.300413771867132,-2.06890309539797,-0.146079993135506,-0.63796303832528,-0.00750642790518287,0.165342134379602,-0.498504248167638,-0.950925843922109,0.0322736767818424,-0.432471520459135,-0.579423219199267,0.269569403055873,0.515889864582261,-0.36345085162921,0.309995797032364,-0.866352304562917,-0.213717695518571,0.0987818806120025,0.232126280094048,-0.00202281773090363,0.0692976939976906
78.895,0.61921526347247,0.193753628519628,1.13299217151568,-0.533226479403593,-2.47271617032041,-0.28588805338864,-0.543619199661051,-0.0219080005112816,0.163743323247768,-0.376073937078059,-1.24866917786172,-0.0359470306325816,-0.389580056843838,-0.545669214080313,0.243425233773468,0.46522362324205,-0.212156401032372,0.338037161786424,-0.872681950614889,-0.226240895199511,0.102706740316566,0.208253338197933,0.00583148412981599,0.0924628459032172
78.9,0.618560719649621,0.10543990399451,1.00416595810371,-0.599671834748859,-2.6690818586216,-0.369505799111458,-0.482565593608446,-0.0233155488276025,0.15501893371912,-0.359755328451915,-1.47921667288999,-0.0994290655234372,-0.372694647401185,-0.513127930970197,0.210458623906332,0.454192910014201,-0.0608390737550774,0.293629004834861,-0.882348224102533,-0.249839342485537,0.0986001939981203,0.189728158423873,0.0105524755350843,0.116996834541803
78.905,0.56859839310107,0.0581619023639359,0.917098076030054,-0.479433027954033,-2.76846282188899,-0.397180568063591,-0.506143989679193,-0.0212732059631505,0.117761328783299,-0.303752026855911,-1.7214239279151,-0.127392432174545,-0.391621713151582,-0.477423582322004,0.155991735615127,0.45099613749088,0.113256334250823,0.18281522993615,-0.894557016439222,-0.252711762777279,0.0992282778442346,0.17007528728294,0.0241452251764041,0.131741295644333
78.91,0.452204105625799,0.101771694222891,0.884568587183805,-0.231589256072896,-2.80971214117783,-0.364600687692692,-0.573878869785439,-0.0339265897902249,0.0552632540331503,-0.242372655639878,-1.95589909066664,-0.129875760784262,-0.437104316133975,-0.449151839975231,0.0905285562196288,0.482102552808741,0.298839376323186,0.0138166958812219,-0.906278490309579,-0.256609380482451,0.0957862909415201,0.158319705927502,0.0353556959834898,0.138566640665849
78.915,0.297489459599632,0.202521400440937,0.888128910749988,-0.0354289378356654,-2.83435537434566,-0.309426338477286,-0.651117776286791,-0.0590132674852021,-0.0012948550307883,-0.18200891124267,-2.13540833059349,-0.133704679506222,-0.490512701274916,-0.435334220474507,0.0355447429993297,0.532744661320435,0.441146362880566,-0.140842939489993,-0.916939905349427,-0.26711889103177,0.0881283541372557,0.145662800568323,0.0593040940350828,0.142505615873351
78.92,0.0859004729656079,0.341442578325235,0.888485790025007,0.0826191206164921,-2.90338470277428,-0.241465960989743,-0.720535547126622,-0.0645970176122042,-0.0732314531612642,-0.117690003270829,-2.24345666455002,-0.141098679424239,-0.568921383847657,-0.432315162484923,-0.0216905325120517,0.634568593161784,0.563750260137721,-0.303975317032078,-0.923103933635288,-0.272245785399752,0.0834856416737571,0.145875824836401,0.0912103607902265,0.143341481683178
78.925,-0.0478912183783235,0.415791470947315,0.846165537268525,0.100175283849239,-2.94543212591826,-0.174676132891616,-0.788358202675943,-0.0519230901541937,-0.123002520360415,-0.0493025647224475,-2.27380742108223,-0.143867160832594,-0.629414092820714,-0.423889241101157,-0.0376102487149567,0.746713069701276,0.641040823837783,-0.402484770975382,-0.91956706397273,-0.269297037510639,0.0705685442078002,0.150858508898633,0.117375242315285,0.136814742392809
78.93,-0.156097867382249,0.452907759010439,0.775625126736473,0.0924571370441937,-2.95535155727454,-0.0818317040591556,-0.879129956465713,-0.0356417633239747,-0.18794896497894,-0.0352709108586456,-2.54872081817787,-0.14274369394985,-0.67313840527619,-0.427822946029863,-0.0453013187078266,0.874354915210737,0.724594022260056,-0.478276815341858,-0.919914934018723,-0.267804921775607,0.0599606144584373,0.156669080257416,0.15015337141466,0.130115075908791
78.935,-0.256371095656323,0.46662179093297,0.640955393750237,0.0961832518544375,-2.86606551062938,0.0682583237485232,-0.954372741297461,-0.00845247269691555,-0.241632039278426,-0.069792026772714,-2.60135404763434,-0.108922269146803,-0.711756608090186,-0.448890312847304,-0.0569173038692064,0.9612204514625,0.80248821978904,-0.51806656170274,-0.9200243165573,-0.270269814322781,0.0518411707785749,0.16452878247657,0.179352620977231,0.123673032602771
78.94,-0.318699021158157,0.468385123181627,0.523173604427758,0.0925354444414647,-2.72322275652938,0.204422264443211,-1.01033860597758,-0.00548471296859642,-0.291377145053968,-0.14739631916891,-2.62438992343921,-0.0565791028739149,-0.742474559212541,-0.463312546513629,-0.0764072589465701,0.998906686730059,0.862668871377721,-0.533130646901184,-0.913793483188853,-0.271092660295276,0.0451363803571906,0.172213179566932,0.193910982301543,0.124189773481293
78.945,-0.376421508167296,0.474813164889477,0.417755379110734,0.0829150211813169,-2.46907093668133,0.354232288835314,-1.0501952403835,-0.00785388879133422,-0.328257800769912,-0.235218828501742,-2.6443126577307,0.0137225474780034,-0.768017521208896,-0.478737628962742,-0.110256192869587,1.02293146612816,0.903800618043739,-0.513944095705815,-0.920015829890268,-0.267526408585917,0.0350088555149557,0.189833551027467,0.203501949273931,0.124680403289303
78.95,-0.456534468938106,0.462379652446698,0.352825340315924,0.0687954576187393,-2.15449260152322,0.490377684246273,-1.07104745675708,0.00078145752523394,-0.392541202852244,-0.338458152301305,-2.63047559923888,0.0981611065573193,-0.78011876804298,-0.495909307155828,-0.151891787842861,1.03132970531426,0.906431536745838,-0.494379505550047,-0.924037054069259,-0.247418508564539,0.031458395895727,0.216832300272148,0.203237925694545,0.117134386075733
78.955,-0.548670608611158,0.405555230612973,0.358604444783119,0.0757891249730732,-1.86074554931116,0.591606488275454,-1.0822239567974,0.00755146480956958,-0.443199898903144,-0.449805179718568,-2.58699725043714,0.156770992409206,-0.779857742179746,-0.508524456345697,-0.18486754326065,1.05859021712117,0.894948279503349,-0.49141418058885,-0.925237281000905,-0.230319052714562,0.0293265898244426,0.252607660178811,0.184003906924726,0.0836010997704602
78.96,-0.708594790464567,0.274616854111413,0.414639704831016,0.13026591289839,-1.49528616356066,0.703114098876287,-1.08738357116382,0.000387441383544372,-0.507473081037247,-0.566110005956983,-2.51417920634957,0.223222674911142,-0.763333917811712,-0.503586908363578,-0.233393182417626,1.06949946965554,0.859685270357773,-0.521766078988104,-0.925044875881121,-0.227208988081437,0.0260261499095969,0.276439895265165,0.162846293711194,0.0638891723249858
78.965,-0.841532131762957,0.164939249212387,0.445738878025659,0.219334232813071,-1.24740347163834,0.785999331055381,-1.08316323482184,-0.0238288671798382,-0.583474708316411,-0.728130366863435,-2.39599676347606,0.285847463218561,-0.772756967931097,-0.461003535493871,-0.24845708760227,1.0343938294611,0.823698540371752,-0.548579968234346,-0.932872097167948,-0.222765511997697,0.0376461139674025,0.297179145166571,0.130604661667375,0.0422630101489827
78.97,-0.954054826156557,0.0877010339001044,0.423876369944252,0.314185476661446,-0.983412221609223,0.882379258329858,-1.04242948763687,-0.0920031027338355,-0.64582368347977,-0.879499965014709,-2.28557519942202,0.347476153970874,-0.791910028045471,-0.38965731069057,-0.260181551166785,0.994865752474512,0.789798077817722,-0.584245202531642,-0.937141105420757,-0.214861226661323,0.0441782694775266,0.300041259916867,0.110259157398393,0.0248952534211288
78.975,-0.998574938596361,0.0659361289384279,0.33666707162908,0.344048683336539,-0.733203400533852,0.969004884472666,-1.02289099499314,-0.0202425254570458,-0.698364497923374,-0.998023576095382,-2.17618571865153,0.348144080038745,-0.818016663985062,-0.320016714489833,-0.259006466487379,0.950003526039109,0.742687165867438,-0.648450968744868,-0.940591267488826,-0.206931111746782,0.0590583806369136,0.287366248087141,0.0899066929401552,0.0116536598004719
78.98,-0.994515018281645,0.0901224363953136,0.247190069354358,0.28181713026745,-0.486086119156974,1.01361189516673,-0.954499923831473,-0.0479476404566074,-0.681673190886342,-1.06192807765485,-2.05459666928226,0.414805750186639,-0.845640754897337,-0.262282310654779,-0.2576689834733,0.818171786211103,0.687711259195558,-0.749881638147265,-0.951480512615593,-0.209117960176843,0.0672040133485805,0.268341801154656,0.0713188304186985,0.00581902823190528
78.985,-0.970228270001136,0.0710508086560674,0.147809027265661,0.119128486588513,-0.177887481663591,1.01402036106971,-0.926362650047886,-0.0527651622078945,-0.701438876564732,-1.10418738163049,-1.9717845188562,0.386727568448726,-0.883634773207344,-0.24259535851809,-0.263390774496404,0.631129537963862,0.578855599365204,-0.925664663295583,-0.954620488689681,-0.20179946819596,0.0786073163202973,0.238107188785755,0.0482188691033991,0.0135099434739035
78.99,-0.937560643920822,-0.00391841515648577,0.0335416170805048,-0.132075514185819,0.162614397785575,0.9624723043587,-0.893794054542404,-0.057316698698905,-0.699628055307248,-1.17787813302439,-1.84638585192469,0.379793287720015,-0.90956854051649,-0.241176176360837,-0.25270144509107,0.37482575196103,0.437716199882695,-1.10689476816356,-0.963000991896922,-0.199453767127536,0.0852640179556459,0.203020060522964,0.029511345641398,0.0237098238225793
78.995,-0.891819491328809,-0.11540285549038,-0.0772996636710482,-0.332086571278101,0.494875662870559,0.877912649274012,-0.853307560128885,-0.066980880092971,-0.683689634254243,-1.15498828507103,-1.73583699656471,0.350433265391531,-0.935022189561598,-0.267650688227898,-0.230870408097404,-0.00642865855310423,0.235650018971787,-1.20678836186384,-0.970632785305412,-0.197265642040977,0.0913750550180096,0.163060224506757,0.00578943650832993,0.0400756544454521
79,-0.844777317949941,-0.224817113478237,-0.17862443395002,-0.44877834930285,1.01023780970985,0.788009130671338,-0.839678063129003,-0.0915961603132578,-0.68753254287518,-1.13054418255808,-1.63852793514481,0.314238545198465,-0.947987661247602,-0.281728551538859,-0.204980603865925,-0.323348829035706,0.0649380494281582,-1.18800197467266,-0.9678541908216,-0.197092464955377,0.0935592823956926,0.121912665353869,-0.00808025498154789,0.0691023992034706
79.005,-0.849258248531899,-0.282406396615256,-0.224210266881283,-0.446762680338564,1.496925127959,0.763848037520549,-0.805783758820042,-0.135551982802497,-0.697479143473532,-1.10895103680391,-1.51766046975964,0.303408492703124,-0.985109942234752,-0.230851992780015,-0.188146000717522,-0.648124450891205,-0.123298597911348,-1.02271481292033,-0.965813484466182,-0.192009009349666,0.102753351668333,0.0752558132125646,-0.0311967385677007,0.106423429260348
79.01,-0.896571334012326,-0.297235984713538,-0.203552232315687,-0.36101234911166,2.06590832340761,0.771701058238838,-0.8053477691746,-0.179271577240904,-0.712285073059751,-1.0338465867821,-1.42579498407066,0.288880590318244,-1.0315407611711,-0.144728585094956,-0.184122844637117,-0.893406163212949,-0.299944243401381,-0.737631653792094,-0.964499945523929,-0.19020373417126,0.107395622584854,0.0392946621251859,-0.0386372528800257,0.150074853170417
79.015,-0.985839177727575,-0.288666597870532,-0.123438492572698,-0.21274723514142,2.51593222647567,0.785837446975299,-0.789157347076873,-0.209791335841959,-0.729638317703103,-0.928274163364845,-1.32903173923034,0.278163448288476,-1.10159473567071,-0.00817000586993158,-0.198144776500974,-1.05140774923974,-0.433327490814686,-0.438112409538804,-0.968399177280017,-0.18818566274928,0.105392115394478,0.0139343381491041,-0.0432315440017222,0.199080571472997
79.02,-1.08455137669059,-0.284334193176646,-0.0231639217975453,-0.0421929005400197,2.87136085742541,0.802225974809758,-0.742516929909128,-0.220979195491432,-0.750125803246916,-0.672522939610741,-1.21263309046445,0.259157771253741,-1.14693609677852,0.138536049356551,-0.226930582651382,-1.21072320469386,-0.560877963466644,-0.120406743778293,-0.963655507406122,-0.188949006573145,0.108990916680735,-0.010717899658357,-0.0372763723149088,0.266856351020542
79.025,-1.21546479066134,-0.303684191371514,0.0436711546448323,0.102115393544203,3.19545381045206,0.828275045722553,-0.706849646008475,-0.223550472564722,-0.771497092884147,-0.45509143569724,-1.07949669972829,0.259739332293215,-1.15014229976446,0.226583951721166,-0.260489202218543,-1.36221569043584,-0.63644248868919,0.0794884423800463,-0.959809038599819,-0.193765258706842,0.107371064864117,-0.0297900972207049,-0.0288524254396275,0.328804304284812
79.03,-1.39217085004775,-0.299995055226193,0.129653647542807,0.047715125087387,3.46375570094458,0.876764378525059,-0.677256004022706,-0.206112406358465,-0.850411460403637,-0.202211653128883,-0.923019584886178,0.259305616058141,-1.13364601430064,0.354952899807811,-0.333194571789203,-1.56230043622839,-0.688297949135413,0.366568326215914,-0.954556208330522,-0.199801560977666,0.094390995192133,-0.0428252737397201,-0.0114382199086212,0.402220453108367
79.035,-1.79979724780184,-0.0941613182382697,0.5803895681321,-0.557873939439096,3.88858047799929,0.840046157686553,-0.638453016772932,-0.136017720533592,-0.999015760016598,0.236651110622149,-0.685575522356506,0.216597997060853,-1.11961651957356,0.435016221347304,-0.387927523622803,-1.63847042462747,-0.682084273863806,0.590017992905951,-0.955218803692567,-0.201108149706217,0.0897462383707675,-0.050615305704211,-0.00476896832726564,0.462942628735179
79.04,-2.29536723112542,-0.113249715423346,1.21567416385201,-1.63808771781471,3.86153328733576,0.57118409816268,-0.550713323118277,0.0446332422962779,-1.19106799968887,0.622189362881099,-0.405431137864813,0.167756989598274,-1.0622567226768,0.549677134932667,-0.435131966134458,-1.72082441807009,-0.636355227742746,1.0167422457047,-0.962850806918069,-0.203475426062774,0.0881342835801856,-0.0601537647035066,-0.00704806150013901,0.516229204189956
79.045,-3.11571051971493,-0.663779793611493,2.64838803097168,-2.30450154512836,2.37241800195045,0.0667909541047902,-0.520133113854469,0.0819804790114192,-1.25146671611703,0.825874972053668,-0.115396467339196,0.17094517606302,-0.990103284757351,0.608659818806781,-0.445460097992869,-1.88858668708471,-0.641421563936358,1.43128716317715,-0.967576745774179,-0.198980314876866,0.0885811997240623,-0.0672239127490579,-0.0197232537579234,0.568170051669781
79.05,-3.12702953101772,-1.48077810406597,3.22726526940763,-2.38032452468676,0.181547902128201,-0.285140711415374,-0.512977023190898,-0.14316391609489,-1.22630514998415,0.818460765653999,-0.100943992352279,0.253982870677287,-0.905919890283917,0.563304388791307,-0.439760463977289,-2.1866134379425,-0.716897333349273,1.6559799270497,-0.972622277169767,-0.194173259855982,0.0898372793027736,-0.0746231154503815,-0.036553424344774,0.608422800454645
79.055,-2.29622677542725,-2.22597095659383,1.85483929371132,-1.37434394888456,-1.48736624487817,-0.693270781195925,-0.657185541054496,-0.305163978704379,-1.07600911223762,0.754739361879507,-0.0834311778780241,0.414470349706649,-0.830990439191688,0.380680299969387,-0.405876228847259,-2.45410959322016,-0.820210673427379,1.59715822233927,-0.980587670633122,-0.188628078693564,0.0940062641009561,-0.074420724259636,-0.0545349492633359,0.63654354248347
79.06,-1.00652740588166,-1.51165062257607,0.575995112910057,-0.209034224962153,-1.8335618303533,-0.508611836195189,-0.781332809557853,-0.339755219864765,-0.709874336707694,0.992727159441073,0.125354833740567,0.478941574627972,-0.741941101896744,0.0539560050326207,-0.342367981674242,-2.6116627495053,-0.918123025402447,1.00639840924468,-0.98299167424609,-0.182576641569986,0.102222559672503,-0.0656269158485007,-0.0736615509792368,0.6682115810254
79.065,0.111614012969234,-0.43820118928506,0.240036210515772,0.192377355316014,-1.30940786190994,-0.228158606166038,-0.944452111379076,-0.392265450359608,-0.346623365774699,1.35436036864148,0.243762387867737,0.379283016371341,-0.667927755653164,-0.342434914192369,-0.263651632393963,-2.64993990987402,-0.950282906702042,-0.0203228245150291,-0.998867927939773,-0.173703409685594,0.12072995181935,-0.0560862357764798,-0.0889773259806211,0.694247426341549
79.07,0.523837923952692,0.106820153473433,0.565984338764894,0.0822423749622264,-0.641267323005307,-0.300121972139414,-1.13476931219928,-0.407177735095621,-0.135218962027089,1.58339896708854,0.120226040690518,0.282912727018177,-0.667964001353544,-0.678087484113682,-0.206647577592719,-2.51334495915787,-0.921522135851386,-1.0770843816507,-1.02208839360215,-0.166892700709247,0.134568118292669,-0.0475711966502988,-0.103654034806893,0.704257326496953
79.075,0.301779791969496,0.604188561274976,1.63623085504805,0.883227550593195,-0.134118915520667,-0.436691769231804,-1.43918999332637,-0.287134305790934,0.0514552117281909,1.74884766758348,-0.0106417996611115,0.278012655920373,-0.782757100348375,-0.999178568014163,-0.130472291432975,-2.33037232912463,-0.904148737356321,-2.30492464122158,-1.04164963098459,-0.167510979676134,0.151291494899159,-0.0470634666755249,-0.123380967243098,0.704414806185801
79.08,0.0513308133052346,0.804397866891062,1.66266059581934,0.837995367579412,-0.229880056200426,-0.484546115272658,-1.57984415070012,-0.110801245730339,0.185832476704968,1.90905952345938,-0.0984343809974436,0.278136305950116,-0.954896170380181,-1.08802396048367,-0.0770469589029375,-2.22904823848488,-0.913632499181828,-2.78634573435837,-1.06895339376675,-0.160336094237294,0.179405944837121,-0.0587032702800506,-0.16002874166706,0.7045281736823
79.085,-0.354991336674288,0.810598557025717,1.08684791222045,0.0978644073539528,-0.342524399189776,-0.62181285487022,-1.67745470295557,0.0342264782122856,0.27240882134626,2.02467624150155,-0.183058459707998,0.402524063165365,-1.1649495266989,-1.09337731991183,-0.0346066491880361,-2.15315183448151,-0.928419247595039,-2.8269342175549,-1.09000471606479,-0.1508746873502,0.193564705829929,-0.0642290214252404,-0.200746807409164,0.702992586401939
79.09,-0.284705501637686,0.660863784871071,0.848638911264433,-0.242854277047327,-0.250377832063254,-0.610060665298806,-1.67082148505372,0.0708692642932742,0.233377862453056,2.04696154594421,-0.228868458846425,0.524627912384082,-1.35279469949484,-1.05906102310232,-0.0128447293760309,-2.07082461591979,-0.915159848250719,-2.58729058205507,-1.11774000770806,-0.144019042324364,0.21152238195242,-0.0821831041099609,-0.258492108274411,0.6966448866432
79.095,-0.485003489158217,0.152621717782942,0.983475976908649,-0.0626003518511285,-0.0303911436949456,-0.286658799961357,-1.58128867060924,0.0572851842572863,0.0171807671742305,1.91801354134261,-0.213562792351166,0.494461733267381,-1.42830828739815,-1.0288634145809,0.0273774658788213,-1.94740873716275,-0.893838899855204,-2.22237207793704,-1.13633063587649,-0.147874509301677,0.222476929426191,-0.098954722109666,-0.321525918295319,0.688119304619816
79.1,-0.713538263907524,-0.0903238120261583,0.910215740708532,0.201051741284274,-0.165305284325522,-0.105661308755267,-1.41537928807753,0.0540859234453697,-0.159366908263597,1.70657910227654,-0.124998138674453,0.321733332089297,-1.43593657951083,-0.994711382269912,0.177686429162706,-1.93874583294384,-0.873042620103335,-1.62508552688623,-1.16968319458172,-0.131866997198473,0.223481097392239,-0.135099877870249,-0.367496309989351,0.678115461114936
79.105,-0.650064134148409,-0.0987306132668072,0.757233866835377,0.212377970784295,-0.107697678177181,0.00614918439318767,-1.25902701220861,0.0762401062665321,-0.203842521163042,1.54889249875131,-0.0482075196483326,0.13645167290739,-1.41438464946243,-0.950127702468216,0.370599181019668,-1.85059141364942,-0.835961976188654,-1.14930504401906,-1.19916888896845,-0.125464836515406,0.211887277026401,-0.179491283270024,-0.364026357338173,0.6639315279431
79.11,-0.584972820042292,-0.069060553379697,0.873412900538568,0.320071087195822,-0.037202955281705,0.0207468194361776,-1.11790324363993,0.0912700641455079,-0.196122540756909,1.480723644299,0.0447546294072938,-0.0188120081491177,-1.37720487927293,-0.792506357905334,0.631171684125185,-1.81253111782023,-0.793309109480155,-0.553723632791781,-1.22407034472445,-0.11437816613768,0.191823123850302,-0.2446866914831,-0.331314634231714,0.644395351675548
79.115,-0.531156445858458,0.0611389509465713,0.932575662637735,0.373053348609433,-0.0879243266346353,-0.0240557348285848,-1.00448071608366,0.122125822882103,-0.139200774692796,1.20228256710309,0.167127274633627,-0.134508449602481,-1.33136048830652,-0.656505738850656,0.766974275092724,-1.74874980736877,-0.786073972124685,-0.0707121266380555,-1.23750936491486,-0.0976099292218713,0.162044338125562,-0.334460134031366,-0.238576454456921,0.631053339465329
79.12,-0.503247353230048,0.116346751425854,0.88607316963941,0.288861056483837,-0.0978709215163207,-0.0344759584182649,-0.917763205006973,0.175662942999824,-0.0737953142763013,0.777203862197957,0.230459490262095,-0.0711548983378691,-1.22212175524172,-0.410758330738651,0.903972118691964,-1.12940506640131,-0.701962383848413,0.686690250303017,-1.2356160766124,-0.0881814011950994,0.135393166674046,-0.407904225896768,-0.145541468222993,0.638551003958283
79.125,-0.441248437563149,0.120178925056952,0.841483399113642,0.0961495128711034,-0.0733418568328286,-0.021586009776355,-0.925011179971989,0.150104408646653,-0.0416701064573861,0.258028929626178,0.216752660780862,0.00119584702846608,-1.08458544621753,-0.217833519543352,0.945542546365066,-0.473589128114199,-0.589369599104412,1.19699994542447,-1.2218007080887,-0.0792770535078628,0.120985449654861,-0.458514529964966,-0.0615511121866275,0.648155834219925
79.13,-0.414114689620645,0.0730801464274381,0.859071802414933,-0.036179281157248,-0.0727675616957181,-0.0175711394414619,-0.881899728814597,0.233108324865215,-0.0363400859078419,-0.310088307608435,0.186177217989575,0.0445499261442243,-0.90682101212639,-0.0355726595076829,0.944769590253568,0.0452874227748562,-0.463377552933217,1.36866982220627,-1.17328293451063,-0.0919454566799024,0.118777948738519,-0.493996829111957,0.025791871508123,0.662712996767041
79.135,-0.395900390828364,0.0160161245622006,0.879386755359054,-0.140986097784971,-0.0992048872056071,-0.0345350183820789,-0.834896413924885,0.310130642992767,-0.0497056244765721,-0.786432029545,0.151627459364602,0.0299225275727247,-0.803020420808549,0.123143949424044,0.91890655059936,0.494962946786509,-0.330923448065114,1.2341987423902,-1.12177578403419,-0.107829750728698,0.11697752335164,-0.490208367780891,0.0631819229870766,0.665776676556237
79.14,-0.386655651505391,-0.00464765171649592,0.879869290354121,-0.235321141351354,-0.123605143845308,-0.0581990860638524,-0.819188469964845,0.274160231878574,-0.0456839050376051,-1.18112033447144,0.0821039133733947,0.00893670413643122,-0.770672383345191,0.188292164478193,0.831429324186844,0.719881004774041,-0.185056744784834,0.843499583393169,-1.0743355228026,-0.104495115798991,0.124857481087511,-0.439770637318405,0.0497104361347263,0.649745675558873
79.145,-0.37039827426859,0.0151501710122677,0.869573168201325,-0.276148087194513,-0.146972411295827,-0.0671175842372814,-0.80669376949863,0.149614839435907,-0.0522168236829625,-1.43358561745159,0.0272569536605441,0.00294480172500495,-0.762809721029706,0.145966713520276,0.62102764866919,0.854067118823436,-0.0444027308340068,0.271840396004434,-1.03895166373491,-0.0921564970558577,0.137212185566836,-0.338306010052751,0.0242210459079822,0.61405358862692
79.15,-0.367757540576655,0.050500947848654,0.866641977531992,-0.293068124958761,-0.133602084746399,-0.0590007195747305,-0.801061183385593,0.0429928992255851,-0.0625542461868634,-1.55435747038292,-0.00527971204857762,-0.0269530961540237,-0.800870537931684,0.0055456449630296,0.376691358109478,0.921547059437779,0.0808086078126165,-0.265549130202075,-1.01039908784793,-0.0853848918069658,0.151975546197905,-0.208450418472155,0.0163154544288686,0.56210134101438
79.155,-0.361775642401587,0.0671802222696079,0.870300065351934,-0.339994094798528,-0.120257701133837,-0.0632115360777939,-0.81842333219327,-0.0369264081107018,-0.0629891827805391,-1.53663883410252,-0.0284411129647247,-0.0395405499774835,-0.84134158275129,-0.158334844103978,0.160499984264316,0.951060933583527,0.206925176750755,-0.650033167107925,-0.987347818023492,-0.0806437556361462,0.155173291305312,-0.0933464169447018,0.021877503015655,0.507618613866429
79.16,-0.369368076283352,0.0585802155588042,0.880837610593129,-0.379697259260628,-0.108587128979087,-0.0599443655483696,-0.835000798741791,-0.106732949018042,-0.0466476874057091,-1.34399884499043,-0.0339286625385284,-0.0290034186120698,-0.907956993592618,-0.323592711666846,-0.00942724172904689,1.06505960197888,0.318942434701174,-0.830945595469309,-0.970642466183594,-0.0878861059681469,0.160592687641197,0.0696500332400624,0.0446271649371141,0.42241263298887
