Header,foot_Accel_X,foot_Accel_Y,foot_Accel_Z,foot_Gyro_X,foot_Gyro_Y,foot_Gyro_Z,shank_Accel_X,shank_Accel_Y,shank_Accel_Z,shank_Gyro_X,shank_Gyro_Y,shank_Gyro_Z,thigh_Accel_X,thigh_Accel_Y,thigh_Accel_Z,thigh_Gyro_X,thigh_Gyro_Y,thigh_Gyro_Z,trunk_Accel_X,trunk_Accel_Y,trunk_Accel_Z,trunk_Gyro_X,trunk_Gyro_Y,trunk_Gyro_Z
0,5.53690153400169,0.700960430759174,-0.172306778758866,-1.98695821568319,3.94497949432311,-7.85411866617864,0.839972592969616,4.7822583879369,0.200541120952266,0.0275004226714373,-3.98037798695628,-2.00521472465428,-0.105846023907816,2.51481815228453,0.168657894561989,6.08868354458473,4.06790457234043,-0.0407629497349262,-7.04405329420001,6.27974845475083,-1.53612714059818,-10.0554012351084,-1.87316629670312,1.977206181155
0.005,5.53236845576032,0.700414353306375,-0.171484033220622,-1.98544434069427,3.9419517489615,-7.84806317314729,0.838568656476809,4.77859582735832,0.200310299833717,0.0275004226714373,-3.97733097723398,-2.00369121979313,-0.106469432613039,2.5125959847893,0.16848938306677,6.08402408642063,4.06479827005503,-0.0407629497349262,-7.03939035514259,6.27484518808916,-1.53475698148685,-10.0477091500613,-1.87162787124976,1.97566776508379
0.01,5.52783537751895,0.699868275853577,-0.170661287682378,-1.98393046570535,3.93892400359988,-7.84200768011594,0.837164719983775,4.77493326677974,0.200079478715224,0.0275004226714373,-3.97428396751167,-2.00216771493197,-0.107092841318035,2.51037381729418,0.168320871571566,6.07936462825653,4.06169196776963,-0.0407629497349262,-7.03472741608516,6.26994192142749,-1.53338682237552,-10.0400170650142,-1.87008944579645,1.97412934901257
0.015,5.5233022992777,0.699322198400779,-0.169838542143907,-1.98241659071643,3.93589625823826,-7.8359521870846,0.835760783491196,4.77127070620116,0.199848657596704,0.0275004226714373,-3.97123695778937,-2.00064421007082,-0.107716250023259,2.50815164979906,0.168152360076363,6.07470517009243,4.05858566548422,-0.0407629497349262,-7.03006447702796,6.26503865476585,-1.53201666326407,-10.032324979967,-1.86855102034309,1.97259093294137
0.02,5.51876922103634,0.698776120947981,-0.169015796605436,-1.9809027157275,3.93286851287665,-7.82989669405325,0.834356846998389,4.76760814562258,0.199617836478211,0.0275004226714373,-3.96818994806706,-1.99912070520967,-0.108339658728482,2.50592948230394,0.167983848581144,6.07004571192833,4.05547936319883,-0.0407629497349262,-7.02540153797054,6.26013538810415,-1.53064650415274,-10.0246328949199,-1.86701259488976,1.97105251687015
0.025,5.51423614279497,0.698230043495183,-0.168193051067192,-1.97938884073858,3.92984076751503,-7.82384120102191,0.832952910505355,4.763945585044,0.19938701535969,0.0275004226714373,-3.96514293834476,-1.99759720034852,-0.108963067433478,2.50370731480882,0.167815337085941,6.06538625376423,4.05237306091342,-0.0407629497349262,-7.02073859891334,6.2552321214425,-1.5292763450413,-10.0169408098728,-1.8654741694364,1.96951410079893
0.03,5.50970306455361,0.697683966042383,-0.167370305528948,-1.97787496574966,3.92681302215341,-7.81778570799056,0.831548974012549,4.76028302446541,0.199156194241198,0.0275004226714373,-3.96209592862245,-1.99607369548737,-0.109586476138702,2.50148514731359,0.167646825590722,6.06072679560013,4.04926675862801,-0.0407629497349262,-7.01607565985591,6.25032885478083,-1.52790618592996,-10.0092487248256,-1.86393574398306,1.96797568472771
0.035,5.50516998631224,0.697137888589586,-0.166547559990477,-1.97636109076074,3.9237852767918,-7.81173021495921,0.830145037519742,4.75662046388684,0.198925373122677,0.0275004226714373,-3.95904891890015,-1.99455019062621,-0.110209884843925,2.49926297981847,0.167478314095518,6.05606733743603,4.04616045634261,-0.0407629497349262,-7.01141272079849,6.24542558811916,-1.52653602681863,-10.0015566397785,-1.86239731852973,1.96643726865651
0.04,5.50063690807099,0.696591811136788,-0.165724814452005,-1.97484721577182,3.92075753143018,-7.80567472192787,0.828741101026708,4.75295790330826,0.198694552004184,0.0275004226714373,-3.95600190917784,-1.99302668576506,-0.110833293548922,2.49704081232335,0.1673098026003,6.05140787927193,4.04305415405721,-0.0407629497349262,-7.00674978174106,6.24052232145752,-1.52516586770719,-9.99386455473135,-1.86085889307637,1.96489885258529
0.045,5.49610382982962,0.69604573368399,-0.164902068913761,-1.9733333407829,3.91772978606857,-7.79961922889652,0.827337164534129,4.74929534272967,0.198463730885663,0.0275004226714373,-3.95295489945554,-1.9915031809039,-0.111456702254145,2.49481864482823,0.167141291105096,6.04674842110783,4.03994785177181,-0.0407629497349262,-7.00208684268364,6.23561905479585,-1.52379570859586,-9.98617246968421,-1.85932046762301,1.96336043651407
0.05,5.49157075158826,0.695499656231192,-0.164079323375518,-1.97181946579398,3.91470204070695,-7.79356373586518,0.825933228041322,4.74563278215109,0.198232909767142,0.0275004226714373,-3.94990788973324,-1.98997967604276,-0.112080110959141,2.492596477333,0.166972779609878,6.04208896294372,4.0368415494864,-0.0407629497349262,-6.99742390362644,6.23071578813421,-1.52242554948441,-9.97848038463708,-1.85778204216967,1.96182202044286
0.055,5.48703767334689,0.694953578778392,-0.163256577837274,-1.97030559080505,3.91167429534533,-7.78750824283384,0.824529291548288,4.74197022157251,0.198002088648622,0.0275004226714373,-3.94686088001093,-1.9884561711816,-0.112703519664365,2.49037430983788,0.166804268114674,6.03742950477962,4.033735247201,-0.0407629497349262,-6.99276096456902,6.22581252147251,-1.52105539037308,-9.97078829958994,-1.85624361671634,1.96028360437165
0.06,5.48250459510564,0.694407501325594,-0.162433832298575,-1.96879171581613,3.90864654998372,-7.78145274980249,0.823125355055481,4.73830766099393,0.197771267530101,0.0275004226714373,-3.94381387028863,-1.98693266632045,-0.113326928369588,2.48815214234264,0.166635756619456,6.03277004661552,4.0306289449156,-0.0407629497349262,-6.98809802551159,6.22090925481086,-1.51968523126169,-9.9630962145428,-1.85470519126301,1.95874518830043
0.065,5.47797151686427,0.693861423872798,-0.161611086760331,-1.96727784082722,3.9056188046221,-7.77539725677114,0.821721418562674,4.73464510041535,0.197540446411608,0.0275004226714373,-3.94076686056632,-1.9854091614593,-0.113950337074584,2.48592997484752,0.166467245124252,6.02811058845142,4.0275226426302,-0.0407629497349262,-6.98343508645439,6.21600598814922,-1.5183150721503,-9.95540412949568,-1.85316676580965,1.95720677222921
0.07,5.47343843862291,0.69331534642,-0.160788341222087,-1.96576396583829,3.90259105926048,-7.76934176373979,0.820317482070095,4.73098253983677,0.197309625293087,0.0275004226714373,-3.93771985084402,-1.98388565659814,-0.114573745779808,2.4837078073524,0.166298733629034,6.02345113028733,4.0244163403448,-0.0407629497349262,-6.97877214739697,6.21110272148752,-1.51694491303897,-9.94771204444852,-1.85162834035629,1.95566835615801
0.075,5.46890536038154,0.692769268967202,-0.159965595683843,-1.96425009084937,3.89956331389886,-7.76328627070844,0.818913545577061,4.72731997925818,0.197078804174595,0.0275004226714373,-3.93467284112171,-1.98236215173699,-0.115197154485031,2.48148563985717,0.166130222133816,6.01879167212323,4.02131003805939,-0.0407629497349262,-6.97410920833977,6.20619945482588,-1.51557475392758,-9.94001995940138,-1.85008991490295,1.95412994008679
0.08,5.46437228214018,0.692223191514403,-0.159142850145145,-1.96273621586045,3.89653556853725,-7.7572307776771,0.817509609084254,4.7236574186796,0.196847983056074,0.0275004226714373,-3.9316258313994,-1.98083864687584,-0.115820563190255,2.47926347236205,0.165961710638626,6.01413221395912,4.01820373577399,-0.0407629497349262,-6.96944626928234,6.20129618816421,-1.51420459481619,-9.93232787435426,-1.84855148944962,1.95259152401558
0.085,5.45983920389892,0.691677114061605,-0.158320104606901,-1.96122234087153,3.89350782317563,-7.75117528464576,0.816105672591448,4.71999485810102,0.196617161937581,0.0275004226714373,-3.9285788216771,-1.97931514201469,-0.116443971895478,2.47704130486693,0.165793199143408,6.00947275579502,4.01509743348859,-0.0407629497349262,-6.96478333022515,6.19639292150254,-1.5128344357048,-9.92463578930712,-1.84701306399626,1.95105310794436
0.09,5.45530612565756,0.691131036608807,-0.157497359068657,-1.95970846588261,3.89048007781401,-7.74511979161441,0.814701736098414,4.71633229752244,0.19638634081906,0.0275004226714373,-3.9255318119548,-1.97779163715354,-0.117067380600474,2.47481913737181,0.16562468764819,6.00481329763092,4.01199113120319,-0.0407629497349262,-6.96012039116772,6.19148965484089,-1.51146427659341,-9.91694370425998,-1.84547463854292,1.94951469187315
0.095,5.45077304741619,0.690584959156009,-0.156674613530413,-1.95819459089369,3.8874523324524,-7.73906429858306,0.813297799605607,4.71266973694386,0.19615551970054,0.0275004226714373,-3.92248480223249,-1.97626813229238,-0.117690789305698,2.47259696987658,0.165456176152972,6.00015383946682,4.00888482891779,-0.0407629497349262,-6.95545745211029,6.18658638817922,-1.51009411748203,-9.90925161921285,-1.84393621308956,1.94797627580193
0.1,5.44623996917494,0.690038881703211,-0.155851867991942,-1.95668071590477,3.88442458709078,-7.73300880555172,0.811893863113028,4.70900717636528,0.195924698582047,0.0275004226714373,-3.91943779251019,-1.97474462743123,-0.118314198010694,2.47037480238157,0.165287664657782,5.99549438130272,4.00577852663238,-0.0407629497349262,-6.9507945130531,6.18168312151755,-1.50872395837069,-9.90155953416571,-1.84239778763626,1.94643785973072
0.105,5.44170689093346,0.689492804250412,-0.15502912245347,-1.95516684091584,3.88139684172916,-7.72695331252037,0.810489926619994,4.7053446157867,0.195693877463498,0.0275004226714373,-3.91639078278788,-1.97322112257008,-0.118937606715917,2.46815263488634,0.165119153162564,5.99083492313862,4.00267222434697,-0.0407629497349262,-6.94613157399567,6.17677985485588,-1.50735379925931,-9.89386744911857,-1.8408593621829,1.94489944365951
0.11,5.43717381269221,0.688946726797614,-0.154206376915226,-1.95365296592692,3.87836909636755,-7.72089781948902,0.809085990127187,4.70168205520812,0.195463056345005,0.0275004226714373,-3.91334377306558,-1.97169761770893,-0.119561015421141,2.46593046739122,0.164950641667346,5.98617546497452,3.99956592206158,-0.0407629497349262,-6.94146863493847,6.17187658819424,-1.50598364014792,-9.88617536407145,-1.83932093672954,1.9433610275883
0.115,5.43264073445084,0.688400649344816,-0.153383631376983,-1.952139090938,3.87534135100593,-7.71484232645768,0.80768205363438,4.69801949462953,0.195232235226484,0.0275004226714373,-3.91029676334327,-1.97017411284777,-0.120184424126137,2.4637082998961,0.164782130172142,5.98151600681042,3.99645961977618,-0.0407629497349262,-6.93680569588105,6.16697332153257,-1.50461348103653,-9.87848327902431,-1.8377825112762,1.94182261151708
0.12,5.42810765620948,0.687854571892018,-0.152560885838511,-1.95062521594908,3.87231360564431,-7.70878683342633,0.806278117141346,4.69435693405095,0.195001414107992,0.0275004226714373,-3.90724975362097,-1.96865060798662,-0.12080783283136,2.46148613240086,0.164613618676924,5.97685654864632,3.99335331749077,-0.0407629497349262,-6.93214275682362,6.1620700548709,-1.50324332192514,-9.87079119397717,-1.83624408582284,1.94028419544586
0.125,5.42357457796811,0.68730849443922,-0.15173814030004,-1.94911134096016,3.8692858602827,-7.70273134039499,0.804874180648767,4.69069437347237,0.194770592989471,0.0275004226714373,-3.90420274389866,-1.96712710312546,-0.121431241536357,2.45926396490574,0.16444510718172,5.97219709048222,3.99024701520536,-0.0407629497349262,-6.92747981776643,6.15716678820922,-1.50187316281381,-9.86309910893004,-1.83470566036951,1.93874577937465
0.13,5.41904149972686,0.686762416986422,-0.150915394761796,-1.94759746597124,3.86625811492108,-7.69667584736364,0.80347024415596,4.68703181289379,0.194539771870978,0.0275004226714373,-3.90115573417636,-1.96560359826432,-0.12205465024158,2.45704179741062,0.164276595686502,5.96753763231812,3.98714071291997,-0.0407629497349262,-6.922816878709,6.15226352154758,-1.50050300370236,-9.8554070238829,-1.83316723491617,1.93720736330344
0.135,5.41450842148549,0.686216339533622,-0.150092649223325,-1.94608359098232,3.86323036955946,-7.69062035433229,0.802066307663154,4.68336925231521,0.194308950752458,0.0275004226714373,-3.89810872445405,-1.96408009340316,-0.122678058946804,2.45481962991539,0.164108084191298,5.96287817415402,3.98403441063456,-0.0407629497349262,-6.9181539396518,6.14736025488591,-1.49913284459103,-9.84771493883576,-1.83162880946281,1.93566894723222
0.14,5.40997534324401,0.685670262080825,-0.149269903685081,-1.9445697159934,3.86020262419785,-7.68456486130095,0.80066237117012,4.67970669173663,0.194078129633965,0.0275004226714373,-3.89506171473175,-1.96255658854201,-0.1233014676518,2.45259746242027,0.16393957269608,5.95821871598992,3.98092810834916,-0.0407629497349262,-6.91349100059438,6.14245698822427,-1.49776268547964,-9.84002285378864,-1.83009038400948,1.934130531161
0.145,5.40544226500276,0.685124184628027,-0.148447158146837,-1.94305584100448,3.85717487883623,-7.67850936826961,0.799258434677313,4.67604413115805,0.193847308515444,0.0275004226714373,-3.89201470500944,-1.96103308368086,-0.123924876357023,2.45037529492515,0.163771061200862,5.95355925782582,3.97782180606376,-0.0407629497349262,-6.90882806153695,6.13755372156257,-1.49639252636825,-9.83233076874149,-1.82855195855615,1.9325921150898
0.15,5.40090918676151,0.684578107175231,-0.147624412608366,-1.94154196601556,3.85414713347462,-7.67245387523826,0.797854498184506,4.67238157057946,0.193616487396895,0.0275004226714373,-3.88896769528714,-1.95950957881971,-0.124548285062019,2.44815312743003,0.163602549705672,5.94889979966172,3.97471550377836,-0.0407629497349262,-6.90416512247975,6.1326504549009,-1.49502236725692,-9.82463868369435,-1.82701353310279,1.93105369901858
0.155,5.39637610852014,0.684032029722431,-0.146801667070122,-1.94002809102664,3.851119388113,-7.66639838220691,0.796450561691699,4.66871901000088,0.193385666278402,0.0275004226714373,-3.88592068556483,-1.95798607395856,-0.125171693767243,2.44593095993491,0.163434038210454,5.94424034149761,3.97160920149295,-0.0407629497349262,-6.89950218342233,6.12774718823925,-1.49365220814548,-9.81694659864722,-1.82547510764945,1.92951528294736
0.16,5.39184303027866,0.683485952269633,-0.14597892153165,-1.93851421603771,3.84809164275138,-7.66034288917557,0.795046625198893,4.6650564494223,0.193154845159881,0.0275004226714373,-3.88287367584253,-1.9564625690974,-0.125795102472466,2.44370879243968,0.163265526715236,5.93958088333351,3.96850289920755,-0.0407629497349262,-6.89483924436513,6.12284392157758,-1.49228204903415,-9.80925451360008,-1.82393668219609,1.92797686687615
0.165,5.38730995203741,0.682939874816835,-0.145156175993407,-1.93700034104879,3.84506389738976,-7.65428739614422,0.793642688706086,4.66139388884373,0.192924024041389,0.0275004226714373,-3.87982666612022,-1.95493906423625,-0.126418511177462,2.44148662494456,0.163097015220032,5.93492142516942,3.96539659692215,-0.0407629497349262,-6.8901763053077,6.11794065491594,-1.49091188992281,-9.80156242855294,-1.82239825674273,1.92643845080494
0.17,5.38277687379605,0.682393797364037,-0.144333430454935,-1.93548646605987,3.84203615202815,-7.64823190311287,0.792238752213052,4.65773132826514,0.192693202922868,0.0275004226714373,-3.87677965639792,-1.9534155593751,-0.127041919882686,2.43926445744944,0.162928503724828,5.93026196700532,3.96229029463674,-0.0407629497349262,-6.88551336625028,6.11303738825427,-1.48954173081137,-9.79387034350582,-1.82085983128943,1.92490003473372
0.175,5.37824379555468,0.681847719911239,-0.143510684916464,-1.93397259107095,3.83900840666653,-7.64217641008153,0.790834815720245,4.65406876768656,0.192462381804376,0.0275004226714373,-3.87373264667562,-1.95189205451395,-0.127665328587682,2.43704228995421,0.16275999222961,5.92560250884122,3.95918399235135,-0.0407629497349262,-6.88085042719308,6.1081341215926,-1.48817157170004,-9.78617825845868,-1.81932140583606,1.92336161866251
0.18,5.37371071731332,0.681301642458441,-0.14268793937822,-1.93245871608203,3.83598066130491,-7.63612091705019,0.789430879227666,4.65040620710798,0.192231560685855,0.0275004226714373,-3.87068563695331,-1.95036854965279,-0.128288737292905,2.43482012245909,0.162591480734392,5.92094305067712,3.95607769006594,-0.0407629497349262,-6.87618748813566,6.10323085493096,-1.48680141258859,-9.77848617341154,-1.81778298038273,1.9218232025913
0.185,5.36917763907195,0.680755565005642,-0.141865193839976,-1.93094484109311,3.8329529159433,-7.63006542401884,0.788026942734859,4.6467436465294,0.192000739567362,0.0275004226714373,-3.867638627231,-1.94884504479164,-0.128912145998129,2.43259795496397,0.162422969239188,5.91628359251302,3.95297138778054,-0.0407629497349262,-6.87152454907823,6.09832758826929,-1.48543125347726,-9.77079408836441,-1.81624455492937,1.92028478652008
0.19,5.36464456083058,0.680209487552844,-0.141042448301505,-1.92943096610419,3.82992517058168,-7.62400993098749,0.786623006241825,4.64308108595082,0.191769918448841,0.0275004226714373,-3.8645916175087,-1.94732153993048,-0.129535554703125,2.43037578746873,0.16225445774397,5.91162413434891,3.94986508549513,-0.0407629497349262,-6.86686161002081,6.09342432160764,-1.48406109436587,-9.76310200331727,-1.81470612947604,1.91874637044886
0.195,5.36011148258933,0.679663410100046,-0.140219702763261,-1.92791709111527,3.82689742522006,-7.61795443795614,0.785219069749019,4.63941852537224,0.19153909733032,0.0275004226714373,-3.8615446077864,-1.94579803506933,-0.130158963408348,2.42815361997361,0.162085946248766,5.90696467618481,3.94675878320973,-0.0407629497349262,-6.86219867096361,6.08852105494594,-1.48269093525448,-9.75540991827013,-1.8131677040227,1.91720795437764
0.2,5.35557840434797,0.679117332647248,-0.13939695722479,-1.92640321612635,3.82386967985845,-7.6118989449248,0.783815133256212,4.63575596479366,0.191308276211828,0.0275004226714373,-3.85849759806409,-1.94427453020818,-0.130782372113345,2.42593145247849,0.161917434753562,5.90230521802071,3.94365248092434,-0.0407629497349262,-6.85753573190618,6.08361778828427,-1.48132077614315,-9.74771783322301,-1.81162927856934,1.91566953830644
0.205,5.3510453261066,0.678571255194448,-0.138574211686546,-1.92488934113742,3.82084193449683,-7.60584345189345,0.782411196763178,4.63209340421507,0.191077455093279,0.0275004226714373,-3.85545058834178,-1.94275102534703,-0.131405780818568,2.42370928498326,0.161748923258344,5.89764575985661,3.94054617863893,-0.0407629497349262,-6.85287279284876,6.07871452162263,-1.4799506170317,-9.74002574817587,-1.81009085311598,1.91413112223522
0.21,5.34651224786523,0.678025177741651,-0.137751466148302,-1.9233754661485,3.81781418913521,-7.59978795886211,0.781007260270599,4.62843084363649,0.190846633974786,0.0275004226714373,-3.85240357861948,-1.94122752048588,-0.132029189523792,2.42148711748825,0.161580411763126,5.89298630169252,3.93743987635352,-0.0407629497349262,-6.84820985379156,6.07381125496096,-1.47858045792037,-9.73233366312873,-1.80855242766265,1.91259270616401
0.215,5.34197916962387,0.677479100288853,-0.136928720609603,-1.92186159115958,3.8147864437736,-7.59373246583076,0.779603323777792,4.62476828305791,0.190615812856265,0.0275004226714373,-3.84935656889717,-1.93970401562472,-0.132652598229015,2.41926494999313,0.161411900267922,5.88832684352842,3.93433357406812,-0.0407629497349262,-6.84354691473413,6.06890798829932,-1.47721029880898,-9.7246415780816,-1.80701400220931,1.91105429009279
0.22,5.33744609138262,0.676933022836055,-0.136105975071359,-1.92034771617066,3.81175869841198,-7.58767697279941,0.778199387284758,4.62110572247933,0.190384991737773,0.0275004226714373,-3.84630955917487,-1.93818051076357,-0.133276006934238,2.4170427824979,0.161243388772718,5.88366738536431,3.93122727178272,-0.0407629497349262,-6.83888397567694,6.06400472163764,-1.4758401396976,-9.71694949303446,-1.80547557675598,1.90951587402158
0.225,5.33291301314125,0.676386945383257,-0.135283229533115,-1.91883384118174,3.80873095305036,-7.58162147976807,0.776795450791951,4.61744316190075,0.190154170619252,0.0275004226714373,-3.84326254945256,-1.93665700590242,-0.133899415639235,2.41482061500278,0.1610748772775,5.87900792720021,3.92812096949732,-0.0407629497349262,-6.83422103661951,6.05910145497597,-1.47446998058621,-9.70925740798731,-1.80393715130262,1.90797745795037
0.23,5.32837993489989,0.675840867930457,-0.134460483994872,-1.91731996619282,3.80570320768875,-7.57556598673672,0.775391514299145,4.61378060132217,0.189923349500759,0.0275004226714373,-3.84021553973026,-1.93513350104127,-0.134522824344458,2.41259844750755,0.160906365782282,5.87434846903611,3.92501466721191,-0.0407629497349262,-6.82955809756209,6.05419818831433,-1.47309982147482,-9.70156532294018,-1.80239872584926,1.90643904187915
0.235,5.32384685665852,0.675294790477661,-0.1336377384564,-1.9158060912039,3.80267546232713,-7.56951049370538,0.773987577806338,4.61011804074359,0.189692528382238,0.0275004226714373,-3.83716853000796,-1.93360999618012,-0.135146233049682,2.41037628001243,0.160737854287078,5.86968901087201,3.92190836492651,-0.0407629497349262,-6.82489515850489,6.04929492165266,-1.47172966236349,-9.69387323789304,-1.80086030039595,1.90490062580794
0.24,5.31931377841727,0.674748713024863,-0.132814992917929,-1.91429221621498,3.79964771696551,-7.56345500067403,0.772583641313531,4.60645548016501,0.189461707263717,0.0275004226714373,-3.83412152028565,-1.93208649131896,-0.135769641754678,2.40815411251731,0.16056934279186,5.86502955270791,3.91880206264111,-0.0407629497349262,-6.82023221944746,6.04439165499099,-1.4703595032521,-9.6861811528459,-1.79932187494259,1.90336220973672
0.245,5.3147807001759,0.674202635572065,-0.131992247379685,-1.91277834122605,3.7966199716039,-7.55739950764268,0.771179704820725,4.60279291958642,0.189230886145225,0.0275004226714373,-3.83107451056334,-1.93056298645781,-0.136393050459901,2.40593194502208,0.160400831296656,5.86037009454381,3.91569576035571,-0.0407629497349262,-6.81556928039026,6.03948838832932,-1.46898934414071,-9.67848906779878,-1.79778344948923,1.90182379366551
0.25,5.31024762193454,0.673656558119268,-0.131169501841441,-1.91126446623714,3.79359222624228,-7.55134401461133,0.769775768327918,4.59913035900784,0.189000065026676,0.0275004226714373,-3.82802750084104,-1.92903948159665,-0.137016459164897,2.40370977752696,0.160232319801437,5.8557106363797,3.91258945807031,-0.0407629497349262,-6.81090634133284,6.03458512166765,-1.46761918502932,-9.67079698275164,-1.7962450240359,1.90028537759429
0.255,5.30571454369317,0.673110480666468,-0.130346756302743,-1.90975059124821,3.79056448088066,-7.54528852157999,0.768371831834884,4.59546779842927,0.188769243908183,0.0275004226714373,-3.82498049111874,-1.92751597673551,-0.137639867870121,2.40148761003184,0.160063808306234,5.85105117821561,3.9094831557849,-0.0407629497349262,-6.80624340227541,6.029681855006,-1.46624902591799,-9.6631048977045,-1.79470659858254,1.89874696152308
0.26,5.30118146545192,0.67256440321367,-0.129524010764499,-1.90823671625929,3.78753673551905,-7.53923302854864,0.766967895342077,4.59180523785069,0.188538422789662,0.0275004226714373,-3.82193348139643,-1.92599247187435,-0.138263276575344,2.3992654425366,0.159895296811015,5.84639172005151,3.90637685349949,-0.0407629497349262,-6.80158046321822,6.02477858834433,-1.46487886680654,-9.65541281265737,-1.79316817312923,1.89720854545187
0.265,5.29664838721055,0.672018325760872,-0.128701265226255,-1.90672284127037,3.78450899015743,-7.5331775355173,0.765563958849498,4.5881426772721,0.18830760167117,0.0275004226714373,-3.81888647167413,-1.9244689670132,-0.13888668528034,2.39704327504148,0.159726785315812,5.84173226188741,3.9032705512141,-0.0407629497349262,-6.79691752416079,6.01987532168269,-1.46350870769521,-9.64772072761023,-1.79162974767587,1.89567012938065
0.27,5.29211530896919,0.671472248308074,-0.127878519688011,-1.90520896628145,3.78148124479582,-7.52712204248596,0.764160022356464,4.58448011669352,0.188076780552649,0.0275004226714373,-3.81583946195182,-1.92294546215204,-0.139510093985564,2.39482110754636,0.159558273820593,5.83707280372331,3.9001642489287,-0.0407629497349262,-6.79225458510359,6.01497205502102,-1.46213854858382,-9.6400286425631,-1.79009132222251,1.89413171330944
0.275,5.28758223072782,0.670926170855276,-0.127055774149767,-1.90369509129253,3.7784534994342,-7.52106654945461,0.762756085863657,4.58081755611493,0.187845959434156,0.0275004226714373,-3.81279245222952,-1.9214219572909,-0.14013350269056,2.39259894005124,0.159389762325389,5.83241334555921,3.89705794664329,-0.0407629497349262,-6.78759164604617,6.01006878835935,-1.46076838947243,-9.63233655751597,-1.78855289676918,1.89259329723823
0.28,5.28304915248646,0.670380093402478,-0.126233028611068,-1.90218121630361,3.77542575407258,-7.51501105642326,0.76135214937085,4.57715499553635,0.187615138315635,0.0275004226714373,-3.80974544250721,-1.91989845242974,-0.140756911395783,2.39037677255612,0.159221250830171,5.8277538873951,3.89395164435788,-0.0407629497349262,-6.78292870698874,6.00516552169771,-1.4593982303611,-9.62464447246883,-1.78701447131584,1.89105488116701
0.285,5.27851607424509,0.669834015949679,-0.125410283072824,-1.90066734131469,3.77239800871096,-7.50895556339191,0.759948212877816,4.57349243495777,0.187384317197115,0.0275004226714373,-3.80669843278491,-1.91837494756859,-0.141380320101007,2.38815460506089,0.159052739334953,5.82309442923101,3.89084534207249,-0.0407629497349262,-6.77826576793154,6.00026225503601,-1.45802807124966,-9.61695238742169,-1.78547604586248,1.8895164650958
0.29,5.27398299600384,0.669287938496881,-0.12458753753458,-1.89915346632576,3.76937026334935,-7.50290007036057,0.758544276385237,4.56982987437919,0.187153496078622,0.0275004226714373,-3.8036514230626,-1.91685144270744,-0.142003728806003,2.38593243756577,0.158884227839764,5.81843497106691,3.88773903978709,-0.0407629497349262,-6.77360282887412,5.99535898837436,-1.45665791213833,-9.60926030237457,-1.78393762040915,1.88797804902458
0.295,5.26944991776247,0.668741861044083,-0.123764791996109,-1.89763959133685,3.76634251798773,-7.49684457732922,0.75714033989243,4.56616731380061,0.186922674960101,0.0275004226714373,-3.8006044133403,-1.91532793784629,-0.142627137511226,2.38371027007065,0.158715716344545,5.81377551290281,3.88463273750168,-0.0407629497349262,-6.76893988981692,5.99045572171269,-1.45528775302688,-9.60156821732741,-1.78239919495579,1.88643963295337
0.3,5.26491683952111,0.668195783591285,-0.122942046457865,-1.89612571634792,3.76331477262612,-7.49078908429788,0.755736403399624,4.56250475322203,0.186691853841609,0.0275004226714373,-3.79755740361799,-1.91380443298514,-0.143250546216223,2.38148810257553,0.158547204849327,5.8091160547387,3.88152643521628,-0.0407629497349262,-6.76427695075949,5.98555245505102,-1.45391759391555,-9.59387613228027,-1.78086076950243,1.88490121688216
0.305,5.26038376127985,0.667649706138487,-0.122119300919394,-1.894611841359,3.7602870272645,-7.48473359126653,0.75433246690659,4.55884219264345,0.186461032723088,0.0275004226714373,-3.79451039389569,-1.91228092812398,-0.143873954921446,2.3792659350803,0.158378693354123,5.80445659657461,3.87842013293088,-0.0407629497349262,-6.75961401170207,5.98064918838938,-1.45254743480422,-9.58618404723315,-1.77932234404912,1.88336280081094
0.31,5.25585068303849,0.667103628685688,-0.12129655538115,-1.89309796637008,3.75725928190288,-7.47867809823519,0.752928530413783,4.55517963206487,0.186230211604595,0.0275004226714373,-3.79146338417338,-1.91075742326283,-0.144497363626442,2.37704376758518,0.158210181858919,5.79979713841051,3.87531383064547,-0.0407629497349262,-6.75495107264487,5.97574592172771,-1.45117727569277,-9.57849196218601,-1.77778391859576,1.88182438473973
0.315,5.25131760479712,0.66655755123289,-0.120473809842679,-1.89158409138116,3.75423153654127,-7.47262260520384,0.751524593920976,4.55151707148629,0.185999390486046,0.0275004226714373,-3.78841637445108,-1.90923391840168,-0.145120772331666,2.37482160008994,0.158041670363701,5.79513768024641,3.87220752836007,-0.0407629497349262,-6.75028813358745,5.97084265506604,-1.44980711658144,-9.57079987713887,-1.77624549314243,1.88028596866851
0.32,5.24678452655576,0.666011473780094,-0.119651064304435,-1.89007021639224,3.75120379117965,-7.46656711217249,0.75012065742817,4.54785451090771,0.185768569367553,0.0275004226714373,-3.78536936472878,-1.90771041354053,-0.145744181036889,2.37259943259482,0.157873158868483,5.79047822208231,3.86910122607467,-0.0407629497349262,-6.74562519453025,5.96593938840439,-1.44843695746999,-9.56310779209174,-1.77470706768906,1.8787475525973
0.325,5.24225144831451,0.665465396327296,-0.118828318765964,-1.88855634140332,3.74817604581803,-7.46051161914115,0.748716720935363,4.54419195032913,0.185537748249033,0.0275004226714373,-3.78232235500647,-1.90618690867937,-0.146367589741885,2.37037726509982,0.157704647373279,5.78581876391821,3.86599492378927,-0.0407629497349262,-6.74096225547282,5.96103612174272,-1.44706679835866,-9.5554157070446,-1.77316864223573,1.87720913652608
0.33,5.23771837007314,0.664919318874498,-0.11800557322772,-1.8870424664144,3.74514830045642,-7.4544561261098,0.747312784442556,4.54052938975055,0.185306927130512,0.0275004226714373,-3.77927534528417,-1.90466340381823,-0.146990998447109,2.36815509760447,0.157536135878075,5.7811593057541,3.86288862150387,-0.0407629497349262,-6.73629931641563,5.95613285508105,-1.44569663924733,-9.54772362199746,-1.7716302167824,1.87567072045487
0.335,5.23318529183177,0.664373241421698,-0.117182827689248,-1.88552859142548,3.7421205550948,-7.44840063307845,0.745908847949522,4.53686682917196,0.185076106012019,0.0275004226714373,-3.77622833556186,-1.90313989895706,-0.147614407152332,2.36593293010947,0.157367624382857,5.77649984759,3.85978231921846,-0.0407629497349262,-6.73163637735797,5.95122958841938,-1.44432648013589,-9.54003153695034,-1.77009179132904,1.87413230438366
0.34,5.22865221359041,0.6638271639689,-0.116360082151004,-1.88401471643656,3.73909280973318,-7.44234514004711,0.744504911456715,4.53320426859338,0.184845284893498,0.0275004226714373,-3.77318132583956,-1.90161639409592,-0.148237815857328,2.36371076261435,0.157199112887653,5.7718403894259,3.85667601693306,-0.0407629497349262,-6.72697343830055,5.94632632175771,-1.44295632102455,-9.5323394519032,-1.76855336587568,1.87259388831244
0.345,5.22411913534904,0.663281086516102,-0.115537336612761,-1.88250084144764,3.73606506437157,-7.43628964701576,0.743100974964136,4.5295417080148,0.184614463775006,0.0275004226714373,-3.77013431611725,-1.90009288923476,-0.148861224562552,2.36148859511911,0.157030601392435,5.7671809312618,3.85356971464766,-0.0407629497349262,-6.72231049924335,5.94142305509607,-1.44158616191316,-9.52464736685606,-1.76701494042234,1.87105547224123
0.35,5.21958605710779,0.662735009063304,-0.114714591074289,-1.88098696645871,3.73303731900995,-7.43023415398442,0.741697038471102,4.52587914743622,0.184383642656485,0.0275004226714373,-3.76708730639495,-1.89856938437361,-0.149484633267548,2.35926642762399,0.156862089897217,5.76252147309771,3.85046341236226,-0.0407629497349262,-6.71764756018592,5.9365197884344,-1.44021600280178,-9.51695528180893,-1.76547651496901,1.86951705617002
0.355,5.21505297886642,0.662188931610507,-0.113891845535818,-1.87947309146979,3.73000957364833,-7.42417866095307,0.740293101978295,4.52221658685764,0.184152821537964,0.0275004226714373,-3.76404029667264,-1.89704587951246,-0.150108041972771,2.35704426012887,0.156693578401999,5.75786201493361,3.84735711007686,-0.0407629497349262,-6.71298462112873,5.93161652177272,-1.43884584369039,-9.50926319676179,-1.76393808951568,1.8679786400988
0.36,5.21051990062506,0.661642854157707,-0.113069099997574,-1.87795921648087,3.72698182828671,-7.41812316792172,0.738889165485489,4.51855402627906,0.183922000419443,0.0275004226714373,-3.76099328695034,-1.89552237465131,-0.150731450677995,2.35482209263364,0.156525066906809,5.7532025567695,3.84425080779145,-0.0407629497349262,-6.7083216820713,5.92671325511108,-1.437475684579,-9.50157111171464,-1.76239966406231,1.86644022402758
0.365,5.20598682238369,0.661096776704909,-0.11224635445933,-1.87644534149195,3.7239540829251,-7.41206767489038,0.737485228992682,4.51489146570048,0.183691179300951,0.0275004226714373,-3.75794627722803,-1.89399886979015,-0.151354859383218,2.35259992513852,0.156356555411591,5.7485430986054,3.84114450550604,-0.0407629497349262,-6.70365874301388,5.92180998844941,-1.43610552546767,-9.49387902666751,-1.76086123860895,1.86490180795637
0.37,5.20145374414233,0.660550699252111,-0.111423608920859,-1.87493146650303,3.72092633756348,-7.40601218185903,0.736081292499648,4.51122890512189,0.18346035818243,0.0275004226714373,-3.75489926750573,-1.892475364929,-0.151978268088442,2.35037775764329,0.156188043916373,5.7438836404413,3.83803820322064,-0.0407629497349262,-6.69899580395668,5.91690672178774,-1.43473536635628,-9.48618694162037,-1.75932281315565,1.86336339188515
0.375,5.19692066590096,0.660004621799313,-0.110600863382388,-1.87341759151411,3.71789859220187,-7.39995668882769,0.734677356007069,4.50756634454331,0.183229537063909,0.0275004226714373,-3.75185225778342,-1.89095186006785,-0.152601676793438,2.34815559014817,0.156019532421155,5.7392241822772,3.83493190093525,-0.0407629497349262,-6.69433286489925,5.91200345512607,-1.43336520724489,-9.47849485657323,-1.75778438770229,1.86182497581395
0.38,5.19238758765971,0.659458544346515,-0.109778117844144,-1.87190371652519,3.71487084684025,-7.39390119579634,0.733273419514262,4.50390378396473,0.182998715945416,0.0275004226714373,-3.74880524806112,-1.8894283552067,-0.153225085498661,2.34593342265305,0.155851020925965,5.7345647241131,3.83182559864984,-0.0407629497349262,-6.68966992584205,5.90710018846443,-1.4319950481335,-9.47080277152611,-1.75624596224893,1.86028655974273
0.385,5.18785450941823,0.658912466893717,-0.1089553723059,-1.87038984153627,3.71184310147863,-7.38784570276499,0.731869483021228,4.50024122338615,0.182767894826895,0.0275004226714373,-3.74575823833881,-1.88790485034555,-0.153848494203885,2.34371125515793,0.155682509430747,5.729905265949,3.82871929636443,-0.0407629497349262,-6.68500698678463,5.90219692180276,-1.43062488902211,-9.46311068647897,-1.75470753679559,1.85874814367152
0.39,5.18332143117686,0.658366389440918,-0.108132626767429,-1.86887596654735,3.70881535611702,-7.38179020973365,0.730465546528421,4.49657866280757,0.182537073708403,0.0275004226714373,-3.74271122861651,-1.88638134548439,-0.154471902908881,2.34148908766269,0.155513997935529,5.72524580778489,3.82561299407903,-0.0407629497349262,-6.6803440477272,5.89729365514108,-1.42925472991072,-9.45541860143183,-1.75316911134223,1.8572097276003
0.395,5.17878835293561,0.65782031198812,-0.107309881228957,-1.86736209155842,3.7057876107554,-7.3757347167023,0.729061610035615,4.49291610222899,0.182306252589882,0.0275004226714373,-3.73966421889421,-1.88485784062323,-0.155095311614105,2.33926692016757,0.155345486440325,5.7205863496208,3.82250669179363,-0.0407629497349262,-6.67568110867001,5.89239038847944,-1.42788457079939,-9.44772651638471,-1.75163068588893,1.85567131152909
0.4,5.17425527469436,0.657274234535324,-0.106487135690713,-1.8658482165695,3.70275986539378,-7.36967922367096,0.727657673542808,4.48925354165041,0.182075431471361,0.0275004226714373,-3.7366172091719,-1.88333433576209,-0.155718720319101,2.33704475267245,0.155176974945107,5.7159268914567,3.81940038950823,-0.0407629497349262,-6.67101816961258,5.88748712181777,-1.426514411688,-9.44003443133757,-1.75009226043557,1.85413289545787
0.405,5.16972219645288,0.656728157082526,-0.105664390152469,-1.86433434158058,3.69973212003217,-7.36362373063961,0.726253737050001,4.48559098107182,0.18184461035284,0.0275004226714373,-3.73357019944959,-1.88181083090093,-0.156342129024324,2.33482258517733,0.155008463449903,5.7112674332926,3.81629408722283,-0.0407629497349262,-6.66635523055538,5.8825838551561,-1.42514425257662,-9.43234234629043,-1.7485538349822,1.85259447938666
0.41,5.16518911821152,0.656182079629726,-0.104841644614226,-1.86282046659166,3.69670437467055,-7.35756823760827,0.724849800557195,4.48192842049324,0.181613789234348,0.0275004226714373,-3.73052318972729,-1.88028732603978,-0.156965537729548,2.33260041768222,0.154839951954699,5.7066079751285,3.81318778493742,-0.0407629497349262,-6.66169229149796,5.87768058849446,-1.42377409346523,-9.4246502612433,-1.74701540952887,1.85105606331545
0.415,5.16065603997026,0.655636002176928,-0.104018899075527,-1.86130659160274,3.69367662930893,-7.35151274457692,0.723445864064161,4.47826585991466,0.181382968115827,0.0275004226714373,-3.72747618000498,-1.87876382117863,-0.157588946434544,2.33037825018698,0.154671440459481,5.7019485169644,3.81008148265202,-0.0407629497349262,-6.65702935244053,5.87277732183276,-1.42240393435384,-9.41695817619616,-1.74547698407554,1.84951764724423
0.42,5.1561229617289,0.65508992472413,-0.103196153537283,-1.85979271661382,3.69064888394732,-7.34545725154557,0.722041927571354,4.47460329933608,0.181152146997306,0.0275004226714373,-3.72442917028268,-1.87724031631748,-0.158212355139767,2.32815608269186,0.154502928964263,5.6972890588003,3.80697518036662,-0.0407629497349262,-6.65236641338333,5.86787405517111,-1.42103377524251,-9.40926609114902,-1.74393855862218,1.84797923117301
0.425,5.15158988348753,0.654543847271333,-0.102373407999039,-1.8582788416249,3.6876211385857,-7.33940175851422,0.720637991078547,4.4709407387575,0.180921325878813,0.0275004226714373,-3.72138216056037,-1.87571681145632,-0.158835763844763,2.32593391519674,0.154334417469059,5.6926296006362,3.80386887808122,-0.0407629497349262,-6.64770347432591,5.86297078850944,-1.41966361613106,-9.4015740061019,-1.74240013316884,1.8464408151018
0.43,5.14705680524617,0.653997769818535,-0.101550662460795,-1.85676496663597,3.68459339322408,-7.33334626548288,0.719234054585968,4.46727817817892,0.180690504760292,0.0275004226714373,-3.71833515083807,-1.87419330659517,-0.159459172549987,2.32371174770151,0.154165905973855,5.6879701424721,3.80076257579582,-0.0407629497349262,-6.64304053526871,5.8580675218478,-1.41829345701973,-9.39388192105476,-1.74086170771548,1.84490239903059
0.435,5.14252372700491,0.653451692365737,-0.100727916922324,-1.85525109164706,3.68156564786247,-7.32729077245154,0.717830118092934,4.46361561760034,0.1804596836418,0.0275004226714373,-3.71528814111576,-1.87266980173402,-0.16008258125521,2.32148958020639,0.153997394478637,5.683310684308,3.79765627351041,-0.0407629497349262,-6.63837759621128,5.85316425518613,-1.4169232979084,-9.38618983600762,-1.73932328226215,1.84336398295937
0.44,5.13799064876343,0.652905614912937,-0.0999051713838526,-1.85373721665813,3.67853790250085,-7.32123527942019,0.716426181600127,4.45995305702176,0.180228862523279,0.0275004226714373,-3.71224113139346,-1.87114629687287,-0.160705989960206,2.31926741271127,0.153828882983419,5.67865122614389,3.79454997122501,-0.0407629497349262,-6.63371465715409,5.84826098852446,-1.41555313879695,-9.37849775096048,-1.73778485680882,1.84182556688816
0.445,5.13345757052218,0.652359537460139,-0.0990824258456087,-1.85222334166921,3.67551015713923,-7.31517978638884,0.71502224510732,4.45629049644318,0.179998041404787,0.0275004226714373,-3.70919412167115,-1.86962279201172,-0.16132939866543,2.31704524521615,0.153660371488215,5.67399176797979,3.79144366893961,-0.0407629497349262,-6.62905171809666,5.84335772186282,-1.41418297968562,-9.37080566591334,-1.73624643135545,1.84028715081694
0.45,5.12892449228082,0.651813460007341,-0.0982596803073648,-1.85070946668029,3.67248241177762,-7.3091242933575,0.713618308614286,4.4526279358646,0.179767220286237,0.0275004226714373,-3.70614711194885,-1.86809928715056,-0.161952807370426,2.31482307772103,0.153491859993011,5.6693323098157,3.7883373666542,-0.0407629497349262,-6.62438877903924,5.83845445520114,-1.41281282057417,-9.3631135808662,-1.73470800590212,1.83874873474574
0.455,5.12439141403945,0.651267382554543,-0.0974369347688935,-1.84919559169137,3.669454666416,-7.30306880032615,0.712214372121707,4.44896537528601,0.179536399167745,0.0275004226714373,-3.70310010222654,-1.86657578228941,-0.162576216075649,2.3126009102258,0.153323348497793,5.66467285165159,3.7852310643688,-0.0407629497349262,-6.61972583998204,5.83355118853947,-1.41144266146284,-9.35542149581907,-1.73316958044876,1.83721031867452
0.46,5.1198583357982,0.650721305101744,-0.0966141892304222,-1.84768171670245,3.66642692105438,-7.2970133072948,0.7108104356289,4.44530281470744,0.179305578049224,0.0275004226714373,-3.70005309250424,-1.86505227742825,-0.163199624780873,2.31037874273068,0.153154837002575,5.6600133934875,3.7821247620834,-0.0407629497349262,-6.61506290092461,5.8286479218778,-1.41007250235145,-9.34772941077193,-1.73163115499543,1.83567190260331
0.465,5.11532525755683,0.650175227648946,-0.0957914436921783,-1.84616784171353,3.66339917569277,-7.29095781426346,0.709406499135866,4.44164025412885,0.179074756930731,0.0275004226714373,-3.69700608278193,-1.86352877256711,-0.163823033485869,2.30815657523556,0.152986325507371,5.6553539353234,3.779018459798,-0.0407629497349262,-6.61039996186742,5.82374465521613,-1.40870234324007,-9.34003732572479,-1.73009272954209,1.83413348653209
0.47,5.11079217931547,0.649629150196148,-0.0949686981539344,-1.84465396672461,3.66037143033115,-7.28490232123211,0.70800256264306,4.43797769355027,0.17884393581221,0.0275004226714373,-3.69395907305963,-1.86200526770595,-0.164446442191093,2.30593440774044,0.152817814012167,5.65069447715929,3.77591215751259,-0.0407629497349262,-6.60573702280999,5.81884138855449,-1.40733218412873,-9.33234524067767,-1.72855430408873,1.83259507046087
0.475,5.1062591010741,0.64908307274335,-0.0941459526154631,-1.84314009173569,3.65734368496953,-7.27884682820077,0.706598626150253,4.43431513297169,0.17861311469369,0.0275004226714373,-3.69091206333733,-1.8604817628448,-0.165069850896089,2.3037122402452,0.152649302516949,5.64603501899519,3.77280585522719,-0.0407629497349262,-6.60107408375256,5.81393812189282,-1.40596202501729,-9.32465315563053,-1.7270158786354,1.83105665438966
0.48,5.10172602283274,0.648536995290554,-0.0933232070769918,-1.84162621674676,3.65431593960792,-7.27279133516942,0.705194689657446,4.43065257239311,0.178382293575197,0.0275004226714373,-3.68786505361502,-1.85895825798365,-0.165693259601312,2.30149007275008,0.152480791021745,5.64137556083109,3.76969955294179,-0.0407629497349262,-6.59641114469537,5.80903485523115,-1.40459186590596,-9.31696107058339,-1.72547745318204,1.82951823831845
0.485,5.09719294459148,0.647990917837753,-0.0925004615387479,-1.84011234175785,3.6512881942463,-7.26673584213808,0.70379075316464,4.42699001181453,0.178151472456676,0.0275004226714373,-3.68481804389272,-1.85743475312249,-0.166316668306536,2.29926790525485,0.152312279526527,5.63671610266699,3.76659325065639,-0.0407629497349262,-6.59174820563771,5.8041315885695,-1.40322170679457,-9.30926898553626,-1.7239390277287,1.82797982224723
0.49,5.09265986635012,0.647444840384956,-0.091677716000504,-1.83859846676893,3.64826044888468,-7.26068034910673,0.702386816671833,4.42332745123595,0.177920651338184,0.0275004226714373,-3.68177103417041,-1.85591124826134,-0.166940077011532,2.29704573775973,0.152143768031308,5.63205664450289,3.76348694837098,-0.0407629497349262,-6.58708526658052,5.79922832190783,-1.40185154768318,-9.30157690048912,-1.72240060227537,1.82644140617602
0.495,5.08812678810875,0.646898762932159,-0.0908549704620327,-1.83708459178001,3.64523270352307,-7.25462485607538,0.700982880179026,4.41966489065736,0.177689830219663,0.0275004226714373,-3.6787240244481,-1.85438774340019,-0.167563485716755,2.29482357026461,0.151975256536105,5.62739718633879,3.76038064608558,-0.0407629497349262,-6.58242232752309,5.79432505524619,-1.40048138857179,-9.29388481544198,-1.72086217682201,1.8249029901048
0.5,5.08359370986739,0.646352685479361,-0.0900322249235614,-1.83557071679108,3.64220495816145,-7.24856936304404,0.699578943685992,4.41600233007878,0.17745900910117,0.0275004226714373,-3.6756770147258,-1.85286423853904,-0.168186894421751,2.29260140276938,0.151806745040901,5.62273772817469,3.75727434380018,-0.0407629497349262,-6.57775938846567,5.78942178858452,-1.3991112294604,-9.28619273039486,-1.71932375136865,1.82336457403359
0.505,5.07906063162613,0.645806608026563,-0.0892094793853175,-1.83405684180216,3.63917721279983,-7.24251387001269,0.698175007193186,4.4123397695002,0.177228187982649,0.0275004226714373,-3.67263000500349,-1.85134073367789,-0.168810303127202,2.29037923527426,0.151638233545683,5.61807827001059,3.75416804151478,-0.0407629497349262,-6.57309644940847,5.78451852192282,-1.39774107034907,-9.27850064534771,-1.71778532591534,1.82182615796238
0.51,5.07452755338477,0.645260530573763,-0.0883867338470736,-1.83254296681324,3.63614946743822,-7.23645837698134,0.696771070700606,4.40867720892162,0.176997366864128,0.0275004226714373,-3.66958299528119,-1.84981722881673,-0.169433711832426,2.28815706777925,0.151469722050464,5.61341881184649,3.75106173922938,-0.0407629497349262,-6.56843351035104,5.77961525526118,-1.39637091123768,-9.27080856030057,-1.71624690046198,1.82028774189116
0.515,5.0699944751434,0.644714453120965,-0.0875639883086023,-1.83102909182432,3.6331217220766,-7.23040288395,0.695367134207572,4.40501464834304,0.176766545745608,0.0275004226714373,-3.66653598555889,-1.84829372395558,-0.170057120537422,2.28593490028402,0.15130121055526,5.60875935368239,3.74795543694397,-0.0407629497349262,-6.56377057129384,5.77471198859951,-1.39500075212629,-9.26311647525344,-1.71470847500865,1.81874932581995
0.52,5.06546139690204,0.644168375668167,-0.0867412427703584,-1.8295152168354,3.63009397671498,-7.22434739091866,0.693963197714766,4.40135208776446,0.176535724627087,0.0275004226714373,-3.66348897583658,-1.84677021909443,-0.170680529242645,2.2837127327889,0.151132699060057,5.60409989551829,3.74484913465857,-0.0407629497349262,-6.55910763223642,5.76980872193786,-1.3936305930149,-9.2554243902063,-1.71317004955529,1.81721090974873
0.525,5.06092831866067,0.643622298215369,-0.0859184972318872,-1.82800134184648,3.62706623135337,-7.21829189788731,0.692559261221959,4.39768952718588,0.176304903508594,0.0275004226714373,-3.66044196611428,-1.84524671423328,-0.171303937947641,2.28149056529378,0.150964187564838,5.59944043735419,3.74174283237317,-0.0407629497349262,-6.55444469317899,5.76490545527619,-1.39226043390357,-9.24773230515916,-1.71163162410193,1.81567249367752
0.53,5.05639524041942,0.643076220762572,-0.0850957516936433,-1.82648746685756,3.62403848599175,-7.21223640485596,0.691155324728925,4.39402696660729,0.176074082390073,0.0275004226714373,-3.65739495639197,-1.84372320937212,-0.171927346652865,2.27926839779855,0.150795676069635,5.59478097919008,3.73863653008777,-0.0407629497349262,-6.5497817541218,5.76000218861452,-1.39089027479218,-9.24004022011204,-1.71009319864862,1.8141340776063
0.535,5.05186216217805,0.642530143309774,-0.084273006155172,-1.82497359186863,3.62101074063013,-7.20618091182461,0.689751388236118,4.39036440602871,0.175843261271581,0.0275004226714373,-3.65434794666967,-1.84219970451097,-0.172550755358088,2.27704623030343,0.150627164574416,5.59012152102598,3.73553022780236,-0.0407629497349262,-6.54511881506437,5.75509892195288,-1.3895201156808,-9.2323481350649,-1.70855477319526,1.81259566153509
0.54,5.04732908393669,0.641984065856974,-0.0834502606169281,-1.82345971687971,3.61798299526852,-7.20012541879327,0.688347451743539,4.38670184545014,0.17561244015306,0.0275004226714373,-3.65130093694736,-1.84067619964982,-0.173174164063084,2.27482406280831,0.150458653079212,5.58546206286189,3.73242392551695,-0.0407629497349262,-6.54045587600717,5.75019565529118,-1.38814995656941,-9.22465605001776,-1.7070163477419,1.81105724546388
0.545,5.04279600569532,0.641437988404176,-0.0826275150784568,-1.82194584189079,3.6149552499069,-7.19406992576192,0.686943515250732,4.38303928487155,0.175381619034567,0.0275004226714373,-3.64825392722506,-1.83915269478867,-0.173797572768308,2.27260189531307,0.150290141583994,5.58080260469779,3.72931762323156,-0.0407629497349262,-6.53579293694975,5.74529238862954,-1.38677979745802,-9.21696396497063,-1.70547792228857,1.80951882939266
0.55,5.03826292745407,0.640891910951378,-0.0818047695402129,-1.82043196690187,3.61192750454528,-7.18801443273058,0.685539578757698,4.37937672429297,0.175150797916046,0.0275004226714373,-3.64520691750275,-1.83762918992751,-0.174420981473304,2.27037972781795,0.15012163008879,5.57614314653369,3.72621132094616,-0.0407629497349262,-6.53112999789255,5.74038912196787,-1.38540963834669,-9.20927187992349,-1.70393949683523,1.80798041332145
0.555,5.0337298492127,0.64034583349858,-0.0809820240017416,-1.81891809191295,3.60889975918367,-7.18195893969923,0.684135642264891,4.37571416371439,0.174919976797526,0.0275004226714373,-3.64215990778045,-1.83610568506636,-0.175044390178527,2.26815756032272,0.149953118593572,5.57148368836959,3.72310501866075,-0.0407629497349262,-6.52646705883512,5.73548585530619,-1.38403947923524,-9.20157979487635,-1.7024010713819,1.80644199725023
0.56,5.02919677097134,0.639799756045781,-0.0801592784634977,-1.81740421692403,3.60587201382205,-7.17590344666788,0.682731705772085,4.37205160313581,0.174689155679005,0.0275004226714373,-3.63911289805814,-1.83458218020521,-0.175667798883751,2.26593539282771,0.149784607098354,5.56682423020548,3.71999871637535,-0.0407629497349262,-6.5218041197777,5.73058258864452,-1.38266932012391,-9.19388770982923,-1.70086264592854,1.80490358117902
0.565,5.02466369272997,0.639253678592983,-0.0793365329252538,-1.81589034193511,3.60284426846043,-7.16984795363654,0.681327769279278,4.36838904255723,0.174458334560484,0.0275004226714373,-3.63606588833584,-1.83305867534406,-0.176291207588747,2.26371322533248,0.14961609560315,5.56216477204138,3.71689241408994,-0.0407629497349262,-6.5171411807205,5.72567932198288,-1.38129916101252,-9.18619562478209,-1.69932422047518,1.80336516510781
0.57,5.02013061448861,0.638707601140187,-0.0785137873867825,-1.81437646694619,3.59981652309882,-7.16379246060519,0.679923832786471,4.36472648197864,0.174227513441991,0.0275004226714373,-3.63301887861353,-1.83153517048291,-0.176914616293971,2.26149105783736,0.149447584107946,5.55750531387729,3.71378611180454,-0.0407629497349262,-6.51247824166308,5.72077605532121,-1.37992900190113,-9.17850353973495,-1.69778579502184,1.80182674903659
0.575,5.01559753624736,0.638161523687389,-0.0776910418483112,-1.81286259195727,3.5967887777372,-7.15773696757385,0.678519896293665,4.36106392140007,0.17399669232347,0.0275004226714373,-3.62997186889123,-1.83001166562175,-0.177538024998967,2.25926889034224,0.149279072612728,5.55284585571319,3.71067980951914,-0.0407629497349262,-6.50781530260588,5.71587278865957,-1.3785588427898,-9.17081145468781,-1.69624736956851,1.80028833296538
0.58,5.01106445800599,0.637615446234591,-0.0768682963100673,-1.81134871696834,3.59376103237558,-7.1516814745425,0.677115959800631,4.35740136082148,0.173765871204978,0.0275004226714373,-3.62692485916892,-1.8284881607606,-0.17816143370419,2.25704672284712,0.14911056111751,5.54818639754908,3.70757350723374,-0.0407629497349262,-6.50315236354845,5.7109695219979,-1.37718868367836,-9.16311936964068,-1.69470894411515,1.79874991689417
0.585,5.00653137976462,0.637069368781793,-0.0760455507718234,-1.80983484197942,3.59073328701397,-7.14562598151116,0.675712023307824,4.3537388002429,0.173535050086457,0.0275004226714373,-3.62387784944662,-1.82696465589945,-0.178784842409414,2.25482455535189,0.148942049622306,5.54352693938498,3.70446720494834,-0.0407629497349262,-6.49848942449103,5.70606625533622,-1.37581852456702,-9.15542728459353,-1.69317051866182,1.79721150082295
0.59,5.00199830152326,0.636523291328993,-0.0752228052333521,-1.8083209669905,3.58770554165235,-7.13957048847981,0.674308086815017,4.35007623966432,0.173304228967964,0.0275004226714373,-3.62083083972432,-1.8254411510383,-0.17940825111441,2.25260238785677,0.148773538127102,5.53886748122089,3.70136090266293,-0.0407629497349262,-6.49382648543383,5.70116298867455,-1.37444836545563,-9.1477351995464,-1.69163209320845,1.79567308475173
0.595,4.99746522328189,0.635977213876195,-0.0744000596948808,-1.80680709200158,3.58467779629073,-7.13351499544846,0.672904150322438,4.34641367908574,0.173073407849444,0.0275004226714373,-3.61778383000201,-1.82391764617714,-0.180031659819633,2.25038022036165,0.148605026631884,5.53420802305678,3.69825460037753,-0.0407629497349262,-6.4891635463764,5.69625972201288,-1.37307820634425,-9.14004311449926,-1.69009366775515,1.79413466868052
0.6,4.99293214504064,0.635431136423398,-0.0735773141566369,-1.80529321701266,3.58165005092912,-7.12745950241712,0.671500213829404,4.34275111850716,0.172842586730951,0.0275004226714373,-3.61473682027971,-1.82239414131599,-0.180655068524629,2.24815805286642,0.148436515136666,5.52954856489269,3.69514829809213,-0.0407629497349262,-6.48450060731921,5.69135645535124,-1.37170804723291,-9.13235102945212,-1.68855524230179,1.79259625260931
0.605,4.98839906679927,0.6348850589706,-0.072754568618393,-1.80377934202374,3.5786223055675,-7.12140400938577,0.670096277336597,4.33908855792858,0.172611765612402,0.0275004226714373,-3.6116898105574,-1.82087063645484,-0.181278477229853,2.2459358853713,0.148268003641462,5.52488910672859,3.69204199580673,-0.0407629497349262,-6.47983766826178,5.68645318868957,-1.37033788812147,-9.124658944405,-1.68701681684843,1.79105783653809
0.61,4.98386598855791,0.6343389815178,-0.0719318230799217,-1.80226546703482,3.57559456020588,-7.11534851635442,0.668692340843791,4.33542599735,0.172380944493909,0.0275004226714373,-3.6086428008351,-1.81934713159368,-0.181901885935076,2.24371371787618,0.148099492146258,5.52022964856448,3.68893569352132,-0.0407629497349262,-6.47517472920435,5.6815499220279,-1.36896772901014,-9.11696685935786,-1.68547839139509,1.78951942046687
0.615,4.97933291031666,0.633792904065002,-0.0711090775414505,-1.8007515920459,3.57256681484427,-7.10929302332308,0.667288404350757,4.33176343677142,0.172150123375388,0.0275004226714373,-3.60559579111279,-1.81782362673253,-0.182525294640072,2.24149155038094,0.14793098065104,5.51557019040038,3.68582939123592,-0.0407629497349262,-6.47051179014716,5.67664665536626,-1.36759756989875,-9.10927477431072,-1.68393996594173,1.78798100439567
0.62,4.97479983207529,0.633246826612204,-0.0702863320032066,-1.79923771705698,3.56953906948265,-7.10323753029173,0.665884467858177,4.32810087619283,0.171919302256867,0.0275004226714373,-3.60254878139049,-1.81630012187138,-0.183148703345296,2.23926938288594,0.147762469155836,5.51091073223628,3.68272308895052,-0.0407629497349262,-6.46584885108973,5.67174338870458,-1.36622741078736,-9.10158268926359,-1.6824015404884,1.78644258832445
0.625,4.97026675383381,0.632700749159406,-0.0694635864649626,-1.79772384206806,3.56651132412103,-7.09718203726039,0.664480531365371,4.32443831561425,0.171688481138375,0.0275004226714373,-3.59950177166818,-1.81477661701023,-0.183772112050292,2.23704721539082,0.147593957660618,5.50625127407218,3.67961678666511,-0.0407629497349262,-6.46118591203253,5.66684012204294,-1.36485725167597,-9.09389060421645,-1.68086311503507,1.78490417225324
0.63,4.96573367559245,0.632154671706608,-0.0686408409267187,-1.79620996707914,3.56348357875942,-7.09112654422904,0.663076594872336,4.32077575503567,0.171457660019854,0.0275004226714373,-3.59645476194588,-1.81325311214908,-0.184395520755515,2.23482504789558,0.1474254461654,5.50159181590808,3.67651048437971,-0.0407629497349262,-6.45652297297488,5.66193685538124,-1.36348709256458,-9.08619851916932,-1.6793246895817,1.78336575618202
0.635,4.96120059735119,0.631608594253811,-0.0678180953880201,-1.79469609209021,3.5604558333978,-7.08507105119769,0.66167265837953,4.31711319445709,0.171226838901362,0.0275004226714373,-3.59340775222357,-1.81172960728792,-0.185018929460966,2.23260288040046,0.147256934670196,5.49693235774398,3.67340418209432,-0.0407629497349262,-6.45186003391746,5.6570335887196,-1.36211693345325,-9.07850643412219,-1.67778626412837,1.78182734011081
0.64,4.95666751910983,0.631062516801011,-0.0669953498497762,-1.79318221710129,3.55742808803618,-7.07901555816635,0.660268721886723,4.31345063387851,0.170996017782841,0.0275004226714373,-3.59036074250127,-1.81020610242677,-0.185642338165962,2.23038071290523,0.147088423174992,5.49227289957988,3.67029787980891,-0.0407629497349262,-6.44719709486026,5.65213032205793,-1.36074677434186,-9.07081434907505,-1.67624783867504,1.7802889240396
0.645,4.95213444086846,0.630516439348213,-0.0661726043115323,-1.79166834211237,3.55440034267457,-7.072960065135,0.658864785393689,4.30978807329993,0.170765196664348,0.0275004226714373,-3.58731373277896,-1.80868259756562,-0.186265746871186,2.22815854541011,0.146919911679774,5.48761344141578,3.6671915775235,-0.0407629497349262,-6.44253415580283,5.64722705539626,-1.35937661523047,-9.06312226402791,-1.67470941322168,1.77875050796838
0.65,4.94760136262721,0.629970361895417,-0.0653498587732884,-1.79015446712345,3.55137259731295,-7.06690457210366,0.65746084890111,4.30612551272135,0.170534375545827,0.0275004226714373,-3.58426672305666,-1.80715909270447,-0.186889155576182,2.22593637791499,0.14675140018457,5.48295398325168,3.6640852752381,-0.0407629497349262,-6.43787121674563,5.64232378873461,-1.35800645611909,-9.05543017898077,-1.67317098776834,1.77721209189716
0.655,4.94306828438573,0.629424284442619,-0.0645271132345897,-1.78864059213453,3.54834485195133,-7.06084907907231,0.656056912408303,4.30246295214276,0.170303554427335,0.0275004226714373,-3.58121971333435,-1.80563558784331,-0.187512564281406,2.22371421041976,0.146582888689366,5.47829452508758,3.6609789729527,-0.0407629497349262,-6.43320827768821,5.63742052207294,-1.3566362970077,-9.04773809393363,-1.67163256231498,1.77567367582596
0.66,4.93853520614437,0.628878206989819,-0.0637043676963458,-1.78712671714561,3.54531710658972,-7.05479358604097,0.654652975915496,4.29880039156418,0.170072733308785,0.0275004226714373,-3.57817270361205,-1.80411208298217,-0.188135972986629,2.22149204292464,0.146414377194148,5.47363506692348,3.6578726706673,-0.0407629497349262,-6.42854533863101,5.63251725541127,-1.35526613789636,-9.04004600888649,-1.67009413686162,1.77413525975474
0.665,4.93400212790311,0.628332129537021,-0.0628816221581019,-1.78561284215669,3.5422893612281,-7.04873809300962,0.653249039422462,4.29513783098561,0.169841912190265,0.0275004226714373,-3.57512569388974,-1.80258857812101,-0.188759381691625,2.21926987542952,0.14624586569893,5.46897560875938,3.6547663683819,-0.0407629497349262,-6.42388239957359,5.62761398874963,-1.35389597878498,-9.03235392383937,-1.66855571140832,1.77259684368352
0.67,4.92946904966175,0.627786052084224,-0.062058876619858,-1.78409896716777,3.53926161586648,-7.04268259997827,0.651845102929656,4.29147527040703,0.169611091071772,0.0275004226714373,-3.57207868416744,-1.80106507325986,-0.189382790396849,2.21704770793428,0.146077354203726,5.46431615059527,3.65166006609649,-0.0407629497349262,-6.41921946051616,5.62271072208796,-1.35252581967359,-9.02466183879223,-1.66701728595496,1.77105842761231
0.675,4.92493597142044,0.627239974631426,-0.0612361310813867,-1.78258509217885,3.53623387050487,-7.03662710694692,0.650441166437076,4.28781270982844,0.169380269953251,0.0275004226714373,-3.56903167444513,-1.7995415683987,-0.190006199101845,2.21482554043916,0.145908842708508,5.45965669243117,3.64855376381109,-0.0407629497349262,-6.41455652145896,5.61780745542629,-1.3511556605622,-9.01696975374509,-1.66547886050162,1.7695200115411
0.68,4.92040289317907,0.626693897178628,-0.0604133855429154,-1.78107121718993,3.53320612514325,-7.03057161391558,0.649037229944042,4.28415014924986,0.169149448834759,0.0275004226714373,-3.56598466472283,-1.79801806353755,-0.190629607807068,2.21260337294405,0.145740331213304,5.45499723426708,3.64544746152569,-0.0407629497349262,-6.40989358240154,5.61290418876462,-1.34978550145087,-9.00927766869796,-1.66394043504826,1.76798159546988
0.685,4.91586981493771,0.62614781972583,-0.0595906400046715,-1.779557342201,3.53017837978163,-7.02451612088424,0.647633293451236,4.28048758867127,0.168918627716238,0.0275004226714373,-3.56293765500052,-1.7964945586764,-0.191253016512292,2.21038120544893,0.145571819718086,5.45033777610297,3.64234115924029,-0.0407629497349262,-6.40523064334434,5.60800092210295,-1.34841534233942,-9.00158558365082,-1.66240200959493,1.76644317939866
0.69,4.9113367366964,0.62560174227303,-0.0587678944662002,-1.77804346721208,3.52715063442002,-7.01846062785289,0.646229356958429,4.2768250280927,0.168687806597745,0.0275004226714373,-3.55989064527822,-1.79497105381525,-0.191876425217288,2.20815903795369,0.145403308222882,5.44567831793888,3.63923485695489,-0.0407629497349262,-6.40056770428691,5.6030976554413,-1.34704518322809,-8.99389349860368,-1.66086358414159,1.76490476332746
0.695,4.90680365845503,0.625055664820232,-0.0579451489279563,-1.77652959222316,3.5241228890584,-7.01240513482154,0.644825420465395,4.27316246751411,0.168456985479224,0.0275004226714373,-3.55684363555591,-1.79344754895409,-0.192499833922511,2.20593687045857,0.145234796727664,5.44101885977478,3.63612855466948,-0.0407629497349262,-6.39590476522949,5.59819438877963,-1.3456750241167,-8.98620141355656,-1.65932515868823,1.76336634725624
0.7,4.90227058021367,0.624509587367434,-0.057122403389485,-1.77501571723424,3.52109514369678,-7.00634964179019,0.643421483972588,4.26949990693554,0.168226164360703,0.0275004226714373,-3.55379662583361,-1.79192404409294,-0.193123242627507,2.20371470296345,0.145066285232446,5.43635940161068,3.63302225238408,-0.0407629497349262,-6.39124182617229,5.59329112211796,-1.34430486500531,-8.97850932850942,-1.65778673323487,1.76182793118502
0.705,4.89773750197236,0.623963509914637,-0.0562996578512411,-1.77350184224532,3.51806739833517,-7.00029414875885,0.642017547480009,4.26583734635695,0.167995343242183,0.0275004226714373,-3.5507496161113,-1.79040053923179,-0.193746651332731,2.20149253546833,0.144897773737256,5.43169994344657,3.62991595009868,-0.0407629497349262,-6.38657888711487,5.58838785545632,-1.34293470589398,-8.97081724346228,-1.65624830778154,1.76028951511381
0.71,4.89320442373099,0.623417432461839,-0.0554769123129972,-1.7719879672564,3.51503965297355,-6.9942386557275,0.640613610987202,4.26217478577837,0.167764522123662,0.0275004226714373,-3.547702606389,-1.78887703437064,-0.194370060037954,2.19927036797321,0.144729262242038,5.42704048528248,3.62680964781327,-0.0407629497349262,-6.38191594805767,5.58348458879465,-1.34156454678254,-8.96312515841515,-1.65470988232821,1.7587510990426
0.715,4.88867134548968,0.622871355009039,-0.0546541667745259,-1.77047409226748,3.51201190761194,-6.98818316269616,0.639209674494168,4.25851222519979,0.167533701005169,0.0275004226714373,-3.54465559666669,-1.78735352950949,-0.19499346874295,2.19704820047798,0.14456075074682,5.42238102711838,3.62370334552787,-0.0407629497349262,-6.37725300900024,5.578581322133,-1.3401943876712,-8.95543307336801,-1.65317145687487,1.75721268297139
0.72,4.88413826724832,0.622325277556241,-0.053831421236282,-1.76896021727855,3.50898416225032,-6.98212766966481,0.637805738001362,4.25484966462121,0.167302879886648,0.0275004226714373,-3.54160858694439,-1.78583002464833,-0.195616877448174,2.19482603298286,0.144392239251601,5.41772156895427,3.62059704324246,-0.0407629497349262,-6.37259006994282,5.57367805547131,-1.33882422855976,-8.94774098832087,-1.65163303142151,1.75567426690017
0.725,4.87960518900701,0.621779200103443,-0.0530086756978108,-1.76744634228963,3.5059564168887,-6.97607217663347,0.636401801508555,4.25118710404263,0.167072058768156,0.0275004226714373,-3.53856157722208,-1.78430651978718,-0.19624028615317,2.19260386548763,0.144223727756412,5.41306211079017,3.61749074095707,-0.0407629497349262,-6.36792713088562,5.56877478880966,-1.33745406944843,-8.94004890327375,-1.65009460596815,1.75413585082896
0.73,4.8750721107657,0.621233122650647,-0.0521859301595669,-1.76593246730071,3.50292867152709,-6.97001668360212,0.634997865015748,4.24752454346405,0.166841237649635,0.0275004226714373,-3.53551456749978,-1.78278301492603,-0.196863694858394,2.19038169799251,0.144055216261194,5.40840265262607,3.61438443867166,-0.0407629497349262,-6.36326419182819,5.56387152214799,-1.33608391033709,-8.93235681822659,-1.64855618051484,1.75259743475775
0.735,4.87053903252433,0.620687045197849,-0.0513631846210956,-1.76441859231179,3.49990092616547,-6.96396119057077,0.633593928522941,4.24386198288547,0.166610416531142,0.0275004226714373,-3.53246755777747,-1.78125951006487,-0.197487103563617,2.1881595304975,0.143886704765976,5.40374319446197,3.61127813638626,-0.0407629497349262,-6.358601252771,5.55896825548632,-1.33471375122565,-8.92466473317945,-1.64701775506148,1.75105901868653
0.74,4.86600595428297,0.62014096774505,-0.0505404390828517,-1.76290471732287,3.49687318080385,-6.95790569753943,0.632189992030135,4.24019942230689,0.166379595412621,0.0275004226714373,-3.52942054805517,-1.77973600520372,-0.198110512268613,2.18593736300215,0.143718193270772,5.39908373629788,3.60817183410086,-0.0407629497349262,-6.35393831371357,5.55406498882468,-1.33334359211432,-8.91697264813233,-1.64547932960812,1.74952060261531
0.745,4.86147287604166,0.619594890292252,-0.0497176935443804,-1.76139084233395,3.49384543544224,-6.95185020450808,0.630786055537101,4.23653686172831,0.166148774294101,0.0275004226714373,-3.52637353833287,-1.77821250034258,-0.198733920973837,2.18371519550715,0.143549681775553,5.39442427813378,3.60506553181546,-0.0407629497349262,-6.34927537465614,5.54916172216301,-1.33197343300287,-8.90928056308519,-1.64394090415479,1.7479821865441
0.75,4.85693979780029,0.619048812839454,-0.0488949480061365,-1.75987696734503,3.49081769008062,-6.94579471147674,0.629382119044294,4.23287430114972,0.165917953175608,0.0275004226714373,-3.52332652861056,-1.77668899548141,-0.199357329678833,2.18149302801203,0.14338117028035,5.38976481996967,3.60195922953005,-0.0407629497349262,-6.34461243559895,5.54425845550134,-1.33060327389154,-8.90158847803805,-1.64240247870143,1.74644377047288
0.755,4.85240671955899,0.618502735386656,-0.0480722024676652,-1.75836309235611,3.487789944719,-6.93973921844539,0.627978182551487,4.22921174057114,0.165687132057087,0.0275004226714373,-3.52027951888826,-1.77516549062027,-0.199980738384056,2.17927086051679,0.143212658785131,5.38510536180557,3.59885292724465,-0.0407629497349262,-6.33994949654152,5.53935518883969,-1.32923311478015,-8.89389639299092,-1.64086405324812,1.74490535440167
0.76,4.84787364131762,0.617956657933858,-0.0472494569294213,-1.75684921736719,3.48476219935738,-6.93368372541404,0.626574246058681,4.22554917999256,0.165456310938595,0.0275004226714373,-3.51723250916595,-1.77364198575911,-0.20060414708928,2.17704869302167,0.143044147289928,5.38044590364147,3.59574662495925,-0.0407629497349262,-6.33528655748432,5.53445192217802,-1.32786295566876,-8.88620430794379,-1.63932562779476,1.74336693833045
0.765,4.84334056307625,0.617410580481058,-0.0464267113911774,-1.75533534237827,3.48173445399577,-6.92762823238269,0.625170309565874,4.22188661941398,0.165225489820045,0.0275004226714373,-3.51418549944364,-1.77211848089796,-0.201227555794276,2.17482652552656,0.142875635794709,5.37578644547737,3.59264032267385,-0.0407629497349262,-6.3306236184269,5.52954865551635,-1.32649279655743,-8.87851222289665,-1.6377872023414,1.74182852225924
0.77,4.83880748483494,0.61686450302826,-0.0456039658524787,-1.75382146738934,3.47870670863415,-6.92157273935135,0.623766373073067,4.2182240588354,0.164994668701553,0.0275004226714373,-3.51113848972134,-1.77059497603681,-0.201850964499499,2.17260435803132,0.142707124299491,5.37112698731327,3.58953402038844,-0.0407629497349262,-6.3259606793697,5.52464538885468,-1.32512263744604,-8.87082013784952,-1.63624877688807,1.74029010618803
0.775,4.83427440659358,0.616318425575463,-0.0447812203142348,-1.75230759240042,3.47567896327253,-6.91551724632001,0.622362436580261,4.21456149825682,0.164763847583032,0.0275004226714373,-3.50809147999904,-1.76907147117566,-0.202474373204495,2.1703821905362,0.142538612804302,5.36646752914917,3.58642771810304,-0.0407629497349262,-6.32129774031205,5.51974212219301,-1.32375247833465,-8.86312805280238,-1.63471035143473,1.73875169011681
0.78,4.82974132835221,0.615772348122665,-0.0439584747759909,-1.7507937174115,3.47265121791092,-6.90946175328866,0.620958500087227,4.21089893767823,0.164533026464539,0.0275004226714373,-3.50504447027673,-1.76754796631451,-0.203097781909719,2.16816002304097,0.142370101309083,5.36180807098506,3.58332141581764,-0.0407629497349262,-6.31663480125462,5.51483885553137,-1.32238231922327,-8.85543596775524,-1.63317192598137,1.7372132740456
0.785,4.8252082501109,0.615226270669867,-0.043135729237747,-1.74927984242258,3.4696234725493,-6.90340626025731,0.619554563594647,4.20723637709965,0.164302205346019,0.0275004226714373,-3.50199746055443,-1.76602446145335,-0.20372119061517,2.16593785554585,0.142201589813865,5.35714861282097,3.58021511353223,-0.0407629497349262,-6.31197186219742,5.50993558886969,-1.32101216011188,-8.84774388270812,-1.63163350052804,1.73567485797438
0.79,4.82067517186954,0.614680193217067,-0.0423129836992757,-1.74776596743366,3.46659572718768,-6.89735076722597,0.618150627101841,4.20357381652107,0.164071384227526,0.0275004226714373,-3.49895045083212,-1.7645009565922,-0.204344599320166,2.16371568805073,0.142033078318661,5.35248915465687,3.57710881124684,-0.0407629497349262,-6.30730892314,5.50503232220805,-1.31964200100049,-8.84005179766098,-1.63009507507468,1.73413644190317
0.795,4.81614209362817,0.614134115764269,-0.0414902381608044,-1.74625209244474,3.46356798182607,-6.89129527419462,0.616746690608807,4.19991125594249,0.163840563109005,0.0275004226714373,-3.49590344110982,-1.76297745173105,-0.204968008025389,2.16149352055561,0.141864566823457,5.34782969649277,3.57400250896143,-0.0407629497349262,-6.3026459840828,5.50012905554638,-1.31827184188916,-8.83235971261382,-1.62855664962134,1.73259802583195
0.8,4.81160901538692,0.613588038311471,-0.0406674926225605,-1.74473821745582,3.46054023646445,-6.88523978116327,0.615342754116,4.19624869536391,0.163609741990484,0.0275004226714373,-3.49285643138751,-1.76145394686989,-0.205591416730385,2.15927135306038,0.141696055328239,5.34317023832867,3.57089620667603,-0.0407629497349262,-6.29798304502538,5.49522578888471,-1.31690168277777,-8.8246676275667,-1.62701822416801,1.73105960976075
0.805,4.8070759371455,0.613041960858673,-0.0398447470843166,-1.7432243424669,3.45751249110284,-6.87918428813193,0.613938817623193,4.19258613478533,0.163378920871992,0.0275004226714373,-3.48980942166521,-1.75993044200874,-0.206214825435609,2.15704918556526,0.141527543833021,5.33851078016457,3.56778990439062,-0.0407629497349262,-6.29332010596795,5.49032252222304,-1.31553152366638,-8.81697554251956,-1.62547979871465,1.72952119368952
0.81,4.80254285890419,0.612495883405876,-0.0390220015458453,-1.74171046747798,3.45448474574122,-6.87312879510058,0.612534881130159,4.18892357420675,0.163148099753442,0.0275004226714373,-3.4867624119429,-1.75840693714759,-0.206838234140832,2.15482701807014,0.141359032337817,5.33385132200046,3.56468360210522,-0.0407629497349262,-6.28865716691075,5.4854192555614,-1.31416136455499,-8.80928345747243,-1.62394137326132,1.72798277761832
0.815,4.79800978066282,0.611949805953078,-0.0381992560073741,-1.74019659248906,3.4514570003796,-6.86707330206924,0.61113094463758,4.18526101362817,0.16291727863495,0.0275004226714373,-3.4837154022206,-1.75688343228644,-0.207461642845828,2.1526048505749,0.141190520842613,5.32919186383636,3.56157729981982,-0.0407629497349262,-6.28399422785333,5.48051598889973,-1.3127912054436,-8.80159137242529,-1.62240294780796,1.7264443615471
0.82,4.79347670242151,0.61140372850028,-0.0373765104691302,-1.73868271750014,3.44842925501798,-6.86101780903789,0.609727008144773,4.18159845304959,0.162686457516429,0.0275004226714373,-3.48066839249829,-1.75535992742528,-0.208085051551052,2.1503826830799,0.141022009347395,5.32453240567227,3.55847099753442,-0.0407629497349262,-6.27933128879613,5.47561272223805,-1.31142104633227,-8.79389928737815,-1.62086452235462,1.72490594547589
0.825,4.78894362418015,0.610857651047482,-0.0365537649308862,-1.73716884251121,3.44540150965637,-6.85496231600655,0.608323071651739,4.17793589247101,0.162455636397937,0.0275004226714373,-3.47762138277599,-1.75383642256413,-0.208708460256048,2.14816051558466,0.140853497852177,5.31987294750816,3.55536469524901,-0.0407629497349262,-6.2746683497387,5.47070945557638,-1.31005088722088,-8.78620720233103,-1.61932609690129,1.72336752940467
0.83,4.78441054593878,0.610311573594684,-0.0357310193926423,-1.73565496752229,3.44237376429475,-6.8489068229752,0.606919135158932,4.17427333189242,0.162224815279416,0.0275004226714373,-3.47457437305368,-1.75231291770298,-0.209331868961272,2.14593834808954,0.140684986356973,5.31521348934407,3.55225839296361,-0.0407629497349262,-6.27000541068128,5.46580618891474,-1.30868072810949,-8.77851511728389,-1.61778767144793,1.72182911333346
0.835,4.77987746769747,0.609765496141886,-0.0349082738539437,-1.73414109253337,3.43934601893313,-6.84285132994385,0.605515198666126,4.17061077131384,0.161993994160923,0.0275004226714373,-3.47152736333138,-1.75078941284183,-0.209955277666495,2.14371618059442,0.140516474861755,5.31055403117997,3.54915209067821,-0.0407629497349262,-6.26534247162408,5.46090292225307,-1.3073105689981,-8.77082303223675,-1.6162492459946,1.72029069726224
0.84,4.77534438945611,0.609219418689086,-0.0340855283156998,-1.73262721754445,3.43631827357152,-6.83679583691251,0.604111262173546,4.16694821073526,0.161763173042402,0.0275004226714373,-3.46848035360907,-1.74926590798067,-0.210578686371491,2.14149401309919,0.140347963366551,5.30589457301587,3.54604578839281,-0.0407629497349262,-6.26067953256666,5.45599965559143,-1.30594040988672,-8.76313094718961,-1.61471082054123,1.71875228119103
0.845,4.7708113112148,0.608673341236289,-0.0332627827774559,-1.73111334255553,3.4332905282099,-6.83074034388116,0.602707325680512,4.16328565015668,0.161532351923881,0.0275004226714373,-3.46543334388677,-1.74774240311952,-0.211202095076715,2.13927184560407,0.140179451871347,5.30123511485176,3.54293948610741,-0.0407629497349262,-6.25601659350946,5.45109638892976,-1.30457025077538,-8.75543886214248,-1.6131723950879,1.71721386511982
0.85,4.76627823297343,0.608127263783491,-0.0324400372389846,-1.72959946756661,3.43026278284828,-6.82468485084981,0.601303389187706,4.1596230895781,0.161301530805389,0.0275004226714373,-3.46238633416447,-1.74621889825837,-0.211825503781711,2.13704967810895,0.140010940376129,5.29657565668766,3.539833183822,-0.0407629497349262,-6.25135365445203,5.44619312226806,-1.30320009166394,-8.74774677709534,-1.61163396963457,1.7156754490486
0.855,4.76174515473207,0.607581186330693,-0.0316172917005133,-1.72808559257768,3.42723503748667,-6.81862935781847,0.599899452694899,4.15596052899952,0.161070709686868,0.0275004226714373,-3.45933932444216,-1.74469539339722,-0.212448912486934,2.13482751061383,0.139842428880911,5.29191619852357,3.5367268815366,-0.0407629497349262,-6.24669071539461,5.44128985560644,-1.30182993255261,-8.74005469204822,-1.61009554418121,1.71413703297739
0.86,4.75721207649076,0.607035108877895,-0.0307945461622694,-1.72657171758877,3.42420729212505,-6.81257386478712,0.598495516201865,4.15229796842094,0.160839888568347,0.0275004226714373,-3.45629231471986,-1.74317188853607,-0.213072321192158,2.13260534311871,0.139673917385707,5.28725674035946,3.5336205792512,-0.0407629497349262,-6.24202777633741,5.43638658894474,-1.30045977344122,-8.73236260700108,-1.60855711872784,1.71259861690617
0.865,4.75267899824939,0.606489031425095,-0.0299718006240255,-1.72505784259985,3.42117954676343,-6.80651837175578,0.597091579709058,4.14863540784236,0.160609067449826,0.0275004226714373,-3.45324530499755,-1.74164838367491,-0.213695729897154,2.13038317562348,0.139505405890489,5.28259728219536,3.5305142769658,-0.0407629497349262,-6.23736483727998,5.4314833222831,-1.29908961432983,-8.72467052195393,-1.60701869327454,1.71106020083496
0.87,4.74814592000808,0.605942953972297,-0.0291490550857816,-1.72354396761092,3.41815180140182,-6.80046287872443,0.595687643216479,4.14497284726378,0.160378246331334,0.0275004226714373,-3.45019829527525,-1.74012487881377,-0.214319138602377,2.12816100812836,0.139336894395285,5.27793782403126,3.52740797468039,-0.0407629497349262,-6.23270189822279,5.42658005562143,-1.2977194552185,-8.71697843690679,-1.60548026782118,1.70952178476374
0.875,4.74361284176672,0.605396876519499,-0.0283263095473103,-1.722030092622,3.4151240560402,-6.79440738569308,0.594283706723445,4.14131028668519,0.160147425212813,0.0275004226714373,-3.44715128555294,-1.7386013739526,-0.214942547307373,2.12593884063324,0.139168382900067,5.27327836586716,3.52430167239498,-0.0407629497349262,-6.22803895916536,5.42167678895976,-1.29634929610705,-8.70928635185966,-1.60394184236782,1.70798336869253
0.88,4.73907976352541,0.604850799066702,-0.027503564008839,-1.72051621763308,3.41209631067859,-6.78835189266174,0.592879770230638,4.13764772610661,0.15991660409432,0.0275004226714373,-3.44410427583064,-1.73707786909146,-0.215565956012597,2.12371667313812,0.138999871404863,5.26861890770306,3.52119537010959,-0.0407629497349262,-6.22337602010816,5.41677352229812,-1.29497913699572,-8.70159426681252,-1.60240341691448,1.70644495262132
0.885,4.73454668528404,0.604304721613904,-0.0266808184705951,-1.71900234264416,3.40906856531697,-6.78229639963039,0.591475833737832,4.13398516552803,0.159685782975799,0.0275004226714373,-3.44105726610833,-1.7355543642303,-0.21618936471782,2.12149450564289,0.138831359909645,5.26395944953897,3.51808906782419,-0.0407629497349262,-6.21871308105074,5.41187025563644,-1.29360897788433,-8.69390218176538,-1.60086499146112,1.70490653655011
0.89,4.73001360704274,0.603758644161104,-0.0258580729321238,-1.71748846765524,3.40604081995535,-6.77624090659905,0.590071897245025,4.13032260494945,0.159454961857278,0.0275004226714373,-3.43801025638603,-1.73403085936916,-0.216812773422816,2.11927233814777,0.138662848414441,5.25929999137486,3.51498276553878,-0.0407629497349262,-6.21405014199331,5.4069669889748,-1.29223881877294,-8.68621009671826,-1.59932656600782,1.70336812047889
0.895,4.72548052880131,0.603212566708306,-0.0250353273938799,-1.71597459266632,3.40301307459374,-6.7701854135677,0.588667960752218,4.12666004437087,0.159224140738786,0.0275004226714373,-3.43496324666372,-1.732507354508,-0.21743618212804,2.11705017065265,0.138494336919223,5.25464053321076,3.51187646325338,-0.0407629497349262,-6.20938720293611,5.4020637223131,-1.29086865966161,-8.67851801167112,-1.59778814055446,1.70182970440767
0.9,4.72094745056,0.60266648925551,-0.0242125818554086,-1.7144607176774,3.39998532923212,-6.76412992053636,0.587264024259412,4.12299748379229,0.158993319620265,0.0275004226714373,-3.43191623694142,-1.73098384964684,-0.218059590833036,2.11482800315741,0.138325825424019,5.24998107504666,3.50877016096798,-0.0407629497349262,-6.20472426387869,5.39716045565143,-1.28949850055017,-8.67082592662398,-1.5962497151011,1.70029128833646
0.905,4.7164143723187,0.602120411802712,-0.0233898363171647,-1.71294684268848,3.3969575838705,-6.75807442750501,0.585860087766605,4.11933492321371,0.158762498501744,0.0275004226714373,-3.42886922721911,-1.72946034478569,-0.21868299953826,2.11260583566229,0.138157313928801,5.24532161688256,3.50566385868257,-0.0407629497349262,-6.20006132482149,5.39225718898979,-1.28812834143883,-8.66313384157685,-1.59471128964776,1.69875287226525
0.91,4.71188129407733,0.601574334349914,-0.0225670907786935,-1.71143296769955,3.39392983850889,-6.75201893447366,0.584456151273571,4.11567236263512,0.158531677383223,0.0275004226714373,-3.42582221749681,-1.72793683992454,-0.219306408243483,2.11038366816706,0.137988802433583,5.24066215871846,3.50255755639717,-0.0407629497349262,-6.19539838576407,5.38735392232812,-1.28675818232745,-8.65544175652971,-1.59317286419443,1.69721445619403
0.915,4.70734821583596,0.601028256897115,-0.0217443452404495,-1.70991909271063,3.39090209314727,-6.74596344144232,0.583052214780764,4.11200980205654,0.158300856264731,0.0275004226714373,-3.4227752077745,-1.72641333506339,-0.219929816948479,2.10816150067194,0.137820290938393,5.23600270055436,3.49945125411177,-0.0407629497349262,-6.19073544670664,5.38245065566645,-1.28538802321606,-8.64774967148257,-1.59163443874107,1.69567604012282
0.92,4.70281513759465,0.600482179444317,-0.0209215997022056,-1.70840521772171,3.38787434778565,-6.73990794841097,0.581648278287958,4.10834724147796,0.15807003514621,0.0275004226714373,-3.41972819805219,-1.72488983020224,-0.220553225653703,2.10593933317693,0.137651779443175,5.23134324239025,3.49634495182637,-0.0407629497349262,-6.18607250764921,5.3775473890048,-1.28401786410467,-8.64005758643545,-1.59009601328773,1.69413762405161
0.925,4.69828205935329,0.599936101991519,-0.0200988541637344,-1.70689134273279,3.38484660242404,-6.73385245537962,0.580244341795151,4.10468468089938,0.157839214027717,0.0275004226714373,-3.41668118832989,-1.72336632534109,-0.221176634358926,2.10371716568159,0.137483267947957,5.22668378422616,3.49323864954096,-0.0407629497349262,-6.18140956859179,5.37264412234313,-1.28264770499328,-8.63236550138831,-1.58855758783437,1.69259920798039
0.93,4.69374898111192,0.599390024538721,-0.0192761086252631,-1.70537746774387,3.38181885706242,-6.72779696234828,0.578840405302344,4.1010221203208,0.157608392909196,0.0275004226714373,-3.41363417860759,-1.72184282047993,-0.22180004306415,2.10149499818658,0.137314756452753,5.22202432606206,3.49013234725556,-0.0407629497349262,-6.17674662953459,5.36774085568149,-1.28127754588195,-8.62467341634117,-1.58701916238104,1.69106079190918
0.935,4.68921590287061,0.598843947085923,-0.0184533630870192,-1.70386359275495,3.3787911117008,-6.72174146931693,0.577436468809537,4.09735955974222,0.157377571790704,0.0275004226714373,-3.41058716888528,-1.72031931561877,-0.222423451769373,2.09927283069146,0.137146244957549,5.21736486789796,3.48702604497016,-0.0407629497349262,-6.17208369047717,5.36283758901982,-1.27990738677056,-8.61698133129403,-1.58548073692771,1.68952237583796
0.94,4.68468282462925,0.598297869633125,-0.0176306175487753,-1.70234971776603,3.37576336633919,-6.71568597628559,0.576032532316503,4.09369699916364,0.157146750672183,0.0275004226714373,-3.40754015916298,-1.71879581075763,-0.223046860474369,2.09705066319623,0.136977733462331,5.21270540973386,3.48391974268475,-0.0407629497349262,-6.16742075141974,5.35793432235812,-1.27853722765917,-8.6092892462469,-1.58394231147435,1.68798395976674
0.945,4.68014974638788,0.597751792180325,-0.016807872010304,-1.70083584277711,3.37273562097757,-6.70963048325424,0.574628595823697,4.09003443858506,0.156915929553691,0.0275004226714373,-3.40449314944067,-1.71727230589647,-0.223670269179593,2.09482849570111,0.136809221967113,5.20804595156976,3.48081344039936,-0.0407629497349262,-6.16275781236254,5.35303105569648,-1.27716706854778,-8.60159716119976,-1.58240388602101,1.68644554369553
0.95,4.67561666814663,0.597205714727528,-0.0159851264718327,-1.69932196778819,3.36970787561595,-6.70357499022289,0.573224659331117,4.08637187800647,0.15668510843517,0.0275004226714373,-3.40144613971837,-1.71574880103532,-0.224293677884589,2.09260632820587,0.136640710471909,5.20338649340565,3.47770713811395,-0.0407629497349262,-6.15809487330512,5.34812778903481,-1.27579690943645,-8.59390507615262,-1.58086546056765,1.68490712762432
0.955,4.67108358990527,0.59665963727473,-0.0151623809335888,-1.69780809279926,3.36668013025433,-6.69751949719155,0.571820722838311,4.0827093174279,0.156454287316649,0.0275004226714373,-3.39839912999606,-1.71422529617417,-0.224917086589812,2.09038416071076,0.136472198976705,5.19872703524155,3.47460083582855,-0.0407629497349262,-6.15343193424792,5.34322452237316,-1.27442675032501,-8.58621299110548,-1.57932703511432,1.6833687115531
0.96,4.6665505116639,0.596113559821932,-0.0143396353953449,-1.69629421781035,3.36365238489272,-6.6914640041602,0.570416786345277,4.07904675684931,0.156223466198156,0.0275004226714373,-3.39535212027376,-1.71270179131302,-0.225540495295036,2.08816199321564,0.136303687481487,5.19406757707745,3.47149453354314,-0.0407629497349262,-6.14876899519049,5.33832125571149,-1.27305659121367,-8.57852090605836,-1.57778860966098,1.68183029548189
0.965,4.66201743342259,0.595567482369134,-0.013516889857101,-1.69478034282142,3.3606246395311,-6.68540851112886,0.56901284985247,4.07538419627073,0.155992645079607,0.0275004226714373,-3.39230511055145,-1.71117828645186,-0.226163904000032,2.08593982572052,0.136135175986269,5.18940811891336,3.46838823125775,-0.0407629497349262,-6.14410605613307,5.33341798904982,-1.27168643210229,-8.57082882101122,-1.57625018420762,1.68029187941068
0.97,4.65748435518123,0.595021404916334,-0.0126941443184023,-1.6932664678325,3.35759689416949,-6.67935301809751,0.567608913359663,4.07172163569215,0.155761823961114,0.0275004226714373,-3.38925810082915,-1.70965478159071,-0.226787312705255,2.08371765822528,0.135966664491065,5.18474866074925,3.46528192897235,-0.0407629497349262,-6.13944311707587,5.32851472238818,-1.2703162729909,-8.56313673596408,-1.57471175875429,1.67875346333946
0.975,4.65295127693992,0.594475327463536,-0.0118713987801584,-1.69175259284358,3.35456914880787,-6.67329752506616,0.566204976866629,4.06805907511357,0.155531002842594,0.0275004226714373,-3.38621109110684,-1.70813127672956,-0.227410721410251,2.08149549073016,0.135798152995847,5.18008920258516,3.46217562668694,-0.0407629497349262,-6.13478017801845,5.32361145572648,-1.26894611387957,-8.55544465091694,-1.57317333330093,1.67721504726825
0.98,4.64841819869855,0.593929250010738,-0.0110486532419145,-1.69023871785466,3.35154140344625,-6.66724203203482,0.56480104037405,4.06439651453499,0.155300181724101,0.0275004226714373,-3.38316408138454,-1.70660777186841,-0.228034130115475,2.07927332323504,0.135629641500628,5.17542974442106,3.45906932440153,-0.0407629497349262,-6.13011723896125,5.31870818906486,-1.26757595476812,-8.54775256586981,-1.5716349078476,1.67567663119704
0.985,4.64388512045718,0.593383172557942,-0.0102259077036706,-1.68872484286574,3.34851365808464,-6.66118653900347,0.563397103881243,4.06073395395641,0.15506936060558,0.0275004226714373,-3.38011707166223,-1.70508426700726,-0.228657538820698,2.07705115573992,0.135461130005439,5.17077028625695,3.45596302211614,-0.0407629497349262,-6.12545429990382,5.31380492240319,-1.26620579565679,-8.54006048082267,-1.57009648239426,1.67413821512582
0.99,4.63935204221588,0.592837095105144,-0.00940316216497195,-1.68721096787682,3.34548591272302,-6.65513104597213,0.561993167388209,4.05707139337783,0.154838539487088,0.0275004226714373,-3.37707006193993,-1.7035607621461,-0.229280947525695,2.0748289882448,0.135292618510221,5.16611082809285,3.45285671983073,-0.0407629497349262,-6.1207913608464,5.30890165574149,-1.2648356365454,-8.53236839577555,-1.5685580569409,1.6725997990546
0.995,4.63481896397451,0.592291017652345,-0.00858041662672804,-1.6856970928879,3.3424581673614,-6.64907555294078,0.560589230895403,4.05340883279925,0.154607718368567,0.0275004226714373,-3.37402305221762,-1.70203725728495,-0.229904356230918,2.07260682074957,0.135124107015002,5.16145136992876,3.44975041754533,-0.0407629497349262,-6.1161284217892,5.30399838907985,-1.26346547743401,-8.52467631072841,-1.56701963148754,1.67106138298339
1,4.63028588573314,0.591744940199547,-0.00775767108848413,-1.68418321789898,3.33943042199979,-6.64302005990944,0.559185294402596,4.04974627222066,0.154376897250046,0.0275004226714373,-3.37097604249532,-1.7005137524238,-0.230527764935914,2.07038465325445,0.134955595519799,5.15679191176465,3.44664411525993,-0.0407629497349262,-6.11146548273177,5.29909512241818,-1.26209531832268,-8.51698422568127,-1.56548120603424,1.66952296691218
1.005,4.62575280749184,0.591198862746749,-0.00693492555024022,-1.68266934291006,3.33640267663817,-6.63696456687809,0.557781357910017,4.04608371164208,0.154146076131553,0.0275004226714373,-3.36792903277302,-1.69899024756265,-0.231151173641138,2.06816248575933,0.134787084024595,5.15213245360055,3.44353781297452,-0.0407629497349262,-6.10680254367458,5.29419185575654,-1.26072515921123,-8.50929214063413,-1.56394278058087,1.66798455084097
1.01,4.62121972925047,0.590652785293951,-0.00611218001176894,-1.68115546792113,3.33337493127655,-6.63090907384674,0.556377421416983,4.0424211510635,0.153915255013004,0.0275004226714373,-3.36488202305071,-1.69746674270149,-0.231774582346361,2.0659403182641,0.134618572529376,5.14747299543645,3.44043151068912,-0.0407629497349262,-6.10213960461715,5.28928858909487,-1.2593550000999,-8.50160005558699,-1.56240435512754,1.66644613476975
1.015,4.6166866510091,0.590106707841153,-0.00528943447329766,-1.67964159293221,3.33034718591494,-6.6248535808154,0.554973484924176,4.03875859048492,0.153684433894512,0.0275004226714373,-3.36183501332841,-1.69594323784034,-0.232397991051357,2.06371815076898,0.134450061034158,5.14281353727235,3.43732520840372,-0.0407629497349262,-6.09747666555995,5.2843853224332,-1.25798484098846,-8.49390797053987,-1.56086592967418,1.66490771869853
1.02,4.6121535727678,0.589560630388354,-0.00446668893505375,-1.67812771794329,3.32731944055332,-6.61879808778405,0.553569548431369,4.03509602990634,0.153453612775991,0.0275004226714373,-3.3587880036061,-1.69441973297918,-0.233021399756581,2.06149598327386,0.134281549538954,5.13815407910825,3.43421890611832,-0.0407629497349262,-6.09281372650253,5.27948205577152,-1.25661468187712,-8.48621588549271,-1.55932750422082,1.66336930262732
1.025,4.60762049452649,0.589014552935556,-0.00364394339680985,-1.67661384295437,3.3242916951917,-6.61274259475271,0.552165611938335,4.03143346932776,0.153222791657498,0.0275004226714373,-3.3557409938838,-1.69289622811803,-0.233644808461577,2.05927381577862,0.134113038043736,5.13349462094416,3.43111260383291,-0.0407629497349262,-6.0881507874451,5.27457878910988,-1.25524452276579,-8.47852380044559,-1.55778907876751,1.66183088655611
1.03,4.60308741628506,0.588468475482758,-0.00282119785833856,-1.67509996796545,3.32126394983008,-6.60668710172136,0.550761675445528,4.02777090874918,0.152991970538977,0.0275004226714373,-3.35269398416149,-1.69137272325688,-0.2342682171668,2.0570516482835,0.133944526548532,5.12883516278005,3.42800630154751,-0.0407629497349262,-6.0834878483879,5.2696755224482,-1.25387436365435,-8.47083171539845,-1.55625065331415,1.66029247048489
1.035,4.59855433804381,0.58792239802996,-0.00199845231986728,-1.67358609297653,3.31823620446847,-6.60063160869001,0.549357738952949,4.02410834817059,0.152761149420485,0.0275004226714373,-3.34964697443919,-1.68984921839573,-0.234891625872024,2.05482948078827,0.133776015053328,5.12417570461595,3.42489999926211,-0.0407629497349262,-6.07882490933048,5.26477225578653,-1.25250420454302,-8.46313963035132,-1.55471222786079,1.65875405441368
1.04,4.59402125980239,0.587376320577162,-0.00117570678162338,-1.67207221798761,3.31520845910685,-6.59457611565867,0.547953802459915,4.02044578759202,0.152530328301964,0.0275004226714373,-3.34659996471688,-1.68832571353458,-0.23551503457702,2.05260731329315,0.13360750355811,5.11951624645185,3.42179369697671,-0.0407629497349262,-6.07416197027328,5.25986898912487,-1.25113404543163,-8.45544754530418,-1.55317380240746,1.65721563834246
1.045,4.58948818156108,0.586830243124362,-0.000352961243379468,-1.67055834299869,3.31218071374524,-6.58852062262732,0.546549865967108,4.01678322701343,0.152299507183443,0.0275004226714373,-3.34355295499458,-1.68680220867343,-0.236138443282243,2.05038514579815,0.133438992062892,5.11485678828775,3.4186873946913,-0.0407629497349262,-6.06949903121586,5.25496572246321,-1.24976388632024,-8.44775546025704,-1.5516353769541,1.65567722227125
1.05,4.58495510331971,0.586284165671564,0.000469784295091813,-1.66904446800977,3.30915296838362,-6.58246512959597,0.545145929474302,4.01312066643485,0.15206868606495,0.0275004226714373,-3.34050594527227,-1.68527870381227,-0.236761851987239,2.04816297830291,0.133270480567688,5.11019733012365,3.41558109240591,-0.0407629497349262,-6.06483609215843,5.25006245580155,-1.24839372720885,-8.44006337520992,-1.55009695150079,1.65413880620004
1.055,4.58042202507841,0.585738088218767,0.00129252983356309,-1.66753059302085,3.306125223022,-6.57640963656463,0.543741992981268,4.00945810585627,0.15183786494643,0.0275004226714373,-3.33745893554997,-1.68375519895112,-0.237385260692463,2.04594081080779,0.133101969072484,5.10553787195955,3.4124747901205,-0.0407629497349262,-6.06017315310123,5.2451591891399,-1.24702356809746,-8.43237129016278,-1.54855852604743,1.65260039012882
1.06,4.57588894683704,0.585192010765969,0.002115275371807,-1.66601671803192,3.30309747766039,-6.57035414353328,0.542338056488688,4.00579554527769,0.151607043827909,0.0275004226714373,-3.33441192582766,-1.68223169408996,-0.238008669397686,2.04371864331267,0.132933457577266,5.10087841379544,3.4093684878351,-0.0407629497349262,-6.05551021404381,5.24025592247823,-1.24565340898613,-8.42467920511564,-1.54702010059407,1.65106197405761
1.065,4.57135586859573,0.584645933313171,0.00293802091005091,-1.664502843043,3.30006973229877,-6.56429865050194,0.540934119995882,4.00213298469911,0.151376222709416,0.0275004226714373,-3.33136491610536,-1.68070818922882,-0.23863207810291,2.04149647581755,0.132764946082048,5.09621895563134,3.40626218554969,-0.0407629497349262,-6.05084727498661,5.23535265581656,-1.24428324987474,-8.4169871200685,-1.54548167514073,1.6495235579864
1.07,4.56682279035437,0.584099855860373,0.00376076644852219,-1.66298896805408,3.29704198693715,-6.55824315747059,0.539530183503075,3.99847042412053,0.151145401590895,0.0275004226714373,-3.32831790638305,-1.67918468436766,-0.239255486807906,2.03927430832232,0.132596434586844,5.09155949746725,3.40315588326429,-0.0407629497349262,-6.04618433592896,5.23044938915488,-1.24291309076335,-8.40929503502137,-1.5439432496874,1.64798514191518
1.075,4.562289712113,0.583553778407575,0.0045835119867661,-1.66147509306516,3.29401424157554,-6.55218766443924,0.538126247010041,3.99480786354194,0.150914580472374,0.0275004226714373,-3.32527089666075,-1.67766117950652,-0.239878895513129,2.0370521408272,0.13242792309164,5.08690003930315,3.40004958097889,-0.0407629497349262,-6.04152139687153,5.22554612249323,-1.24154293165196,-8.40160294997423,-1.54240482423404,1.64644672584397
1.08,4.55775663387169,0.583007700954777,0.00540625752523738,-1.65996121807624,3.29098649621392,-6.5461321714079,0.536722310517234,3.99114530296336,0.150683759353882,0.0275004226714373,-3.32222388693845,-1.67613767464536,-0.240502304218353,2.03482997333197,0.132259411596422,5.08224058113905,3.39694327869348,-0.0407629497349262,-6.03685845781433,5.22064285583157,-1.24017277254057,-8.39391086492709,-1.54086639878071,1.64490830977275
1.085,4.55322355563032,0.582461623501979,0.00622900306348129,-1.65844734308732,3.2879587508523,-6.54007667837655,0.535318374024428,3.98748274238478,0.150452938235361,0.0275004226714373,-3.31917687721614,-1.67461416978421,-0.241125712923576,2.03260780583685,0.132090900101204,5.07758112297495,3.39383697640808,-0.0407629497349262,-6.03219551875691,5.2157395891699,-1.23880261342919,-8.38621877987997,-1.53932797332735,1.64336989370154
1.09,4.54869047738902,0.581915546049181,0.00705174860195257,-1.6569334680984,3.28493100549069,-6.53402118534521,0.533914437531621,3.9838201818062,0.15022211711684,0.0275004226714373,-3.31612986749384,-1.67309066492305,-0.241749121628573,2.03038563834173,0.131922388606,5.07292166481084,3.39073067412268,-0.0407629497349262,-6.02753257969971,5.21083632250824,-1.23743245431785,-8.37852669483281,-1.53778954787401,1.64183147763032
1.095,4.54415739914765,0.581369468596382,0.00787449414019648,-1.65541959310947,3.28190326012907,-6.52796569231386,0.532510501038814,3.98015762122762,0.149991295998348,0.0275004226714373,-3.31308285777153,-1.6715671600619,-0.242372530333796,2.02816347084649,0.131753877110796,5.06826220664674,3.38762437183728,-0.0407629497349262,-6.02286964064228,5.20593305584659,-1.23606229520647,-8.37083460978567,-1.53625112242068,1.64029306155911
1.1,4.53962432090628,0.580823391143584,0.00869723967844038,-1.65390571812055,3.27887551476745,-6.52191019928251,0.531106564546008,3.97649506064904,0.149760474879827,0.0275004226714373,-3.31003584804922,-1.67004365520075,-0.242995939038792,2.02594130335137,0.131585365615578,5.06360274848264,3.38451806955188,-0.0407629497349262,-6.01820670158486,5.20102978918493,-1.23469213609508,-8.36314252473855,-1.53471269696732,1.6387546454879
1.105,4.53509124266498,0.580277313690786,0.00951998521691166,-1.65239184313163,3.27584776940584,-6.51585470625117,0.529702628052974,3.97283250007046,0.149529653761306,0.0275004226714373,-3.30698883832692,-1.6685201503396,-0.243619347744016,2.02371913585637,0.131416854120374,5.05894329031854,3.38141176726647,-0.0407629497349262,-6.01354376252766,5.19612652252327,-1.23332197698369,-8.35545043969141,-1.53317427151399,1.63721622941668
1.11,4.53055816442367,0.579731236237988,0.0103427307553829,-1.65087796814272,3.27282002404422,-6.50979921321983,0.528298691560167,3.96916993949188,0.149298832642785,0.0275004226714373,-3.30394182860461,-1.66699664547844,-0.244242756449239,2.02149696836113,0.131248342625156,5.05428383215444,3.37830546498107,-0.0407629497349262,-6.00888082347024,5.1912232558616,-1.2319518178723,-8.34775835464428,-1.53163584606062,1.63567781334547
1.115,4.5260250861823,0.57918515878519,0.0111654762936269,-1.64936409315379,3.2697922786826,-6.50374372018848,0.526894755067588,3.96550737891329,0.149068011524292,0.0275004226714373,-3.30089481888231,-1.66547314061729,-0.244866165154235,2.01927480086596,0.131079831129938,5.04962437399035,3.37519916269567,-0.0407629497349262,-6.00421788441304,5.18631998919992,-1.23058165876097,-8.34006626959714,-1.53009742060729,1.63413939727425
1.12,4.52149200794099,0.578639081332391,0.0119882218318708,-1.64785021816487,3.26676453332099,-6.49768822715713,0.525490818574553,3.96184481833471,0.148837190405771,0.0275004226714373,-3.29784780916001,-1.66394963575614,-0.245489573859459,2.01705263337084,0.130911319634734,5.04496491582625,3.37209286041027,-0.0407629497349262,-5.99955494535561,5.18141672253826,-1.22921149964952,-8.33237418455001,-1.52855899515396,1.63260098120304
1.125,4.51695892969963,0.578093003879593,0.012810967370342,-1.64633634317595,3.26373678795937,-6.49163273412578,0.524086882081747,3.95818225775614,0.148606369287279,0.0275004226714373,-3.2948007994377,-1.66242613089499,-0.246112982564455,2.01483046587566,0.13074280813953,5.04030545766214,3.36898655812487,-0.0407629497349262,-5.99489200629841,5.1765134558766,-1.22784134053819,-8.32468209950288,-1.5270205697006,1.63106256513183
1.13,4.51242585145826,0.577546926426795,0.0136337129088133,-1.64482246818703,3.26070904259775,-6.48557724109444,0.52268294558894,3.95451969717755,0.148375548168758,0.0275004226714373,-3.2917537897154,-1.66090262603384,-0.246736391269678,2.01260829838054,0.130574296644312,5.03564599949804,3.36588025583946,-0.0407629497349262,-5.99022906724099,5.17161018921493,-1.22647118142686,-8.31699001445574,-1.52548214424726,1.62952414906061
1.135,4.50789277321695,0.577000848973997,0.0144564584470572,-1.64330859319811,3.25768129723614,-6.47952174806309,0.521279009096133,3.95085713659897,0.148144727050237,0.0275004226714373,-3.28870677999309,-1.65937912117268,-0.247359799974902,2.01038613088537,0.130405785149094,5.03098654133395,3.36277395355405,-0.0407629497349262,-5.98556612818356,5.16670692255327,-1.22510102231541,-8.3092979294086,-1.5239437187939,1.62798573298939
1.14,4.50335969497559,0.576454771521199,0.0152792039853011,-1.64179471820919,3.25465355187452,-6.47346625503175,0.519875072603099,3.94719457602039,0.147913905931745,0.0275004226714373,-3.28565977027078,-1.65785561631153,-0.247983208679898,2.00816396339019,0.130237273653904,5.02632708316984,3.35966765126866,-0.0407629497349262,-5.98090318912637,5.16180365589162,-1.22373086320408,-8.30160584436146,-1.52240529334057,1.62644731691818
1.145,4.49882661673422,0.575908694068399,0.0161019495237724,-1.64028084322027,3.2516258065129,-6.4674107620004,0.51847113611052,3.94353201544181,0.147683084813224,0.0275004226714373,-3.28261276054848,-1.65633211145038,-0.248606617385121,2.00594179589507,0.130068762158686,5.02166762500574,3.35656134898326,-0.0407629497349262,-5.97624025006894,5.15690038922996,-1.22236070409264,-8.29391375931434,-1.52086686788724,1.62490890084697
1.15,4.49429353849285,0.575362616615601,0.0169246950622437,-1.63876696823134,3.24859806115129,-6.46135526896905,0.517067199617713,3.93986945486323,0.147452263694731,0.0275004226714373,-3.27956575082618,-1.65480860658923,-0.249230026090117,2.00371962839995,0.129900250663468,5.01700816684164,3.35345504669785,-0.0407629497349262,-5.97157731101174,5.1519971225683,-1.2209905449813,-8.28622167426718,-1.51932844243387,1.62337048477576
1.155,4.48976046025155,0.574816539162805,0.0177474406004876,-1.63725309324242,3.24557031578967,-6.45529977593771,0.515663263124679,3.93620689428465,0.14722144257621,0.0275004226714373,-3.27651874110387,-1.65328510172807,-0.249853434795341,2.00149746090477,0.129731739168264,5.01234870867754,3.35034874441245,-0.0407629497349262,-5.96691437195432,5.14709385590663,-1.21962038586997,-8.27852958922006,-1.51779001698051,1.62183206870454
1.16,4.48522738201018,0.574270461710007,0.0185701861387315,-1.6357392182535,3.24254257042805,-6.44924428290636,0.514259326631873,3.93254433370606,0.146990621457689,0.0275004226714373,-3.27347173138157,-1.65176159686693,-0.250476843500564,1.9992752934096,0.129563227673046,5.00768925051344,3.34724244212704,-0.0407629497349262,-5.96225143289689,5.14219058924495,-1.21825022675853,-8.27083750417292,-1.51625159152721,1.62029365263333
1.165,4.48069430376881,0.57372438425721,0.0193929316772028,-1.63422534326458,3.23951482506644,-6.44318878987502,0.512855390139066,3.92888177312749,0.146759800339169,0.0275004226714373,-3.27042472165926,-1.65023809200576,-0.251100252205561,1.99705312591448,0.129394716177842,5.00302979234934,3.34413613984164,-0.0407629497349262,-5.95758849383969,5.13728732258329,-1.2168800676472,-8.26314541912578,-1.51471316607385,1.61875523656211
1.17,4.47616122552751,0.57317830680441,0.0202156772156741,-1.63271146827566,3.23648707970482,-6.43713329684367,0.511451453646259,3.9252192125489,0.146528979220648,0.0275004226714373,-3.26737771193696,-1.64871458714461,-0.251723660910784,1.9948309584193,0.129226204682624,4.99837033418524,3.34102983755624,-0.0407629497349262,-5.95292555478227,5.13238405592163,-1.21550990853575,-8.25545333407865,-1.51317474062051,1.6172168204909
1.175,4.47162814728614,0.572632229351612,0.021038422753918,-1.63119759328674,3.2334593343432,-6.43107780381233,0.510047517153453,3.92155665197032,0.146298158102155,0.0275004226714373,-3.26433070221465,-1.64719108228346,-0.25234706961578,1.99260879092418,0.12905769318742,4.99371087602114,3.33792353527084,-0.0407629497349262,-5.94826261572507,5.12748078925998,-1.21413974942442,-8.24776124903151,-1.51163631516715,1.61567840441969
1.18,4.46709506904483,0.572086151898814,0.0218611682921619,-1.62968371829782,3.23043158898159,-6.42502231078098,0.508643580660646,3.91789409139174,0.146067336983634,0.0275004226714373,-3.26128369249234,-1.64566757742231,-0.252970478321004,1.990386623429,0.128889181692202,4.98905141785704,3.33481723298544,-0.0407629497349262,-5.94359967666765,5.12257752259831,-1.21276959031303,-8.24006916398437,-1.51009788971379,1.61413998834847
1.185,4.46256199080352,0.571540074446016,0.0226839138304058,-1.6281698433089,3.22740384361997,-6.41896681774963,0.507239644167839,3.91423153081316,0.145836515865142,0.0275004226714373,-3.25823668277004,-1.64414407256116,-0.253593887026227,1.98816445593388,0.128720670196984,4.98439195969294,3.33171093070003,-0.0407629497349262,-5.93893673761022,5.11767425593665,-1.21139943120164,-8.23237707893725,-1.50855946426049,1.61260157227726
1.19,4.45802891256216,0.570993996993218,0.0235066593691045,-1.62665596831998,3.22437609825835,-6.41291132471829,0.505835707674805,3.91056897023458,0.145605694746621,0.0275004226714373,-3.25518967304774,-1.64262056770001,-0.254217295731223,1.98594228843871,0.12855215870178,4.97973250152884,3.32860462841463,-0.0407629497349262,-5.93427379855302,5.11277098927499,-1.21002927209031,-8.22468499389011,-1.50702103880712,1.61106315620604
1.195,4.45349583432079,0.570447919540419,0.0243294049073484,-1.62514209333106,3.22134835289674,-6.40685583168694,0.504431771181999,3.906906409656,0.145374873628128,0.0275004226714373,-3.25214266332543,-1.64109706283886,-0.254840704436447,1.98372012094353,0.128383647206576,4.97507304336474,3.32549832612923,-0.0407629497349262,-5.9296108594956,5.10786772261334,-1.20865911297886,-8.21699290884297,-1.50548261335376,1.60952474013483
1.2,4.44896275607948,0.569901842087621,0.0251521504455923,-1.62362821834213,3.21832060753512,-6.4008003386556,0.503027834689419,3.90324384907742,0.145144052509607,0.0275004226714373,-3.24909565360313,-1.6395735579777,-0.255464113141443,1.98149795344841,0.128215135711358,4.97041358520063,3.32239202384383,-0.0407629497349262,-5.9249479204384,5.10296445595168,-1.20728895386753,-8.20930082379584,-1.50394418790043,1.60798632406361
1.205,4.44442967783812,0.569355764634823,0.0259748959838362,-1.62211434335321,3.2152928621735,-6.39474484562425,0.501623898196385,3.89958128849883,0.144913231391115,0.0275004226714373,-3.24604864388082,-1.63805005311655,-0.256087521846666,1.97927578595329,0.12804662421614,4.96575412703653,3.31928572155843,-0.0407629497349262,-5.92028498138097,5.09806118928998,-1.20591879475614,-8.2016087387487,-1.5024057624471,1.6064479079924
1.21,4.43989659959681,0.568809687182025,0.0267976415223075,-1.62060046836429,3.21226511681189,-6.3886893525929,0.500219961703579,3.89591872792025,0.144682410272566,0.0275004226714373,-3.24300163415852,-1.6365265482554,-0.25671093055189,1.97705361845811,0.127878112720936,4.96109466887243,3.31617941927302,-0.0407629497349262,-5.91562204232355,5.09315792262832,-1.20454863564476,-8.19391665370156,-1.50086733699376,1.60490949192118
1.215,4.43536352135544,0.568263609729227,0.0276203870607787,-1.61908659337537,3.20923737145027,-6.38263385956155,0.498816025210772,3.89225616734167,0.144451589154045,0.0275004226714373,-3.23995462443621,-1.63500304339425,-0.257334339257113,1.97483145096299,0.127709601225732,4.95643521070834,3.31307311698762,-0.0407629497349262,-5.91095910326612,5.08825465596667,-1.20317847653337,-8.18622456865444,-1.4993289115404,1.60337107584997
1.22,4.43083044311413,0.567717532276429,0.0284431325990226,-1.61757271838645,3.20620962608865,-6.37657836653021,0.497412088717738,3.88859360676309,0.144220768035552,0.0275004226714373,-3.23690761471391,-1.63347953853309,-0.257957747962337,1.97260928346782,0.127541089730514,4.95177575254424,3.30996681470221,-0.0407629497349262,-5.9062961642087,5.08335138930501,-1.20180831742204,-8.1785324836073,-1.49779048608704,1.60183265977875
1.225,4.42629736487277,0.56717145482363,0.0292658781372666,-1.61605884339753,3.20318188072704,-6.37052287349886,0.496008152225158,3.88493104618451,0.143989946917031,0.0275004226714373,-3.23386060499161,-1.63195603367194,-0.258581156667333,1.9703871159727,0.127372578235295,4.94711629438014,3.30686051241681,-0.0407629497349262,-5.9016332251515,5.07844812264335,-1.20043815831065,-8.17084039856016,-1.49625206063371,1.60029424370754
1.23,4.4217642866314,0.566625377370832,0.0300886236757378,-1.61454496840861,3.20015413536542,-6.36446738046752,0.494604215732352,3.88126848560593,0.143759125798539,0.0275004226714373,-3.2308135952693,-1.63043252881079,-0.259204565372556,1.96816494847752,0.127204066740092,4.94245683621603,3.30375421013142,-0.0407629497349262,-5.89697028609407,5.07354485598168,-1.19906799919926,-8.16314831351302,-1.49471363518037,1.59875582763633
1.235,4.41723120839004,0.566079299918036,0.0309113692142091,-1.61303109341969,3.1971263900038,-6.35841188743617,0.493200279239318,3.87760592502735,0.143528304680018,0.0275004226714373,-3.22776658554699,-1.62890902394963,-0.25982797407778,1.9659427809824,0.127035555244888,4.93779737805193,3.30064790784601,-0.0407629497349262,-5.89230734703665,5.06864158932002,-1.19769784008787,-8.15545622846588,-1.49317520972701,1.59721741156511
1.24,4.41269813014873,0.565533222465238,0.031734114752453,-1.61151721843077,3.19409864464219,-6.35235639440483,0.491796342746511,3.87394336444877,0.143297483561525,0.0275004226714373,-3.22471957582469,-1.62738551908848,-0.260451382782776,1.96372061348723,0.12686704374967,4.93313791988783,3.2975416055606,-0.0407629497349262,-5.88764440797945,5.06373832265837,-1.19632768097648,-8.14776414341874,-1.49163678427368,1.5956789954939
1.245,4.40816505190736,0.564987145012438,0.0325568602906969,-1.61000334344184,3.19107089928057,-6.34630090137348,0.490392406253704,3.87028080387018,0.143066662443005,0.0275004226714373,-3.22167256610238,-1.62586201422733,-0.261074791487999,1.96149844599211,0.126698532254466,4.92847846172373,3.2944353032752,-0.0407629497349262,-5.88298146892203,5.0588350559967,-1.19495752186515,-8.14007205837162,-1.49009835882032,1.59414057942269
1.25,4.40363197366599,0.56444106755964,0.0333796058291682,-1.60848946845292,3.18804315391895,-6.34024540834213,0.488988469760898,3.8666182432916,0.142835841324512,0.0275004226714373,-3.21862555638008,-1.62433850936618,-0.261698200192996,1.95927627849693,0.126530020759247,4.92381900355963,3.2913290009898,-0.0407629497349262,-5.87831852986483,5.05393178933502,-1.1935873627537,-8.13237997332448,-1.48855993336701,1.59260216335147
1.255,4.39909889542469,0.563894990106842,0.0342023513676395,-1.606975593464,3.18501540855734,-6.33418991531079,0.487584533268091,3.86295568271302,0.142605020205991,0.0275004226714373,-3.21557854665777,-1.62281500450503,-0.262321608898219,1.95705411100175,0.126361509264029,4.91915954539553,3.2882226987044,-0.0407629497349262,-5.8736555908074,5.04902852267335,-1.19221720364237,-8.12468788827734,-1.48702150791365,1.59106374728026
1.26,4.39456581718332,0.563348912654044,0.0350250969058834,-1.60546171847508,3.18198766319572,-6.32813442227944,0.486180596775284,3.85929312213444,0.14237419908747,0.0275004226714373,-3.21253153693547,-1.62129149964387,-0.262945017603442,1.95483194350658,0.126192997768825,4.91450008723144,3.28511639641899,-0.0407629497349262,-5.8689926517502,5.0441252560117,-1.19084704453098,-8.11699580323021,-1.48548308246029,1.58952533120905
1.265,4.39003273894195,0.562802835201246,0.0358478424441273,-1.60394784348616,3.1789599178341,-6.3220789292481,0.484776660282478,3.85563056155586,0.142143377968978,0.0275004226714373,-3.20948452721317,-1.61976799478272,-0.263568426308439,1.95260977601151,0.126024486273622,4.90984062906733,3.28201009413359,-0.0407629497349262,-5.86432971269278,5.03922198935004,-1.18947688541959,-8.10930371818307,-1.48394465700696,1.58798691513783
1.27,4.38549966070065,0.562256757748449,0.0366705879825986,-1.60243396849724,3.17593217247249,-6.31602343621675,0.483372723789444,3.85196800097728,0.141912556850428,0.0275004226714373,-3.20643751749086,-1.61824448992157,-0.264191835013662,1.95038760851628,0.125855974778403,4.90518117090323,3.27890379184819,-0.0407629497349262,-5.85966677363535,5.03431872268837,-1.18810672630826,-8.10161163313593,-1.4824062315536,1.58644849906661
1.275,4.38096658245934,0.561710680295649,0.0374933335210699,-1.60092009350832,3.17290442711087,-6.30996794318541,0.481968787296637,3.8483054403987,0.141681735731936,0.0275004226714373,-3.20339050776856,-1.61672098506042,-0.264815243718886,1.94816544102116,0.125687463283199,4.90052171273913,3.27579748956279,-0.0407629497349262,-5.85500383457816,5.02941545602671,-1.18673656719682,-8.09391954808881,-1.48086780610026,1.5849100829954
1.28,4.37643350421797,0.561164602842851,0.0383160790593138,-1.5994062185194,3.16987668174925,-6.30391245015406,0.480564850804058,3.84464287982012,0.141450914613415,0.0275004226714373,-3.20034349804625,-1.61519748019926,-0.265438652423882,1.94594327352598,0.125518951787996,4.89586225457503,3.27269118727739,-0.0407629497349262,-5.85034089552073,5.02451218936505,-1.18536640808549,-8.08622746304167,-1.47932938064693,1.58337166692419
1.285,4.37190042597666,0.560618525390053,0.0391388245975577,-1.59789234353048,3.16684893638764,-6.29785695712271,0.479160914311024,3.84098031924153,0.141220093494923,0.0275004226714373,-3.19729648832395,-1.61367397533811,-0.266062061129105,1.94372110603086,0.125350440292777,4.89120279641093,3.26958488499198,-0.0407629497349262,-5.84567795646353,5.01960892270338,-1.18399624897404,-8.07853537799453,-1.47779095519357,1.58183325085297
1.29,4.3673673477353,0.560072447937255,0.039961570136029,-1.59637846854156,3.16382119102602,-6.29180146409136,0.477756977818217,3.83731775866296,0.140989272376402,0.0275004226714373,-3.19424947860164,-1.61215047047695,-0.266685469834101,1.94149893853569,0.125181928797559,4.88654333824683,3.26647858270658,-0.0407629497349262,-5.84101501740611,5.01470565604173,-1.18262608986271,-8.0708432929474,-1.47625252974024,1.58029483478176
1.295,4.36283426949393,0.559526370484456,0.0407843156742729,-1.59486459355264,3.1607934456644,-6.28574597106002,0.47635304132541,3.83365519808437,0.140758451257909,0.0275004226714373,-3.19120246887934,-1.6106269656158,-0.267308878539325,1.93927677104057,0.125013417302355,4.88188388008273,3.26337228042118,-0.0407629497349262,-5.83635207834868,5.00980238938007,-1.18125593075138,-8.06315120790026,-1.4747141042869,1.57875641871054
1.3,4.35830119125262,0.558980293031658,0.0416070612127442,-1.59335071856371,3.15776570030279,-6.27969047802867,0.474949104832604,3.82999263750579,0.140527630139388,0.0275004226714373,-3.18815545915703,-1.60910346075465,-0.267932287244321,1.93705460354545,0.124844905807151,4.87722442191863,3.26026597813578,-0.0407629497349262,-5.83168913929148,5.00489912271838,-1.17988577163993,-8.05545912285311,-1.47317567883354,1.57721800263933
1.305,4.35376811301126,0.55843421557886,0.0424298067509881,-1.59183684357479,3.15473795494117,-6.27363498499733,0.473545168339569,3.82633007692721,0.140296809020867,0.0275004226714373,-3.18510844943473,-1.6075799558935,-0.268555695949544,1.93483243605027,0.124676394311933,4.87256496375453,3.25715967585037,-0.0407629497349262,-5.82702620023406,4.99999585605673,-1.1785156125286,-8.04776703780598,-1.47163725338021,1.57567958656812
1.31,4.34923503476989,0.557888138126062,0.0432525522894593,-1.59032296858587,3.15171020957956,-6.26757949196598,0.47214123184699,3.82266751634863,0.140065987902375,0.0275004226714373,-3.18206143971242,-1.60605645103235,-0.269179104654768,1.93261026855509,0.124507882816715,4.86790550559043,3.25405337356497,-0.0407629497349262,-5.82236326117686,4.99509258939507,-1.17714545341721,-8.04007495275884,-1.47009882792685,1.5741411704969
1.315,4.34470195652858,0.557342060673264,0.0440752978277033,-1.58880909359695,3.14868246421794,-6.26152399893464,0.470737295354184,3.81900495577005,0.139835166783826,0.0275004226714373,-3.17901442999012,-1.60453294617119,-0.269802513359764,1.93038810105998,0.124339371321511,4.86324604742633,3.25094707127957,-0.0407629497349262,-5.81770032211944,4.9901893227334,-1.17577529430582,-8.0323828677117,-1.46856040247349,1.57260275442569
1.32,4.34016887828722,0.556795983220466,0.0448980433659472,-1.58729521860803,3.14565471885632,-6.25546850590329,0.469333358861149,3.81534239519146,0.139604345665333,0.0275004226714373,-3.17596742026781,-1.60300944131004,-0.270425922064987,1.9281659335648,0.124170859826293,4.85858658926223,3.24784076899417,-0.0407629497349262,-5.81303738306201,4.98528605607176,-1.17440513519449,-8.02469078266458,-1.46702197702018,1.57106433835447
1.325,4.33563580004591,0.556249905767668,0.0457207889044184,-1.58578134361911,3.14262697349471,-6.24941301287194,0.467929422368343,3.81167983461289,0.139373524546812,0.0275004226714373,-3.17292041054551,-1.60148593644889,-0.271049330769983,1.92594376606968,0.124002348331075,4.85392713109812,3.24473446670876,-0.0407629497349262,-5.80837444400481,4.98038278941009,-1.17303497608304,-8.01699869761744,-1.46548355156682,1.56952592228326
1.33,4.33110272180454,0.55570382831487,0.0465435344428897,-1.58426746863018,3.13959922813309,-6.2433575198406,0.466525485875536,3.80801727403431,0.13914270342832,0.0275004226714373,-3.1698734008232,-1.59996243158774,-0.271672739475207,1.9237215985745,0.123833836835885,4.84926767293403,3.24162816442336,-0.0407629497349262,-5.80371150494739,4.97547952274842,-1.17166481697171,-8.0093066125703,-1.46394512611349,1.56798750621205
1.335,4.32656964356323,0.555157750862072,0.0473662799811336,-1.58275359364127,3.13657148277147,-6.23730202680925,0.465121549382729,3.80435471345572,0.138911882309799,0.0275004226714373,-3.1668263911009,-1.59843892672659,-0.27229614818043,1.92149943107938,0.123665325340667,4.84460821476993,3.23852186213796,-0.0407629497349262,-5.79904856589019,4.97057625608676,-1.17029465786032,-8.00161452752317,-1.46240670066013,1.56644909014083
1.34,4.32203656532187,0.554611673409275,0.0481890255193775,-1.58123971865234,3.13354373740985,-6.23124653377791,0.463717612889923,3.80069215287714,0.138681061191306,0.0275004226714373,-3.1637793813786,-1.59691542186544,-0.272919556885427,1.91927726358421,0.123496813845449,4.83994875660582,3.23541555985256,-0.0407629497349262,-5.79438562683276,4.9656729894251,-1.16892449874894,-7.99392244247603,-1.46086827520679,1.56491067406962
1.345,4.31750348708056,0.554065595956475,0.0490117710578488,-1.57972584366343,3.13051599204824,-6.22519104074656,0.462313676397116,3.79702959229856,0.138450240072785,0.0275004226714373,-3.16073237165629,-1.59539191700429,-0.273542965590877,1.91705509608903,0.123328302350231,4.83528929844172,3.23230925756715,-0.0407629497349262,-5.78972268777557,4.96076972276343,-1.16755433963755,-7.98623035742889,-1.45932984975346,1.56337225799841
1.35,4.31297040883913,0.553519518503677,0.0498345165963201,-1.5782119686745,3.12748824668662,-6.21913554771521,0.460909739904082,3.79336703171998,0.138219418954279,0.0275004226714373,-3.15768536193399,-1.59386841214313,-0.274166374295874,1.91483292859391,0.123159790855041,4.83062984027762,3.22920295528175,-0.0407629497349262,-5.78505974871814,4.95586645610176,-1.16618418052616,-7.97853827238177,-1.4577914243001,1.56183384192719
1.355,4.30843733059783,0.552973441050879,0.050657262134564,-1.57669809368558,3.124460501325,-6.21308005468386,0.459505803411275,3.7897044711414,0.137988597835758,0.0275004226714373,-3.15463835221168,-1.59234490728198,-0.274789783001097,1.91261076109879,0.122991279359823,4.82597038211352,3.22609665299635,-0.0407629497349262,-5.78039680966072,4.9509631894401,-1.16481402141483,-7.97084618733463,-1.45625299884674,1.56029542585598
1.36,4.30390425235652,0.552427363598081,0.0514800076728079,-1.57518421869666,3.12143275596339,-6.20702456165252,0.458101866918469,3.78604191056282,0.137757776717251,0.0275004226714373,-3.15159134248938,-1.59082140242083,-0.275413191706321,1.91038859360361,0.122822767864605,4.82131092394943,3.22299035071095,-0.0407629497349262,-5.77573387060352,4.94605992277845,-1.16344386230344,-7.96315410228749,-1.4547145733934,1.55875700978476
1.365,4.29937117411515,0.551881286145283,0.0523027532112792,-1.57367034370774,3.11840501060177,-6.20096906862118,0.456697930425889,3.78237934998424,0.137526955598744,0.0275004226714373,-3.14854433276707,-1.58929789755967,-0.276036600411317,1.90816642610844,0.122654256369401,4.81665146578533,3.21988404842554,-0.0407629497349262,-5.77107093154586,4.94115665611677,-1.16207370319205,-7.95546201724036,-1.45317614794007,1.55721859371355
1.37,4.29483809587384,0.551335208692485,0.0531254987497505,-1.57215646871882,3.11537726524015,-6.19491357558983,0.455293993932855,3.77871678940565,0.137296134480238,0.0275004226714373,-3.14549732304476,-1.58777439269852,-0.27666000911654,1.90594425861332,0.122485744874183,4.81199200762122,3.21677774614014,-0.0407629497349262,-5.76640799248867,4.9362533894551,-1.16070354408066,-7.94776993219321,-1.45163772248674,1.55568017764233
1.375,4.29030501763248,0.550789131239686,0.0539482442879944,-1.5706425937299,3.11234951987854,-6.18885808255848,0.453890057440049,3.77505422882707,0.137065313361717,0.0275004226714373,-3.14245031332246,-1.58625088783736,-0.277283417821536,1.90372209111814,0.122317233378979,4.80733254945712,3.21367144385474,-0.0407629497349262,-5.76174505343124,4.93135012279345,-1.15933338496927,-7.94007784714607,-1.45009929703338,1.55414176157112
