Header,foot_Accel_X,foot_Accel_Y,foot_Accel_Z,foot_Gyro_X,foot_Gyro_Y,foot_Gyro_Z,shank_Accel_X,shank_Accel_Y,shank_Accel_Z,shank_Gyro_X,shank_Gyro_Y,shank_Gyro_Z,thigh_Accel_X,thigh_Accel_Y,thigh_Accel_Z,thigh_Gyro_X,thigh_Gyro_Y,thigh_Gyro_Z,trunk_Accel_X,trunk_Accel_Y,trunk_Accel_Z,trunk_Gyro_X,trunk_Gyro_Y,trunk_Gyro_Z
54.715,-0.331180722532902,-0.0047226435304185,0.998824264843426,-0.00427294448629189,1.62526668605562,0.0936346296968014,-1.24599436582119,-0.0407961321020033,-0.357509184955466,-0.0798493967461783,1.78436254788518,-0.904488664110368,-1.26814117292528,-0.0658865705310938,0.281039753785025,0.412072665186019,0.542167939096917,0.427742591082536,-1.17406939280955,-0.13451239875889,0.281215426306715,-0.385748726017871,-0.0964130043342512,-0.621880671604279
54.72,-0.326756078462621,-0.0340744966887353,1.00309537760282,-0.019960974052759,1.81685105109927,0.010945497152413,-1.32094245572631,-0.0997186987058902,-0.39067780273935,-0.101787873490332,1.80607208366771,-0.935547863789544,-1.31192270965149,-0.0762781448637839,0.25034912542936,0.514528681346078,0.489539892904209,0.443918316541688,-1.25391793714,-0.125453033131381,0.254444931681759,-0.386048651889375,-0.121860093408588,-0.608505176444978
54.725,-0.356566797262395,-0.0681642140596568,1.01291671441554,-0.0255683703602515,2.03552782614943,-0.0767660325174645,-1.38674182019639,-0.189049359772549,-0.398322483598335,-0.0811746701233381,1.8500758082977,-0.91522338127722,-1.34224119418615,-0.113825186648338,0.234185786942061,0.556761111444812,0.443829017007887,0.464169536219943,-1.3224462351965,-0.100234537776951,0.203661126594949,-0.412011458932406,-0.100392680769391,-0.625714902249693
54.73,-0.392785298303177,-0.0424945936217526,1.0364516147482,-0.0241752829700518,2.27751137130891,-0.144042943443205,-1.41370312171103,-0.280769287563047,-0.361142103303931,-0.00670853501898225,1.92346892122161,-0.891452493004701,-1.32997916744885,-0.16239813877323,0.206804808559859,0.580875094740423,0.451296569405612,0.5180615886215,-1.3607303258933,-0.064892919971379,0.147641279979362,-0.440320024023231,-0.0729237219471528,-0.625519565193587
54.735,-0.375921168825516,-0.0280051713287843,1.0682470280087,-0.0534585607870619,2.46050318007474,-0.155740057381991,-1.43459563695158,-0.346344447297394,-0.274382331347234,0.0945655757077387,2.05941897984292,-0.847373954745207,-1.29996704341648,-0.202395818485433,0.187150262570819,0.633618329135344,0.482188143447223,0.625312493122398,-1.37536981303572,-0.0269387010377693,0.0909764560917183,-0.461834582175164,-0.0639582603419905,-0.598235084071429
54.74,-0.400806088475396,0.0609089666519833,1.08161481271966,-0.140266990404387,2.72303674213855,-0.174255708187308,-1.47636489967307,-0.353288989307707,-0.250183634766657,0.202011924520823,2.22396158217565,-0.851182058464328,-1.27089192188943,-0.205018629083695,0.162574644344045,0.776117179306478,0.540832930538163,0.739051843024259,-1.36828425701496,0.00590605185749355,0.0353768633272728,-0.475887470115186,-0.0846859645271748,-0.550348374286895
54.745,-0.365938791411949,0.0898901187648454,1.11099193391703,-0.2225087345762,2.98848484553575,-0.149548561332527,-1.53379866341094,-0.314289251711123,-0.27521706940189,0.295726659019483,2.32584867551118,-0.891968420237375,-1.30671544846112,-0.166616793134014,0.143349402755862,1.03844375269159,0.649612554265216,0.855174971219731,-1.35059846877367,0.0243599624971333,-0.00377345939273581,-0.478531854681276,-0.133201968787148,-0.472031420654352
54.75,-0.373617150208686,0.089877983578296,1.14166739839615,-0.317736938488053,3.22360682631814,-0.156589273649071,-1.6395518002156,-0.223647919473322,-0.330463531111226,0.385341063614569,2.41354862858291,-0.96483982954825,-1.40288735279497,-0.0528010453738905,0.119839537370388,1.49967333642801,0.807999664119814,1.05078448856355,-1.3459668837259,0.0171998369257498,-0.034323715686115,-0.470966660732667,-0.201789480935255,-0.384630055459442
54.755,-0.361781860681419,0.0975450727255744,1.14725807237112,-0.409186787013467,3.55729608192493,-0.178831481854389,-1.73486066937153,-0.186616287346707,-0.357721845495516,0.421572895959774,2.43859269582967,-1.03852356391746,-1.54780013906801,0.0644073329893663,0.079385690126013,1.89828095197697,0.913875977979039,1.26059039616984,-1.3789469590765,-0.0108937996803874,-0.062264556741883,-0.432278331585783,-0.257766933748684,-0.280761412690561
54.76,-0.375773259000059,0.0897020284202922,1.18377312128998,-0.471770998899215,3.91063128471311,-0.216109515060641,-1.83838837263448,-0.191364350925218,-0.348789047241904,0.407003678183006,2.47208054657049,-1.12178352495089,-1.68380983062846,0.158375579161503,0.0806850988051849,2.1635722136098,0.958253040018285,1.46663458333135,-1.42968746639748,-0.0411309083874132,-0.082687141522599,-0.37568086413727,-0.281083140711485,-0.185760790467638
54.765,-0.421788151499189,0.0543359981809376,1.20210237919256,-0.544224896974092,4.26953140842178,-0.278218614662369,-1.94777852653622,-0.238006982943157,-0.355144692626931,0.312774925698487,2.50301714815954,-1.18439897941662,-1.76381709530696,0.182447429315415,0.0985648517229545,2.22833778529892,0.938777758452745,1.59804458926268,-1.48334675682005,-0.0786838388792777,-0.110555936768466,-0.300156051881672,-0.282042660850454,-0.0916124574590363
54.77,-0.529022718093149,-0.0519139933636865,1.15664441265369,-0.706677174397097,4.78402344985491,-0.393099282403997,-2.02626073244827,-0.304958522365706,-0.36591778657671,0.212170753634241,2.51230136058285,-1.23159687442323,-1.77751850862624,0.140021866579565,0.121222004617784,2.20827878062705,0.889091787805048,1.76356190660302,-1.52624942040601,-0.118530475544273,-0.135419098195901,-0.219476297434173,-0.240744161062599,-0.00663845087227512
54.775,-0.629508256030713,-0.0935025359522279,1.10847005520496,-0.793537299279663,5.24680227026316,-0.435408202200666,-2.03790149635886,-0.344616503753176,-0.304615958097544,0.147316110901749,2.54318559368389,-1.20570778113532,-1.71098487956968,0.0761425676581131,0.141595256984018,2.23454608343894,0.841302380518143,1.91909663589448,-1.53250601050253,-0.151508934883024,-0.152038294967039,-0.172566268332214,-0.206868406941986,0.0473742973788988
54.78,-0.708791741289606,-0.0667996056876062,1.12776187502467,-0.760443656627855,5.85093773460052,-0.33924880228727,-1.98837385530446,-0.343298379709358,-0.212725536582948,0.122468806433507,2.6039329349327,-1.21056343032704,-1.59276834022301,-0.0319046267046216,0.161110232733431,2.27668710714193,0.812905559635018,2.00946852199056,-1.50724121131045,-0.177595240321461,-0.161752723817384,-0.122963985800606,-0.1726996941978,0.109043743596218
54.785,-0.742991045897792,0.00863092884460337,1.2585784021527,-0.871322664152222,6.294456174455,-0.232170819668639,-1.9313947454022,-0.278015370724716,-0.130675338103343,0.163759578514956,2.62727016593676,-1.26688176006272,-1.47151663837579,-0.131012748153216,0.163233912238079,2.33491006620159,0.837848028003464,2.08358957635845,-1.43027199204677,-0.180009027795954,-0.159641613405549,-0.105145906501019,-0.144623751944931,0.168869762559964
54.79,-0.692236050706396,0.26514424505732,1.20716063200638,-1.13850585613994,6.578660464564,-0.140388445974735,-1.89519593744857,-0.0940692686593835,0.00681930581825153,0.318796545858602,2.66014496412849,-1.39266312568796,-1.33143666145601,-0.24635936592299,0.114893650987671,2.45081460807377,0.902963583738921,2.19780943170807,-1.31990999627597,-0.192967343279704,-0.175943101027364,-0.112202074122335,-0.147215697984778,0.217404638821394
54.795,-0.64081520729851,0.574268717801105,1.14416498090588,-1.54667116655053,6.83289065729873,-0.0982515030196272,-1.84676611418592,0.114209930176843,0.251705761961904,0.492079133748473,2.75867170791342,-1.49323076486321,-1.24708448071286,-0.308848293539446,0.0581727301532203,2.58299639487657,0.959022402018616,2.28171313265109,-1.24836348649877,-0.217458358196529,-0.168586024402015,-0.11432718383229,-0.175796682782983,0.259251027055865
54.8,-0.571154394842277,0.871294330190283,1.15004943247243,-1.98724109034106,6.99072262524356,-0.173148238199535,-1.75082982333333,0.250886024272931,0.323960184057074,0.470461406570096,2.78994004837767,-1.48980538029084,-1.19104273469147,-0.312597443768294,-0.0632890199040662,2.82295505736769,1.03875297617417,2.43027207894489,-1.17223247450019,-0.25210013800837,-0.160125801816722,-0.116791032561963,-0.188976972621764,0.310374655355666
54.805,-0.443089729396953,0.986278781887725,1.21823799638932,-2.54303563874103,7.15383772034539,-0.326839588181099,-1.60716086038215,0.361965568441127,0.21447362823036,0.481659907433068,2.69927546750597,-1.43410138860597,-1.19313544363545,-0.291733965405497,-0.171753147687608,2.94149483553078,1.05623204509753,2.46883654547473,-1.11383386404395,-0.278345775722623,-0.150312158411386,-0.132567265856463,-0.170113449028525,0.340299010085777
54.81,-0.335352730090369,0.892222479582894,1.21553708558433,-3.2910540693656,7.23606132166639,-0.544001598286432,-1.48602570614445,0.490699467692517,0.0856313363853075,0.617544809150582,2.67158387839896,-1.41678082942963,-1.20872625630125,-0.257369639652677,-0.331321502422079,2.97193122137294,1.03013206913366,2.49767899422365,-1.07077081649721,-0.305673199436863,-0.143021449957006,-0.169753328245739,-0.144027526102378,0.350335626138898
54.815,-0.393556131459131,0.599641557529109,1.03231199410973,-3.94514713831466,7.33689584547967,-0.79226153208789,-1.39284839948922,0.576625006632217,-0.0387427647051301,0.654639655004561,2.62400071969605,-1.43789374195881,-1.25492324290588,-0.221814099714937,-0.395320897133883,2.96878311267844,0.892987521726855,2.49879491605839,-1.01948648760268,-0.334132495334489,-0.130025779123317,-0.210069954337289,-0.1208774569291,0.337282705623225
54.82,-0.586987674339452,0.292987357741026,0.874082376975709,-4.50372233668683,7.50841715656608,-1.1243823449626,-1.2463551024623,0.618317865624249,-0.170774175955544,0.472452879168217,2.5335762432366,-1.48181729628501,-1.26904719010645,-0.185692509531692,-0.364092570728984,2.74760278916988,0.754838253084399,2.54174573993454,-0.97484422090917,-0.347649082059831,-0.117595672917608,-0.231701471791139,-0.111075037646011,0.305917869157513
54.825,-0.827139573850082,0.0552048799499695,0.896627244783827,-4.88853834313521,7.44243803910751,-1.39857183987049,-1.09896497255182,0.641567948832394,-0.308793599105421,0.218064769117354,2.4513160866969,-1.52492771311639,-1.22591307151097,-0.166982177872006,-0.358496581163093,2.44463419981645,0.67663679233148,2.62446393847348,-0.937011013637268,-0.355958849521678,-0.106339738471131,-0.239761940779112,-0.103441144776882,0.255038853552108
54.83,-1.05271841250627,-0.216974584017622,1.18191246978963,-5.35838133271823,7.1218480101387,-1.53412856642789,-0.894831357013406,0.667971184043377,-0.359585782067362,-0.121301948767534,2.43833317817295,-1.5823867976291,-1.16846140116189,-0.151326402492101,-0.35612753141323,1.98661657392847,0.513865635887479,2.67044522472102,-0.898773861318353,-0.352624205953767,-0.084679254745498,-0.229298101838323,-0.10956135583088,0.20726957361868
54.835,-1.19485133274451,-0.227309946075858,1.70211967992183,-5.22282397885267,6.62638787024058,-1.57701875718714,-0.726915702820056,0.653820718725163,-0.51682273353778,-0.581370247194014,2.47090070561459,-1.59724629200891,-1.12026791310627,-0.17828938719605,-0.293612179974327,1.56274330306449,0.296380246226525,2.60770647819155,-0.857606784410252,-0.342455496934354,-0.0494389972971476,-0.215229907828624,-0.112143277256168,0.177253743917851
54.84,-1.2908123372638,-0.148767591901875,2.24764884918087,-4.52049526695999,5.89152216169908,-1.55730990126197,-0.569677929975244,0.604483442095558,-0.758752202515509,-1.26088159330206,2.41984024680711,-1.61732805231292,-1.06558843249988,-0.224673753210282,-0.209628792475903,1.13335800106923,0.120730426652552,2.49747599728996,-0.820529001062095,-0.332900624976085,-0.0226531384962794,-0.206313346352736,-0.108449396517435,0.159983990807264
54.845,-1.44930577933275,-0.228453400135064,2.42311268615415,-4.44583838133436,4.656006375008,-1.65569217126135,-0.504242458705892,0.554418828565881,-0.970592082220846,-1.91053667209541,2.30237067828234,-1.59580564861819,-1.03091225007756,-0.27720463985897,-0.156749357611224,0.632605455271952,-0.017213098878899,2.39380309393255,-0.787366373952008,-0.312327010579876,0.00341936804652832,-0.198892253498087,-0.105741824429038,0.145092344364179
54.85,-1.54327665901762,-0.244299073304711,2.38224616078359,-4.74540338125353,3.4438984345716,-1.81370371285151,-0.488318721092655,0.437246767778453,-1.06808225458221,-2.56364316125506,1.9822017057617,-1.57540607111068,-1.03082477904242,-0.35461432281812,-0.145399390891875,-0.00535152394723926,-0.145525424813722,2.26432985144,-0.760241692996173,-0.298303959605742,0.0183372475767827,-0.180481966234935,-0.0848285794767489,0.122414736672723
54.855,-1.5101589610536,-1.21273215124329,4.34425935236941,-1.95022370738314,1.2858834154341,-1.78349241681555,-0.479965406286931,0.337491517455774,-0.933182596127685,-3.09342299983002,1.56275430242893,-1.51072121487757,-1.04591372838564,-0.48104964065414,-0.139751720544871,-0.820541323304975,-0.273966865862867,2.04559183608172,-0.739806713020259,-0.280780626409874,0.0407176748397498,-0.158253667128822,-0.0541897774084666,0.103448559938609
54.86,-0.874085362731944,-0.526183843585923,3.06119461099157,-2.61901287722581,-0.683449182591197,-1.0802254304189,-0.473613442918693,-0.0391122201515309,-1.00126816310213,-4.10306256197466,0.97989903222249,-1.42301920794176,-1.07765981219091,-0.640212173501419,-0.131130739488738,-1.58689652807318,-0.361615832299913,1.81110738714906,-0.731990896174,-0.264019849117148,0.0621480701299976,-0.124424837949555,-0.0155781434932504,0.0804901605800881
54.865,-0.254038667600531,0.60569935676143,1.59912320471638,-3.16141686105989,-1.39154373441776,-0.222273886087935,-0.641386950563429,-0.293332859393327,-0.55485951215556,-4.41540944076614,0.34557426973449,-1.25390094522498,-1.10505570041201,-0.743191139558707,-0.11402745840225,-1.94953557060644,-0.397045800686026,1.66540119340535,-0.740135105613872,-0.265190269253708,0.0680328969642442,-0.0722673127627367,0.0123550600207583,0.0578311222948739
54.87,0.548033411581917,0.79070675353012,1.26085700562715,-2.27368446760588,-1.19773748233571,-0.148770554370997,-0.69343900515562,-0.369092825232344,-0.228281513645027,-4.0762462212412,0.00782575896770941,-1.33036776871459,-1.15408014841052,-0.825657613561199,-0.0775881812825255,-2.16669035067376,-0.451631499934804,1.48501752077885,-0.755019370017144,-0.265086974161014,0.0791322456080659,-0.0393852671142918,0.0256041177647274,0.0453790030400056
54.875,0.668626127995875,0.469745483612818,1.45332020210764,-2.15726032479529,-1.35098789883827,-0.489068087225491,-0.789720123920977,-0.345683641391099,-0.0208209770779236,-3.19087332354049,-0.0693593173680127,-1.40511740091765,-1.1865777143237,-0.84764471220185,-0.0316715399259398,-2.16100822265951,-0.515789571727024,1.3828590439233,-0.771708526606909,-0.261054347408928,0.0904302175937134,0.002923543034072,0.0268866935252198,0.0183360905027185
54.88,0.372571728268263,0.379308084496728,1.12050360213123,-2.4872532187886,-1.67921998809892,-0.634946570618122,-0.867288596435963,-0.363987944114969,-0.0523887860797809,-2.73733936627014,-0.127690624027329,-1.29423744612443,-1.20375078660473,-0.822793208899775,-0.00165182591724103,-1.97727149787038,-0.546770511736411,1.28022725668106,-0.777776372286756,-0.261627409235855,0.0909790236947726,0.0228791617436488,0.00482697596401638,0.00314687507905421
54.885,0.0598263623673082,0.578176910941203,0.823014267539602,-2.19996944908383,-1.77667266737926,-0.552416198521566,-0.783558959153936,-0.301497882947144,-0.101657659403643,-2.24264526025196,-0.21463893695239,-1.1312579947708,-1.2231925324719,-0.786482766837853,0.0136849435092088,-1.64200939175696,-0.532877384285632,0.858248095917356,-0.788158380754865,-0.26616830880039,0.0865645100042078,0.0348097857577788,-0.0384202083847449,-0.0243740602455696
54.89,-0.148584244371339,0.753659483091341,0.933580148060778,-1.73205330567792,-1.81817564071869,-0.458870718817628,-0.629786876363462,-0.237370018897335,-0.0981764010455863,-1.36814083248767,-0.309486339583157,-0.975270811491081,-1.23609277003337,-0.759391789340707,-0.00551734378178292,-1.26902498850755,-0.485872854435788,0.653180359578767,-0.792306887304005,-0.265672651968764,0.0807500895036496,0.0329994429557167,-0.0742799747860556,-0.0477572801168167
54.895,-0.166582490016438,0.671410957143261,1.1534959009362,-1.5332344204536,-2.10778455903961,-0.417924191095218,-0.4700898001266,-0.144641422581388,-0.131736376272901,-0.28224090186552,-0.380452104194376,-0.855092177048968,-1.17638394562979,-0.731951002089306,-0.052638994732553,-0.864713847658082,-0.510150196150337,0.538891821304428,-0.796757492085596,-0.27187822201706,0.0777187146179901,0.0192881079007331,-0.090163594721576,-0.0639342785108299
54.9,-0.068441036930255,0.456909036527424,1.09669581864717,-1.41507271873257,-2.59282637179932,-0.391995408844247,-0.333676242096325,-0.0378475389819649,-0.102479384336529,0.648126733365199,-0.48340613757463,-0.854528866245484,-1.031970716276,-0.717683402951493,-0.064474488431155,-0.334109405951291,-0.712424136262695,0.522163407985097,-0.798970530329569,-0.277481750167247,0.063100329844666,-0.0160340128179949,-0.0863134040113319,-0.0784136357553742
54.905,0.16729844024471,0.26801211208541,0.744662530823153,-1.02008182918551,-2.85523794594503,-0.313714056797462,-0.301468364307892,-0.0159223675599118,-0.0586120925724269,1.32005059299423,-0.558352662723422,-0.873190151167521,-0.961960408092239,-0.724631121142512,-0.0420504510841598,0.193297341044383,-0.877767965996708,0.523968286713208,-0.795723586393713,-0.288342633178001,0.0492655737189065,-0.0785427109081814,-0.0481040975978205,-0.0975966528326095
54.91,0.3079426647669,0.277425903072833,0.541742095511159,-0.457885415939839,-2.82018650794051,-0.194089587428871,-0.377739986905057,0.0610510564776533,-0.0759590995706794,1.70516135529133,-0.673190221659383,-0.87668902647025,-0.925442151731033,-0.713869347410641,0.0351568037003442,0.714160847297526,-0.89663752664523,0.553709985788858,-0.763926956417554,-0.293455377330131,0.037312805294183,-0.175136581629214,0.0491673310145966,-0.130192023516786
54.915,0.315669852195504,0.427530255375429,0.516111744553655,0.137756160932165,-2.59647635149006,-0.035884915734249,-0.471978339389324,0.116654835552637,-0.0574631200482307,1.82513753798979,-0.858771671569235,-0.786382269429595,-0.745521701229761,-0.753042199241456,0.0664393953375785,1.10367674305396,-0.920379703323951,0.631440513972389,-0.827843767535204,-0.29073002256399,0.0172487851609962,-0.250813948790303,0.131746542149273,-0.158816299555932
54.92,0.181156717321922,0.503740397814204,0.5401390251568,0.477939444090039,-2.52611749455006,0.0309877633517122,-0.527338789054032,0.182103541373058,-0.0611981389022014,1.95810918318635,-0.998907440773271,-0.653634842218018,-0.640549626397057,-0.709361492780578,0.0509276571893636,1.4000862123563,-1.05752737748782,0.67059548413276,-0.853198651959407,-0.284522417481025,5.49291150475907e-05,-0.348227938934207,0.216197245060635,-0.169606817945647
54.925,0.0834471141477206,0.520634550977962,0.590283653866358,0.663472053922697,-2.54624784119406,0.0549564300336709,-0.526283662192776,0.264119194343852,-0.0885901108049122,2.0044461691788,-1.22559662999319,-0.469665885245788,-0.669602540814978,-0.649137162993034,0.0567644327376485,1.69120335220198,-1.07086099877545,0.616563884180769,-0.873388326112582,-0.266788450097137,-0.0166947953291321,-0.419039559557406,0.271368584212217,-0.182475932912541
54.93,0.0126498942039233,0.492115015096097,0.637147128011744,0.791531037264081,-2.65760151381311,0.0511283993795723,-0.471815904236316,0.304697226894226,-0.102862255176063,1.75544375999266,-1.44140089978562,-0.360345966976414,-0.685363369967983,-0.581410718047767,0.051709372209609,1.80188424448726,-1.05335584434522,0.594501290823389,-0.900548177598851,-0.25821330988857,-0.0281520111509987,-0.463442173211602,0.289929493137117,-0.188066037799949
54.935,-0.038055748976857,0.442395083869372,0.656153282537653,0.904038695224881,-2.83433276753711,0.0607617258293921,-0.420259763551894,0.339804581248772,-0.105662401200018,1.39019717182755,-1.63657426000646,-0.32961659031582,-0.686612749122312,-0.536035745699609,0.0241012030968634,1.82098695619458,-1.03872721945804,0.523570498799129,-0.929460109025387,-0.243801295112927,-0.0423606169315336,-0.49042211701158,0.282398885638428,-0.203945188940939
54.94,-0.0963679577043467,0.41622793046162,0.680571846174165,1.0453908017409,-2.99173564440284,0.101709825702713,-0.377657424116627,0.373181109672251,-0.134457268335326,1.0173788004374,-1.81646350829954,-0.308799354775522,-0.70747259752009,-0.513582587089266,-0.00135409296972666,1.75902268685309,-1.01384856285611,0.424248247522357,-0.954496691797772,-0.226506793823458,-0.0547312282564916,-0.494494080543518,0.270962420121114,-0.226816473401111
54.945,-0.131749966390042,0.40790226683423,0.682988809005779,1.12059137578505,-3.11929504356761,0.148268404014362,-0.351979948357335,0.389398562784565,-0.165749465909143,0.614337532789779,-2.0266128871461,-0.254147871771741,-0.741512925433104,-0.531225329653631,-0.0164959597994708,1.60065955762157,-0.962290783924228,0.306612166069992,-0.975344438163388,-0.217016701221992,-0.0577380060485131,-0.48325098861045,0.260198888692977,-0.253598962052934
54.95,-0.142153875571505,0.446948599701702,0.677828270847737,1.13642360781823,-3.24670591525875,0.200316717326713,-0.305134990111492,0.255331216376168,-0.0922222113877694,0.318929453788376,-2.18722338888163,-0.149015653533736,-0.752735235667104,-0.568278396610838,-0.0323266160015824,1.42299989421876,-0.895903359373555,0.21678426808261,-0.999552768691254,-0.216991480836559,-0.0648285920307663,-0.451534204891092,0.267696742240868,-0.281559902601878
54.955,-0.130955915917046,0.484992357614573,0.645096053600004,1.10706541804167,-3.42239693540463,0.245335114372078,-0.400935080167497,0.437193689653004,-0.186207660842558,-0.0799564382815322,-2.41065004593334,0.149720577003694,-0.75399971938243,-0.598728707561384,-0.0521749091464196,1.29904695446183,-0.838563017481419,0.189167688054616,-1.03369176758947,-0.216098870238106,-0.0544038782511993,-0.418537903497569,0.271699050291359,-0.310173377647724
54.96,-0.108757300483362,0.512517048877348,0.669534633623568,1.12385324359812,-3.52540186971689,0.298466109330474,-0.399843795705326,0.356075875513199,-0.161392485646026,-0.350465576972076,-2.67495461233421,0.156158191540624,-0.763179009969435,-0.647953009487472,-0.0773484723512414,1.17412491741631,-0.774040497441355,0.239951839175704,-1.05177187503184,-0.215871652685318,-0.0495961881307482,-0.383866884731172,0.270792671134149,-0.331311163675086
54.965,-0.114029729506804,0.551413895844874,0.700636269711379,1.1707247052743,-3.65624759469293,0.368132305051846,-0.484635638135123,0.314464276762362,-0.173529215956347,-0.525926909499496,-2.80656768896312,0.151710684334861,-0.751703324995334,-0.669579998307361,-0.0975215096062573,1.1151174955758,-0.712260867609747,0.357936440368164,-1.0743449943301,-0.216189978722493,-0.0342311004727017,-0.350370299846787,0.253286850676406,-0.352157387062999
54.97,-0.129839232249775,0.605711092739587,0.736355082627832,1.19904832048059,-3.7615505396945,0.465941591285787,-0.570305296333605,0.267958233554686,-0.208173898899728,-0.700169771715612,-2.9810928371811,0.145103662623075,-0.739371407218303,-0.677878633097025,-0.116319977721273,1.12299197196506,-0.643299559704884,0.493466680882803,-1.08800958354026,-0.221550131824596,-0.018556743827795,-0.334999906030116,0.213404098011238,-0.359734181547083
54.975,-0.157089793826557,0.674524676388241,0.770826910861911,1.18156198952394,-3.88237816076572,0.626330900715996,-0.574830936658614,0.21287406283367,-0.2372567629419,-0.816167538878836,-3.19815478255446,0.19269775322594,-0.7230745519248,-0.664948462511067,-0.126324423527186,1.16209230579523,-0.571962599251729,0.637852438044288,-1.08835838765296,-0.227867836619856,-0.00517550602318776,-0.321046079609393,0.16049314616841,-0.356979961607455
54.98,-0.173083633308786,0.73131641966551,0.788126813250501,1.14781810490913,-4.00229216335944,0.823951549504829,-0.604141175585311,0.223369283720354,-0.288890422956138,-0.888114237696908,-3.45321731206835,0.220888749725894,-0.705759457182444,-0.639226452559869,-0.12758177912843,1.20976037371705,-0.480690092173953,0.749501481386513,-1.07926512270384,-0.228693710151273,0.013488315763536,-0.313028570380374,0.101828016339479,-0.34118680394476
54.985,-0.204723884222455,0.781953796971502,0.800328959427428,1.20130057066032,-4.12443776266257,1.15479261674073,-0.642992763331406,0.223210237923704,-0.309340488091752,-0.994595362509014,-3.64565923150849,0.239586202711369,-0.695509058464784,-0.604659666100927,-0.112876248364576,1.24282214358015,-0.374962490933047,0.77543161609219,-1.07062750436947,-0.230386905393803,0.0288829702648629,-0.312219324422906,0.0607161997604446,-0.319528170103318
54.99,-0.266882047549921,0.831056038503311,0.824833328221673,1.2367817461103,-4.17579376471216,1.43095283583806,-0.692843884781108,0.178189436199117,-0.334344958728613,-0.947374896397351,-3.82798190333421,0.232685631258722,-0.659890156664741,-0.576267620914824,-0.0960555570699508,1.26439877450467,-0.283254472345016,0.766424857974048,-1.05166894938977,-0.232570992235153,0.0398770943209065,-0.319025148966096,0.0191695095980572,-0.292437272070706
54.995,-0.393845511694468,0.870323199474957,0.848057635875171,1.24883178738555,-4.24626884152931,1.77699967918377,-0.719757853969969,0.157841046949522,-0.378393572610213,-0.982941719634671,-3.97566828454533,0.228570855652851,-0.614641848284106,-0.544437054038438,-0.0571708468487934,1.28958294901943,-0.204045204410969,0.693346151003519,-1.02434836515367,-0.224361826641439,0.0565618956124696,-0.334590893713089,-0.0191785923650372,-0.250486381690388
55,-0.533501509009161,0.889133960471505,0.867137466229129,1.19633978169408,-4.30925494312909,2.13725041846588,-0.728996881734309,0.138268729475768,-0.436512134371694,-1.10011021453038,-4.17129472996059,0.23983696103096,-0.584117535874228,-0.52869120268038,-0.0179534548745208,1.32958234395539,-0.15907644298934,0.581098114870243,-1.00445831942467,-0.218847193724213,0.0704383113826715,-0.354080390349188,-0.026420627955118,-0.226068127039924
55.005,-0.651287639430913,0.878896669308152,0.859682757089131,1.11465599831451,-4.35998727242807,2.53234199110284,-0.726981908593483,0.132226769290914,-0.483146831736105,-1.30192223110642,-4.3755337445689,0.236153096376426,-0.56830496525252,-0.525860933370788,0.0247345106461625,1.3962182653733,-0.149090473878305,0.464222167571321,-0.977334203903726,-0.218303699707631,0.090300737913322,-0.380354724148023,-0.0168336716036349,-0.178499612693739
55.01,-0.727604614649659,0.844467145339679,0.838684625990085,1.05369393903753,-4.41004465587804,2.90350752541453,-0.735883864557597,0.133084301778628,-0.518613179686547,-1.58378769363892,-4.57635018709788,0.215792372325543,-0.539148280649578,-0.534914469094079,0.0796299817516776,1.50044473324532,-0.161347168061856,0.310332105502478,-0.950329484441583,-0.220823016402934,0.101190120108126,-0.420970414113637,-0.015914939751303,-0.130415359872633
55.015,-0.78274761938557,0.803765330042141,0.821330894122846,1.01440670325957,-4.45789710243142,3.20743215067361,-0.754831088287469,0.144921424037469,-0.553730092904083,-1.87246063299757,-4.70213150966087,0.206255016836651,-0.513990353326598,-0.550991119125127,0.121299898610886,1.56620643225384,-0.169971250605951,0.227894670491697,-0.928953858665181,-0.219849672441921,0.109603254008505,-0.462001829081271,-0.00246170300498626,-0.0760525266884025
55.02,-0.847616369847728,0.780447923885011,0.821066252776195,0.994963488189542,-4.49513687665103,3.48918858356248,-0.780004672897269,0.174507223575513,-0.590448132949878,-2.16668392015878,-4.8381765256666,0.207034384587953,-0.492924895161142,-0.564006778636198,0.147155558339303,1.63318017963582,-0.173919268398742,0.149076849594529,-0.90888086666266,-0.217142951863016,0.115685190138332,-0.504179399511493,0.0184586485095702,-0.0171058685737842
55.025,-0.964604720994312,0.764631196790479,0.870614287666139,1.01972194240315,-4.51871130680902,3.77936856634821,-0.805216371325585,0.22360300197,-0.602769762136022,-2.51695179264259,-4.97844769608759,0.234142374628519,-0.47669915224055,-0.576370849459507,0.162866706182682,1.70692229431218,-0.180232856981628,0.0563939590737389,-0.895785055276675,-0.21889924430745,0.113753903733225,-0.537167391101145,0.0349402106827834,0.0369484269074217
55.03,-1.14463759858153,0.714356125600112,0.912728875423058,1.02277307180593,-4.5627224096406,4.05150801286181,-0.802907104132116,0.218462135071634,-0.674230159940088,-2.93715163579127,-5.05274311424911,0.29174279959929,-0.464194396029811,-0.593419639243006,0.17784030931953,1.79999876022648,-0.175305095207101,-0.0539871040101023,-0.882406328056343,-0.226124156632209,0.109196707047944,-0.563746060927028,0.0554222431578938,0.106155399130924
55.035,-1.37700360702922,0.484548941446558,0.880005169231489,0.923661358854651,-4.62251952509736,4.28811417951427,-0.802362893257082,0.176359710692574,-0.828642654576646,-3.43911389672436,-5.19188428898071,0.34724909578754,-0.457253630207727,-0.608629274023524,0.190146306093998,1.91707437301731,-0.158446910389356,-0.20731609521148,-0.870891555198289,-0.230057046905777,0.0962649098191365,-0.581144673777485,0.0845379583234208,0.168943414223883
55.04,-1.47799716652269,0.207364799137752,0.805545300590247,0.837098204769684,-4.62894200508867,4.42247545751936,-0.785737062767198,0.142031156620242,-0.754951270825435,-3.72490920382484,-5.22896361139918,0.331569701049316,-0.456907925519329,-0.635813836397631,0.19251655973041,2.01224753848222,-0.129522733912819,-0.351334406599262,-0.856036142788187,-0.241424754144075,0.0758562665139611,-0.601169379623479,0.131857847070131,0.242607793138884
55.045,-1.44853048778948,0.0723340303233527,0.735677293566422,0.9862368064552,-4.56403863580214,4.59918849337402,-0.779118604886484,0.0439508642997533,-0.862718674847396,-3.95394685417163,-5.18110502006539,0.328112983833223,-0.444551244611589,-0.692793893239714,0.19181448591696,2.13812168012457,-0.0939865007338702,-0.572474618257441,-0.848580333408725,-0.251928183991676,0.0676270314804572,-0.619674181596033,0.168741725934425,0.291597955050439
55.05,-1.44959239044004,0.0759020091183694,0.68553215480654,1.08792205518487,-4.48002366579369,4.72723435565907,-0.815465960179678,-0.0425103925496006,-1.01106669598129,-4.00968229409477,-5.18371023474603,0.299411511187369,-0.421089868576996,-0.772963490281589,0.184569934628597,2.30899966440822,-0.0306608893960427,-0.855431928548578,-0.841705255418966,-0.255353193263702,0.04802966169331,-0.632350762099912,0.197016678523808,0.334240231199448
55.055,-1.50015943034159,0.0533047143161383,0.702918021072657,1.03311914936907,-4.36423359898913,4.7558457377605,-0.873289206793819,-0.0910708567420195,-1.0720681827543,-4.02259130832213,-5.23363449100438,0.245422277963061,-0.386689882947171,-0.845904446075448,0.168945634235249,2.51117992917964,0.0488100585883662,-1.12517971348832,-0.835737436338343,-0.260202496332971,0.0291211282873115,-0.63237929848859,0.214327957616527,0.370945918449524
55.06,-1.60617676925364,-0.0155155386529394,0.746671274052177,0.928409244670454,-4.21663379336411,4.73744204588765,-0.946224466835191,-0.10084208524068,-1.10795460223402,-3.94902550277462,-5.2203915380288,0.168919767238354,-0.358042200874239,-0.903481334532531,0.142603438488687,2.71105187843273,0.139592210317921,-1.33601995770169,-0.829605288585784,-0.267436808466033,0.0193887030471265,-0.613786120521373,0.219103872776031,0.399922596464366
55.065,-1.75060611576003,-0.110261995676885,0.72841868873052,0.810331109698112,-4.03908214190305,4.67658147322919,-1.02503644272076,-0.114535274611247,-1.14771619893863,-3.87184918541162,-5.1541529290435,0.107877836315065,-0.326541983950676,-0.968252248472053,0.0923655119679233,2.92525124896231,0.286056030258858,-1.52777246344551,-0.822874916589589,-0.267426090334473,0.0102646276962736,-0.584084790978349,0.226575108328504,0.422337313131745
55.07,-1.90176105303574,-0.220953797823898,0.671728022320054,0.647926824704432,-3.78266090517921,4.58200538025961,-1.11288932262767,-0.167659798154052,-1.21998970720013,-3.80631295107121,-5.10865243861425,0.0841497033196171,-0.295040007688067,-1.01629142885184,-0.00477424246716526,3.1264531368722,0.515138923538344,-1.72156313745349,-0.810223434892156,-0.270290346468526,-0.00131738949087353,-0.5492428030954,0.235031426531934,0.439453294536595
55.075,-1.98858216938414,-0.322866533110268,0.630103829143314,0.537334083265187,-3.52873722221164,4.50117286040701,-1.18309113142646,-0.231205300015891,-1.28639031676677,-3.60377965449807,-5.02471558835858,0.0810192153995966,-0.300294180343281,-1.02412983856744,-0.108814492123601,3.27641974911296,0.714221959597459,-1.88281084122212,-0.808944532727435,-0.274348347545416,-0.010050540043984,-0.522675848271881,0.234030144613253,0.442040890455246
55.08,-2.05878758714784,-0.442726998378529,0.628669954048771,0.449728943568112,-3.19780424050628,4.39552282850516,-1.26737837339991,-0.293243474274176,-1.30097292860561,-3.37459392614871,-4.89000669084307,0.0472507941824976,-0.374807276970191,-1.00597470122929,-0.27577016369952,3.40464187426749,0.958338035040209,-2.1224951726672,-0.801129688984001,-0.272580998484297,-0.0193942253277473,-0.490775780583005,0.217876485053524,0.435909623207612
55.085,-2.13136118931178,-0.550624107633233,0.665085296705699,0.396981879236246,-2.89700970067435,4.24444386879942,-1.41202991871363,-0.397640539424736,-1.37097577566226,-3.02526291028294,-4.63105578035024,-0.00196285311700233,-0.5058218487632,-0.925950983529456,-0.438438495075202,3.45154645421771,1.13012627182558,-2.36478412042699,-0.801954960084029,-0.283785050993115,-0.0259728155392814,-0.453148383310939,0.214972136991304,0.419308998335767
55.09,-2.17242026774454,-0.625951901349275,0.696421193426439,0.311308319725254,-2.7013038942896,4.06974243026739,-1.48640259222558,-0.495390034135467,-1.46039553693474,-2.71342956546117,-4.39743192841169,-0.0782196572116693,-0.637124591812323,-0.852549601510081,-0.572813457888156,3.41732749819619,1.21272656071876,-2.51629689906828,-0.812918373062781,-0.285459612355668,-0.0289461298963739,-0.421047259550513,0.228548443708544,0.394177072197251
55.095,-2.17363986932674,-0.693174441232247,0.618004585503186,0.182078445485326,-2.58537586419479,3.88506916064808,-1.48656476343345,-0.531942741244378,-1.53017266240993,-2.4058502475483,-4.12398375081854,-0.197479492935584,-0.725730329259549,-0.79380684118746,-0.667138974463403,3.33202223420697,1.23181748390198,-2.56445944903839,-0.818101659214721,-0.279867058840562,-0.0255298357126573,-0.399795925046936,0.262764092074659,0.358543930791256
55.1,-2.14658654336468,-0.753403248834081,0.420357111495386,-0.0137205903350692,-2.41312685183146,3.65749430281544,-1.39437687574484,-0.481174542050214,-1.54062920368076,-2.15582373445033,-3.83177198336735,-0.326416453820588,-0.800545410785664,-0.719792894002666,-0.714371373759653,3.14873915763409,1.22200555612148,-2.55723536909753,-0.827058749848249,-0.278230081338162,-0.0198530615473061,-0.401817614924701,0.305821524163766,0.315517057610386
55.105,-2.10389778274649,-0.789345358042491,0.197375064146366,-0.148967217399307,-2.19176677152087,3.47014642599073,-1.28188143984504,-0.380260724269535,-1.52056396040498,-2.05019614100708,-3.55635668014625,-0.419671393491135,-0.873737634058366,-0.62717680704131,-0.723443742232584,2.89186772099853,1.16609005856249,-2.50363157837153,-0.845348134071142,-0.277012536370578,-0.0167923477347507,-0.418425014521638,0.338945208145473,0.274534280534003
55.11,-2.03748636600439,-0.784619186091973,-0.0927659512670129,-0.24258852796869,-1.76454086249078,3.28386159690364,-1.18404162702125,-0.267350602447701,-1.46721003243048,-2.01517303844296,-3.24097642197563,-0.484285458024361,-0.949788509579989,-0.508117268264974,-0.714471043062333,2.69064870458415,1.12337407798148,-2.42353437566122,-0.872059586107227,-0.272435387735974,-0.0172009695495584,-0.454389309751428,0.360575825373791,0.242090693579168
55.115,-2.01735574503862,-0.749861288952012,-0.293539397781784,-0.253558488648059,-1.3305413691446,3.13506052326637,-1.06101170074082,-0.180636508110907,-1.43376778767756,-1.97853874504519,-2.93917596953546,-0.498540229267729,-1.08554783500247,-0.2979188369631,-0.681109481532832,2.40310511237583,0.993862283339013,-2.14217833886564,-0.89917525596675,-0.270918431210765,-0.0141553198342406,-0.492714577646598,0.367817155550197,0.224469124566652
55.12,-2.0064651726328,-0.658189777574828,-0.459960136054686,-0.285341826746127,-0.735787653948938,2.90431529758997,-0.971896467630105,-0.13350823619439,-1.45244588927638,-1.97939047577066,-2.75093410506714,-0.532485892812048,-1.18145238473029,-0.133451661267905,-0.617953459124202,2.12982778736809,0.910200783177407,-1.8870358520989,-0.890663383722202,-0.268656502391008,-0.00653960840453412,-0.5414368818617,0.360931519903237,0.223357573151588
55.125,-2.02855932715834,-0.552863134957624,-0.588973664602658,-0.416334746325246,-0.172962379487046,2.6235485838317,-0.813478911606895,-0.0808699178154347,-1.46635629906342,-1.97798303850628,-2.42280808503343,-0.535148522858305,-1.37563155818971,0.0834201446155847,-0.611281420823143,1.76705003712378,0.799422334123708,-1.53332996523016,-0.998527548407292,-0.271126431963513,-0.00479926938028333,-0.605950701434712,0.320639484663502,0.237717820143734
55.13,-2.03821865758,-0.46331635818473,-0.725348499573982,-0.592194102407236,0.312937901327092,2.29228696220505,-0.654292262281309,-0.00835567692586449,-1.46866930491673,-2.03247845212301,-2.20973426553579,-0.521016427216957,-1.55196371346421,0.330645385216915,-0.578351171808606,1.46644019508346,0.715294713973906,-1.14279981231667,-1.03498187078924,-0.273945827126495,0.00267943222485116,-0.66824522238014,0.277237373912362,0.260992779865271
55.135,-2.02760071080324,-0.425656125622494,-0.812789455596208,-0.700828067572666,0.706175656129058,1.97637300864108,-0.557710923731577,0.0432696023161319,-1.44402931794597,-2.13872202972067,-1.9976098995536,-0.464435286920596,-1.68575919442066,0.528519518024177,-0.510961679120505,1.18213404312898,0.533139334492916,-0.719955601044566,-1.07676891367056,-0.282219152916073,0.00836099333394464,-0.766535724018924,0.200912494687825,0.293167021050063
55.14,-2.01414545825883,-0.438579072745803,-0.841154340606886,-0.709095357927805,1.18046493083678,1.58931500067387,-0.480283461090349,0.0429273986997202,-1.4083026052678,-2.2512385256697,-1.79291714549405,-0.330748518736739,-1.83014656506817,0.750312354272438,-0.43765833709172,0.929478115903588,0.30234885573988,-0.230068525620657,-1.1111168279197,-0.288607315912914,0.0150221483289983,-0.860659853108673,0.126293153472458,0.334068015033873
55.145,-1.98316492525896,-0.489213423156082,-0.82066091591467,-0.632363223121149,1.57922072678518,1.26616767091872,-0.430150771803922,-0.00567003467100807,-1.387964389897,-2.35609515438531,-1.5889409035872,-0.150515094724368,-1.92163800840875,0.955397362186409,-0.395721975316544,0.750054731430493,0.0769667951888464,0.363555303703809,-1.13609124031872,-0.29245664860253,0.027358158643483,-0.97060001846102,0.0304922694729512,0.383007376504011
55.15,-1.90042612884127,-0.517238227280557,-0.835762018760408,-0.545034161892409,1.96586902876681,1.01289764723126,-0.371444597070145,-0.0782665818572164,-1.37238284321029,-2.32922641601691,-1.39011969433345,0.0383367160463359,-1.93058763584073,1.19278437130736,-0.437801470890872,0.485354829671552,-0.0713387798611634,1.03318353394848,-1.14820885549025,-0.291760714541757,0.0350279490792076,-1.06617734941752,-0.0596011883861446,0.434319923759409
55.155,-1.82752181723291,-0.522441102013387,-0.844501149768521,-0.435589917762544,2.25835566417354,0.923823965428395,-0.327923697302891,-0.126387642852831,-1.33749381460549,-2.1101726868609,-1.16397206067096,0.137607995789988,-1.88528750805888,1.37012791703511,-0.47303571205978,0.187832097982368,-0.202059810077851,1.49399252178188,-1.14343247151255,-0.292850828210253,0.043692357469213,-1.17569801393285,-0.166516490977653,0.488314264242834
55.16,-1.74145724390514,-0.491620281335518,-0.799651864613891,-0.259977992951023,2.62469273619305,0.910606678618673,-0.316425487044028,-0.1409921407264,-1.23489137137879,-1.89230744279707,-0.964340398717139,0.155451072723644,-1.64197720309794,1.52005301735803,-0.575326052310072,-0.0415400235104321,-0.31227672919405,1.88790936167915,-1.12903683771752,-0.286231156827465,0.05712785162607,-1.28165901363783,-0.242250389814544,0.546402703674459
55.165,-1.7242336610567,-0.423154440004927,-0.770934481370874,-0.147186996361536,2.98737618630241,0.950388030489563,-0.343251539247767,-0.168671158683007,-1.13098407368195,-1.64815849965055,-0.71148086446693,0.0968143856655217,-1.28984572995923,1.38116236886007,-0.644361776790976,0.040965615722615,-0.307733249679425,1.84600405218262,-1.11110825380851,-0.282174610411074,0.0665314451513312,-1.37100373843245,-0.28584602856313,0.585618295918153
55.17,-1.81347530891899,-0.299874183508951,-0.762607467794422,-0.19193760169502,3.40379801768234,0.998835478923629,-0.412243912028006,-0.185510496721142,-1.11616464530085,-1.48227408932099,-0.525218597954255,0.079790844471104,-0.770961147109856,1.06864684670838,-0.704194563512809,0.234765386130797,-0.187490741758842,1.45163491686226,-1.08612076484355,-0.271810027411003,0.0748734183434197,-1.45175388029956,-0.315646076037545,0.624492344517778
55.175,-2.08776792053084,-0.12370249477246,-0.514587988474632,-0.764544096348924,3.85425737840294,1.01082831982447,-0.462486970491817,-0.176728878490178,-1.18022680931981,-1.24565074552133,-0.277175204881221,0.0628530560688328,-0.47466687080589,0.733898095054207,-0.761209817540312,0.494729526951979,0.0260509476493258,0.893366249444235,-1.06615558580064,-0.263643678030257,0.0864920018869908,-1.50232697140128,-0.310669190714163,0.648101307135745
55.18,-2.60517985385597,-0.13772158830279,0.518352653126186,-2.34894350683554,3.92169650105333,0.762484375692867,-0.463154967539769,-0.0616286228480918,-1.31206274643868,-0.960690860649655,0.0717200757359338,0.0202645531397695,-0.172236846714351,0.295713009173975,-0.854247663918182,0.609923933089028,0.25916266233671,0.112071132937757,-1.05357663850913,-0.256099211046494,0.0915873385667421,-1.52438259124756,-0.293753375471937,0.663337229173844
55.185,-3.44640147387368,-0.498650015036535,3.05774967392448,-3.39006437288522,2.86123377364503,0.2139238153403,-0.404941051462279,0.105831977922467,-1.27362674214834,-0.540674773551543,0.45848336905039,-0.0186240004101187,-0.0138173661710043,-0.00275497578918364,-0.900037726896718,0.50743087573949,0.425670593769893,-0.554467681667919,-1.03281909154505,-0.250030645489253,0.0937179418490476,-1.51469920059546,-0.282407330923499,0.67533947040387
55.19,-2.91638881139859,-1.25652690869085,5.43400330438768,0.177173935677,-1.05323672763531,0.395816363077541,-0.395956607347877,0.124522350783847,-1.00114422789405,-0.196972610929547,0.722848541590438,0.0489378826714413,0.0368764809338031,-0.283775673782193,-0.870240648011851,0.167916825278979,0.468908890320875,-1.09459871886715,-1.0100761906956,-0.247300910947319,0.0972347778100173,-1.47776368082282,-0.285771991287032,0.687437400536279
55.195,-1.97496806556932,-2.32132702312782,3.18078596347646,0.602499407470481,-3.65332833881032,0.517604126717189,-0.499724390363114,-0.161501381692006,-0.614548642058474,-0.150313359046219,0.792286716795148,0.365810316091035,0.0346271764443574,-0.496481382953949,-0.781022627667355,-0.15736280152147,0.462716831266559,-1.38859366953359,-0.995107229721497,-0.250768152124987,0.100654227314722,-1.42306984578049,-0.278279585016362,0.698262775474267
55.2,-0.638526125243083,-2.2458972035728,-0.0915936177736811,-2.78466765065762,-3.81322921772315,-0.598518148613321,-0.832171008594125,-0.554539487568729,-0.275364554933029,-0.152088671922684,0.85289884695265,0.671908131159327,-0.0486991468726336,-0.727091176750179,-0.625176453447068,-0.602299167446551,0.406466310959239,-1.65660980096676,-0.979433086675502,-0.253638188243386,0.108079362993177,-1.34156940994522,-0.269570353084337,0.704952390600475
55.205,1.33686000244987,-1.19333979752905,-1.058085926986,-2.29413781674281,-1.56886219533165,-1.3489987990122,-0.96864288504888,-0.700839665163075,-0.113729161357858,0.294757390661691,0.504035508564975,0.643788695405367,-0.174168441285834,-0.954077836663766,-0.469627295053024,-1.25424510980115,0.259859463582554,-1.97110913487205,-0.973482496375816,-0.262150145949457,0.12469756624263,-1.24524792603907,-0.247019289569183,0.713393450000033
55.21,1.76708566572804,0.126789480585924,0.813342830015363,1.31857155153679,-0.213825826581103,-0.749198298244502,-1.26587487469081,-0.471203682602212,-0.170406447061215,0.428655894433424,0.286338787936369,0.450620280624605,-0.375293339766941,-1.17162723043831,-0.369446721516142,-2.00181728168707,-0.0242576328994965,-2.25250521521182,-0.970543562740678,-0.264722716820041,0.122738180489268,-1.12730262394646,-0.246229547559864,0.719101226925149
55.215,0.282468929860147,1.86902228725015,2.18927096719356,2.60652108787741,-0.352339683154948,-0.300355661734456,-1.42033293997642,-0.0750840614788063,-0.188619750505688,0.688850509536266,0.254180473981505,0.414861467505004,-0.614235316007996,-1.28874163559259,-0.319760790507149,-2.74390676052827,-0.444935588245856,-2.43205167376987,-0.992150128526781,-0.274697549462595,0.133954854068123,-0.970685119790037,-0.285523414977424,0.727272850713861
55.22,-1.47944786896194,2.80093193149228,0.714202850839118,-0.341055707970889,-1.42165541648865,0.0426614793310436,-1.30165880758512,0.230862898730892,-0.197078014014943,1.17190720864136,0.239342855855882,0.440244626265811,-0.846582712787464,-1.35441740914673,-0.309955499526642,-3.04667306635575,-0.844434514286891,-2.48580957327619,-1.00952645721661,-0.26695962984462,0.135984698300733,-0.861687933281845,-0.311404513142953,0.709422887536507
55.225,-1.86341249722156,2.09889049665104,0.370136740965873,-1.57989806425535,-1.37130487118908,-0.491985130855583,-1.11760003385074,0.42747267115586,-0.334934428577795,1.95705306743387,0.247876745829505,0.378831951576493,-1.07644319859411,-1.42162203865922,-0.29306034981908,-3.09975066637571,-1.34135211350056,-2.46428472052022,-1.05030937323621,-0.263177576463266,0.140379071169997,-0.732692969439599,-0.344364300114489,0.649211686334559
55.23,-1.24309188825238,-0.293892629682652,0.971723544581348,-1.2660752517118,-1.34361470063503,-1.57612279629169,-1.14549486642899,0.618795668476187,-0.464327866118836,2.55068027527445,0.349651630033634,0.464739733966698,-1.17439169831498,-1.47284514029691,-0.211174397612492,-2.94988580961416,-1.74286537633313,-2.32405804480763,-1.07951182119159,-0.263263162877673,0.13053715668687,-0.627499285754573,-0.431356416746413,0.554748345388601
55.235,-0.811619533251442,-1.40481016982286,0.770975325019802,-0.858503225427228,-1.44103654403689,-2.03496717030214,-1.38959654221972,0.670833664041363,-0.421198736684611,2.89910759200432,0.490230749847017,0.656346164109568,-1.15273257055671,-1.56408534006562,0.0491199220172866,-2.52111437922778,-2.21953306679457,-2.03556639550091,-1.10725865544977,-0.264792285321114,0.132299888287101,-0.529761296297663,-0.547690832202763,0.471128027514318
55.24,-0.314543894356545,-0.523064639922832,0.714321490688476,-0.211728526100633,-1.17542717301899,-1.05888554988785,-1.61346184217779,0.470504414246136,-0.31619790620111,2.67609652954507,0.456536412039002,0.821657974508031,-1.10172944294651,-1.59492815015785,0.437181150773355,-2.06756224106934,-2.60772869433927,-1.61074136185398,-1.13792216397121,-0.268663683327763,0.132481927462058,-0.452431403883672,-0.632124413471931,0.397746834324372
55.245,-0.251719987027892,0.59060253226559,0.958290470075962,0.230237078026932,-0.96079961732873,-0.233746079956356,-1.77068264113453,-0.0148550673669235,-0.18457426849535,1.74659469005779,0.264226819872784,0.913342213210086,-1.13739772657622,-1.57512459827968,0.860609735408644,-1.77927153335618,-2.91659314352521,-1.12018618595706,-1.16594229859656,-0.272171993443606,0.129259344529998,-0.429223161509855,-0.665420216926888,0.351421491351296
55.25,-0.261240810354334,0.209848341985496,1.26327390275625,-0.050599832463749,-1.10382752140514,-0.3840850397734,-1.70012009115232,-0.434665566380503,-0.0858862853843292,1.11409722170965,0.209383713029884,0.747931531981784,-1.29815754516745,-1.39500287195392,1.28494190535813,-1.86499296852448,-3.1204928811509,-0.628455381724324,-1.18784332472511,-0.271564283740573,0.122058704881515,-0.446227498814529,-0.67197684990093,0.367323689995201
55.255,-0.261514651885217,-0.478149333456776,1.06725161816906,-0.847985455886276,-0.913485425026477,-0.617521732806846,-1.74401072635514,-0.501045430172372,-0.0725638358837979,0.0554303265800502,0.136868955810557,0.509169707068422,-1.44360224769363,-1.09513341628066,1.51873436775365,-2.04566579186574,-3.08300044145358,-0.26788014524465,-1.21278956956926,-0.272809333417542,0.105484527807892,-0.475593493696685,-0.674914021047405,0.46631455705138
55.26,-0.368470515934648,-0.413677104397453,0.838247770689834,-0.638467644422429,-0.47452887859527,-0.468864519967799,-1.60790834272403,-0.317943252031671,-0.0309685838707064,-0.76194693600978,0.24041579887735,-0.0242434054276404,-1.55226390022072,-0.573245079872942,1.56715347677312,-2.11825933182337,-2.59559381997825,0.148818415157057,-1.22073408065108,-0.257813436537514,0.0848856019372358,-0.466031634238502,-0.698609941900838,0.600508656507311
55.265,-0.437123629114594,-0.205828911527235,0.921567654047494,-0.332571729520964,-0.312941758581227,-0.216674535201946,-1.38094823522374,-0.175666086471457,-0.0629639648266606,-1.42093966722324,0.136268178896624,-0.163009551573482,-1.31068134004928,-0.140107811037872,1.16654242028962,-1.68036200176238,-1.72721202572304,0.445182599778219,-1.21156923392154,-0.247284869332252,0.0636605940255064,-0.430630970852881,-0.718777496335077,0.677600420000741
55.27,-0.366314995778381,-0.129364977266494,0.99023664684042,-0.419149728947533,-0.201581413261113,-0.0676927782631716,-1.09132275342284,-0.305288818386629,-0.0959601100677262,-1.68363746573424,0.124978515580486,-0.117163884278859,-1.59116992196088,0.248630943416582,1.1114289267373,-0.824469997360889,-0.983363361136856,0.296776047910091,-1.17955173524384,-0.209822366904325,0.0502154068672991,-0.372949590489337,-0.735636148411256,0.753317375251969
55.275,-0.318214899519941,-0.177066969080804,0.931040540935259,-0.544740152365652,-0.157933797850481,0.0160975273325429,-0.853732271225374,-0.479051078161566,-0.084285550039581,-1.78495744405752,0.191728878303446,-0.056191038194329,-1.49828667370607,0.395968472393163,0.800730339252901,0.297597100482068,-0.249006366035847,-0.110495186262911,-1.14327932244649,-0.165547268387327,0.0298954603515084,-0.329853428924279,-0.706578985868811,0.797265873825355
55.28,-0.34056221952226,-0.160253084431136,0.892138143836658,-0.443774398980504,-0.117020123507025,0.11838098230465,-0.744800676701658,-0.4686996361535,-0.125945155067186,-1.77886951498023,0.232015643600351,-0.0192253669244909,-1.38749910863377,0.384378245209677,0.499770187274903,1.15196588342521,0.294129764510791,-0.665035350367278,-1.12124778058117,-0.12364792064702,0.0115676073059699,-0.316085581724172,-0.613849104410235,0.799668645795622
55.285,-0.34841893279941,-0.124792149237375,0.922692439613821,-0.317006220646543,-0.0640321848066284,0.199995025708747,-0.714902227930334,-0.343720484161618,-0.190621220710682,-1.64891173142025,0.243298571324367,-0.0164265758326819,-1.28106494122516,0.257967641186236,0.160962215453536,1.70347747505125,0.748020327041463,-1.06004303678966,-1.09212756704426,-0.083782122324323,-0.00622793950318315,-0.310941737757999,-0.448013463044512,0.719677885388941
55.29,-0.345858788198212,-0.121679605103324,0.913984557361934,-0.278936251740354,-0.00421236038694005,0.223447067746028,-0.775891458036812,-0.180696881290564,-0.23239906252119,-1.37579528717274,0.228468169767277,-0.101131622554519,-1.22158724520574,0.0815032212593275,-0.137066341037427,1.89581002871895,1.05911600328698,-1.08869030029014,-1.06841166059927,-0.0609239623658912,-0.0186508129793498,-0.31169960778599,-0.2918162233056,0.582787568250525
55.295,-0.383136616866606,-0.0771861824108701,0.854372533817929,-0.172792395181967,0.0623893058451949,0.214687561695542,-0.840985338377251,-0.0851355541955948,-0.233205735307123,-1.18525659939127,0.190913196617541,-0.169796898218898,-1.14047682930741,-0.0401095498382971,-0.277278820957646,1.938661175564,1.22652206760964,-0.953048916319897,-1.05315641573589,-0.0353744197985038,-0.0296818368831508,-0.294587477575412,-0.140790032198009,0.425058594361105
55.3,-0.428151336553983,-0.0156897616127964,0.8577091589801,0.000192294533726898,0.108969208493985,0.22061235968412,-0.917958882991251,-0.0706507198258592,-0.215836152858192,-0.830363919508203,0.155980510338236,-0.208372378842845,-1.06962653958416,-0.187265788967172,-0.422744949821692,1.82639731156029,1.28658185572354,-0.732905890053261,-1.03120506116791,-0.023846732031544,-0.0401478228943944,-0.277227497088377,-0.0687444439354748,0.335491944114473
55.305,-0.410681709152784,0.0182038251641243,0.866839940035945,0.0702397421792064,0.131269415511115,0.213928083108834,-0.982795999599034,-0.099992607854386,-0.179335266030752,-0.292929345312027,0.169689198548648,-0.147961830105237,-0.987560880259196,-0.265710429387996,-0.453580203350813,1.21111361021326,1.28280033729905,-0.498707052537942,-1.00254165434358,-0.00718083755535086,-0.0440260514845523,-0.205806125432105,-0.074983593606308,0.254288788191449
55.31,-0.380022856320109,0.0471260032959607,0.867630817701431,0.11870019060041,0.144367872245274,0.181361055234715,-1.00982142042149,-0.121866961150786,-0.13514620523721,0.206967333956496,0.199626020350588,-0.04201424046077,-0.893153896369294,-0.281455208335666,-0.468914829657776,0.528732339794139,1.33917692193452,-0.291780477643219,-0.999503821003209,0.00521176755863152,-0.0375770101300672,-0.10892813930577,-0.207985375045711,0.275046071045355
55.315,-0.3770954298654,0.0642896828912181,0.864793924424459,0.155444151650327,0.135260194763598,0.145881997821827,-1.0088686509115,-0.101878394676278,-0.112856678737486,0.553026392832583,0.230922519633153,0.0564123575999888,-0.775134727456817,-0.232625864926303,-0.54486151769551,0.299481327243634,1.20070279705452,-0.214812885509992,-0.984817397307523,0.0154199606946534,-0.0344239875692873,-0.0250373057556129,-0.394308371134759,0.284622408623134
55.32,-0.372360366568645,0.0645091555606856,0.879272790754236,0.167481927325637,0.117801949430684,0.107373579742394,-0.978606407081597,-0.0668310767858624,-0.0882775718079008,0.819196808531321,0.234832742623513,0.12371180506723,-0.706586332458757,-0.145536076306278,-0.585122719181179,0.161425342907608,0.785157572599384,-0.350735876524554,-0.947711261382666,0.0118556726028662,-0.0151811987996198,0.0462267034767179,-0.57461096931297,0.237398884132404
55.325,-0.364003990478889,0.0595349897490051,0.881537687612358,0.158479655584969,0.103052240313338,0.06509561885861,-0.94643498859162,-0.028269831274491,-0.0727900028726551,0.914902897461062,0.224587968481348,0.159566941141053,-0.69637933285477,-0.0895965714039039,-0.531019428356886,0.04729225141075,0.437779964593838,-0.621173771803091,-0.910844443192526,0.0064578113611735,0.00438040883929023,0.0771779976514432,-0.659833202840472,0.15849143027129
55.33,-0.36696989852296,0.0487423705080477,0.881810030915602,0.131239201364414,0.0807558414401632,0.0335544342047835,-0.93813773161868,-0.00427269735974241,-0.0790499255675935,0.87830828847689,0.213991596025785,0.17588715567441,-0.710440828760745,-0.159456441638319,-0.392260699788502,0.154568124642954,0.165861947530421,-1.02481623952492,-0.882575837542091,0.00655312052677079,0.0244110195699784,0.0799053229452498,-0.669813574199711,0.0611691880628363
55.335,-0.380058300197527,0.0234140902466845,0.88306115153626,0.0920746800589914,0.0639919327461853,0.0138784794214511,-0.943679658880465,0.0106538198223361,-0.0936804136353834,0.833743101230316,0.188728690269269,0.209860547646259,-0.742777736618048,-0.278897110326786,-0.248111690277077,0.263675962498356,0.0146640689268248,-1.31931690384415,-0.861528298029781,0.0013710806004203,0.0478817364827501,0.0569895659390906,-0.594900747562639,-0.044177844448138
55.34,-0.385830044855508,0.00348551011475783,0.887903041492078,0.0448662127455288,0.0395778786156724,-0.00252704716087512,-0.958278556213765,0.0347219680043815,-0.09961147784717,0.733406348721589,0.18231126666069,0.237256643476357,-0.81314415732709,-0.401040967298268,-0.0886902620848372,0.230686953281245,-0.00596778222858228,-1.49132677505371,-0.851315275529843,0.00258210944858573,0.0597661144874461,0.0277923911716845,-0.488995828386021,-0.115748469757578
55.345,-0.380983457998159,-0.0188448206737872,0.883213086251572,-0.0221761242174501,0.0296692124240298,-0.00272629640996136,-0.988270060660411,0.0491328107906116,-0.0972935575655661,0.514053082851958,0.195650266630651,0.242262232408164,-0.87140934901051,-0.536500698856246,0.0501763827720809,0.414143259375382,0.130984946185035,-1.48267603808156,-0.836857612761143,-0.00803611981507979,0.069691235423565,0.00160798958379098,-0.328581552918452,-0.191590053903533
55.35,-0.37068032055964,-0.0201821415759979,0.880277278385306,-0.0414198285289239,0.0247087083720364,0.00780596283897004,-1.00675028763345,0.038583549671241,-0.090561486714734,0.280857668247584,0.210567915233012,0.240900984613065,-0.879485984636535,-0.589526913345997,0.134418249206769,0.407290694469658,0.00887883279534059,-1.35284056722331,-0.834762768854808,-0.0233877127093606,0.073748629913885,-0.0178931485652872,-0.188956247239265,-0.235464083844012
55.355,-0.375327261899677,0.00224271262352431,0.883660179710244,-0.0657296196213162,0.0174482400144999,0.0255737333970412,-1.02167013673938,0.0241559935765371,-0.096090719068334,0.0692796390212738,0.22137103805884,0.224247594240132,-0.857459732562861,-0.659327565577486,0.175580729477351,0.437721328707944,0.452916666113517,-1.08594473642508,-0.829474381217147,-0.0364537321565681,0.0623864104926715,-0.0240825024659929,-0.0820530639476394,-0.241210452999533
55.36,-0.379570128208763,-0.00425939307687134,0.882089443083105,-0.0920431095110273,0.0171236093038386,0.0408079744067381,-1.02789627324545,0.0208652619154549,-0.113918533654321,-0.119308289403636,0.228100448206001,0.167410660705653,-0.82815223944483,-0.678823496457832,0.196121231202431,0.448123231661981,0.524467393360539,-0.814161388870808,-0.832101940775488,-0.0491428068555021,0.0595051715175282,-0.027693638169605,-0.0153437350754927,-0.217556426382561
55.365,-0.387686986772227,-0.019718861032906,0.881520425361288,-0.10644720074047,0.0237653689557183,0.0547846475503644,-1.01950254128514,0.0371866202010447,-0.137226132282323,-0.282686452710759,0.22277930235675,0.0988809627536623,-0.809404984319211,-0.67037634938247,0.198298696354251,0.439683902867189,0.539374196858321,-0.545531794075763,-0.826675328447607,-0.0530203371901626,0.0486317555511433,-0.0174736804434319,0.0257683466729082,-0.168186268753936
55.37,-0.385227356017581,-0.0231323073121405,0.876751696754248,-0.10906986462097,0.0193872167392028,0.0618186975571607,-1.00526780933089,0.0422197074754753,-0.144484709334186,-0.379925540206097,0.206729092217367,0.0570719229045645,-0.808201285148543,-0.648355059756644,0.192821810365705,0.472751660540428,0.560819242003867,-0.374718699291841,-0.8205388076057,-0.0579794750544246,0.0409998104748939,-0.00832854620018946,0.0488710016789913,-0.11176554727661
55.375,-0.397103073216032,-0.0236963183983841,0.867923360995557,-0.10876460386907,0.0127646241557676,0.0774470251636566,-0.990483679975523,0.0396201340883487,-0.167057451340384,-0.446649059745868,0.192580118554191,0.0177527673215878,-0.841215501304389,-0.604347027746206,0.160181233437136,0.590561380058221,0.631074758753019,-0.282327378957601,-0.800945151219693,-0.0644371234761238,0.0171976511993124,-0.00473804457097966,0.0702052168668311,-0.0709921627437063
55.38,-0.404017202109594,-0.00671152214680464,0.867055760968684,-0.100084593361824,0.0027914428294746,0.085236692958862,-0.962503715467013,0.0260092335683467,-0.191610557634073,-0.476932767812013,0.179849799695674,-0.0122844445835524,-0.875534312858616,-0.559076522093707,0.131582354509971,0.686249323598785,0.764992113337462,-0.244215619743876,-0.782089971033188,-0.0580591855755246,-0.00269323594856269,0.00348401341916654,0.0978904311930541,-0.0547107744104703
55.385,-0.397133351721658,0.00155015859876456,0.867072156835108,-0.096771465028253,-0.00192970251176014,0.085162653001281,-0.940641092112633,0.014018005800004,-0.207399754996535,-0.467714973516434,0.178117821021431,-0.0431670224171176,-0.893099342066958,-0.528891520408173,0.0884381256561107,0.81661105457566,0.967265901379001,-0.270578816451044,-0.765663879176465,-0.0536660346005264,-0.0128218576099953,0.0144506498674825,0.143315030171059,-0.0355107823694655
55.39,-0.402860124587099,-0.0145692265830563,0.870348632995443,-0.09116205020638,-0.0278939758160309,0.0636092331477229,-0.920779197614477,0.00977680755763323,-0.218154954984512,-0.446601727112501,0.170030759100724,-0.0449590712142102,-0.912869013081197,-0.498896620305334,0.0367992076346131,0.93518580723116,1.17926929551354,-0.290216553368295,-0.755710266200116,-0.0436128498144974,-0.00755006436840604,0.0333310998724971,0.168949775736328,-0.0291798170123303
55.395,-0.39628302747915,-0.0230679060911249,0.870790654116208,-0.0913471994789391,-0.0398313880894059,0.0403944573838704,-0.90891085985008,0.00578363374946172,-0.232668783297086,-0.393799409107902,0.156489776257894,-0.023502287211745,-0.919057872665589,-0.499669196482433,-0.0356143915558976,1.04502117135978,1.40349350472192,-0.279494872699154,-0.774412365519289,-0.0278465879983798,0.00621401372169807,0.0683389392355715,0.177008389602409,0.00136624418684572
55.4,-0.392489380715557,-0.0218364145113143,0.874702917822972,-0.0834793330361876,-0.0560814261947421,0.01385956704081,-0.91021632779814,-0.016430466257648,-0.230042938681692,-0.335471429296276,0.138983243476536,0.0100874616480024,-0.919433513806881,-0.513951070767418,-0.149411554921946,0.971151067583507,1.4728629352824,-0.185425383300969,-0.811988320781141,-0.0097139055792964,0.0148774476445399,0.101027175050722,0.130260802548169,0.0667849433841145
55.405,-0.390503601939378,-0.0111947927969269,0.875845234645341,-0.0774361414654146,-0.0752266277193904,-0.0178821292183919,-0.914311553581963,-0.0546511698118875,-0.217491204457766,-0.246037602900178,0.114230024639168,0.0508191203113838,-0.911771238591543,-0.536960221872881,-0.294759106299737,0.705163037485755,1.35642864532342,0.0507231967171468,-0.851222228345933,0.00579533232788169,0.0175056244327547,0.106495651529087,0.0402225174608258,0.162870769961579
55.41,-0.391470946346966,0.000989153836463053,0.876643147195683,-0.083845579184368,-0.0818187674158017,-0.038656862773576,-0.927819368790067,-0.0802837656999182,-0.20672798145136,-0.145296823027876,0.101174938201465,0.0926538619613561,-0.905793862114998,-0.55886855516916,-0.395583710897519,0.334119496963316,1.05434536804963,0.457325026195101,-0.885256935376261,0.023720599234958,0.0233006023289685,0.097718451755367,-0.0677191333173138,0.275769888809603
55.415,-0.384387414672812,0.00406749318307699,0.88004834868206,-0.108905769775223,-0.0754123448768124,-0.0519911063489158,-0.950109917867567,-0.0858028669402022,-0.199762650107069,-0.0308275786408757,0.103171406554623,0.12611121263096,-0.91040160870624,-0.569885970315492,-0.457062880699616,-0.018881826696473,0.712737090981393,0.919879179565052,-0.906278987576489,0.0345583294843771,0.036411493760891,0.0808371834315725,-0.146486721922039,0.357705068154499
55.42,-0.379033215522374,0.00475485846994241,0.878637255662006,-0.0994378579718985,-0.0906735939389752,-0.0825013017966051,-0.978150446916509,-0.0893501399359794,-0.178437921020944,0.131859968220663,0.0994973863272841,0.175047767316026,-0.936642190393165,-0.553426112154471,-0.461593910152337,-0.421941529517765,0.335498268545584,1.52737249674307,-0.915260799565034,0.0340809952162222,0.0526364095557977,0.0508135336504684,-0.204653379278319,0.426304077100152
55.425,-0.362302780994038,-0.000612982956553459,0.88902131187951,-0.0975798495505752,-0.100206690995722,-0.113572728664846,-0.995929597430387,-0.0820951801225161,-0.166394744512488,0.299655729700755,0.0875684687715994,0.214593405311119,-0.970046758297209,-0.520347709454612,-0.40547298951548,-0.768711403578083,0.0570952899949725,2.2328996230736,-0.9292216316058,0.0311198450273523,0.0606875319616988,0.0280463811858235,-0.225592911243439,0.487181399312507
55.43,-0.361639475567092,-0.0168962300088749,0.882415931458433,-0.0945719448202851,-0.0893015344001609,-0.119857111698687,-1.01771157466406,-0.0781607510780229,-0.165101223148546,0.406275863484137,0.091905876994133,0.215862808778925,-0.993180711913574,-0.449140977007267,-0.32794850602529,-0.921982127455063,-0.000492531511041153,2.63888096614726,-0.964169123731554,0.0142192449918369,0.0345832099684003,0.00470541114496632,-0.224961500298811,0.543880621351254
55.435,-0.368619046031152,-0.0224210765836781,0.877592275974327,-0.0819033669313033,-0.0642144718337749,-0.125384634970793,-1.03012749515203,-0.0676083848733451,-0.160205006472048,0.524290078471647,0.0925020561042971,0.20267795676347,-0.98673280156102,-0.158293176407384,-0.242785030214818,-0.94243750471789,0.0359602218942244,2.61671497073316,-0.966328547826409,0.00809183517902438,0.105282353144821,0.000560376683722934,-0.218989818320776,0.57421036463067
55.44,-0.36062770750457,-0.00910106780257075,0.884526965700629,-0.0579733353301072,-0.0494260504905064,-0.12845522749722,-1.04309336659107,-0.0470193578419831,-0.145395311562081,0.596487871565557,0.0961634816932799,0.182490616159391,-0.900050313390585,0.156810528195901,-0.158499852014916,-0.942508726300424,0.00519362323665582,1.68230999184014,-0.988926119601528,-0.0028841112613934,0.123685726055583,-0.0107110319986333,-0.206652670846175,0.584668565202514
55.445,-0.352751695850985,-0.00531949646260188,0.888000053957532,-0.0307287974018078,-0.0330232662390496,-0.132574771597948,-1.05915048740924,-0.0216550949118947,-0.127694372279971,0.635151143273981,0.096826138027639,0.165380571143092,-0.849259323268257,-0.0206886963292052,-0.102966649069969,-1.02252524608302,0.00496389867290214,0.424519109600356,-0.996830438745717,-0.012954996292503,0.135251174722871,-0.0363504607731892,-0.188079958340686,0.563871230030845
55.45,-0.351821131118023,-0.00611929295792493,0.889437159266321,-0.00232474273447125,-0.0136841721342687,-0.142441809629769,-1.07196470658533,-0.00154486722772777,-0.117746816607195,0.641046233896935,0.0935773329330798,0.161970699031356,-0.878955938389498,-0.244545628465569,-0.0522721846434084,-1.06854160233668,-0.0220989691912588,-0.288551010518942,-1.01006942452121,-0.0278402016664261,0.143442152357536,-0.0611378374079983,-0.159068691621326,0.517694813710171
55.455,-0.352276131843259,-0.023367308013167,0.889738047311681,0.0120358311973623,0.00653285449802832,-0.139830572346258,-1.07151960691979,0.00143547076493196,-0.113280830821595,0.602546456546685,0.0940455524062315,0.168378090435334,-0.917714654363772,-0.324906080748126,-0.0305471170841035,-1.09463432103065,-0.124400984295132,-0.713826705773702,-1.04690085226589,-0.0442969830314091,0.143051210523584,-0.0931384631490788,-0.119221569293098,0.436986280354341
55.46,-0.359361649835326,-0.0408232815325602,0.888994275865473,0.0342037789523602,0.0397068071331992,-0.126101602367177,-1.05510096697589,0.00195455501228847,-0.111568414715335,0.521930406208703,0.0774581050159551,0.159341767434471,-0.957561103702463,-0.322441216304874,-0.0282334729658908,-1.0994168473257,-0.296299120486875,-0.93025327542532,-1.07112685831473,-0.0626371821045235,0.150784564455649,-0.119384096161613,-0.084349955464124,0.366106106979439
55.465,-0.362959726674506,-0.0397092309649337,0.895557450249633,0.0360714644288754,0.0688822493147324,-0.110908154958202,-1.04234528230346,-0.00444696311751543,-0.118744207029686,0.412762716987603,0.0743192374677915,0.146600130483069,-1.01709518095619,-0.338142318930752,0.00965007602633724,-1.04489667274398,-0.467663210629369,-1.09440009666574,-1.0853916710466,-0.0748070541719071,0.15187261150508,-0.139089024577522,-0.0220145795027909,0.285655724205622
55.47,-0.359333883657438,-0.0425906712572572,0.898053233694058,0.0459704247817679,0.0927328557832056,-0.0996583025068608,-1.02877483812363,-0.00642064403071394,-0.132652771238169,0.27936133346626,0.0694304646528526,0.134712977439143,-1.07141002453551,-0.393459633888787,0.0715962554274121,-0.992640695823826,-0.555889642099671,-1.25497659996685,-1.10508990224333,-0.0864025924570902,0.155837386807989,-0.142120166521986,0.0347573586851614,0.179813686203627
55.475,-0.358795012940637,-0.0331287784878518,0.89474715430294,0.0458173607190083,0.106789274763444,-0.0962605165244249,-1.02154236424306,-0.0110658327088207,-0.131586916111324,0.158158895758746,0.063874323610793,0.12460594217083,-1.08602226831017,-0.428517880075262,0.090214259431965,-0.929601409299774,-0.55450061507903,-1.31917496366796,-1.13787428096572,-0.10584686270601,0.149910609416377,-0.146976030665263,0.100954256736218,0.0667810115851669
55.48,-0.356265122431775,-0.0345847939569294,0.8940934545007,0.0464207231998444,0.119748411713622,-0.0989624839410999,-1.01277950423245,-0.0084539957684908,-0.136107599218275,0.0441569201310137,0.063549576976402,0.112802385822761,-1.05907828195616,-0.444302403219306,0.0695346777043956,-0.819832588350364,-0.568595297134616,-1.30332094244708,-1.16975885920817,-0.115893041309332,0.152148887431654,-0.168081220500965,0.190227937010622,-0.0528250682882515
55.485,-0.36003214236921,-0.0177679558032942,0.890145854889835,0.0455618815244832,0.138884518237319,-0.107792485122761,-1.00390849625315,-0.00765298218920364,-0.139233355560915,-0.0474575098044216,0.068356818777836,0.105345019217556,-1.04278959092447,-0.452656708466334,0.0667907279001903,-0.56479284759894,-0.64148548327678,-1.26016805414872,-1.19698619431768,-0.126850700206595,0.151293458703266,-0.206186456595905,0.267501806524457,-0.149038628693514
55.49,-0.37130280763521,-0.0165894483978299,0.892834071367121,0.0471470961171031,0.161363251366329,-0.10935841827603,-0.998454656342785,-0.00938320812955469,-0.153370792688162,-0.100724547927661,0.0727601119217818,0.102058931589911,-1.01870867484883,-0.437765116416236,0.0966091260008753,-0.370732224741584,-0.669737943017386,-1.20800655685595,-1.21614352575417,-0.146793706757709,0.14965732392934,-0.243719780980758,0.335732687590941,-0.224823943950107
55.495,-0.377612433971197,-0.00965634142254572,0.882260445784576,0.0341290839000735,0.178839156967694,-0.127821535255108,-0.986474176383967,0.000423216025818091,-0.144946134614496,-0.0938596909486507,0.0817221608410204,0.0977146330390166,-0.99573680293975,-0.425808508638455,0.111269690233129,-0.0787202678260725,-0.549185391202486,-1.14737226504738,-1.22728274036094,-0.161927322985604,0.149592132504983,-0.260394051614075,0.34090789345911,-0.219478004465689
55.5,-0.384596397174114,-0.0343160672249518,0.885797348528078,0.0160401723482907,0.176370862536998,-0.129892025914719,-0.981071686782345,-0.0145912760339391,-0.160998495433418,-0.0728708455217277,0.0856206553770553,0.102565303549988,-0.977916031056273,-0.415121164951629,0.0910832829198379,0.0634366974341923,-0.435422515666443,-1.0989813131476,-1.23189816998363,-0.17255165391046,0.142187088665526,-0.245766941304814,0.246095851792024,-0.126464076843069
55.505,-0.399408496701954,-0.0280971558393606,0.86564794431101,0.0332441377963691,0.182058615482521,-0.129570464364189,-0.981653879046139,-0.0349046544858681,-0.15623612837951,-0.0467278473016361,0.102262817334747,0.122398719251723,-0.945173291489504,-0.409013477500046,0.0458920661114115,0.133147138919645,-0.337119217295457,-1.03297674068958,-1.21202308713977,-0.171503153928038,0.135719329327483,-0.192455016130652,0.0969784141165943,-0.010646708554485
55.51,-0.401763525977338,0.00760377637835661,0.87129456543877,0.0588398980835267,0.173547814307448,-0.126874241752102,-0.973007481826054,-0.0228522299265866,-0.147648014046433,0.00220574125596145,0.121480798206286,0.117667511105537,-0.906590079869078,-0.407778213228852,0.00630162558508821,0.168906528963821,-0.335435536250554,-0.9516295963099,-1.18651285723517,-0.164080683061709,0.138085927523209,-0.144860689433866,-0.0131912111298108,0.0504930217209335
55.515,-0.393446104195583,0.0128616349099116,0.882073363407819,0.0448696726168246,0.164762846905976,-0.150043241969256,-0.973396319289941,-0.00816816050706438,-0.142283990098314,0.0243877512254039,0.132221803069115,0.120920040069205,-0.884393194414417,-0.417759899372857,-0.00120957291190687,0.222515592645356,-0.361947463210539,-0.889848269181519,-1.13598814204516,-0.156943160328772,0.130263918392492,-0.0520106683610898,-0.102068858274358,0.120038941066848
55.52,-0.385769142987439,0.0214705649990765,0.873980837500145,0.0462179233536163,0.158481403672681,-0.172846566963215,-0.965182001427709,0.0216003910229602,-0.142667530315141,0.0384257360090288,0.13504910716446,0.135549065900058,-0.867412926243463,-0.426098502546257,0.0117114391541381,0.267051010516825,-0.385706156492233,-0.812722293043687,-1.10027027203791,-0.15247587126484,0.124324912874482,0.0135952389714068,-0.146519654738488,0.150729651401067
55.525,-0.389014174345427,0.014679148480838,0.871974329308566,0.0480592116447725,0.143543716161652,-0.199785735648175,-0.949968286761271,0.0387724174236772,-0.172127629020026,0.0710042100273333,0.13644105461916,0.147914599880857,-0.870597669154919,-0.441635570041347,0.0305175689836313,0.301497924802121,-0.376024007862122,-0.714282274505737,-1.0647926503102,-0.138967484096781,0.130830374211176,0.0440668645341885,-0.125774665570511,0.149289927145779
55.53,-0.396782830346741,-0.00293460526867191,0.866316574089596,0.0464486480002732,0.143988058092679,-0.218009129312713,-0.937726181690088,0.0497403759389677,-0.201185554171636,0.115618465024349,0.125593443707909,0.148313833553015,-0.884318132191581,-0.462068618102609,0.0442755572866341,0.338568698981262,-0.338851665880968,-0.574471637978959,-1.02999811812945,-0.127777510178658,0.14293016572451,0.0427876453706003,-0.0392854140360265,0.0954849281707985
55.535,-0.396816906132575,-0.00387600680909606,0.85725391713071,0.0554937069787464,0.1429237027473,-0.233023034550138,-0.924879450481274,0.0476057538853955,-0.20768967358012,0.146430797486806,0.119154730383841,0.132964016675926,-0.89155651730315,-0.48089950786086,0.0564014721639337,0.364463944350282,-0.295388992908179,-0.399613920563762,-0.997111432807998,-0.125291320903036,0.142002832533005,0.0159063287788267,0.0297670409661254,0.0114831880867411
55.54,-0.401170073368226,-0.00771905240053921,0.863889281987205,0.0545751786064066,0.125440473738749,-0.244303035225025,-0.909782565656221,0.0325667180058728,-0.189429761933475,0.137547251083993,0.114403919615475,0.120261365530085,-0.879903728286149,-0.491941522510842,0.0542291153221924,0.344095756603986,-0.251504823502637,-0.148113653334044,-0.971927126441036,-0.123610547105342,0.146148675568209,0.00921726354252718,0.0500858024581141,-0.0618395525643842
55.545,-0.409205922255503,-0.0288051651211346,0.870155601790567,0.0346845696976572,0.1093682761287,-0.251779726587109,-0.909617062176589,-0.00178235205368955,-0.192843564839503,0.0946580073770701,0.098256558689243,0.124876573427138,-0.854682039752048,-0.487526587882089,0.0436121853499606,0.284431925002454,-0.219455676386586,0.0814556675813501,-0.943205915324599,-0.121574044026122,0.150208232457185,0.0313577614473142,0.0541902545564554,-0.100467103737142
55.55,-0.399650883492019,-0.018989487508922,0.854522705885581,0.0363800942723336,0.0890267548674119,-0.237967357527985,-0.908310436288813,-0.0161275053177161,-0.189205937916672,0.0538210178638774,0.0919813456201587,0.126294844627184,-0.811069741217603,-0.456025402556454,0.0298303763233702,0.192419086522295,-0.203185132583242,0.23084286916747,-0.910785272992855,-0.116530547749776,0.147686156316655,0.0803927924591526,0.0573860549294387,-0.112467640895675
55.555,-0.399192587738099,0.00531570321157869,0.874447762999704,0.0306140576136147,0.0666398714503257,-0.234975441752213,-0.927638574181009,-0.0142451555724798,-0.182842769175442,0.0175497703715345,0.0859775097521624,0.108434267964835,-0.779763036094046,-0.42255069540076,0.0221422361820056,0.127220226437256,-0.190966391584452,0.279651606462662,-0.876514173213909,-0.106525372959193,0.147955007255565,0.121272533121635,0.0556473385558167,-0.113830104470253
55.56,-0.392401620872788,-0.0173369877830669,0.878412787710842,-0.00777975212019198,0.0363431572659085,-0.240865989394036,-0.93237918846385,-0.0178817960247807,-0.190203251415284,-0.0163286146446185,0.0679805302495537,0.10685055271102,-0.747336775917771,-0.379945543548009,0.0174938805218885,0.0589849855393334,-0.168260290038306,0.232710495487871,-0.861505118230661,-0.0897495497602636,0.142960688138002,0.150838445784325,0.0491692780760037,-0.116293352236072
55.565,-0.404083341903327,-0.0375693754827302,0.863542545901373,-0.0468628586310408,0.0288481334143357,-0.223701927264847,-0.927136140942125,-0.0443434507179492,-0.200105602825299,-0.0286895929869473,0.0576905023489555,0.104607024195266,-0.743405863078561,-0.361753235555111,0.00478006739921632,0.0202112226804228,-0.122595878329507,0.0861010865193419,-0.839323526277218,-0.0820188016984992,0.130683959206839,0.172250914263047,0.0416305704723597,-0.117822808653254
55.57,-0.402390086063694,-0.0412737450851101,0.864169229176442,-0.0439655490266163,0.012537525950408,-0.206304109705613,-0.92677457928563,-0.0507654012030704,-0.200068657797275,-0.0365132578168156,0.0525192758516052,0.0943091283776153,-0.749246852840053,-0.365925191130475,-0.00385239833591464,-0.00320213119410193,-0.078652912400441,-0.0396011182487093,-0.82857892162721,-0.0791369090030627,0.127726523472519,0.190132382860346,0.0395444177345797,-0.125869323160431
55.575,-0.398234010701958,-0.0378839846388934,0.868186831181084,-0.0406515262497863,-0.00249806634573571,-0.187949366229347,-0.921071188753084,-0.0525032958348879,-0.201198269678316,-0.0420522601593507,0.0503682643175125,0.0839668721102242,-0.766067301330972,-0.39496493965209,-0.0233026181225297,-0.0176095807749439,-0.0278604463486767,-0.162506353214365,-0.819635385320294,-0.0751759970051445,0.121558538480996,0.202005715054321,0.0499976224442138,-0.141960543024638
55.58,-0.393159681253039,-0.0474537571255236,0.87046866604684,-0.0558856721281986,-0.0200558002352695,-0.173256744487218,-0.918430727382959,-0.0485430751993214,-0.199451337898514,-0.0348589139169249,0.0402756774498938,0.0707116524047183,-0.789667464233379,-0.43379805136561,-0.0450099730007008,-0.0237425674800865,0.0323924466170376,-0.246027190374029,-0.811654495049667,-0.0730630451310546,0.116071061436243,0.204594020393671,0.0773610613077771,-0.16095851103694
55.585,-0.384531566735537,-0.0599815421365454,0.870512176874159,-0.0658663686829849,-0.0372578555891267,-0.160585146086047,-0.917260447839518,-0.0622839409656857,-0.200600518107706,-0.0241406836252089,0.0287076997928347,0.0640779257138906,-0.810531582170582,-0.461479083621115,-0.0659538403971796,-0.0198637464563511,0.0828115374562872,-0.264821341050919,-0.811898163322475,-0.0741284771012302,0.112363287046857,0.205390420958025,0.108226710290512,-0.175893853164143
55.59,-0.390088742005059,-0.0689245223034755,0.853546864226358,-0.0475146302709119,-0.0373711470259827,-0.124378796614696,-0.916616325007735,-0.0740791284875593,-0.197532936540137,-0.0224281305276662,0.0213158050593687,0.0582215614718817,-0.82320685686332,-0.464953617796453,-0.0744905571802622,-0.0116374854032958,0.121585068345394,-0.239412538737903,-0.8163132034775,-0.0805305049453359,0.107764192876149,0.206751315260631,0.151671169810287,-0.193145897720608
55.595,-0.392983558250702,-0.0471494745433322,0.861639412740566,-0.0311249069203638,-0.0586464597495017,-0.0928265438534477,-0.913245271469663,-0.0739969062905528,-0.194870307148961,-0.0166476699851021,0.0262455509157649,0.039790243810868,-0.839035003748266,-0.457584683481013,-0.0771910700814192,0.0434773123883686,0.160710039094358,-0.173698216414596,-0.815312939043344,-0.0783994160285521,0.108264198781577,0.208671833472866,0.17979583737966,-0.193665683370747
55.6,-0.390881724235823,-0.0498307343901214,0.868341836115164,-0.0410674141941146,-0.0832519810376019,-0.0690687999345899,-0.923857576077631,-0.0665874992914345,-0.201384273019171,-0.00028836700516776,0.0178564663348062,0.0314011574219946,-0.849546738651324,-0.438237373533023,-0.0745141067547107,0.0833419092285849,0.191168953871155,-0.1243074297666,-0.81874251839356,-0.0713741189467971,0.110705592470507,0.195037428962414,0.198565124587529,-0.18251077566559
55.605,-0.39005744665138,-0.0429485505335626,0.868235088031859,-0.0335996391575156,-0.0960411480324343,-0.0552023935813624,-0.923315600642406,-0.0514699485130975,-0.187189529307237,0.0199725181552763,0.0118874058943655,0.0213564255921268,-0.852011265851033,-0.42177213448845,-0.0661453260440743,0.109579550901253,0.216213098744458,-0.0872689812560277,-0.826073152659927,-0.0685100753456729,0.115386147355964,0.181589459622558,0.21484874588786,-0.154901639278181
55.61,-0.387408158478142,-0.036512487914115,0.871363437171839,-0.03279583180889,-0.112952568683622,-0.0375371755587767,-0.93160140928916,-0.0417518349777197,-0.182392031915227,0.0318874652342427,0.0135692791599131,0.0238192605673983,-0.851809977446019,-0.416901040851436,-0.0578204042024917,0.116858935436609,0.230614031180308,-0.0755960591640876,-0.838019771857306,-0.0674967951086927,0.125012202772792,0.156193213612294,0.222934714940239,-0.117433664121309
55.615,-0.394101562564678,-0.03369499171136,0.868650552428703,-0.0348496923439409,-0.12628441065731,-0.032727125337421,-0.939230482761111,-0.0302309614374167,-0.182307690687191,0.0309783691260044,0.00952035596588082,0.0298926497818937,-0.857419768270114,-0.416023889219855,-0.0511207532705061,0.11176667636309,0.232881734891564,-0.0786160499801331,-0.8576862120319,-0.0725348760978353,0.129804479500229,0.121483402603163,0.217361881745997,-0.0628643439621041
55.62,-0.391544898239886,-0.0336623141551893,0.867044338020604,-0.0441680281719678,-0.123898091960021,-0.0204217121159204,-0.945254752097199,-0.0119845875348178,-0.18205606890035,0.028971226695571,0.00883065164089203,0.0289820354350282,-0.869500765640706,-0.414320771455719,-0.0401453322430485,0.0989895291471074,0.223191872595904,-0.0773671124846073,-0.878083266328044,-0.0757290358926802,0.131671136633318,0.092203339247107,0.192077369015251,0.00382207460937477
55.625,-0.389599970074628,-0.0259237648123997,0.875540359522413,-0.0375171339585219,-0.133018873037979,-0.0185975372448065,-0.94815856218338,-0.00262065573868105,-0.177184602073349,0.0135401101519077,0.0109995090139856,0.0284838154911995,-0.885302582872137,-0.411329692458395,-0.0314331133555833,0.106917188054649,0.209842746468811,-0.0636982007017483,-0.89893507962826,-0.0653249879059511,0.132292001898801,0.07578071306186,0.16833141334343,0.0592272773855495
55.63,-0.391935348810036,-0.0338510928623207,0.880401702424308,-0.0343071645698284,-0.14639837567038,-0.0196869375082377,-0.957579510169332,0.00810641334382584,-0.170257380363105,-0.0182456561526258,0.0123870574116885,0.0320619601981816,-0.894831920229282,-0.407725295554721,-0.0258352084711214,0.0981413940377927,0.185318222369391,-0.0352253646965359,-0.921196168973324,-0.0684681366284153,0.138466626112271,0.0571067929718454,0.14650695951639,0.121152490578768
55.635,-0.395754033968919,-0.0328353215957968,0.872358231021109,-0.0368772753446001,-0.151984143602331,-0.013595816779266,-0.955861947195853,0.000137982174004116,-0.172854033402593,-0.0506693760073135,0.00657378182839405,0.0253969378086384,-0.902055765286883,-0.404864773761748,-0.0210112692538054,0.0627894446179141,0.140134016582133,0.0145768129087919,-0.937980639590912,-0.0618222260901091,0.139263379195836,0.0488082647372678,0.140201935707638,0.166211396165745
55.64,-0.397554107731335,-0.0375719548717293,0.87606237321991,-0.0385934899233196,-0.160283593727078,-0.014390130212509,-0.953679287810203,-0.00547293874860151,-0.17207629313778,-0.0687734617154015,0.00789938204834991,0.0144643273408188,-0.906091646506982,-0.392453873374264,-0.0142332017030468,0.030989612156541,0.0957637895941904,0.0636383638039327,-0.96110158962119,-0.0619181058268196,0.140326191676059,0.0217528589756164,0.145854753558708,0.205667078126843
55.645,-0.393756499665342,-0.0322174139650545,0.870087581289344,-0.040765525987175,-0.173761750075848,-0.0146919019636489,-0.946255599709415,-0.0048275414607488,-0.165861602207036,-0.0881497336478423,0.00964446181729743,0.0121948824471476,-0.911096272162293,-0.367449930620833,-0.00497448893011698,2.26247066166647e-05,0.0408940098965385,0.108598933175045,-0.979619290325511,-0.0625234234238955,0.143219175129323,0.00527007675323719,0.153674902309417,0.233967685592934
55.65,-0.379750759010115,-0.0122313967736877,0.869607130106834,-0.0367156118089444,-0.18522411439564,-0.00771011598408222,-0.946274566737444,-0.00149596792964333,-0.148262872653295,-0.101670441210856,0.00842527909505231,0.0091010828519796,-0.913079839324337,-0.343039262099977,-0.00162999205158245,-0.010631947048604,0.0023748889267035,0.125329802285332,-0.999448127515095,-0.0666311135653771,0.140345402286991,-0.0116443761113162,0.1711073278257,0.247106526955808
55.655,-0.368515212136813,0.00717728578595063,0.882350330804364,-0.0368102891272836,-0.19501080336413,-0.0105915828565477,-0.952976607181574,0.0104699187451524,-0.138433213992913,-0.106885984539986,0.00516556948423386,0.00441472830366227,-0.906802477178533,-0.317383481334588,0.00568849468742668,-0.0120446570217609,-0.0476762732195424,0.111859228443673,-1.01878475016806,-0.0709484150191474,0.136492319167567,-0.0277799558597077,0.198147297190629,0.260552201867105
55.66,-0.365312077737709,0.00287986177163546,0.887095270914032,-0.055626350912521,-0.196711825599854,-0.016624991099657,-0.962819924148107,0.0163156765660329,-0.140884334553382,-0.109891487219815,0.0029114424743622,0.00583373490677376,-0.900913210189891,-0.307124022715137,0.013878371927725,0.0068723355876084,-0.0899470261883459,0.0528073809341188,-1.03423853758687,-0.076530068055611,0.130170592682145,-0.0310180383148808,0.220150681531915,0.26035756840004
55.665,-0.37829728720163,-0.0262417926747069,0.879565298196839,-0.0758870546593819,-0.194236541516799,-0.0228237925280594,-0.971101732126144,0.00563868749745382,-0.164838164584553,-0.118733197912789,-0.00446560686787707,0.00970370797605295,-0.901124336072204,-0.31314188478356,0.0253854666388889,0.0209410954266787,-0.125231160680626,-0.0512263255244719,-1.04223802892071,-0.0822575705683834,0.13406885573581,-0.0362744368843735,0.250120427765422,0.253984148526817
55.67,-0.384777339725082,-0.0446330863530996,0.882905839260765,-0.0703623094522642,-0.18592263020746,-0.0204492602141556,-0.972973225219491,-0.00328324204043044,-0.178496685196483,-0.120768843794629,-0.00516333014411106,0.00567888996959447,-0.919224851736442,-0.340242262440236,0.0297791571167228,0.0421437129124338,-0.145167898026798,-0.20183363736164,-1.0454614621778,-0.0897073356025545,0.131502570872313,-0.0363448616011679,0.286372882414108,0.242842675097168
55.675,-0.380902898370034,-0.0477372788147258,0.886123785472811,-0.0634973092629885,-0.176679684611129,-0.00840966587302039,-0.976954692041166,-0.0181668744968755,-0.180378425436964,-0.127654790878296,0.00477092704040966,-0.00931318062715632,-0.941663478936428,-0.361401439933302,0.029325149789287,0.0661431416264259,-0.153234867877282,-0.325414525308325,-1.05900339031924,-0.0992031827735362,0.136285933205436,-0.033297341495578,0.303752169779156,0.229128825329263
55.68,-0.376426796343973,-0.0559225938876162,0.884648199129769,-0.0582460622956904,-0.168308951068515,0.00530470906399394,-0.995077291066362,-0.0296108971611341,-0.178637023631621,-0.122174213778642,0.00462894652498352,-0.0177008492005397,-0.957007807418568,-0.387976996284917,0.0288422523407979,0.105079705759068,-0.162287982792133,-0.423400125787102,-1.05572360683829,-0.106300539923708,0.138892032230621,-0.0339360357810516,0.321778184109508,0.212289594713538
55.685,-0.389133813009542,-0.059162115320713,0.889275453201389,-0.0435270104902783,-0.156978666724808,0.0162183928481176,-1.00362899341274,-0.0340351553942491,-0.16058963481623,-0.115979652398457,0.00611635506469499,-0.023236321965411,-0.960125864415034,-0.419494499038246,0.0276037432541116,0.131482874098442,-0.169423097854897,-0.473659539028795,-1.057558538942,-0.108804889163176,0.141058997174223,-0.0310413137458997,0.330493365095357,0.194062027830191
55.69,-0.394559285276334,-0.0509337073132052,0.887434354812774,-0.0286317854484879,-0.137392077178828,0.0269920083293026,-1.00542186855716,-0.0249747813922814,-0.144865205601626,-0.149105446737044,0.0155248300808689,-0.0266388626414688,-0.949260140604324,-0.440214948777903,0.025385442599409,0.170831136907365,-0.173056907125572,-0.486383793038238,-1.06054956995712,-0.118077312561568,0.138354116632202,-0.0278067830950022,0.348621266728762,0.17076258186357
55.695,-0.398386776578207,-0.0388808294437379,0.888590237447703,-0.0199119905793751,-0.117539000178151,0.0334662871542343,-0.997915774068873,-0.019221253826937,-0.162515148481884,-0.18425048289276,0.027558194930869,-0.0317813404753979,-0.924609833987085,-0.447510953062541,0.0232667384325974,0.228412319238129,-0.169466227293015,-0.459539495503494,-1.06472565477032,-0.124035853718325,0.14235368463038,-0.028437716357356,0.35538309666082,0.14867352372451
55.7,-0.392365146219235,-0.0315462964916065,0.886114611939402,-0.0291591382966398,-0.109832816270549,0.0357711959389982,-0.983780766780881,-0.00470621234939245,-0.170072050691382,-0.192058587427543,0.0395406914064544,-0.0486452846314647,-0.9019238098665,-0.444819750262486,0.0216978378922539,0.291511413875996,-0.163519227263443,-0.407356248190191,-1.07150194926775,-0.132384436052366,0.13875463016474,-0.0290040374747839,0.365805007139076,0.124204807590947
55.705,-0.390791307112506,-0.0231622640919266,0.885784049739902,-0.0366545021533966,-0.100045184452078,0.0279823238437529,-0.969771810740022,0.0101014016295265,-0.159058335519277,-0.185913757735012,0.0513428353332907,-0.0671534345329286,-0.893197810671552,-0.432342836684793,0.0223250102681625,0.354944652833141,-0.145979346367441,-0.35313197706899,-1.07873891986519,-0.134202062634871,0.138056002055924,-0.022164087717741,0.372474911168562,0.102400922638374
55.71,-0.391798629592392,-0.0225758834909084,0.882020044222077,-0.0436519581307977,-0.095338718390742,0.0256100989169909,-0.955878513550659,0.0211486899297243,-0.149897425913103,-0.175747827404181,0.0613635182380676,-0.0702151933451162,-0.899361657755408,-0.4135653835427,0.0193378970844666,0.432427875457743,-0.112731208168981,-0.277727417347322,-1.07307061337873,-0.129902121594604,0.132226017543163,-0.0105975603525175,0.366964101626451,0.0815706848107482
55.715,-0.378152332335912,-0.0233471145033112,0.878767366138975,-0.0424689393796254,-0.0963429171075093,0.016293902966378,-0.956895114687382,0.023597222936031,-0.1448098524503,-0.163088722857569,0.0666471347452867,-0.0631504687210025,-0.906517523144243,-0.400035983187502,0.0175929294259403,0.47182524794204,-0.0907703467514931,-0.226090981613722,-1.07281276698216,-0.139028878725807,0.134193027114222,-0.000259750169135548,0.36470259392722,0.0745750411499305
55.72,-0.379653584122264,-0.0254025600987167,0.881019482186592,-0.0515110263691616,-0.0747594238708466,0.0220373235980634,-0.959424398342442,0.0190001152085773,-0.142833283999712,-0.154686226785882,0.0814586506469003,-0.0579196571951174,-0.926565495454671,-0.393513165540387,0.0164842575692935,0.503211587736776,-0.0698168358761468,-0.171851254284155,-1.06075465534144,-0.132245880546442,0.133694749108213,0.0162215581316729,0.343669387148142,0.0657432087415853
55.725,-0.379860665586456,-0.0219227779131268,0.888068030657809,-0.0445815181945419,-0.0685121029364019,0.0077802043501338,-0.966507301593956,0.0114183553762827,-0.14000417510458,-0.140916051763594,0.0947326344670208,-0.0645566537864438,-0.952430368473349,-0.387151821899642,0.0193240157852169,0.50428106875126,-0.0602608341384844,-0.129566073091038,-1.05181772594116,-0.130185749954995,0.137175778851105,0.0410242364483811,0.322555100582687,0.0568609154457773
55.73,-0.377932193960217,-0.0248810586745454,0.886290763067558,-0.0638875230972099,-0.0458880773244851,0.0143113878609775,-0.973552979326657,0.00848513402892575,-0.132682123943103,-0.12947853277304,0.119285342719939,-0.0761134961646596,-0.977894010674634,-0.380969681463098,0.0253600192348328,0.498623639345169,-0.0594109659144333,-0.0869362574579094,-1.04698048314039,-0.13121532723862,0.143423837693911,0.0600047666976772,0.298732885268296,0.0547637343406677
55.735,-0.378543668615672,-0.0224963153949701,0.885119406059331,-0.0532783657260341,-0.0527686897669558,0.00036188359355896,-0.988879851027194,0.0199874393856558,-0.124310856365893,-0.0988348350591491,0.136127178676649,-0.0867560241559631,-1.00457113612337,-0.363857408105739,0.0358265621436178,0.487333672090321,-0.0576126931166976,-0.0224693293823389,-1.03147831563413,-0.131437230045746,0.145755320719234,0.0748853571205408,0.27579418638511,0.0518279927977349
55.74,-0.380079034304703,-0.0210060816611212,0.888424160353605,-0.0428775826839087,-0.0347038478095477,-0.00787423084113742,-0.996393793900991,0.0230207307829338,-0.1044285479936,-0.0733842586194818,0.166423910995276,-0.0882748940568027,-1.0197604095354,-0.349596066185502,0.0433131000042038,0.447810906071598,-0.0619571059942245,0.0307301151097515,-1.02050188418218,-0.132874981241488,0.153299531184393,0.100571503249768,0.260526798226744,0.0584431561258546
55.745,-0.382796028424153,-0.0261143096607569,0.888552267079556,-0.0429943319259375,-0.282585010474255,-0.0185405903239682,-1.00533139348737,0.0186939545600477,-0.0806318849431431,-0.066904020280388,0.178758236121132,-0.0867993325140342,-1.03218475835819,-0.326341704292411,0.0500258566686569,0.412290779539014,-0.0658414396779096,0.0833797113024235,-1.00680923622085,-0.134091165165787,0.161739920580409,0.113627780259849,0.239816458380302,0.0651762544103889
55.75,-0.372231311111908,-0.0177075054966472,0.885594734944669,-0.049772076084136,-0.00299782940500428,-0.0283888593815297,-1.01325786515181,0.00675203090476154,-0.0929091234790966,-0.100523468935183,0.199018934456623,-0.072012681797416,-1.04078700103659,-0.309334866814805,0.0533842161698299,0.39454771077416,-0.0668052375330988,0.112876515594864,-1.00089134207112,-0.131078029915577,0.174928827241525,0.107926828582722,0.236207604408264,0.0693822286461335
55.755,-0.362733390239971,-0.0154080195085871,0.888104836405469,-0.0653410392940331,0.00209812537201462,-0.0306593470570323,-1.01122855465438,0.00812251493452817,-0.111824503369142,-0.0914718812903755,0.221306172167055,-0.0806156052239402,-1.05122628944241,-0.278800039522869,0.0516540287944964,0.383828290480432,-0.065260073306572,0.154667790690919,-0.990280294332487,-0.132868578279472,0.181733518267017,0.0955430022726131,0.245649899686761,0.05319008529655
55.76,-0.351355704764594,-0.0238779893610759,0.892082025378094,-0.0790520377447701,0.0124672216835167,-0.0449324975708557,-1.0082384172862,0.00632380726482143,-0.104908299949623,-0.0775906051142188,0.245094308921568,-0.0898279552957515,-1.05775856511394,-0.255917923865554,0.0484434539725767,0.372599073875917,-0.0611087265473765,0.202272721356315,-0.984437578755203,-0.139280165740704,0.184421375819,0.0840060889199071,0.23381191351255,0.0462039245655792
55.765,-0.347054059350038,-0.0311867360105788,0.888454400989999,-0.0851461211081412,0.0143999510357285,-0.0484021970845796,-0.99972613953455,-0.00716837151687716,-0.0939836362724549,-0.0678432310592591,0.261033361213359,-0.0954924423980273,-1.05675142219907,-0.239292504839002,0.0420651540827413,0.362653084092047,-0.0525225531255501,0.230216577007693,-0.984007658731122,-0.143486777143042,0.176221691891875,0.0860900701565092,0.210920994186546,0.0547338351422247
55.77,-0.34670955574251,-0.0354499349908413,0.882733011551966,-0.0812658837981296,0.027865659317897,-0.053641748866034,-0.989459734355648,-0.0189250457286267,-0.0945359713013282,-0.0621284783775235,0.284345221612113,-0.0921671406350499,-1.05144862145535,-0.230026108090407,0.0318394206991858,0.354722664167083,-0.0543679736426595,0.251739980306005,-0.972789746548802,-0.144767311727616,0.179007043403979,0.0966698288969981,0.198451842063615,0.0644205336029497
55.775,-0.356608207962375,-0.0265465424358725,0.880999215991814,-0.0728669532758479,0.0379246734811036,-0.0442908541014383,-0.985115650607775,-0.0273170233715005,-0.0963955179473777,-0.0654884278401396,0.317732600435527,-0.0871854955581268,-1.0370232921292,-0.216745643800675,0.0185257384792783,0.371000812007409,-0.0418998539919601,0.274598019085332,-0.955055717883166,-0.144867566701489,0.185654552133848,0.124179203691891,0.201600925775298,0.0796934985895023
55.78,-0.346317971346917,-0.0369415720537899,0.882111907402013,-0.0782020208106764,0.054366801445159,-0.0405981880867783,-0.979815894060503,-0.0302307327923662,-0.104511950098955,-0.0525006821058304,0.334589805095594,-0.0856657813631274,-1.02388355965237,-0.212832753423087,0.0066995171372038,0.394640147494427,-0.0349541312484645,0.285164319386107,-0.947875320141064,-0.141508370454694,0.182874171455542,0.13588712728589,0.218464543874852,0.0889667980093732
55.785,-0.329204379846096,-0.0560293986615663,0.898819098002063,-0.0894670873936442,0.0542486955021586,-0.0762048435459271,-0.970837287612648,-0.0260183932942931,-0.109983505069471,-0.0290684458559637,0.360095333534428,-0.0861430489368328,-1.00848463505015,-0.207544467389592,-0.00716582183974492,0.430253739183324,-0.0268673846129457,0.293460976492013,-0.944553773401693,-0.1380094299819,0.175930385502864,0.139565363526344,0.237648735226588,0.0901928767561913
55.79,-0.337147426543863,-0.0351769808608714,0.889572785996342,-0.0753273598394117,0.0461302760793149,-0.0703924526229925,-0.962114441166578,-0.0244766741607549,-0.111753856712228,0.00845007188636943,0.382429468275385,-0.0828540503384797,-0.997595764655202,-0.203253749147443,-0.0173966902272205,0.456376288960639,-0.0266644870575526,0.277621509089995,-0.935075017773864,-0.13854379757078,0.179213921267518,0.152847964850287,0.236264346449915,0.0901928767561913
55.795,-0.358503758480188,0.0148018803645099,0.88082329864537,-0.0379565569333613,0.0538405318396706,-0.0268534472100186,-0.960594718948586,-0.0178364928648602,-0.105615491108459,0.0444656618599857,0.396107822656631,-0.0847311608208887,-0.981757254471273,-0.20790462552036,-0.0161687984526768,0.475612678755444,-0.032837667692822,0.253880994373948,-0.937389209611277,-0.136806779327958,0.17177792187522,0.162791135276124,0.231921503400394,0.091107450131977
55.8,-0.367356435295415,-0.0262535300784828,0.898007345437996,-0.0520786287037098,0.057816706597805,-0.0159726797429821,-0.961901481427995,-0.0169341118052927,-0.102314086231888,0.0697408885635409,0.404542032157596,-0.0768835698126166,-0.968337390314613,-0.216460131473977,-0.0153886417042726,0.476457508656504,-0.0363015234470367,0.221502312954158,-0.933401239538742,-0.140893786870466,0.166158553600263,0.184665401673722,0.22764719872166,0.0895863070898203
55.805,-0.369347588697649,-0.0796745104476323,0.892021441569434,-0.0832647761231672,0.0443803190193566,-0.0499005549702952,-0.955100544138359,-0.0180963609284838,-0.138837006553427,0.0672325066840545,0.424895200292259,-0.0716951340436935,-0.956504124931183,-0.228259351236228,-0.0183226745851709,0.453053832755659,-0.0449480365785307,0.187326819406126,-0.931028872620826,-0.143186184848991,0.165841512851622,0.218577949071144,0.232524986034353,0.0889711827039719
55.81,-0.368320527556491,-0.0497885812036867,0.866402315541524,-0.0650225309254001,0.0578339146995783,-0.0576525496913905,-0.95415441251133,-0.00919759469787009,-0.166373343228096,0.0761133862539972,0.450838118053653,-0.0769335084380089,-0.945135083485662,-0.24358318204531,-0.0208286929139657,0.426507885296914,-0.0487699682434851,0.135125274115589,-0.93426681645696,-0.137199748692225,0.159232489265934,0.247197112748588,0.247226233734082,0.0840493657389421
55.815,-0.371965107841442,-0.00783540087158133,0.87419299609211,-0.0161083129361792,0.0683124217775399,-0.0330046264635059,-0.948728779674512,0.000642912646265127,-0.181791453672532,0.0983530468996807,0.482439012569071,-0.085131654041128,-0.935696600253713,-0.245523653835809,-0.0236432504093491,0.391808137750827,-0.054125456493413,0.106907403677123,-0.937607691888829,-0.134720257152017,0.160086231269138,0.279718963364226,0.251424037463379,0.0744246124453617
55.82,-0.382109526267396,-0.0164649946916338,0.890961359423043,-0.0272325022780157,0.0556919343616231,-0.0418604286057125,-0.953457960403429,0.0178735964510455,-0.164797558457184,0.137600839526306,0.49177017478071,-0.0938707318482363,-0.925102410778135,-0.265025208826867,-0.0257718311368324,0.336650794713307,-0.0597895566149739,0.0869632967265074,-0.937190818887314,-0.141031314956712,0.155449239209381,0.307522215334402,0.248428045635883,0.0645477498282389
55.825,-0.381333041471125,-0.0333853582313106,0.891398594076361,-0.0588716356089429,0.0451019558103346,-0.0592930223063405,-0.954906264224969,0.0156869887880359,-0.156496959609739,0.156180737073866,0.491809625116009,-0.0877892428239569,-0.91863550377111,-0.278520996626751,-0.0288933646361021,0.298383219845771,-0.0709349969163225,0.0811543278205098,-0.93879867092132,-0.145452492193963,0.153055502542348,0.328027001094019,0.249088846717684,0.0599292158323021
55.83,-0.365544476396086,-0.0218999294977684,0.883461830929517,-0.0589686807755122,0.0415979273016394,-0.0561288899670618,-0.950178185972977,0.00673935281961222,-0.176076200622207,0.124798217286553,0.502132606463573,-0.0697730047335868,-0.911954553034104,-0.293782511753051,-0.0235196125552107,0.279908801903658,-0.0865789781174337,0.0936549727907001,-0.945056744419385,-0.143137797539766,0.150299397792255,0.349762463714802,0.252095614753588,0.059656479625946
55.835,-0.354834037515392,-0.0203952012695462,0.882187343095174,-0.0509472584949348,0.0357072507109723,-0.0504099434276799,-0.958539256169189,-0.00904631122927171,-0.187860726598398,0.11066004604553,0.500746203282103,-0.0594902449798339,-0.898731354801059,-0.305930851361657,-0.0176891676294675,0.256728142499924,-0.0907677199657078,0.120749647952286,-0.942749208911542,-0.14796212427562,0.153686663930303,0.364079972617837,0.254255829497189,0.0615018703115143
55.84,-0.345357932660437,-0.0265027518895293,0.888838357445036,-0.0547244705545419,0.0338566802766431,-0.0480260327458382,-0.961125722676296,-0.0152574969205441,-0.190235083859935,0.075129288329647,0.501311178039601,-0.0535073686402472,-0.889098720701808,-0.311281929842308,-0.00674539169807835,0.258046326076971,-0.0938176638169951,0.136206154059907,-0.949035419212917,-0.148257869362883,0.15478947457359,0.366161079575712,0.258894842458374,0.0633156001567841
55.845,-0.359950460425711,-0.0406626355451186,0.876366391531688,-0.0763053120602974,0.0267795435039476,-0.0560675154722722,-0.960076243851915,-0.0216317429412049,-0.216206805784135,0.0430948352732723,0.497750525771082,-0.0509263277053833,-0.884054457596311,-0.315838775686217,0.00986635082514064,0.271541343798641,-0.100652003699147,0.140318016730236,-0.952526471334054,-0.151643446725611,0.157819117387699,0.365578860044479,0.259739368648665,0.0660219904604206
55.85,-0.356347598202264,-0.0436694541548323,0.871725480241834,-0.0844307126958154,0.0310044918389047,-0.0558621985216731,-0.950418232532924,-0.028393688491855,-0.22989738257665,0.0181283367115143,0.506246774266943,-0.0557385381338171,-0.879329054978603,-0.32288108586043,0.0282078557573616,0.275053560733795,-0.101066976087029,0.148490195300983,-0.961330597732247,-0.160175578970394,0.156566190211804,0.357501326692552,0.253650144235062,0.0727503439667249
55.855,-0.362845905905641,-0.0389849691916811,0.870461168132999,-0.0808805940408613,0.0288106169629333,-0.0418828170974364,-0.952898901999903,-0.0301709434091484,-0.23730217533458,0.00155499217876215,0.501894754571964,-0.0502084791230877,-0.865651840311144,-0.339273560673751,0.0457937050145273,0.288662795726905,-0.0947630990284536,0.130956699618387,-0.959513323189906,-0.157857683304858,0.161332604116649,0.351233194137027,0.241723735857824,0.0761372220380544
55.86,-0.37245670248465,-0.0509963764337122,0.887185620224066,-0.0689821819629791,0.0230456405464289,-0.038158025377298,-0.961918193447662,-0.0252694163383822,-0.207837660532429,0.058819665557781,0.455030007587322,-0.0416930563005824,-0.859319591021667,-0.359085648262937,0.0537805910994214,0.281303731829708,-0.0930571786199567,0.106265517266943,-0.967831183049399,-0.158160579789785,0.164676884410846,0.345669488010591,0.22498502911332,0.0779759287834167
55.865,-0.391101223897725,-0.0839782539776782,0.897529669348013,-0.0712992478783685,0.0149672007708185,-0.0495137566289919,-0.959068080056261,-0.0157683190785276,-0.198831570326977,0.104683820204537,0.424996690196606,-0.0296535052696376,-0.858065320522605,-0.375997039258332,0.0581921429660945,0.268300119072028,-0.0887399731598212,0.0707991504215462,-0.9691415269835,-0.158404157096121,0.171081501445505,0.334765847971477,0.206706497875822,0.0712196418672295
55.87,-0.405503673418595,-0.0994969488456508,0.885777934161402,-0.0768903552264151,0.0112321847468967,-0.0629265654771992,-0.951843284007478,-0.0265142372870581,-0.284821044424633,0.13189578700652,0.430188670078729,-0.0100367845721863,-0.869955115758013,-0.388998204357267,0.0574385116335499,0.275053560733795,-0.0839216875717224,0.0288304392837192,-0.976819247932292,-0.156357248202013,0.177648374850948,0.327762993660797,0.182792990632599,0.0645939507795283
55.875,-0.415927211115537,-0.0775603445776771,0.861821536157484,-0.0697333645298417,0.0128159459252878,-0.0646327768153168,-0.934634114840713,-0.0617060623034397,-0.328338018604052,0.178147652849266,0.467723695601811,-0.00365904566526641,-0.87589007119813,-0.402729362620121,0.0539710516208097,0.276483059683414,-0.0660709029420069,0.000508624532718977,-0.981144584619981,-0.158682199841619,0.186339376907436,0.310243013914657,0.164227244916043,0.0599667702665464
55.88,-0.416551062856725,-0.0429021184453782,0.857494071238529,-0.044846864892206,0.0148606529597377,-0.0483927546571558,-0.921463923674984,-0.0679607077056761,-0.293748476161407,0.189103334775042,0.48963507936492,-0.0230313174879067,-0.876188407826541,-0.41929352065454,0.0487363154017332,0.285829966227868,-0.0543656016534874,-0.0116165079907371,-0.987458728259438,-0.155450716051342,0.204028281409153,0.303235393227303,0.140822818914246,0.0590118795061542
55.885,-0.403523008947763,-0.0278651796980893,0.867381051343865,-0.0282337266903119,0.00689289168287293,-0.0241761253532125,-0.908682374173408,-0.0605161494779836,-0.276802072454065,0.180726495867591,0.483957251283724,-0.0439018960565465,-0.871896714050399,-0.427298837542389,0.049310520153693,0.299185634926361,-0.0468368325577758,-0.00976064495942743,-0.994730218430361,-0.156469588018541,0.206044320887636,0.298480257273451,0.121497141077258,0.0556412618605015
55.89,-0.372593715168177,-0.0458821259549478,0.882536387215722,-0.0184435204547756,-0.0039935241607337,-0.00427390474426286,-0.919996213907694,-0.0482563008780534,-0.271799310168609,0.169849443771834,0.479878357474738,-0.0598356530397018,-0.863495896208493,-0.433306110547343,0.065395019853,0.345770103154162,-0.037276928527054,0.00264043104563255,-1.00436052805368,-0.155920624924846,0.211150025571609,0.294395716721753,0.102965190608097,0.0566092283197917
55.895,-0.347328169119494,-0.063423459699647,0.891502754295933,-0.00226174304952705,-0.0205570552458594,0.00981808409271886,-0.952571247841583,-0.0235820719640818,-0.256372856800682,0.15908216049827,0.458014361099396,-0.0752912807973655,-0.8520003527168,-0.431302018099547,0.0885891103371067,0.410822096964083,-0.0245411649699335,0.0172539748679716,-1.01203666095272,-0.151810575610473,0.220058103744033,0.298539026168429,0.093329665037914,0.0602312059280124
55.9,-0.351287294645156,-0.0572932888449206,0.89981309058174,0.021942352347962,-0.0169598920405467,0.0129320726662596,-0.96829646233649,-0.0105906104596857,-0.255597260429533,0.125302357332975,0.446889647416899,-0.0652304030925799,-0.84828635039003,-0.417147660532492,0.10848753088484,0.476012234241334,-0.0108477686604913,0.020192367670024,-1.02167732555608,-0.156495017526272,0.222150721743348,0.304966012107079,0.0866890026872484,0.0715895162343162
55.905,-0.355282625447745,-0.105734150193353,0.92845677713931,0.0241498987141304,-0.0791065218599791,-0.00804622594036518,-0.986223354743286,-0.000244954459110843,-0.273356282502636,0.0969496859090246,0.438618578075945,-0.0538668008751473,-0.855214722535598,-0.400444077391824,0.126229945373669,0.565281985188215,0.0213106838007887,-0.00413993584021168,-1.03225001108217,-0.158247768394119,0.220162331416959,0.317019203218998,0.0760423778382149,0.08586073456117
55.91,-0.336110396268543,-0.113998620907903,0.882360772136692,-0.0283683342673855,-0.0868129600405635,-0.0561081822395383,-0.97992396958012,0.00412530888432616,-0.25959287030354,0.0528014295219917,0.433483296165126,-0.0589099234676901,-0.871790355029168,-0.38682496356286,0.134960885792169,0.620013965473769,0.0680027655654098,-0.0533692828601802,-1.04554113851297,-0.154851086226202,0.220711710970336,0.324307798455167,0.0722340010820077,0.0990297898395718
55.915,-0.326574156956161,-0.0167526023376493,0.820154958175408,0.0191456330985658,-0.0131132016029791,-0.0504471642052509,-0.98442604303802,0.00342925963812067,-0.260723546480853,-0.00422674659877213,0.416990786868173,-0.056729201832066,-0.888583656451051,-0.384121331298203,0.134792164349453,0.658657990713313,0.109364482515392,-0.122263196952851,-1.05737324274844,-0.151678067231221,0.219263089250246,0.33400559050696,0.0625361977485637,0.116594873469225
55.92,-0.353809694174906,0.0686136806181602,0.880898083315314,0.0965018202410636,0.0342137245606078,0.0249983460810312,-0.980467208773562,0.004808382698149,-0.26098226387481,-0.0506468159547518,0.378688576630967,-0.0545502030482146,-0.903443177894564,-0.386271793058783,0.133582500196273,0.668171703829562,0.13637657576541,-0.17860943376542,-1.05881383618706,-0.149760521456318,0.214817013835136,0.343258401709023,0.0474714829691538,0.13562736844901
55.925,-0.383178629761152,0.0223699919256526,0.951278431936049,0.0599748275551172,-0.0208699176575266,0.0471618446068128,-0.974748844519703,0.00659767537693644,-0.246489955864048,-0.0550808894792105,0.345576767002399,-0.0597120611685326,-0.910961717530334,-0.396173380632973,0.127588844186219,0.66096443564183,0.160706691848265,-0.225344179315084,-1.05707419883325,-0.143353430119237,0.20899232172194,0.349337876600293,0.0311203753367995,0.151220917370576
55.93,-0.37455253822795,-0.0419271890423405,0.892656234509589,-0.058171535264823,-0.0502135963154468,0.0146988007444547,-0.967888286443916,-0.00474383757740972,-0.283995081640938,-0.0729441340704834,0.351553159961217,-0.0528836871955803,-0.912113101122398,-0.41024851861511,0.11218075297043,0.640553253962085,0.178967714950709,-0.249587510795003,-1.05665185570863,-0.132786230058082,0.199312954473808,0.359109185978333,0.0136868970126991,0.165903684898481
55.935,-0.364078295943344,-0.0492572628266994,0.853266884902457,-0.0531510637659665,-0.0222947048618394,0.0216437721609609,-0.962006180252609,-0.0183608093918047,-0.298845526067632,-0.0896704303195113,0.36158892269482,-0.0458399387752242,-0.90588824704751,-0.429141395084261,0.0874272643970477,0.611868581821443,0.199444060906734,-0.247457104275048,-1.04941191446693,-0.121869031310997,0.197045385260639,0.364902421767551,0.000344730676994997,0.177892500138974
55.94,-0.347131973939007,-0.0357158112129587,0.870122207205028,-0.00456741153018475,-0.019070753033433,0.0384235315973032,-0.955397832047075,-0.0308761019842011,-0.281810897325246,-0.135129025857641,0.351831698955739,-0.0380436337908068,-0.898493292614684,-0.43221305634076,0.0671445391497025,0.603817095676938,0.210936446555606,-0.236161388321738,-1.03547010029137,-0.11519302332376,0.194853037122602,0.37294960307971,-0.00307578010428521,0.180598273873329
55.945,-0.327901623823625,-0.02780098847103,0.86957032695439,-0.0183290839195251,-0.025377613778461,0.044941840048183,-0.952458279590055,-0.0306197146996295,-0.294307896773677,-0.188786353648478,0.335905209099045,-0.0168164606815436,-0.902412100501116,-0.42836447665655,0.0494123499610822,0.600388886183529,0.214301692784126,-0.204236251083916,-1.03253349595938,-0.107363407491347,0.19553612215683,0.380199497964913,0.000396755920768732,0.186667045977646
55.95,-0.33343058395888,-0.0109243167273208,0.866963106670799,-0.0197925651469548,-0.0232280321645226,0.0468574849199414,-0.951553391896378,-0.0296526144136855,-0.300236532039441,-0.203399851918221,0.316107649869647,-0.0193342091544506,-0.896394760653939,-0.416884151488634,0.0416994042598582,0.585427635422944,0.217184172692001,-0.200804933905602,-1.02564631300348,-0.0973202120829986,0.200958665587915,0.390079890552409,0.00482428332014984,0.18541790143768
55.955,-0.346134702294336,0.00718222546305941,0.86887261983235,-0.0271595463707754,-0.00231692127903841,0.0556706978529216,-0.963846877207904,-0.0181815066118343,-0.300280561215534,-0.201688117901141,0.297635727575643,-0.0291793877495494,-0.890631705321215,-0.41754409163055,0.031122889616601,0.561854407598572,0.22378276931645,-0.204060129410564,-1.02157924908119,-0.100907949605484,0.201209662697438,0.391717276403124,0.0188118162668254,0.182653942396688
55.96,-0.361057014343534,0.0177651430161627,0.887511268793734,-0.0190383886389036,-0.00634236163176532,0.0690597277470367,-0.979159661645199,-0.00687457311875785,-0.298535947886596,-0.190939935659441,0.266368644091243,-0.021851196550778,-0.877476911414238,-0.421501162297788,0.00557518693061876,0.549488142641959,0.229250630719786,-0.232908447954815,-1.02752569790802,-0.0881615775129864,0.207753201776944,0.397880766585899,0.0302790949624309,0.167787484213181
55.965,-0.368299713551571,-0.017363254106002,0.89445852679835,-0.0308168329749994,-0.0125699344444727,0.0685065821131117,-0.978080377993644,-0.0100083732472823,-0.317146326139851,-0.181903900758638,0.238230117437841,-0.00657318435014811,-0.869501125119172,-0.425039747562318,-0.0210811951708407,0.520625536847898,0.228304141785013,-0.263897845933193,-1.02754076795719,-0.0805356322877297,0.208361557369866,0.403992166226169,0.0417982161160882,0.157666374661074
55.97,-0.373718493125666,-0.0601757552441222,0.881873171141845,-0.0497175539870479,-0.0164931614115128,0.0578936785433674,-0.970857373746844,-0.0256234159720163,-0.336786377725926,-0.174741144724041,0.222025296552207,0.00986958584630197,-0.872183474674013,-0.418206634069509,-0.0471343417813978,0.453329416027202,0.22636279463768,-0.274251459618117,-1.0265684901219,-0.0703152676158596,0.202730402259086,0.406465944969258,0.0570573953443335,0.150759356115854
55.975,-0.365780652386168,-0.0740170602971397,0.86373108490602,-0.0290710997037724,-0.0159353655549703,0.0531494095416599,-0.963318057643856,-0.0488555102076891,-0.344288015722189,-0.181280318225682,0.204688043317619,0.0179385349652934,-0.877720172029523,-0.413557557761385,-0.0799266897131093,0.361934087767671,0.221793955964094,-0.277463755993045,-1.03012254610756,-0.0625017154096801,0.194962538361141,0.410988219582846,0.0740038991231812,0.142857419012785
55.98,-0.373962461188636,-0.0673529101571488,0.864700637816945,0.00143909611977663,-0.00815479643642902,0.0644703432687816,-0.950552367501224,-0.0720028129383433,-0.355238879218993,-0.203276646363146,0.188504448173871,0.0259942253153479,-0.880305552773225,-0.41719191728651,-0.112664051950197,0.292317141889099,0.225015496302055,-0.288484356920555,-1.02397780674944,-0.0566034867651775,0.177909625217226,0.414265563297678,0.0864365277493348,0.138110591546383
55.985,-0.382331184192097,-0.0587430483269556,0.882527300931137,0.0139556434060293,-0.0104915407559857,0.0707120093836281,-0.944079624016516,-0.0949626938288069,-0.344004767667263,-0.214528089435056,0.166917681584576,0.0360140675722177,-0.875470464439357,-0.430652816172691,-0.157245319322693,0.206184470156635,0.226210194642258,-0.308158745017875,-1.01826612462518,-0.0423628877930313,0.156065232472342,0.405334150965853,0.0978758147970294,0.138025837698549
55.99,-0.376882359984811,-0.0702729366109059,0.889792938286175,0.0122733456190916,-0.0199444867788804,0.0704182673600471,-0.946558615438918,-0.106290101028421,-0.327780615581226,-0.191245255846128,0.153410829821997,0.0488168103432816,-0.870525039175376,-0.441295886495317,-0.185009554045475,0.158388050378111,0.223987976221848,-0.336976042535811,-1.01177832844232,-0.0329266550199257,0.143856090563255,0.397072093756291,0.0932970358515854,0.140879353786
55.995,-0.364004016154486,-0.0892469488632683,0.891342190810426,0.0152014623175101,-0.0158812710630131,0.0669453522935342,-0.948159341835869,-0.123924870544008,-0.321354854192817,-0.163326541834198,0.147767533478498,0.0681910398674745,-0.86360375933083,-0.446704200269145,-0.212769108962324,0.118872212001565,0.216503023801726,-0.348175773698356,-1.00355888595648,-0.0248108486362933,0.13710400937568,0.382436333826655,0.0848121840869553,0.144468311139484
56,-0.370746781632584,-0.0885971972128184,0.880615337997558,0.0294325790686724,-0.0111421679855577,0.0676246873191189,-0.947545199523924,-0.135104524727405,-0.331932566650081,-0.144275166875747,0.143055928510635,0.0985165121463275,-0.854649507751883,-0.450978453074832,-0.235763684719935,0.0868296377878808,0.202463702240728,-0.351691111127214,-0.990509220161499,-0.0132153075826907,0.12312154728859,0.349451957699467,0.0675664672743785,0.149905628142622
56.005,-0.374966370522748,-0.075057071020036,0.873909104058244,0.0499031347242941,-0.000135404652877172,0.0710004371755948,-0.946758745435656,-0.137377545060766,-0.335800334523595,-0.121364096061133,0.137391708283299,0.122926571998974,-0.850733543445561,-0.449703627794722,-0.239703554745008,0.0706423701812355,0.181191236483219,-0.365298765071301,-0.978240513694677,0.00302942652352316,0.112312174055133,0.317310352380648,0.0479064126020626,0.155555855382368
56.01,-0.365829970444491,-0.0555629067662572,0.872784756262902,0.057841773085899,0.0020167084466118,0.0809045124522634,-0.944317472370559,-0.127343096931925,-0.326771398309093,-0.0782576595181925,0.12989380028036,0.132435300860515,-0.85550652518359,-0.432879260406971,-0.224996360326074,0.0567387627566125,0.15784137580033,-0.400997759400631,-0.962050894291673,0.0222561081123028,0.106539659730817,0.281669851853632,0.0410447567200113,0.158299500190135
56.015,-0.353631453695868,-0.0637943024518636,0.868698069166907,0.0620974591218095,0.0016187597066164,0.0884615962443519,-0.941939593879474,-0.115716363842282,-0.306574289712787,-0.0385925566225603,0.131946996043374,0.143720375195586,-0.861317193518014,-0.412889449598968,-0.20329253321164,0.0285260571652079,0.134286624953037,-0.431802334102108,-0.949746676442223,0.0389572694224835,0.0966706623430666,0.245343842459416,0.041789804925598,0.155447824672949
56.02,-0.346892993979474,-0.0567902631065747,0.872537427055267,0.0785474699497151,0.0102189799765821,0.101262484822148,-0.941959228306492,-0.107232031484507,-0.291399300102066,-0.00305529581935654,0.129779404160288,0.162862794419291,-0.862783550301641,-0.39818864272916,-0.169214397210554,-0.0178949230290575,0.114566863155526,-0.470781188273153,-0.93449865960015,0.0536423134404883,0.0866259336451951,0.179449243293804,0.0419581830501556,0.150299918300937
56.025,-0.341408453709825,-0.0409314741704051,0.866874924334372,0.09824211350023,0.0142376772628105,0.114644819559121,-0.944860294287873,-0.0922337927116006,-0.281659972379506,-0.00354748864308613,0.135718362118351,0.179679080145306,-0.856796298873359,-0.390866896772513,-0.133664346450876,-0.0923951223286911,0.0901061085363543,-0.509623221862509,-0.92571961259905,0.0690194652644703,0.0772986904779197,0.119946250979994,0.0530548994356738,0.146340092414898
