Header,foot_Accel_X,foot_Accel_Y,foot_Accel_Z,foot_Gyro_X,foot_Gyro_Y,foot_Gyro_Z,shank_Accel_X,shank_Accel_Y,shank_Accel_Z,shank_Gyro_X,shank_Gyro_Y,shank_Gyro_Z,thigh_Accel_X,thigh_Accel_Y,thigh_Accel_Z,thigh_Gyro_X,thigh_Gyro_Y,thigh_Gyro_Z,trunk_Accel_X,trunk_Accel_Y,trunk_Accel_Z,trunk_Gyro_X,trunk_Gyro_Y,trunk_Gyro_Z
91.055,-0.900323639371364,0.150082837387568,0.732105235007339,0.668456770568571,-2.53702525789735,-0.498772294815923,-1.28805978629065,-0.122361597570669,-0.381940821205064,0.558817543066852,-3.51142394008858,1.02686909164594,-0.845846742516433,0.0652703069678954,0.155347837925025,1.55465016898159,0.214422733850329,0.00841806576533884,-0.923200507001394,-0.201842517109656,0.164621240432941,0.399174372936804,0.0263209321738979,-0.0830429664610127
91.06,-1.01601413576498,0.332831405482438,0.880583013963504,0.202090564272322,-2.27177279693358,-0.541169215428579,-1.30668112082086,-0.127001368986413,-0.43722497526161,0.474481017759131,-3.48951837408313,1.0093445105926,-0.852344375318407,0.0779188540729527,0.178688899037804,1.53795762239775,0.228889598507397,0.0106437358153955,-0.919712385538622,-0.207058560145308,0.16920439969123,0.393375428410185,0.02861258799695,-0.0806582638080355
91.065,-0.93790238758024,0.110427835940095,0.828115867288716,0.785909491867064,-2.20590973797308,-0.293706041145859,-1.28651568266517,-0.149257550602007,-0.505306531695243,0.42523165967855,-3.49232702005229,1.00042252251724,-0.86998125073665,0.108379748858089,0.193531180369756,1.49212085843903,0.234932889087258,-0.00502940847089258,-0.902964708575573,-0.204577972289294,0.165959349215637,0.377741186936461,0.0334758481576745,-0.0710658389343353
91.07,-1.08925419985753,0.21760617839745,0.741948760573676,0.551096770158058,-2.11780744044741,-0.273509327833442,-1.27944126764934,-0.143357985663906,-0.491202142065506,0.37233746896223,-3.38602958159649,0.980842762789192,-0.889168002314813,0.125124616225846,0.21912366188054,1.44248005870998,0.206680078114385,-0.0117743153834885,-0.901656351849165,-0.209585327612114,0.16190119492931,0.36552229467547,0.049027160346041,-0.0699550243884876
91.075,-1.13749179111033,0.181922118221968,0.731130610338895,0.603020020360001,-2.02099839628937,-0.191790550040346,-1.2526126564137,-0.116633719676057,-0.507622475473802,0.408418788935843,-3.36565053995679,0.956046521263847,-0.91085167911088,0.137020664198854,0.23037176227674,1.37258886550461,0.174825372241172,-0.0125662591308355,-0.899318815788429,-0.215414378513037,0.154162325157747,0.359457414851304,0.0641304379855299,-0.0685625046992126
91.08,-1.11325334293727,0.180975868953035,0.693763945214052,0.585843620066183,-1.95334349352757,-0.132791075222139,-1.22745647879768,-0.11988527960876,-0.485528686762612,0.398723420293772,-3.25309475473881,0.941084267017246,-0.927182622075416,0.147376688678233,0.255247303595767,1.25045397687801,0.129440604179639,-0.0248001963525946,-0.893554591478602,-0.220418906695778,0.158714575124508,0.358322050808054,0.080025638453033,-0.0628856429381613
91.085,-1.13985088496748,0.166489444039726,0.671645421661064,0.627655103044625,-1.85242650064445,-0.0474934529290107,-1.19581675663243,-0.122714059450842,-0.488652695960357,0.463308409395863,-3.20909558991779,0.915771654854326,-0.930519814995751,0.160254543763212,0.281439211503109,1.12390917246043,0.149915187761433,-0.0604199487125463,-0.894440335188903,-0.218571019956635,0.152879934100478,0.358248710632324,0.0937539137548272,-0.0507944746975736
91.09,-1.17627258428263,0.154888308230274,0.678694459766592,0.612501825120314,-1.72954021188033,0.00433357232631807,-1.16771651579224,-0.107437257800268,-0.510605611194358,0.557170086197805,-3.09235164293419,0.909552429013137,-0.943445425279125,0.165039302558189,0.3047535172781,0.988926393889544,0.148576242103969,-0.0689549424219622,-0.898709865118082,-0.216991781293672,0.156630239870174,0.363523931288421,0.106429846514418,-0.0457485097535473
91.095,-1.22663185769186,0.125995418350288,0.702625040929443,0.64496296578741,-1.6478720647456,0.0686072521960521,-1.13551995117011,-0.0895850671404244,-0.534443070227038,0.687549004235186,-2.9332004303964,0.909782469272614,-0.946501417627684,0.156080814479824,0.317153363578986,0.854745490912673,0.082975434034407,-0.0576117540945069,-0.910101822103377,-0.208399865071706,0.158824004736081,0.374314535891381,0.122957639613212,-0.0328306512588281
91.1,-1.2548535085359,0.0625622913655987,0.672001154278373,0.596056684975865,-1.66311242212913,0.08524836869322,-1.10836514378965,-0.0585620583854616,-0.551921648409624,0.764600984925651,-2.86539733085144,0.88338578156959,-0.952830955753301,0.158023088297239,0.333611221047633,0.757776028263907,0.0220755455368787,-0.0530570012270704,-0.913685172329358,-0.210149058372067,0.160467302019372,0.378202242894921,0.130326616996639,-0.0248520244185301
91.105,-1.20439657962507,-0.0559451628381698,0.604573930436159,0.722733465809636,-1.64861538660113,0.129996870775438,-1.0807249748967,-0.0337045201251279,-0.517225479128371,0.812651621489682,-2.72958341187879,0.862295293108633,-0.950649431541666,0.155833013046718,0.35506498083616,0.644356176196241,-0.0376765157152872,-0.0506814594389405,-0.913388585774574,-0.2117670464613,0.159913164184284,0.384781254037024,0.131537752972821,-0.0185208845087315
91.11,-1.16576787167664,-0.174797793713055,0.488783533978045,0.879594801428349,-1.57507488217621,0.116937725355419,-1.07197293527904,-0.024690831516278,-0.473756471980879,0.856201330272006,-2.63376351399064,0.842896910328147,-0.941881915138615,0.153279705813954,0.390795786059392,0.555862640248399,-0.0853883484632726,-0.0414754504543673,-0.925693322708886,-0.212957732930927,0.163257806241362,0.401693838603616,0.129347616609583,-0.00922368533855524
91.115,-1.19082747294262,-0.24094976533966,0.440958636903663,1.00395910069537,-1.44493516605997,0.0583775365384929,-1.05995369169642,-0.0265917170066564,-0.470731999167673,0.91786250895789,-2.51249935660848,0.832815706729889,-0.936843733483892,0.144660467587205,0.434876167788582,0.448967365010015,-0.130913815035812,-0.0366374542649531,-0.935595153759466,-0.213833453184223,0.166363589086468,0.412258587288336,0.130175522970633,0.00742799537078126
91.12,-1.2553011256768,-0.248096140385039,0.453989720106742,1.14208552331657,-1.34375858979656,-0.0216912822054984,-1.02649240520368,-0.0437675640743608,-0.521320120586319,0.967387724317461,-2.3694712991316,0.836593777382421,-0.92758583683623,0.134096347462288,0.474445793547604,0.357301968396603,-0.170983917083984,-0.0312405801124324,-0.941444537659414,-0.213647634241698,0.168590841813177,0.418376309009922,0.131141871213913,0.0226702911026465
91.125,-1.33077105563428,-0.192038997115041,0.455224150693898,1.16311234006613,-1.30185961596022,-0.125763205065846,-0.978352988583757,-0.072579769048808,-0.592860308372426,0.963284545866344,-2.16384327548221,0.830324047677815,-0.926655296700728,0.129138324997545,0.527746055754168,0.221396698987361,-0.235598184732777,-0.0149392389019072,-0.952117222977242,-0.21235804262116,0.170525909982368,0.42658762571299,0.12812562799366,0.036718930931263
91.13,-1.36867826497776,-0.189823096504754,0.444897241655788,1.07626617822871,-1.32246509050373,-0.242665974681501,-0.916697241050897,-0.0904822493290973,-0.648961177664442,0.959026515483856,-1.95908685034225,0.784821186484552,-0.930304133288484,0.141303106788359,0.557554941235353,0.130916405384706,-0.284378350167488,-0.00789943179160241,-0.95807480692346,-0.222138015030026,0.176645621458974,0.433747841710215,0.120441730627501,0.0529518432725108
91.135,-1.36184401511935,-0.232841126568082,0.38767055698361,0.829883596281349,-1.31572665021666,-0.374081857754052,-0.940972905030289,-0.10113031332668,-0.661390589889877,0.921200693429382,-1.73837415500906,0.708056570338679,-0.946851638575665,0.173000617206903,0.624834119635431,0.0875678259680628,-0.321669803362296,0.00197819478954535,-0.961804410211163,-0.229842200707398,0.180844867733534,0.439828462426834,0.110373079776764,0.0734997916457656
91.14,-1.32254868644341,-0.300796692928235,0.273731504176207,0.695618169696698,-1.28764937764719,-0.466630393087872,-0.873256714365277,-0.107311594408267,-0.649076192018595,0.871283511216712,-1.60328506755932,0.617680920324705,-0.969898042650071,0.190679697957629,0.658418019688289,0.0564208963241346,-0.335939905799043,0.00168855944730494,-0.968645812731341,-0.223163822393672,0.182967213352248,0.436772099379053,0.106234931920487,0.0797100595039411
91.145,-1.28159172052671,-0.31177437859931,0.190490815210887,0.610490826984263,-1.21774076312756,-0.538724997379315,-0.857934532566894,-0.117873071451616,-0.630421630127517,0.786206297466591,-1.42579495454727,0.526767666132873,-1.00492958720502,0.207366882161787,0.684100151570271,0.0238851298880204,-0.368526034664398,0.00780242497431612,-0.972058214770055,-0.223947530654139,0.190906533575211,0.431545354872043,0.0913106242362144,0.093378314484036
91.15,-1.23661086691825,-0.28740427670496,0.10981642740876,0.530502885574,-1.11075159391008,-0.611415660361648,-0.845394846943466,-0.129167045815585,-0.614480834915956,0.689727792420011,-1.25503541570681,0.454903265903571,-1.03944786293659,0.207074043752745,0.696685981116805,-0.0424425667323315,-0.385072346057557,0.0220021583999319,-0.976323427747508,-0.225328411541284,0.201070259407404,0.424335511236691,0.0834128943069631,0.102096294135694
91.155,-1.19791710240842,-0.246388083580049,0.047354859447651,0.428866397246196,-0.968827354729656,-0.677523789964198,-0.839415846158726,-0.133515053704402,-0.599312833721187,0.606918342755991,-1.07615155841286,0.383317116221494,-1.06237470965645,0.183877655852518,0.698821637959751,-0.150823776915481,-0.379497090829098,0.034209648233759,-0.975394436314239,-0.228272504758495,0.212689339664808,0.410044007624617,0.079830713570118,0.100021419260693
91.16,-1.17742025638201,-0.205185742671995,0.0482064240311655,0.349302776547051,-0.808255037233955,-0.714649884591034,-0.832375023754501,-0.133313403168309,-0.598398964822506,0.527898249768744,-0.88595846876962,0.313416782829886,-1.07123425465645,0.143004705334778,0.682724633414774,-0.26794509929506,-0.350702835256453,0.0383287346753163,-0.979882424853128,-0.22581258529319,0.221576492483018,0.388169612341335,0.0704468017809375,0.0935314543270192
91.165,-1.18617971384437,-0.183041491218617,0.0209361398136693,0.211289653089811,-0.680219721677035,-0.75350403289979,-0.82959798114972,-0.129229056242852,-0.58355862248249,0.472061048082563,-0.684828018844898,0.229609239980045,-1.05629904184538,0.0811753781183582,0.645856275929967,-0.403238457076863,-0.325567533686553,0.0329434458192571,-0.992204080148437,-0.229270381759136,0.22707071892312,0.379209558485331,0.059369197871987,0.093819547582827
91.17,-1.14910837325246,-0.16139277789447,0.00709091415623063,0.101682306646981,-0.516691890755448,-0.780117051715468,-0.818191064263801,-0.123628916095491,-0.60732908779484,0.385937757301481,-0.535060939378317,0.179469030270429,-1.02876448973913,0.0355850422057979,0.627403250302508,-0.468446168426105,-0.313658716131804,0.0192064216467484,-1.00193639144957,-0.221689683050854,0.23071506882487,0.368921066286707,0.0331212283815363,0.0882177890607787
91.175,-1.13138456130193,-0.151455827283936,0.0118724562784096,0.0170205504778273,-0.324978190346492,-0.770466192500893,-0.814761667234636,-0.137262661773516,-0.579077633449864,0.271552106456137,-0.350901381777502,0.111659435549761,-0.994764875002285,-0.0250367242333748,0.590146015489624,-0.522122148839997,-0.296529558945391,-0.0196343640248655,-1.01055047481631,-0.223216207115088,0.235380720566969,0.36403628504034,0.0144391337659826,0.0814477023145072
91.18,-1.09918616943653,-0.0956346530272884,0.0337415980090373,-0.0313789207944167,-0.181534543156854,-0.751157804922643,-0.807465380613774,-0.136983048765322,-0.583223970893798,0.21163546543425,-0.190305393288059,0.064683830650462,-0.965338285808406,-0.0695187218845698,0.549421932337656,-0.506461562505544,-0.280954819901182,-0.0550901302234795,-1.02030364860272,-0.218345033364279,0.239738162428307,0.361356160491989,-0.0106016730221273,0.0873777298459537
91.185,-1.08290068902184,-0.0524032841063812,0.0558412559972345,-0.106630523878081,-0.0365353908213996,-0.720266622623167,-0.801494100758601,-0.138348200679107,-0.56514585925932,0.157276837657573,-0.063422167968691,0.0200369338736062,-0.936696103444169,-0.102571928105686,0.534291618239797,-0.454951904553613,-0.252356967840605,-0.100368744916773,-1.02091914516129,-0.220857331299986,0.238573659612508,0.373881481307212,-0.0535934313085054,0.0972737936878982
91.19,-1.06116620813403,-0.0164073807380667,0.0676348979542246,-0.185338759193192,0.10708562942256,-0.675147537511882,-0.785670278652565,-0.130810361582977,-0.546237029736766,0.10248998588355,0.0826329249615585,-0.0339009978387996,-0.920813973116569,-0.135766761190963,0.505676426140681,-0.384847630836718,-0.208804854216838,-0.148417324223585,-1.02928369895341,-0.221957611119013,0.237330796888254,0.382678086419716,-0.0801662140030739,0.113373534207638
91.195,-1.02174231892143,0.022544176086701,0.0797447414432182,-0.266902282008925,0.252600767613401,-0.617546730342218,-0.774332113596823,-0.11327716882729,-0.525061631345016,0.0635643921299964,0.239181842366991,-0.0810624485702469,-0.908244825006088,-0.170684032036124,0.462683622543974,-0.302311751222436,-0.15658783445387,-0.208620342254883,-1.03035357063976,-0.217461779411164,0.241529398355111,0.393010197100678,-0.103810618003704,0.133339332720138
91.2,-0.988377752542804,0.0540985479276082,0.0921068564270587,-0.324896280003204,0.392372868931453,-0.538506797884675,-0.775810885359,-0.0975832155675387,-0.502702118749571,0.0333502929272631,0.366404087061706,-0.115174859908301,-0.89893607986258,-0.204907910909742,0.422726256718364,-0.218620933640818,-0.120027078353745,-0.254674269740509,-1.02672267562732,-0.212590289817602,0.240034491395607,0.404264692723815,-0.122153775751016,0.150732489682973
91.205,-0.958739123727038,0.0838820041461184,0.125476717288097,-0.362609476272386,0.527611349457702,-0.444962166589734,-0.777619579575506,-0.0895230525199117,-0.483885500666983,0.011772188323974,0.501695855491904,-0.150368908799301,-0.887210929334272,-0.237584131808659,0.371853121555322,-0.0977173878354167,-0.084848339357258,-0.297244635616096,-1.01783821121384,-0.20907466527748,0.239511143121802,0.402278038331854,-0.141086518201183,0.177832607429945
91.21,-0.943606706918699,0.153187104702235,0.126759449044638,-0.379225858631201,0.630046246175563,-0.371913784124484,-0.779576499787004,-0.0882325784000028,-0.469561137403539,-0.00487680227541924,0.645037031800323,-0.183433586702477,-0.864511772757798,-0.255593759328598,0.333867939314989,0.0199129971201846,-0.0490972176038178,-0.328126909641418,-1.00553088224063,-0.207906917666894,0.242626226928923,0.396191032975135,-0.158025745098294,0.196011565275107
91.215,-0.957189684173363,0.229230772665817,0.0403281716994068,-0.446857269561132,0.745395873253085,-0.307649633116627,-0.788402393689475,-0.0816070151597582,-0.467601257462549,-0.0417863459507426,0.752474456704195,-0.222729530340675,-0.853750785387396,-0.272361115542571,0.293294605046918,0.167440080921344,0.00233777141039658,-0.354070869124604,-1.00101623039471,-0.196575838253425,0.244030642729721,0.387230388281191,-0.184162660308675,0.211506449025811
91.22,-0.950880768875769,0.140345924940108,-0.0448768872499803,-0.618297674924039,0.9343514322232,-0.169164558323735,-0.810787788360323,-0.072821287099956,-0.447760276183602,-0.0790937122928302,0.871757355537266,-0.282317414940715,-0.817924501070812,-0.272356937522387,0.271024570001922,0.264506214026576,0.0882806673660329,-0.372206711964967,-0.990505610426234,-0.194398978545061,0.242491535412668,0.373919362400376,-0.206992013697835,0.223587264373606
91.225,-0.747074999782935,0.0322787880880594,0.0570815821787979,-0.616200829038627,1.24806116412972,0.0313747163468286,-0.846597066085838,-0.0396637103681043,-0.365807790054122,-0.0775277720336569,0.961309543169524,-0.325708676528081,-0.794955204365093,-0.260184138853299,0.252613932160766,0.33276787129016,0.153087801963184,-0.375594202529239,-0.980548733749689,-0.192580545869808,0.242152804987703,0.356352074270451,-0.233227788528986,0.231636046823249
91.23,-0.448281855260066,0.0656858808450887,0.249086522891148,-0.445792616498962,1.58696960179144,0.217950190862894,-0.919021096123931,0.0343324526303837,-0.16516339728128,-0.0245108734598989,1.01397178606326,-0.343518116261955,-0.781275633745385,-0.224629242327573,0.246149802632199,0.364531068138096,0.22104546612291,-0.361952542024827,-0.975605836103629,-0.185422023542999,0.241144097985143,0.337272889800497,-0.271089043699879,0.240702440921049
91.235,0.0461037524754943,0.163243679344682,0.514264914276261,-0.079813787417282,1.95900687338869,0.322962803071107,-1.04453570181916,0.159486754684361,0.224487100242203,0.0492257119592331,0.992622007879901,-0.321342058004694,-0.779329202301113,-0.191857458440967,0.248953752823613,0.393127856470791,0.252488124745826,-0.340960787771154,-0.970762626843312,-0.180333675192778,0.244981269423718,0.319614844137147,-0.308843521810538,0.24880389562541
91.24,0.68342295209009,0.178278877716093,0.795997942015865,0.370834893033169,2.3915352266193,0.224393202620513,-1.29525531311314,0.429619376880215,1.06999891828065,0.193900768398786,0.766619332782732,-0.236062771961295,-0.824564269418557,-0.162933919609213,0.266508986356283,0.423314436202516,0.228587920087089,-0.3060051527365,-0.967005296519119,-0.171983079537376,0.243942369492192,0.307474790041074,-0.35671531026371,0.249296525604682
91.245,1.40525521486859,0.256122667230353,1.28651443758302,0.883402718987996,3.04859069826674,-0.0802684656722553,-1.50389748195459,0.603870329328727,1.82195543942029,0.4209558164933,0.397937505585474,-0.0723985015165208,-0.919835783391946,-0.15677610513088,0.303886260329826,0.432015343951368,0.135804950994045,-0.288881612386416,-0.973630482199216,-0.166852527181492,0.245329990925057,0.281125588226184,-0.403421906737922,0.243680558884381
91.25,1.3336694479519,0.413456730403044,1.61691636599502,1.13793663104974,3.49414257598799,-0.259006575312607,-1.68715964442175,0.458685988769216,2.00746924201217,0.188033443464936,0.147394167300775,0.204800615729993,-1.1449947829773,-0.17660467578846,0.404029415988357,0.44012980970187,-0.103389896454976,-0.305837369202738,-0.983468068687382,-0.154098815484856,0.250166480509866,0.259219584918878,-0.473788495240348,0.244118403842809
91.255,0.456162949479347,0.63576908400496,1.79118728746371,1.28376590024254,3.48667008624296,-0.13814545371958,-1.6266935881473,-0.180185789248314,1.26854369553127,-0.718987261521906,0.342920246518448,0.364551015504476,-1.49435523033544,-0.242776549569105,0.621999160840316,0.377276445412549,-0.565086057233649,-0.358879023496949,-1.01874953525912,-0.140248698156182,0.264653264449675,0.222456401684309,-0.564071746147785,0.249795299325039
91.26,-0.721411804406967,0.768765958443966,1.54539228213935,1.54067737806558,3.14482846328042,0.269849859812755,-1.44698579843492,-0.723489663965299,0.526605048718209,-0.907190368889008,0.685503124959292,0.306226946517555,-1.7094579774155,-0.286696355198865,0.798002229440068,0.242351709102966,-0.970927501525251,-0.389551298266423,-1.05144088845614,-0.134783524639492,0.272694182578274,0.180823297611863,-0.65240276026942,0.251577465397968
91.265,-1.16814794071298,0.678626855051539,1.14353084385622,1.06111269193912,2.97301892413186,0.626079226427439,-1.20550417337775,-0.815287773173903,0.0173417607629784,-0.151530286187243,1.04154783926563,0.0396901357406344,-1.69083871617961,-0.324334421031463,0.854372898312271,-0.136672655520874,-1.36217808560498,-0.292596272722672,-1.10776388615079,-0.137364186833453,0.259135993948863,0.164711126844142,-0.696986692058743,0.232493852309897
91.27,-1.25942786358215,0.497075701543013,0.795617685372399,0.645425016983896,2.83517186037497,0.880363796974969,-1.11322133862801,-0.657640819338327,-0.194143365161846,0.489297104345729,1.15923323387699,-0.381627184173198,-1.52319130676524,-0.333576352517079,0.735326578081868,-0.429924909229505,-1.14515384805421,-0.113510312260988,-1.15676672259631,-0.158189145996969,0.234186617763456,0.162261650108175,-0.660856533015558,0.224452685182512
91.275,-1.22786666841322,0.281806916596972,0.30834000236603,0.0899721871192917,2.95050095520248,1.21525779864627,-1.04992662769213,-0.307267063217784,-0.479063302184365,0.71899545191901,1.13591708528831,-0.642383338750222,-1.31404881358297,-0.350283709178656,0.663244756730221,-0.711561465618716,-0.718118467666419,0.0116854963414723,-1.20701669163674,-0.188601961022353,0.199745489955915,0.170306172567752,-0.551053518483685,0.215928178930257
91.28,-1.62569762317285,0.173248049348791,0.652679791183127,-0.881081305093851,3.13632018337332,1.10066467995109,-1.00590012695799,0.103206193437005,-0.745893556894996,0.629467050825437,1.10291382506863,-0.637401989065385,-1.12856760437052,-0.310721908956635,0.655509479152732,-0.839348047514699,-0.487832418646319,0.0716300535770533,-1.24635415685563,-0.217682621178698,0.161894139360491,0.181054093922783,-0.41140463005407,0.212910728702698
91.285,-2.31333595361472,-0.957939525650049,1.83578345523187,-2.68265321131412,2.6778332932727,0.251161935662142,-0.934221024061209,0.68473263927945,-0.803826388616916,0.480830429772993,1.17228733711276,-0.384171096841505,-0.948540112391177,-0.248030222391866,0.633950646639381,-0.803896049682181,-0.293148508908027,0.161914801966484,-1.26529970097442,-0.243392035307284,0.119702504549054,0.21375949983366,-0.22948468195122,0.201828979245874
91.29,-2.44967374457478,-1.50096890064835,2.50416616352155,-3.10068202671048,1.65142530415236,-0.724299847978573,-0.88713475539087,0.914400412538191,-0.736433296939618,0.328202376737744,1.32498020266926,-0.12705569735345,-0.84718153952713,-0.145450818627011,0.666695345600707,-0.649245729146962,-0.109947337374782,0.248334306776708,-1.24374361376584,-0.25586739184182,0.0849296861440465,0.250723525304257,-0.109171088639089,0.184814061740064
91.295,-1.72412435702566,-0.475816786408966,2.87476056240187,-1.78524051669971,-0.0186021185268154,-1.3929113351532,-0.983674310668471,0.942995030926058,-0.493310714650745,-0.352968953650628,1.55850519243986,-0.0360418678819067,-0.858954045172098,-0.0680402654540632,0.727698766290903,-0.493132944397929,-0.0218663926324461,0.297568677592513,-1.1813528957581,-0.255457354876962,0.0622991080992937,0.333071570982039,-0.0135958056159809,0.155923650818006
91.3,-1.10632296393929,0.0811188605324812,1.79901503512869,-0.64636772071003,-0.495956916931502,-1.32454946611424,-1.09035113631166,0.810353294676821,-0.159570191776892,-1.05894505987404,1.58138313086295,-0.0524127943936352,-0.922449741800582,0.0162126138575577,0.720338890536306,-0.378827039792548,0.0518180792925138,0.347107507225462,-1.11491096324082,-0.245013014279321,0.0461880875491346,0.403507965623754,0.0307101967380515,0.131196737890711
91.305,-0.338478978352216,0.784646040311636,0.532036259835407,-0.488471820910227,-0.56214802930909,-1.35739894447342,-1.29596341662256,0.482178228119577,0.125444654811393,-1.83165170072468,1.4579274811119,-0.0635896349376292,-0.979373438843134,0.0578510595865168,0.590467546534993,-0.303188706607778,0.16893231843491,0.394321365197834,-1.06689529042135,-0.22904258804873,0.0536934373772908,0.517979626851699,0.0276743740359914,0.0975905660385228
91.31,-0.501516059076867,1.51498668178009,0.464113094501694,-0.82939740851338,-0.00544702654272101,-0.972102934456074,-1.29675597478314,0.138368532823729,-0.00634344791010689,-2.10381086796789,1.30847726350615,-0.112273218192614,-1.08039177522276,0.0412274365551267,0.344108427622863,-0.22102666171979,0.396274217925362,0.388178650786243,-1.05199169934099,-0.216289069327859,0.0753044352393941,0.644822250138111,-0.0106678959297208,0.0789346455285201
91.315,-1.14384610488187,1.51593216990836,0.699160328604667,-1.31915030292674,0.200346266016109,-0.23422403169758,-1.20085857775696,-0.187267935946661,-0.2448203326907,-1.93017797525534,1.3508288739733,-0.237297237278504,-1.14387575748169,-0.0141268331825986,0.0840555742182862,-0.114397534570397,0.616307226086144,0.321232973817213,-1.07026271883734,-0.213366264072321,0.117935026264281,0.736223127385624,-0.05879470509282,0.0651604423106299
91.32,-1.15250845749875,0.674215219993386,0.834940725138586,-1.6282401161331,0.315704094672691,0.340748472674173,-1.1376527111566,-0.289037173871139,-0.356872157049222,-1.40424246411944,1.51056343840953,-0.328784251623048,-1.17954200579654,-0.0803073760250081,-0.159658129120319,0.097679805677927,0.789731581314014,0.216108207910764,-1.10863211108829,-0.219512154514617,0.157161523658284,0.79338650487948,-0.0927173638465315,0.0524229136120239
91.325,-0.848933057155764,-0.371722520495682,0.913533517357683,-1.65542164556885,-0.0265414378564842,0.216970576745143,-1.14137798284929,-0.0786073485553413,-0.196343380534821,-0.98802257192614,1.57878160302643,-0.353709414893017,-1.17179082412311,-0.131057810529519,-0.360788721545017,0.424063128289491,0.858592653567434,0.135411688911027,-1.16646467769929,-0.236896931606945,0.200827226045085,0.828849203994281,-0.0801764024480322,0.044776877890801
91.33,-0.71859665718208,-0.820180391440275,1.11840227083698,-1.41913867063537,-0.117023005869612,-0.178860487750288,-1.20255602936951,-0.0923450797076964,-0.245651637822402,-0.979614666047295,1.61263266881621,-0.373000975303577,-1.1023312636185,-0.146625784814271,-0.471836098383579,0.759437146565696,0.816642560114023,0.148611909056273,-1.20616953945874,-0.246808369589737,0.215055325460061,0.823785663703298,-0.0398934996053971,0.0340663029852696
91.335,-0.485864234834072,-0.548496888074591,0.925719405253641,-0.857192855490088,-0.142779911891503,-0.353094457289639,-1.16933076805759,-0.107393152686778,-0.235719078333981,-1.08466156943851,1.5021864770377,-0.311500630859403,-1.00650688663962,-0.124664486401156,-0.508730049371906,0.922672595703016,0.743661681585102,0.217909636100069,-1.23903939609043,-0.252904046145339,0.214933967271227,0.797550587317516,0.043218632231192,0.0259708690375461
91.34,-0.479035359255531,-0.0498961219685468,0.826077204167134,-0.52065061983841,-0.11710674533698,-0.36245662663886,-1.10930679304101,-0.19608222253149,-0.249332126270294,-1.28122557776604,1.33595879246425,-0.261469866421003,-0.81582010685452,-0.0823421222056546,-0.518329636558471,0.998027584978835,0.673634940068707,0.363552540990065,-1.24963614870056,-0.252214416984162,0.198382359665511,0.774667984960308,0.124931366911561,0.00333203279220566
91.345,-0.585310012118142,0.32898173822856,0.799635108266402,-0.437179502369193,-0.0779140304058565,-0.290085059271759,-1.0314015816515,-0.262668294349553,-0.281257232554499,-1.2064415410633,1.1846834729269,-0.222567385736368,-0.666182668084021,-0.0675638921946068,-0.507081062496714,0.928383101551007,0.703390537110007,0.47611714176059,-1.23423717811432,-0.233049357314442,0.166509780316678,0.745816568334751,0.182328675090709,-0.0235910719249685
91.35,-0.649321971103776,0.39580330249549,0.797910248433841,-0.483232108823342,-0.0823051654527227,-0.229959928130416,-0.945009891142723,-0.255696052189582,-0.222879602156619,-0.783732261435641,1.05463358986061,-0.192302673145572,-0.59048269335345,-0.0736531307065687,-0.491714328806656,0.836134676841635,0.750923214159442,0.526615510159651,-1.20702216660267,-0.206563659464807,0.146965499121063,0.730627280685639,0.191739960582169,-0.0480900209697363
91.355,-0.580400669166867,0.252713650993087,0.797280854114248,-0.505603389556084,-0.110620382348867,-0.205320980501328,-0.872501889148581,-0.181552078206273,-0.149371609607698,-0.204471317202048,0.978828739319098,-0.119391398696753,-0.55889766148057,-0.105688806478899,-0.471386111570096,0.678391907669364,0.838994239582514,0.524285633443117,-1.17834486942529,-0.182216201778567,0.135775858865367,0.709494600042621,0.162613644219816,-0.0704899302448209
91.36,-0.424559235796294,0.0514769278347182,0.863734545683148,-0.405282852049637,-0.129608239314724,-0.226360392499454,-0.830026531710345,-0.112360160310516,-0.0608069659870269,0.143349159932632,0.963847111023609,-0.0644808974228658,-0.629113391769925,-0.148238521657686,-0.433508171731491,0.539115752015198,0.89074484625181,0.451048085348145,-1.16424547256091,-0.136325996731399,0.139967789884699,0.670983232281945,0.0772702246395853,-0.0890117130055286
91.365,-0.443682177521616,0.00203881225208895,0.896017159525093,-0.306710867237347,-0.164869312962061,-0.289837022328717,-0.826814619163251,-0.108029854445545,-0.0532868395741601,0.454330389096959,0.993482146523915,0.00953295586803615,-0.749935667248871,-0.158055983605227,-0.389770998165745,0.476141531709243,0.829738852566094,0.372151047947791,-1.14182510045069,-0.0987275310475669,0.156874884488049,0.622759201989972,-0.0240775327468674,-0.112348345347192
91.37,-0.49390522813707,0.0520555957654805,0.813604740612577,-0.144403077745347,-0.171742975464092,-0.29155277775273,-0.864980890125755,-0.121957298557169,-0.118167089184784,0.653095641560696,1.01479076080509,0.047193672712155,-0.888542541356853,-0.129243315361448,-0.309627100633002,0.387527710422794,0.7225481734959,0.299616529019381,-1.13694459051144,-0.0690118109051768,0.171098365419756,0.566360178781297,-0.0994100005856506,-0.120786305764918
91.375,-0.554138569488171,0.174442235495352,0.831973234815645,-0.021345999319313,-0.146113411531719,-0.246964362575817,-0.930830446719865,-0.059619230988199,-0.176129002298738,0.810384225871801,1.0301184967153,0.0709090228645588,-1.00166298297787,-0.0698353123318936,-0.204463774240331,0.275236154396098,0.632543456466759,0.260368047933737,-1.13500487154972,-0.0378799570097161,0.177782216652289,0.498755780379184,-0.18058143511073,-0.123578232107184
91.38,-0.531055349686696,0.122005261893929,0.859560558141127,-0.0366463876690395,-0.149594023868668,-0.212904543652773,-0.999111000803451,0.0246459563146799,-0.176948108619792,0.855690303054147,0.9971603121189,0.099018539141924,-1.11711332525513,0.00506623157292344,-0.0945383537340297,0.13497906225696,0.569710993532347,0.255106634383988,-1.12481476412198,-0.0148987867836987,0.176117215409199,0.412777010592862,-0.2292614287296,-0.114677265271879
91.385,-0.440107568618324,0.109437337921032,0.916848179780477,-0.0441620997901511,-0.155098114402901,-0.199416455602083,-1.07756210572216,0.112622420983674,-0.151395783565986,0.70307120509214,0.91899055478244,0.158958951281759,-1.19468391453573,0.0633180508576674,-0.0483403817753581,0.00424893863251052,0.561265530084062,0.257428228855133,-1.11802238758056,0.00825909818565322,0.161407437338675,0.30783774186419,-0.266849405931118,-0.0985605851023361
91.39,-0.461731212888055,-0.00172524987126593,0.79324898707724,-0.10670852626405,-0.127735853192049,-0.217017639868857,-1.14011777461229,0.210306398323919,-0.118270310936107,0.395224455105547,0.776095989611464,0.196529323315171,-1.22109752442773,0.0813586369801409,-0.0563831725263953,-0.0753364019594394,0.59084582751418,0.258510553372713,-1.11283421930996,0.0335698753034687,0.135419621777439,0.216539288372511,-0.286501727443683,-0.0910837740858924
91.395,-0.515067083058665,0.0892914019828102,0.832077594134754,-0.00427432488639456,-0.107247690462,-0.140130072948833,-1.14681879329759,0.283700727928347,-0.155301264450836,-0.0137914949812419,0.625280147855245,0.192250975768905,-1.17239984143778,0.0600636465649346,-0.102852891812976,-0.189113798952189,0.671209266132377,0.246308222892569,-1.08817160937626,0.0530224142296893,0.0988770324195927,0.107565427179553,-0.316766712939742,-0.0792811460406087
91.4,-0.506243111108754,0.13505881967636,0.880966396588227,-0.0351150263727795,-0.118896784248407,-0.158985306470139,-1.15435018448473,0.301839362285265,-0.131031304235835,-0.532825674831901,0.492145669874678,0.241313113952634,-1.1262100960132,0.022557894995671,-0.12149397916468,-0.262977054853111,0.729432538382955,0.246705417033454,-1.07151639027224,0.0645999850693311,0.0647376823953694,0.0214940601382775,-0.331602195432212,-0.0731093026127419
91.405,-0.475613709540008,0.172284916517629,0.853447411690492,-0.100049234646005,-0.0982182509103318,-0.136862168375794,-1.1276947232176,0.241510302332393,-0.143762153523187,-0.910016597407384,0.376507239660685,0.22062465205122,-1.06946501376079,-0.0476799761936231,-0.109957974837119,-0.333279821441519,0.791057417274359,0.269481146976308,-1.04597244075434,0.0798438501710624,0.0341693619157152,-0.0679327042187906,-0.349218036417517,-0.0674057155847549
91.41,-0.501824123405176,0.109187953149637,0.839518515405391,-0.0517709831488582,-0.086922656263041,-0.0862863097906857,-1.0772384074599,0.177944948112891,-0.128295840916839,-1.27187532204618,0.347383113436474,0.162176504294578,-1.03081371475309,-0.130886074019645,-0.0676703371493823,-0.359289581614426,0.818523732973535,0.300094277578353,-1.01821255840183,0.0833989366704234,0.00574213329468991,-0.139215387944067,-0.358787098485002,-0.0734272584621351
91.415,-0.487522371388931,0.084367217686568,0.849567938091583,-0.172494462029824,-0.07123844768479,-0.0868564911255,-1.04868275757094,0.102777921414934,-0.11517793421687,-1.51900152159109,0.380612385319335,0.117938314437287,-1.00366438796449,-0.214224332546177,-0.0103161481800716,-0.319268954138561,0.816568249551001,0.336677226303274,-0.996519326301466,0.0853093571970301,-0.0177987760136955,-0.187175888389843,-0.372379195133581,-0.0892532329838605
91.42,-0.472241846945236,0.0625533505999702,0.857542974602318,-0.202140907051478,-0.0652171994906033,-0.0699420640374767,-1.03044888248625,0.0195716225167657,-0.107767893032318,-1.67740367004027,0.396758245577907,0.115499645916338,-0.981808162910109,-0.273524372905006,0.060826340431574,-0.211650674579176,0.816026069808527,0.370547040693418,-0.96740258849778,0.0804196950566585,-0.0363865635891048,-0.215411772558198,-0.376849643114508,-0.10811923351594
91.425,-0.464752108878528,0.0357125008349415,0.840480505320425,-0.21923831869292,-0.0510541594435674,-0.0609464006762694,-1.00337843840205,-0.0570610047621616,-0.0879065948218403,-1.74824607190166,0.374534119258503,0.137372996320149,-0.965364092682548,-0.286191991542227,0.106485978344674,-0.116452708990934,0.829409501423701,0.382367886178309,-0.935239841887338,0.0724439945657688,-0.0518234641176836,-0.232731905454495,-0.375989784141971,-0.132158584156671
91.43,-0.530287286816836,0.183078024182566,0.87228439863461,-0.117757020863596,-0.0646079399786329,-0.0309503970134881,-0.973888142852433,-0.107921392771253,-0.0713203422216657,-1.7269641269635,0.382493263168001,0.146105700152749,-0.947566682561553,-0.275075904568529,0.160187590255788,0.0130609154406613,0.873080664869403,0.378047217571505,-0.904937993471184,0.0675471356587673,-0.0631540827781522,-0.22129059544863,-0.368897167243717,-0.138309036826797
91.435,-0.481233123032489,0.10237011204283,0.874232184615361,-0.107532717100218,-0.0679922040667435,-0.000453549595379585,-0.981571160068933,-0.12431300277232,-0.033264222562012,-1.46422180583832,0.363301588847131,0.194847271602256,-0.9458516423546,-0.23460665407014,0.196069641777472,0.106337338599825,0.904273475575224,0.345889997195439,-0.870546434472995,0.0584133166515512,-0.0721837092882985,-0.198244970305332,-0.342078423356821,-0.13908004429721
91.44,-0.437902484146458,0.0601051683688969,0.883483304521987,-0.080797074878612,-0.0358176996012498,0.00604796909063935,-0.968414479698698,-0.17635632647606,-0.0146022162216885,-1.208611830227,0.383936509524326,0.221013159361166,-0.96319667657955,-0.160589028325513,0.233125088613164,0.183337258043265,0.925607101693807,0.302712906063661,-0.838114428141605,0.0582740412293345,-0.0765274265647086,-0.178898677157867,-0.311536758994078,-0.136703702723218
91.445,-0.467331423470978,0.0979961294748461,0.842651901004121,0.010817694363091,-0.025356150877755,0.0088850890394537,-0.980656398776557,-0.19593193410124,0.00648593689955764,-0.813046411181265,0.425676352930456,0.216822471445422,-0.990781160815581,-0.0894146007445746,0.228675107109355,0.229912975510163,0.926917370688695,0.256984722119661,-0.813177906460708,0.0573861567278556,-0.078538899313761,-0.158510145677172,-0.26880139499396,-0.132883160753269
91.45,-0.478647787319491,0.15021551079886,0.84225374152015,0.0358273234733714,-0.0361165634424662,-0.00662878645176819,-0.979990992820437,-0.165508129559422,0.0027825172847523,-0.379212380188393,0.463288567307541,0.218259793519035,-1.01096396915543,-0.0352091846303788,0.212420815424632,0.25493878271019,0.900187830131714,0.202685663542926,-0.781575410330519,0.0559503552920776,-0.0771508879297894,-0.127094142659815,-0.206768391243872,-0.107368111115544
91.455,-0.474605787422092,0.152075935523733,0.845210456920869,0.0684345656198274,-0.05958960903564,-0.0228407632073649,-0.972491425369922,-0.102975687791844,-0.0175997788830446,0.0405480447884171,0.53458144589627,0.243697373419867,-1.02188243079273,0.00100334981552866,0.188296906797128,0.282258742286789,0.854442412377877,0.140324058695038,-0.760707562929338,0.0537652764717643,-0.0722555847038581,-0.0820536604642731,-0.117544568139461,-0.0546925342977242
91.46,-0.458475239007889,0.114418274591414,0.845373198986642,0.0972862173108215,-0.0401173409689458,-0.0387342493450191,-0.974960356364705,-0.0508946484112047,-0.0306267429195987,0.378153248603973,0.561958834567944,0.258449244735646,-1.01639999139771,0.028926487360247,0.16140875671805,0.292246094401767,0.795138793489211,0.0767968080686614,-0.74359327506157,0.0576476526143908,-0.0639348604365035,-0.039519646890707,-0.00944866605172028,-0.00196279573670456
91.465,-0.480221954190359,0.114260108670907,0.857302579126948,0.156086723392402,-0.0385972849992188,-0.0373015195843624,-0.980544935761831,-0.00481236361951733,-0.0474756700451582,0.659242713855098,0.575393845973809,0.265728895498557,-0.999969254197893,0.052096814593689,0.144006369037388,0.300419159066479,0.736829167068085,0.0319570523430956,-0.741378246126285,0.0546673956942538,-0.0479835800711759,-0.0178586104698091,0.0703774902838336,0.0427942658380881
91.47,-0.485850841894833,0.123564566838849,0.841784334548016,0.172096016321445,-0.0599086109573975,-0.0393415402692583,-0.986047655272495,0.0339939262990669,-0.0537460218125244,0.806101577538505,0.569048545166437,0.266127981010763,-0.986883363109425,0.0807516224929673,0.127119223614212,0.295250883255555,0.665961219892898,0.00493633880405157,-0.748740957943514,0.0631795999570075,-0.0390644237952561,-0.0100655857563018,0.15054114950983,0.0663328747489989
91.475,-0.476032442934618,0.136828422318324,0.852220066631018,0.18681026696663,-0.0483262533797615,-0.0349567210282271,-0.983034204566815,0.113654572656083,-0.0750902704777101,0.876984298630366,0.540985673387319,0.254832007758763,-0.978071223674877,0.111022221838937,0.102927026138959,0.287045388067071,0.593852474503454,-0.0174778205649693,-0.755396185720542,0.0703288732097737,-0.0215348151781612,-0.00317677369882996,0.209506658025454,0.0997253382863119
91.48,-0.486092013184778,0.157692575716365,0.837550067330607,0.1857050415902,-0.0470642726408246,-0.0327524179822801,-0.990351643549127,0.195537348281828,-0.0808490955983965,0.842469157902679,0.521354271176856,0.231837419906813,-0.981400395946476,0.142173175478724,0.0836655485952525,0.284576599034068,0.536868286523764,-0.0166075849178974,-0.764335690728028,0.0733744899783567,-0.0093050533878409,0.00130793321572715,0.262850890338186,0.127914068733026
91.485,-0.485908478024803,0.147511207680233,0.853066869730141,0.162635779229296,-0.0473672896623611,-0.0272525205082483,-0.988988913490049,0.247338544576577,-0.0800482272842142,0.754459845909257,0.508173161256712,0.217854554858118,-0.993875835748896,0.175436089245495,0.070269801095912,0.253046040838343,0.471397133465601,-0.00458819123566968,-0.782277473856223,0.0728688815804641,-0.000803240138991451,0.002699920603729,0.282132744694945,0.144705535401241
91.49,-0.478047307251148,0.0721737695891677,0.774569871893039,0.137735517270902,-0.0462819009876615,-0.0254070401910712,-0.983827848245954,0.284660257782672,-0.085068095402334,0.521731925976921,0.505184062662644,0.198243745630839,-1.01907735157813,0.19438554064386,0.0645452825679904,0.197531976075935,0.416639744094611,0.0139738744583865,-0.795312741965769,0.0722089977744156,0.00750217451844878,0.0325159667667341,0.310121601418722,0.152041533023756
91.495,-0.486910746524823,0.149616871223497,0.791660743207519,0.137287533885265,0.0187771903882083,-0.0332437161279163,-1.00158457476899,0.310991265475208,-0.113583233835843,0.254283218154583,0.501401101867954,0.173792836571102,-1.05004479869146,0.212371730817746,0.071857326233752,0.10960575727099,0.338758262570855,0.0387485462354116,-0.843824807827063,0.0592025961456322,0.0238180737662168,0.068183559278247,0.331220518719775,0.157414005940839
91.5,-0.449032044354601,0.153769653195332,0.87288562247487,0.111247487301078,-0.016255639986052,-0.0291532926893439,-1.00581310444192,0.315922588675087,-0.0836240417805477,0.0364698345898749,0.511304637678458,0.150385161805243,-1.05360037635364,0.219936071197567,0.0646690300769639,0.0444475879129699,0.301250475877368,0.0402852385204553,-0.880918751782886,0.0496541503788272,0.0368111008265768,0.104998020894375,0.319282859563828,0.158424339050674
91.505,-0.507062384010648,0.190941631439726,0.858871512336361,0.0182988038436541,-0.0257874978061378,-0.0358448589619512,-1.00794574224613,0.311628741522696,-0.101346550705643,-0.235196062064021,0.486762690638061,0.119119496002386,-1.06688788646162,0.234344457126298,0.0663302031883488,-0.00974865542372596,0.26053494448286,0.0430704336233608,-0.922354310532408,0.0346525628342033,0.0545951555918759,0.156813308106373,0.319282859563828,0.159151957549506
91.51,-0.479709166476768,0.193147074535751,0.841487863719113,-0.0219612820099088,-0.0313826122487963,-0.0531756882296122,-1.00963193792428,0.289793451772538,-0.100492527060747,-0.372113506908181,0.456633672778758,0.0908869416752434,-1.0678303139766,0.239523191621201,0.0495415106421011,-0.0500413381261062,0.237774117022183,0.0463471700642785,-0.966770253288711,0.0188060683865382,0.0736871790406565,0.205114623139868,0.318756286129235,0.162441414639613
91.515,-0.490612116161669,0.19717069580228,0.837984634746166,-0.0681625496931238,-0.0542565602204507,-0.0731331312171695,-0.998535485896573,0.261782270224374,-0.120385170439879,-0.460927940560988,0.439155491101914,0.073189756936793,-1.06121532452778,0.238052605698583,0.0310709218693037,-0.0660129691991493,0.23926344063969,0.0456512679134063,-1.01621262501713,0.00262663804310447,0.081121589132005,0.252559188491236,0.315084879463025,0.161051154136658
91.52,-0.489723572045761,0.18647471093862,0.830219893954054,-0.108919916742994,-0.0488527213266334,-0.0951295109598133,-0.99725751161372,0.226106877719092,-0.133580692844985,-0.492006795921815,0.416633411268877,0.0666368558592499,-1.0477637631798,0.222400702528876,0.0157326980270495,-0.0634105074845373,0.243688433360685,0.0408363010765505,-1.05922873200889,-0.0156792533926559,0.0882449233360596,0.296489486169826,0.314129233409589,0.153412175881053
91.525,-0.485850594506893,0.159665074634448,0.841304439016277,-0.110254996842666,-0.0671980056168399,-0.113323128364774,-0.993889138393157,0.161316669243929,-0.13291089532599,-0.509870340459326,0.399325360371443,0.0564010029798577,-1.02078068291962,0.177073154118896,0.00307058698286817,-0.0519937977059968,0.247178302996154,0.0399666056036949,-1.10009397085531,-0.0362736280001852,0.0953202516543048,0.336735591746477,0.326337342907061,0.139336326929397
91.53,-0.492755269483703,0.1430499522503,0.844400830178641,-0.119667732280923,-0.0863155409394297,-0.131558164954185,-0.984466393932437,0.103072134280095,-0.132019064294944,-0.489242313430233,0.382880547458671,0.0495215049053767,-1.00200689188072,0.14768466636028,0.00831526364189773,-0.0464537914323522,0.240627870831148,0.0446319074608833,-1.12914663092087,-0.042986540908094,0.0832192198206689,0.360092390981679,0.33118685133147,0.125767333607182
91.535,-0.488070644927332,0.145798581969354,0.841674613992201,-0.101835355925541,-0.0837298966108516,-0.129828777291888,-0.990263466780763,0.0423671396845402,-0.137445779315983,-0.365238008540364,0.34972059239704,0.0446166018344431,-0.978368582126881,0.0983279184276881,0.024972477567957,-0.0438700509023871,0.223167401850439,0.0548171876121299,-1.15313972040514,-0.0508950786968162,0.071628379040467,0.375287982596692,0.358269696234354,0.0952299865725211
91.54,-0.482447736427843,0.134707392095626,0.850092653255587,-0.0879345735183981,-0.0605025186072195,-0.127857245199243,-0.991254978743502,0.0207861024293209,-0.127043028328134,-0.213134107040091,0.330272301707185,0.0325092444328502,-0.960418840847769,0.0574897207166864,0.0370633309592128,-0.0188442194531532,0.198592555051934,0.0643427454525599,-1.15961464203265,-0.0505035693255798,0.0593614118930358,0.38331025752793,0.380009073672617,0.0616565132988816
91.545,-0.481114676129735,0.132756767459387,0.846806471242858,-0.0907875512095679,-0.0433438259870056,-0.134025604481472,-0.990969487945926,0.0175259439901795,-0.119622622442355,-0.0558700777549297,0.32292440533638,0.0278674635865842,-0.953815643323515,0.0214982805559398,0.0506819546262813,0.0264809356967722,0.189448249627813,0.0659104421548394,-1.15987924619819,-0.0454589735553805,0.0487551793654005,0.378574648170635,0.402624184799709,0.0332684940431335
91.55,-0.484053386177904,0.130383938170886,0.850144671467806,-0.0590977244442656,-0.0628894816142578,-0.133674294247521,-0.994250890461807,0.016663155603478,-0.117123285093331,0.110060412189587,0.30824984244776,0.0354627534769021,-0.966436176741266,0.00124514029492886,0.0695460557374922,0.104037906338487,0.201156121848188,0.0558656524754062,-1.15262513137373,-0.0387398877462157,0.0385500710366896,0.36380152987376,0.419795230235478,0.00589540437310702
91.555,-0.471356416363957,0.11544069916694,0.859123180561377,-0.0599362999513048,-0.0689010793172977,-0.134766536375251,-1.00306462204708,0.021667396262767,-0.132396447971335,0.286859643262152,0.301946557646398,0.0458027304351094,-0.984962563184617,-0.0133308939413864,0.0833095411520884,0.201355155475161,0.221378929835396,0.0342178183312601,-1.13518963759345,-0.0277522892249901,0.0331939924096477,0.327004073895395,0.437195630547448,-0.0198317930330734
91.56,-0.478330902709739,0.108621162406655,0.854211116558713,-0.0332270036270487,-0.0725375849176478,-0.127803759213724,-0.927195490497272,0.0431713174824863,-0.169039343669405,0.376094802815277,0.305383937075646,0.0300484412417623,-1.00149487992131,-0.0197145326322956,0.0826055517586192,0.30101207491985,0.250936479042157,0.00673867522018406,-1.12322324653619,-0.00960514354026062,0.0304081365715621,0.295166015562063,0.43324775090889,-0.0360297826013157
91.565,-0.464425973924924,0.114106215576645,0.865978541030411,-0.0126845612856921,-0.0580774480944909,-0.115996084462871,-1.01800054834986,0.048808321546668,-0.128819942188973,0.531813308352869,0.331431413109184,0.0700323766263558,-1.01670716526527,-0.0291505963322828,0.079393869454422,0.388549831339866,0.285902147131984,-0.0107897729825481,-1.10719412887616,0.0008415157362457,0.0316054007915584,0.249068229581919,0.446625587489718,-0.0493668171864798
91.57,-0.482563518579441,0.108216593234718,0.862231153618948,-0.00256850649268794,-0.044771156202489,-0.109995241714039,-1.035642240601,0.0607463011107482,-0.143035478076876,0.533602412854523,0.327106200957675,0.0275847592455181,-1.02852085592648,-0.0402964984732425,0.0749916840776331,0.462503020868641,0.326860809816791,-0.044922010967663,-1.09433741491451,0.021239567390025,0.0291602547367637,0.209181750954609,0.453463279865835,-0.0562044956625878
91.575,-0.47751553738839,0.111555253368764,0.872023958073011,-0.000703049164414876,-0.0481709951534274,-0.105098884366512,-1.04157551978454,0.0912877740069826,-0.148966569899868,0.532655119895935,0.281823824404123,0.0216978515865177,-1.03492336638958,-0.0410113135297403,0.0611090227774393,0.556338690954048,0.386570030051665,-0.0803078899407698,-1.09379439090259,0.0381377045762181,0.0262884387296949,0.162621431637011,0.456118006978711,-0.0539778446160341
91.58,-0.46742006538347,0.10604232872197,0.8545615566981,-0.000598549842834473,-0.0417050192190984,-0.100747193527013,-1.04129563273608,0.0964433317421467,-0.147416896331306,0.476175024541616,0.248330867761971,0.0164759954629533,-1.03316400755295,-0.0560824431069374,0.0466815832202926,0.619379754077045,0.413508472390083,-0.0992450228412517,-1.08660174686968,0.0595210542525533,0.031200640201634,0.130771173899557,0.457216311591193,-0.0561744136532406
91.585,-0.475917835634166,0.108969665809436,0.854081653610708,-0.0136194248436894,-0.0316665608227652,-0.0988640500509857,-1.03646840819298,0.108718115522126,-0.154808245505756,0.405816651379913,0.220781162100392,0.0233244119719013,-1.02929821587975,-0.0641585574321557,0.028203123877681,0.689053796234493,0.441153110355884,-0.116817617389925,-1.08062571823035,0.0773245409380674,0.0294584575059661,0.0848418237305044,0.449895682801577,-0.0510971437206481
91.59,-0.47574042205969,0.110178870653825,0.8568568193434,-0.0211195837760096,-0.0213529355591687,-0.0925921253772451,-1.02754317353355,0.117277386395442,-0.159955541882833,0.338279066902449,0.187330225981098,0.034929878765434,-1.01480108989196,-0.063233369746471,0.018515148840998,0.746155328688313,0.459156067037953,-0.127384258390347,-1.06705790926741,0.0986917031960763,0.0269097996556903,0.0471413989390608,0.429788978346182,-0.0408052531918474
91.595,-0.472287924907069,0.11015308014712,0.853778186569057,-0.0255988760291223,-0.0187990833378139,-0.0862582746894801,-1.01677151713302,0.118449733000776,-0.159736712664254,0.254920735730766,0.167804061924102,0.038714274764061,-1.00177347182396,-0.0530184084733766,0.00764669730096375,0.793389937379775,0.465133173330809,-0.131512853353535,-1.053640315776,0.121910907826721,0.0287357459759269,0.0200812774298272,0.389042791725255,-0.0320572352451016
91.6,-0.476742770016888,0.112233465410186,0.850320367986061,-0.0287036814728445,-0.0155847650947969,-0.0802285281005304,-1.00135886086949,0.111739966702646,-0.157377601787848,0.178166966867867,0.155919321164664,0.0361822329322913,-0.989650965710776,-0.0360146774232759,0.00175941637501262,0.827679211885386,0.474093955861206,-0.136382973247108,-1.03416035019468,0.138869919382499,0.0311805284893146,0.00118833959343543,0.336758948296922,-0.0288256392953454
91.605,-0.481123602654874,0.112454947614331,0.851135203065933,-0.0299192182719707,-0.0130020229733689,-0.0723264413553139,-0.990800138343193,0.101486225703756,-0.156311125504729,0.112523015090513,0.145605032433141,0.0327307072865619,-0.982785178172743,-0.0133112893543146,-0.00261916809463066,0.85586537286619,0.491265339150118,-0.143186600738329,-1.01632294657645,0.149045437383258,0.0355309103377531,-0.0126550477126139,0.290785700013116,-0.0301838517096809
91.61,-0.476354363774462,0.113939505368043,0.853091859119019,-0.0275358901660679,-0.0155732068548084,-0.0662125258083403,-0.987608193864537,0.0882588060957383,-0.156651154633703,0.0671449852721925,0.128012177655977,0.0332240758800684,-0.981906847038748,0.0115616051870164,-0.00664986413595205,0.867031745706722,0.509169578400419,-0.146292037029748,-0.993065993245772,0.148698997032565,0.0483124538601745,-0.0111104129247544,0.247936324683059,-0.0368225439320395
91.615,-0.475679643712315,0.115324427021627,0.849819328124517,-0.0226222945837678,-0.0156198580852849,-0.0643815909615857,-0.984862507749468,0.0778086560154212,-0.161428941898141,0.0542457636533053,0.111988826744081,0.0343996873775413,-0.9850030663907,0.0391272801768617,-0.00728384691704129,0.851234625677047,0.520201538269005,-0.147763866890455,-0.972466615886059,0.146093003504792,0.0607253642872557,0.0019244874655678,0.219025562207247,-0.0405284352600574
91.62,-0.475390612725893,0.109430190578327,0.847527574946652,-0.0126961111293738,-0.0181063207354664,-0.0578221657351921,-0.986865745569892,0.0768438105511694,-0.159813420768295,0.0596218362563912,0.103217348086201,0.0356006578721513,-0.988538848749313,0.068707937056415,-0.0051862239012712,0.799557845005415,0.534596016035807,-0.152534161494404,-0.962532122759816,0.138464208489264,0.0701892906300772,0.0134918334292938,0.197426117201416,-0.0392241081502451
91.625,-0.472486852845198,0.111673014966863,0.848794583441664,0.000337549683761592,-0.0190711344646253,-0.0480296206182267,-0.989255379715768,0.0764974058127076,-0.152207870989314,0.0820340532055049,0.0923040162983185,0.0354450610671679,-0.995348484059273,0.0971091476899097,-0.00323666267802785,0.712044620238903,0.550845755785525,-0.158876835034122,-0.956767975450693,0.122901185126199,0.0825433091222882,0.0268313287753107,0.179616198294022,-0.0392584348440314
91.63,-0.471887357180722,0.119654679569021,0.850529049578385,0.00831081632704827,-0.0111592146966677,-0.0423957762287696,-0.987184286436989,0.0734723197918256,-0.145684286653994,0.116294564413523,0.0805282113766913,0.0305336990869899,-1.00612607709423,0.12438418398656,-0.00363523981653674,0.622926174578734,0.560121267198952,-0.162834674119949,-0.949726236736867,0.105798528976129,0.0937862201609898,0.0438369499958082,0.160534299079448,-0.0376641017808795
91.635,-0.470180733108348,0.116824499226964,0.851276878050051,0.0169125643677524,-0.0119754557774441,-0.0417452106658403,-0.982248635781656,0.0738405547217292,-0.137932229499138,0.152507803454015,0.0683925326492331,0.0248562077611897,-1.01550432189769,0.147662702106996,-0.00622002032377831,0.548263256742063,0.560868741926631,-0.164703995055618,-0.941070421023986,0.0842874336708865,0.100166011268347,0.0642012959758122,0.128629906688941,-0.0321924683743377
91.64,-0.479894719488746,0.12006726085954,0.848816759322336,0.0275004226714373,-0.0305180288299834,-0.0479740240782668,-0.980336134715026,0.0776827949603634,-0.142552039977372,0.19165072128826,0.0635752212973267,0.0194577394913246,-1.02498133543676,0.163760661888428,-0.0103421179679975,0.469733364803218,0.55046788401113,-0.169799203392557,-0.938518641136884,0.0547837120452257,0.104589286553855,0.0895482264227833,0.0923524096790149,-0.0276735193757766
91.645,-0.474137695157632,0.123578368008643,0.85264724537581,0.0275559416412613,-0.0327069610357285,-0.0436239191358175,-0.974758451904882,0.0880798665135834,-0.141411492465125,0.237073430970249,0.070232125649961,0.0211143727326566,-1.02424126805711,0.174033197310837,-0.00248184940463146,0.360091499991542,0.515073622599079,-0.168469350440124,-0.939878595582463,0.0348359439983283,0.109421709303933,0.117240361577042,0.0548664769848772,-0.0180621378485212
91.65,-0.475538067844209,0.123337362101041,0.851949871489253,0.0370157822831543,-0.0327069610357285,-0.0483538367524787,-0.983263137495011,0.098423349129385,-0.146447610555587,0.267231916346983,0.0748718904543887,0.00951495718459903,-1.02572321401781,0.171688564926202,0.0121895475382313,0.230649439005141,0.485672394199912,-0.177579222958525,-0.940001213781071,0.0098819933797183,0.103436104924417,0.151238090848698,0.0249302967063447,-0.0127902312014826
91.655,-0.478993451809008,0.121060224304712,0.856802449993293,0.0428017695988108,-0.0371291921730748,-0.0473773780913176,-0.98824418627919,0.114579326620341,-0.140588718350654,0.282123789862214,0.0737991737994496,0.00602983368538764,-1.02003368583902,0.167906208766435,0.0278249070993308,0.104481158038043,0.441459569586122,-0.178657577476812,-0.950651196967981,-0.00918856343534148,0.10509415050888,0.182469818990746,0.00123725997874959,-0.00417458058673631
91.66,-0.472680762468415,0.117368217487804,0.854850172713049,0.0433824509382248,-0.0385718797705941,-0.0482393783841935,-0.989783385598774,0.121735650186576,-0.138263061159278,0.274494203657135,0.0687347079398333,0.00870694110173664,-1.02218228426432,0.173757715439055,0.0380811496240363,-0.03497461970069,0.403624475035983,-0.185798885387266,-0.962019819444989,-0.0262326759094893,0.0947184627177273,0.204226566731686,-0.0057834928761392,0.000258438597849061
91.665,-0.477928585706246,0.120492671243985,0.854769966967811,0.0454027667584014,-0.0438662221373338,-0.0444423042353011,-0.989730436673022,0.128046612775479,-0.134670812275012,0.271378191770166,0.0454138508019764,-0.00750271189496329,-1.01473807452105,0.168786228398736,0.0488595665727774,-0.135846424915838,0.371090128274317,-0.19164873038098,-0.972025176664079,-0.0446425056737823,0.0917156021054936,0.225925581525366,0.00318464866541512,0.00998184147279196
91.67,-0.475499603597906,0.128157849737847,0.853725560731614,0.041705424215894,-0.0469841089713071,-0.0477165744935462,-0.982272387358879,0.134793641824974,-0.134990310098414,0.251238254978383,0.0429859599191093,-0.0154098875547668,-1.02411630236199,0.163971371187398,0.0557018978716476,-0.215228433432958,0.32345794449956,-0.194336766843157,-0.980357970839824,-0.0608914432524961,0.0827922396648944,0.247615034327448,0.0174774263512819,0.00966675269142949
91.675,-0.47781675672489,0.138700985197227,0.858938779903957,0.0246470620848971,-0.0430227578956847,-0.0582581389745285,-0.988008149068222,0.145159339662797,-0.128725755521112,0.222683165156038,0.0408548194516059,-0.0358252342638509,-1.02422213582541,0.150804375765378,0.0580282317116943,-0.289393152873908,0.264160208591568,-0.191081723877205,-0.988364505753149,-0.0662093881807946,0.0727107255110747,0.267495798491991,0.0391209532985312,0.0119580933253271
91.68,-0.470568208685622,0.135837157724501,0.855197392021473,0.0267267109441875,-0.0486501106182875,-0.0625629915140854,-0.991603554911132,0.142851763930235,-0.127306532359418,0.18019314816986,0.0428119576796333,-0.0359813023694138,-1.01290767167245,0.132831802648934,0.0626985921056992,-0.348574060513634,0.245615591967443,-0.193103533702689,-0.998445787304855,-0.05825816012882,0.0629164370061043,0.264512157263999,0.0583912732144197,0.0131148082881204
91.685,-0.475179496493968,0.128422968724158,0.851379471798911,0.0231311203619979,-0.0515584088162327,-0.0648909960690042,-0.98474156042013,0.138936898344189,-0.128680410200527,0.145973567540634,0.0458179939932503,-0.0464555563119562,-1.01449527869485,0.114279135173551,0.0728144158181672,-0.388972799659268,0.264831199904579,-0.193377047777176,-0.999973910460196,-0.05157310602678,0.0523052900358772,0.261329932022313,0.0783227051586366,0.00468128283422858
91.69,-0.477374815161698,0.123952900374598,0.853491288836418,0.0206433001894196,-0.055248682205502,-0.0678326148574232,-0.978612725782463,0.1251554443007,-0.130451564212476,0.114986506756829,0.0475850862243776,-0.0512330469468241,-1.01635804632701,0.0879128900892755,0.0887972007713858,-0.424581089665511,0.276485406224229,-0.18212524429673,-0.99733526378322,-0.0402272102689989,0.0508491942550562,0.257185419505188,0.0926469959989216,-0.00359261892164286
91.695,-0.477043944302648,0.124784325082916,0.857146339771643,0.0170554904524446,-0.0515342777239095,-0.0698746987679492,-0.975836861549786,0.113046009021806,-0.130277132147619,0.0931059013066516,0.0500816041450113,-0.0598449189062153,-1.01773382271669,0.0566731925139906,0.104743470105321,-0.449546066762207,0.262748420537943,-0.160028368534083,-0.989408360763602,-0.0258647359058494,0.0453503619187152,0.247562638005234,0.109396522841484,-0.0114524378181586
91.7,-0.472060958033908,0.128892646767848,0.856167743360724,0.0109871639865339,-0.050757532797758,-0.0714983156970245,-0.97990040374499,0.106597890886817,-0.117610174321446,0.0697495235446623,0.0651380447318361,-0.0686870685924349,-1.02117478822312,0.0299433725733252,0.114684602404475,-0.459507016016482,0.228707709069802,-0.136781183043636,-0.981085102012185,-0.0115401712907201,0.0373021978908042,0.239689314618452,0.128321359059946,-0.0198696109061564
91.705,-0.464818543985838,0.130267660023344,0.852197602039007,0.00907291233328334,-0.0608869294392443,-0.0738533536609852,-0.98184979131021,0.102558583526801,-0.0990320055307479,0.0545399264647182,0.0798072144389153,-0.0737516399363098,-1.02351874816733,0.0037185289419684,0.121688929136503,-0.455040895852773,0.196347718239087,-0.116656381613584,-0.973346435424778,0.00336937071037566,0.0346871894820026,0.238389418613657,0.147724256735589,-0.0295446335610839
91.71,-0.467150415103904,0.121092917130884,0.851283968723388,0.0123507736214593,-0.0669144093990326,-0.0773174829925715,-0.97610657525527,0.0954767147762597,-0.0936634749906907,0.0629857724189713,0.0793008694117724,-0.0768403598731218,-1.02037551547127,-0.0271431457708612,0.137222831006375,-0.437355777082793,0.185797363273926,-0.102794856140232,-0.97104176671354,0.0160951007313031,0.0354928847242953,0.237534033481266,0.156477994608617,-0.0389570895970071
91.715,-0.471905957008152,0.108689489430387,0.853999315493281,0.0156002254084074,-0.0679098667705432,-0.0802469998598099,-0.974480445051128,0.0800934924632399,-0.106836136172316,0.0744557825742122,0.0893890267500498,-0.0761250108480453,-1.01312354006951,-0.0514407536081591,0.153791016676465,-0.404978435328535,0.188056827797426,-0.0993065685033798,-0.971289984455311,0.0223133727528193,0.0332503185224745,0.238223223039843,0.156498071475827,-0.0457765647678495
91.72,-0.468657858289507,0.105917532812744,0.857598476407335,0.0218674034039983,-0.0655541746530463,-0.0788206412909005,-0.976148374182077,0.0659713258032082,-0.120960560795957,0.079900332584679,0.114118210432496,-0.0771127209955451,-0.998341271879402,-0.0711946998567926,0.168347060233312,-0.355544176737021,0.191462148908931,-0.102890437939047,-0.966461476414136,0.0277731348847625,0.0317109499549192,0.252520189365494,0.162637818417064,-0.0517993762606275
91.725,-0.462627093087268,0.11034829809791,0.854129095597908,0.0273323085759083,-0.0600132118030684,-0.0727211910860084,-0.978504168591314,0.0620996050979464,-0.116659793080086,0.0886219557626426,0.132227790653267,-0.0821211907263187,-0.983485279954888,-0.0877558496776532,0.189653126527451,-0.297127439971388,0.196220966756309,-0.1115339798301,-0.964564082132401,0.0314144273808699,0.0314141956764771,0.26588749147118,0.165349334478378,-0.0571390893035468
91.73,-0.460693769934881,0.116362410687682,0.851122969586377,0.0382785213503716,-0.0605276536841869,-0.0653083840823216,-0.980259599104594,0.0702513190435821,-0.102468764543939,0.103207414791003,0.141686638697717,-0.0880475799515769,-0.978548434008003,-0.0932708121015744,0.202925747623602,-0.2333804226239,0.194696456193924,-0.1191885063149,-0.963014496793568,0.0339409627019098,0.0318940543832117,0.271160497511367,0.160461305413082,-0.0586789690299387
91.735,-0.462661862663281,0.12064326119854,0.856809589805057,0.044882012820084,-0.0590179482009714,-0.063421142932199,-0.984783556020242,0.0881706344270571,-0.0875728182922906,0.108018672271121,0.153365497496782,-0.0877538168019634,-0.971412473809684,-0.0889760635645489,0.217198899595177,-0.143356976493824,0.196756421714765,-0.12580042112332,-0.959425337463069,0.0408297940403307,0.0359799558322905,0.283623446550418,0.142646541842935,-0.0549088183724758
91.74,-0.46363664196401,0.122099500747284,0.852214137463683,0.0403783307870344,-0.0551260010719162,-0.0582564957439899,-0.982139414370219,0.10246693374111,-0.0835870316254253,0.123202625662703,0.165104833801961,-0.0919949888553081,-0.96969707651371,-0.0779129934206982,0.231501328320399,-0.0309363936325821,0.204560230937421,-0.136244342371067,-0.956571082496021,0.0417410366944141,0.039808505496885,0.292812532054204,0.12012467334199,-0.0548346160348165
91.745,-0.471194476191871,0.125295363509313,0.858398474677581,0.045837076166894,-0.0486451768548438,-0.0583126813994075,-0.980723717536509,0.115809947870481,-0.0963242715336997,0.129471854341302,0.193882593377778,-0.0996986162634549,-0.975331067301356,-0.058790633076959,0.242643600271624,0.0730340684163727,0.197890956030341,-0.144851502802383,-0.955886973741229,0.042862578721931,0.0411871657703986,0.318516722172348,0.101875032337708,-0.0589268456958046
91.75,-0.466580216539266,0.12762900160928,0.85573642733098,0.0467148308433124,-0.0530339555899798,-0.0627014574580214,-0.975364350085344,0.125286722276919,-0.100874749482484,0.12858767249018,0.210681951489369,-0.112961263147178,-0.98208219811911,-0.0260714053932805,0.243950612333679,0.186899738429364,0.186707719254033,-0.152984761403225,-0.957788605885689,0.0449456471381974,0.0408365847402482,0.326890210610938,0.0851280490772447,-0.0599735317506284
91.755,-0.46954027654246,0.132828021110715,0.853073372074364,0.0412630363521171,-0.0525282781886603,-0.0643649697303772,-0.973547249755954,0.13543759295767,-0.103080018725701,0.113205170867013,0.235671632662499,-0.131938597495039,-0.989984194432228,0.00437573157492269,0.2459940016421,0.270924332055204,0.188531227754081,-0.158793218777623,-0.958212527770016,0.0403726712997984,0.0343884655311702,0.36528591314922,0.073161412851846,-0.0722889109486447
91.76,-0.47373461059024,0.135901315142362,0.856605816902436,0.0310348879629164,-0.0572714730407417,-0.067831130587833,-0.970568680928863,0.146374243917135,-0.101561365032311,0.0973766432325704,0.259022876512405,-0.152718344656206,-0.995176151027842,0.0275562939581453,0.243768201761631,0.336686143598086,0.183405145972472,-0.159590724146247,-0.965137091310064,0.0406413105147456,0.0301065510751873,0.389867029764862,0.0667339284771156,-0.0842656444625378
91.765,-0.467349955709685,0.131763484330344,0.855288348361644,0.0241969158481684,-0.062027633190155,-0.0753310048872651,-0.969473397467925,0.154892109584832,-0.101415059676608,0.0870055000042864,0.276945799326406,-0.16480164901407,-0.994885136028897,0.0463165623844876,0.241355636872938,0.380679268491339,0.180036127567291,-0.16215902790776,-0.969203515335337,0.0380408596081728,0.0237584894669505,0.422307221083552,0.0738990399535201,-0.100077241700523
91.77,-0.466115978711706,0.137105617454256,0.85447146737572,0.0174758211237027,-0.0594587224312159,-0.0828786719459992,-0.969745846264419,0.155682146932752,-0.106384716770673,0.0737503453031363,0.299809413329397,-0.177073320442283,-0.995015204080175,0.0711224180767847,0.239312891225217,0.42289037837925,0.165461440012407,-0.158504110069136,-0.964768482714794,0.0331104700322352,0.0231312810450636,0.454044486968573,0.0793426581508938,-0.114569969594027
91.775,-0.469892866297615,0.142390897045213,0.857174839395657,0.0114444812246708,-0.05514713080057,-0.0883491950857289,-0.971180193046715,0.149696353813816,-0.113312966977679,0.0653394302564271,0.318806506371481,-0.191977762138974,-0.996344246237662,0.0858719067530939,0.235236589258795,0.450281122327194,0.150838011330887,-0.152732957684326,-0.959675273733732,0.0323760466410322,0.023409287385553,0.475053475921053,0.0805278884121271,-0.122494891353219
91.78,-0.469911203804035,0.137375308158469,0.857351854515071,0.00856592532336689,-0.0510349048600242,-0.09246141851841,-0.974297661963515,0.141361532242564,-0.119775420432782,0.0641110674841463,0.329861783807426,-0.205899211885657,-0.997051204824499,0.0883024181826162,0.229800451429377,0.460863013401195,0.14432608141715,-0.149883990829156,-0.956452690755417,0.0346985391598671,0.0213227427241048,0.491344159686478,0.0817496904396578,-0.126974834604578
91.785,-0.469929541310455,0.132359719271725,0.857528869634485,0.00568736942206301,-0.0469226789194784,-0.0965736419510912,-0.977415130880315,0.133026710671312,-0.126237873887885,0.0628827047118654,0.340917061243371,-0.21982066163234,-0.997758163411335,0.0907329296121385,0.224364313599959,0.471444904475195,0.137814151503414,-0.147035023973985,-0.953230107777103,0.037021031678702,0.0192361980626567,0.507634843451902,0.0829714924671885,-0.131454777855937
91.79,-0.470894294643464,0.128895814547581,0.85967388225106,0.00576554875328258,-0.0372910716013697,-0.0956177733192023,-0.981576221071888,0.127982625854311,-0.133662305732855,0.0648316631587542,0.356252262730275,-0.235750408531189,-1.00054304777958,0.0959762183626382,0.218402697484762,0.488031584151138,0.130296356518639,-0.13932568450878,-0.948075128352037,0.0406383037590368,0.0201826493159618,0.530350671646247,0.0829341847042849,-0.138150919610611
91.795,-0.472754625998287,0.126900243502785,0.863681179136266,0.00864003716228163,-0.0224395527809116,-0.0898687965012042,-0.986671281749907,0.125883527960747,-0.14194764320176,0.0696224776607039,0.375415509051244,-0.253476414299793,-1.00508294231623,0.103595170788865,0.21199726391323,0.509686969113755,0.12192950023611,-0.127513653345835,-0.941465887437455,0.0452299866839304,0.023411639001881,0.557896220439587,0.0819504159616053,-0.146512956923176
91.8,-0.47461495735311,0.124904672457989,0.867688476021473,0.0115145255712807,-0.00758803396045353,-0.0841198196832062,-0.991766342427925,0.123784430067183,-0.150232980670665,0.0744132921626536,0.394578755372212,-0.271202420068396,-1.0098824035276,0.111765950802817,0.206173563485723,0.529698707247417,0.11293006669609,-0.115478338985708,-0.934883239978447,0.0504441151275411,0.0267420466157882,0.583040475845337,0.081694288726077,-0.15371810993368
91.805,-0.474975665360075,0.128956023398554,0.876496074143354,0.0295163810092499,0.00824326462797754,-0.0708953635837671,-0.991976455246491,0.105810749092456,-0.14582746577857,0.111125566625561,0.408981176796429,-0.302877513036334,-1.01875561100032,0.128597340175959,0.209479822530592,0.523957992745158,0.0940194919211066,-0.0999446514601412,-0.928580396814346,0.0622073334028479,0.0311395277340737,0.583040475845337,0.0890573903587275,-0.148809376937447
91.81,-0.475144962489623,0.133779199240702,0.885916379364553,0.0480853521851262,0.0241112945606261,-0.0573906563381379,-0.992074872467761,0.0874740916664307,-0.141131771262176,0.14856295661955,0.423275453164642,-0.334869468070843,-1.02762881847301,0.145428729549052,0.212786081575452,0.518217278242916,0.0751089171461768,-0.0844109639346186,-0.922277553650262,0.0739705516781211,0.0355370088523467,0.583040475845337,0.0964204919913571,-0.143900643941229
91.815,-0.47531425961917,0.138602375082849,0.895336684585753,0.0666543233610024,0.0399793244932748,-0.0438859490925086,-0.992173289689031,0.0691374342404056,-0.136436076745781,0.186000346613538,0.437569729532854,-0.366861423105351,-1.0365020259457,0.162260118922146,0.216092340620311,0.512476563740674,0.0561983423712471,-0.0688772764090959,-0.915974710486179,0.0857337699533944,0.0399344899706197,0.583040475845337,0.103783593623987,-0.13899191094501
91.82,-0.473980841557978,0.142070881657275,0.891051135081432,0.0837851302499468,0.0579206721553181,-0.0308075814703549,-0.995391246139924,0.0600836712640464,-0.139295511030406,0.231100015456049,0.451247539238148,-0.396299389281154,-1.03930482903852,0.176710441273028,0.202738699621663,0.514913249213476,0.0273231488455579,-0.0590375636602899,-0.91296086932202,0.089704785141433,0.0376501259785864,0.575051884286137,0.125757689188417,-0.128439223571992
91.825,-0.469796311303525,0.14296916461859,0.860761370162371,0.0981890241043452,0.0797932515914992,-0.0185375992927086,-1.00352839873835,0.0656680888820963,-0.154068615173425,0.288277467722969,0.463953634001987,-0.421711591723655,-1.03423785871759,0.188073908651016,0.167786886535345,0.52766572235631,-0.0141224083116004,-0.0563807984221995,-0.912116544900916,0.0885358475220705,0.0309582320301371,0.561800088909331,0.157358092277919,-0.114168073188023
91.83,-0.46608585464874,0.143835856915444,0.832255450457992,0.111728839112618,0.101142828541304,-0.00735637653164678,-1.01211705955729,0.0720550983118223,-0.16727550924913,0.343116551593285,0.476341643250048,-0.446789946800911,-1.03050294702396,0.194826404367606,0.132155315920962,0.537358643407765,-0.0534397100249759,-0.0535740236637403,-0.912934975106362,0.0848414393312577,0.0249868260697432,0.551026744928461,0.186447330782284,-0.0999639758184622
91.835,-0.470506770484329,0.144160701996776,0.834346277578439,0.11048848370741,0.113546386375578,-0.0147985117995404,-1.02586928739488,0.0876207592471337,-0.16257081217401,0.371265081220447,0.485098967647608,-0.468057708464995,-1.03476540513529,0.173895699975041,0.0924426394009521,0.5287113133692,-0.0799993471994937,-0.0498680283045344,-0.920178774950168,0.071387875054937,0.0217995961803195,0.549814106486584,0.205849671574107,-0.0860185375966839
91.84,-0.474255037593673,0.144235093126726,0.837464424196872,0.108813333391032,0.125432257108242,-0.0216657288099164,-1.03614913594954,0.0988617635466127,-0.16245820354011,0.396359793420292,0.489800547704808,-0.486970639402953,-1.03555233944433,0.145300457921096,0.0521594594043809,0.504289094742898,-0.103791611980179,-0.0444646966747459,-0.934835496828611,0.0544540044562863,0.0204605684564293,0.550869293415015,0.218424973866407,-0.0733783576861883
91.845,-0.470779187819,0.141619657385357,0.851615783011983,0.102477127975012,0.131768458230736,-0.0223697511568602,-1.02263123107855,0.0804639801778409,-0.193817211203857,0.400552255306998,0.466742058463822,-0.489765625357624,-1.01873919613477,0.0778919418332989,0.0089872456857154,0.400065635231144,-0.113584427585718,-0.0304749626853926,-0.980970025229934,0.0227415609087113,0.0269696402957829,0.561533645331091,0.202072943314489,-0.0662687810704942
91.85,-0.468977050170749,0.142631814693738,0.860461533099356,0.0977849660362289,0.137799341565457,-0.0247398153692406,-1.01456454331429,0.0682211738853907,-0.216027464816507,0.395543970683009,0.447898253833661,-0.488415383282682,-1.0088608145633,0.0251873975396523,-0.0306343925180687,0.337868619983884,-0.119279034435749,-0.0200681365238374,-1.03114155567229,-0.0127051000087352,0.0393938178457761,0.571210362326551,0.182305439316105,-0.0632786813500557
91.855,-0.470284950407471,0.150384648393183,0.859448572190011,0.0961457922075593,0.143263249884761,-0.0302037186902509,-1.01543125587519,0.0660650827500339,-0.223244831370217,0.375463702619677,0.435958634269572,-0.48027473478344,-1.00862230820737,-0.00707744621041004,-0.0653204458814832,0.334068844035234,-0.119279034435749,-0.0146398882426133,-1.08582487227213,-0.0523251524843389,0.0584287654160417,0.579784767773241,0.158725883165544,-0.0648863807372035
91.86,-0.471530130130487,0.15480391385018,0.857246285994646,0.0906566532736655,0.147268598938799,-0.0366451624622597,-1.01406674046001,0.0606583969465901,-0.229001229094768,0.352425936368378,0.421970537281784,-0.471062508798437,-1.01040997187328,-0.0445667602227221,-0.103656465912214,0.33569303486345,-0.117364591005705,-0.0105482992104845,-1.14332317463697,-0.0912102891782974,0.0754457665798276,0.585078973942391,0.143822765747543,-0.0673101263368657
91.865,-0.47228754803347,0.133298849017965,0.845794913146801,0.0552696654126256,0.139947148042228,-0.0506779365257813,-0.997476527245691,0.0330699472828617,-0.22478810773615,0.309232338996407,0.39402173351337,-0.454547307980304,-1.02225180381352,-0.107980701781347,-0.160104183714724,0.364204227924406,-0.105960110690171,-0.0130826283841555,-1.21262464336317,-0.127013942001764,0.0840015678902782,0.576644655127509,0.165232901224859,-0.0731492470003195
91.87,-0.474480075501117,0.112382223595724,0.837815200604662,0.0278314933455633,0.13156294670725,-0.0599306808913381,-0.979532524594667,-0.0021361677499539,-0.231246398889872,0.26294809552574,0.362276992186893,-0.433032612350454,-1.02769925608752,-0.168071648370758,-0.209734070027411,0.38819434523641,-0.0908502915528275,-0.0197970542957924,-1.26386510822113,-0.158103006061039,0.0906913607287821,0.564655887291628,0.203358475534636,-0.082465792433248
91.875,-0.488102073967824,0.0961520355977645,0.85748441589364,0.0636078662817627,0.114727010276797,-0.0311692844981668,-0.956322011822794,-0.0669765159042005,-0.279218606815716,0.204651189628781,0.315778275471059,-0.392085978685784,-1.01284115869838,-0.217610322041762,-0.237713722362628,0.397838916503644,-0.0639832907999816,-0.0397750868254857,-1.27481829522337,-0.178675603322168,0.0932187934715164,0.544749090110971,0.278720013675922,-0.0995287849825568
91.88,-0.498629368183207,0.0840290257270767,0.866454845423584,0.0854247889482465,0.105317782820063,-0.0025381644542722,-0.944434067199844,-0.106363799415729,-0.303353246380334,0.155996792668919,0.276763704491555,-0.353073232526402,-0.986872290992068,-0.253039766932804,-0.256775663614791,0.400618139336249,-0.0389829600658039,-0.0625787648638755,-1.24989712761008,-0.189510596669422,0.0980998848144954,0.51128326704547,0.326278899965918,-0.114706348079148
91.885,-0.503887363193424,0.0788992367537546,0.857208638170725,0.0834877787922487,0.108546126517304,0.0258712723866196,-0.946716168581659,-0.113896905305591,-0.297655480798198,0.119402879523656,0.247110018641419,-0.316479319381139,-0.948175709265752,-0.27230667548968,-0.265622104668796,0.395537423209126,-0.0161197258743463,-0.0886174427616503,-1.20016561756737,-0.193611161198851,0.104608742746176,0.468451253270958,0.354632502508945,-0.128581509958148
91.89,-0.496459522185908,0.0855500066194616,0.854162287083458,0.09362313951569,0.111436317767853,0.0515459699970682,-0.956674144237579,-0.104838699511442,-0.280700887692682,0.119558248641787,0.211763289191496,-0.285825390698926,-0.918827973467694,-0.263282993032843,-0.258985952801176,0.375264616047367,0.0147508522568584,-0.114957641821443,-1.1519943316475,-0.200003353822454,0.107904273852671,0.395969743997945,0.341992803971492,-0.144500024835611
91.895,-0.47517062591751,0.105072689447279,0.857890148495896,0.116941698416611,0.113957241807897,0.0742342940444734,-0.974372979407903,-0.0790487172030984,-0.252394164872067,0.155312044213536,0.170901801863167,-0.260925427455409,-0.897366544064438,-0.230394518008189,-0.239289314911627,0.342183762734655,0.0523722081772272,-0.141552045318976,-1.10501901130483,-0.208152158381802,0.108736679171497,0.30078292480527,0.297960813929325,-0.161983320574468
91.9,-0.466244508644879,0.10604299902702,0.860458290619992,0.130140419388552,0.113360183052307,0.0924164752812846,-0.990202484942122,-0.0563266433124847,-0.24454757245901,0.168273360704589,0.133945459998284,-0.231596095110206,-0.904350595517818,-0.185605334229559,-0.230747581744623,0.319529256662939,0.0887949791886742,-0.164945172959557,-1.08795293634263,-0.213728712811915,0.100569822374477,0.174566761819632,0.242085012851259,-0.164539037319579
91.905,-0.467876000912656,0.0911698875711379,0.862036051582449,0.134701940168363,0.110101951085221,0.106752699910567,-1.00475619841972,-0.0356983751980941,-0.250664740821842,0.165685272291035,0.0996532727350692,-0.199244974157157,-0.926055753475576,-0.134657295133184,-0.227978735360436,0.302267160291242,0.124597853246634,-0.186682630538017,-1.08500203679241,-0.218091336187723,0.0881559121421045,0.0337228341742076,0.180625836189645,-0.160057637394546
91.91,-0.487692669931009,0.0640808975397192,0.807298234684877,0.118312135474009,0.121552970811662,0.100359605523419,-1.01609638015085,-0.0201860216179408,-0.268228885329983,0.172975015027749,0.0616427684572177,-0.185954402378442,-0.971160479548255,-0.0861202610976944,-0.236368791745128,0.272817220830352,0.164238571468082,-0.214246831716623,-1.08944225314647,-0.198929469640666,0.0823001305039611,-0.0868856526450855,0.129867121015451,-0.131117161432006
91.915,-0.516684851471874,0.0308282639880097,0.724145830623589,0.0913556526894862,0.140422515336661,0.0835118007006713,-1.02609919325602,-0.00680274723508077,-0.290556893389899,0.184372760291287,0.0220858866942402,-0.180590751295059,-1.02414460819536,-0.0383950915969212,-0.248516416935031,0.239266349346342,0.20517063697023,-0.24377159960469,-1.09607680816139,-0.172783448280808,0.0783913830218732,-0.201494578028544,0.0822809621812884,-0.0949248676997569
91.92,-0.50939366091113,0.0746264810258621,0.770519531866079,0.113798339996237,0.121738711104306,0.0854224904701673,-1.02537339943611,0.0243439634967182,-0.289466743031981,0.175937186983033,0.00143092591971182,-0.177673348569433,-1.05644816745573,-0.0118745790177945,-0.261563081506613,0.150806833160194,0.2189640051898,-0.267567713414955,-1.10718578122723,-0.143096807773949,0.0794937865686938,-0.253066208139169,0.0421835435009761,-0.054179796993443
91.925,-0.495787673325353,0.131834710802253,0.839436095501462,0.144828773105817,0.0965264851884021,0.0905942306359377,-1.02321199762729,0.0577336582021111,-0.285321934978938,0.164867633893013,-0.0168402270705808,-0.1750463603118,-1.08541643089967,0.0119975509173717,-0.273423266683246,0.0556389358046774,0.230418182150132,-0.290710129206909,-1.11775967022519,-0.112279672369201,0.0810381569592441,-0.297141524222105,0.00205580652279046,-0.013832605791572
91.93,-0.509373784750107,0.151158342863634,0.828543282051635,0.160728729624473,0.0923701084163326,0.0875893802252146,-1.0079544161557,0.0479081121053145,-0.290840820385591,0.13821263477077,-0.078813112932774,-0.158386984336424,-1.07692523087885,0.0142897786517714,-0.257865858842525,-0.0922271200143834,0.237078804517951,-0.309359894584161,-1.11809146034865,-0.0691349303866762,0.0848029690183343,-0.287838416404887,-0.0437952810187962,0.0180638038139985
91.935,-0.517772732397576,0.162564572716726,0.818243679407445,0.168945948014114,0.0879763376764542,0.0818843030750355,-0.992929508741501,0.0399513323620074,-0.292819492274703,0.117945998914431,-0.13646247575964,-0.143005349759545,-1.0666960735483,0.0133755749409086,-0.239576679824291,-0.222997651314414,0.243357211286854,-0.321924036186867,-1.11384830902138,-0.0285155126801436,0.0889982428528032,-0.272032011443056,-0.0924693069948691,0.0428677359817844
91.94,-0.482709641929023,0.12942138070111,0.833964964700194,0.128023709661733,0.0761851836793345,0.0596891891710518,-0.979051400714548,0.041205292025889,-0.2773492283483,0.129134108732925,-0.172823863587118,-0.133915002802676,-1.04991424187851,0.000372063320169186,-0.210987819222752,-0.289349479998699,0.248195367832751,-0.311556562691503,-1.09447610506516,0.00375281151267996,0.0946170275506906,-0.234748331037247,-0.150466146456657,0.0442486124100466
91.945,-0.46837092390379,0.118927604031523,0.839142951143338,0.0924536793488929,0.0674667452872307,0.0431336643962894,-0.969345735466156,0.0397317613380605,-0.260458405729795,0.12521004932666,-0.204246728814732,-0.128946611435965,-1.0297359907239,-0.0129603948893886,-0.186902950552382,-0.324834510840639,0.26129987583694,-0.298427889484685,-1.07080398020827,0.0273045573051603,0.0995103314118405,-0.196452502868938,-0.185458985783205,0.0369754660572952
91.95,-0.490171063774074,0.147929546947447,0.825935687084055,0.066209069897919,0.0641020536093948,0.0364042789886384,-0.965364663522164,0.0345161127030351,-0.241618575968681,0.100560194143278,-0.228896588173911,-0.129631333695306,-1.00526984277983,-0.0267081401471217,-0.168504261880492,-0.321373556877267,0.284834399935975,-0.281815290197897,-1.04214130892906,0.0407397241756762,0.1035616323902,-0.156982638003997,-0.193768428350788,0.0196641210403698
91.955,-0.498883319467494,0.159386034167015,0.824012734605379,0.0528544923279146,0.0568731769470339,0.0299433744516502,-0.958263698188645,0.0318617638809241,-0.235188063774552,0.110126278567604,-0.255045329452054,-0.120843292912439,-0.99348529128678,-0.0409362654587943,-0.151213733653401,-0.291017581685693,0.317493730560325,-0.262064989624133,-1.00550548776803,0.0372102463092514,0.10050143735088,-0.0931533121779997,-0.169342397993915,-0.0124820388136222
91.96,-0.496848010147297,0.156434468622528,0.831356281639362,0.0500809300816384,0.0464723142948106,0.023702857283185,-0.949387568620985,0.0306647494138967,-0.235818234098865,0.139152596740414,-0.282046556233745,-0.106667640824453,-0.987750398421044,-0.0553935524023785,-0.134451844893819,-0.247839934091907,0.354503133229954,-0.240818851673747,-0.965427918929925,0.0263576869153728,0.0943714423878226,-0.0188183254255689,-0.130798330322555,-0.0510261043862016
91.965,-0.490573261426963,0.155351136842754,0.840474936282088,0.0326454571470494,0.037668087428967,0.012853992639526,-0.961594764040049,0.0358425922214094,-0.230684426163034,0.167549615132348,-0.301038991221639,-0.101960111421001,-0.991561609119314,-0.0635262574116478,-0.116056866986049,-0.171497943023168,0.393501603838041,-0.210660807808866,-0.932217526107475,-0.00864966420031596,0.0862114692134369,0.0754560217416885,-0.0655074683984779,-0.0876032005537392
91.97,-0.486094376142871,0.150899605876098,0.84514473282715,0.0246259401514799,0.0295685536272646,0.00372132340742329,-0.972851294694442,0.0412089527175237,-0.220990953442265,0.180603294720523,-0.314665068132648,-0.0967575163601636,-1.00033555310671,-0.0663119213469118,-0.0967455513249504,-0.114004984770838,0.415210499267658,-0.185645692783994,-0.91482405850412,-0.0488375345826484,0.0786893230248265,0.144269207326368,-0.0196188433546051,-0.10511791220523
91.975,-0.484616548746867,0.144143691608692,0.842156163474809,0.0265076387867937,0.0230328313908147,-0.00175316547611869,-0.978159281360154,0.0426282312341727,-0.210603358306392,0.179092284175493,-0.326015930794943,-0.0895710775556451,-1.01047597927646,-0.0640545984471994,-0.078251616798463,-0.0828444676774357,0.421929129268144,-0.167318405427298,-0.915186353698696,-0.0940095152158722,0.0719831028808524,0.194972101359562,0.00626530684592251,-0.102993099342839
91.98,-0.482816690967866,0.144857802952478,0.832502277164509,0.0115714832736632,0.0205315768867237,-0.00595818628813437,-0.982385626129303,0.0354359010684922,-0.209475177434576,0.18184633057734,-0.342164022028099,-0.0849201814828567,-1.01470000683038,-0.0602870828954189,-0.063882998417661,-0.0672405493294744,0.431231621106979,-0.151415234864882,-0.928356525742327,-0.14407237168705,0.0652119630873981,0.255825319830579,0.0258904443825769,-0.0901443622984146
91.985,-0.494248702226811,0.154321045020023,0.845862410224886,0.0105225689508114,0.0089935129384823,-0.0112027599014157,-0.986563400494573,0.0348479128672233,-0.207698265579541,0.178698936940719,-0.350557054663937,-0.089116697800776,-1.01826520284857,-0.0683245231119124,-0.0499664623273865,-0.0483492541928784,0.441726792539052,-0.128325873075619,-0.940457226590711,-0.183924683769476,0.0539498660240041,0.312529385570926,0.037441276383878,-0.0712429985130308
91.99,-0.483638066119149,0.142712735669069,0.841583755358286,0.00759614640357296,0.00574192257162059,-0.0183667285394424,-0.982567404363081,0.0233707074209018,-0.204291920908253,0.179311317010611,-0.351450949907303,-0.0886160481758861,-1.02263045501622,-0.0774181429388945,-0.0403093760082847,-0.0283208959168725,0.445586100452904,-0.111755592978254,-0.96320597493553,-0.215523603414243,0.0494947975193287,0.33631730331698,0.0324112345293594,-0.0384791567220261
91.995,-0.482661278578884,0.135637203019628,0.838053130775614,0.00971757496653791,-0.00229932880648611,-0.019637475850207,-0.979355663214415,0.0163851261179122,-0.190318153120215,0.178064871879016,-0.359053660508641,-0.0913830365380857,-1.01964284989672,-0.0820788182133429,-0.0269751956982797,0.0129982481631549,0.439398617513433,-0.0985692220914365,-0.981548218111512,-0.237293164785792,0.0514513350888115,0.349910841988609,0.0134312093078173,-0.0164107440692631
92,-0.480666608481327,0.139180788727637,0.843926256806349,0.0121757279015415,-0.00760870858649787,-0.0163756024127489,-0.977419195192865,0.0132544239248646,-0.184250017197954,0.165141949679322,-0.358525007357634,-0.0852286842941256,-1.00925244083125,-0.0900259450412264,-0.013556009639812,0.0615582971137827,0.434784671557736,-0.0943692951444917,-0.99344250077293,-0.248465520072551,0.0523615135678223,0.344241944605431,-0.00990601598357958,-0.00207271109576578
92.005,-0.477227396755469,0.138680818220818,0.846995728689092,0.00794864564702045,-0.0112831869196356,-0.0153113869073269,-0.974765181959048,0.00962497340677046,-0.184470632396839,0.150706481477687,-0.358912326144994,-0.07768493087874,-0.995949633431904,-0.102338825994754,-0.00189893062020836,0.110743706926556,0.434558979364397,-0.0960518883780904,-0.997275166830836,-0.249955504317165,0.0515127632875709,0.322187542177014,-0.0257358770413907,0.00725809532687692
92.01,-0.480252396953768,0.12317777411264,0.835665494122764,-0.00398509061919466,-0.0195556707237055,-0.0213271141706587,-0.969708909068115,0.00240805341590145,-0.181250875831577,0.148841875551072,-0.369805617466034,-0.0800058917347872,-0.984507641645378,-0.113797645485834,0.00913812570938285,0.158493032639573,0.434683223391119,-0.0973212081654445,-0.995285490569299,-0.242618934989088,0.0525429866174353,0.290144833397747,-0.0311363328235161,0.00852584447465602
92.015,-0.484254211923871,0.125716633399073,0.837990111717296,-0.00895845447702072,-0.0275130528962272,-0.0263004780284848,-0.963485203881092,-0.00575312055818029,-0.185244175757695,0.147845661809724,-0.357850955361682,-0.0750247926504928,-0.97423458758097,-0.118937269958605,0.022251968632588,0.199751923211216,0.431736154643758,-0.0992859166697179,-0.996027903299668,-0.227129426583263,0.0583029534145067,0.247922616539758,-0.0399309263491776,-0.00522381975118386
92.02,-0.482738342274829,0.128344430852435,0.839962794999652,-0.00232905941460923,-0.0171009153091445,-0.0177221266953409,-0.962517392960998,-0.00340538502691614,-0.185761224397677,0.128057804291692,-0.3545948973269,-0.0640333547115202,-0.970812622860206,-0.12616676158736,0.0273620975352784,0.219225036843938,0.43070310890644,-0.107323166895113,-0.989583509264642,-0.210249273316748,0.0637698264173027,0.205473947900744,-0.0439736593373396,-0.0193733667186266
92.025,-0.486543725033545,0.122122024528031,0.845833540052128,0.000553820039587295,-0.014381542801857,-0.013768630958312,-0.965512747723044,-0.00946219367162422,-0.181243141782895,0.1163524178006,-0.359170642024647,-0.0550158690224502,-0.969248867611942,-0.12820524684798,0.0287790500816081,0.212062544029874,0.4465915037913,-0.119818798016212,-0.983078455875311,-0.186242014324702,0.0717376249919968,0.161604148314146,-0.0490522327678526,-0.0289131792368005
92.03,-0.490404238949488,0.11516611124341,0.850336780707929,0.00217234437843966,-0.0155278152094394,-0.0111770906498662,-0.969617118627259,-0.0159524936558079,-0.174679290026428,0.105705000045293,-0.363467407892145,-0.04607052969063,-0.970786210729529,-0.129536241116433,0.0315690858031726,0.206143510974028,0.466352090977554,-0.132608137653952,-0.976589581336321,-0.159602867948982,0.0804529039162747,0.117454162542943,-0.0537570417435865,-0.0360647105189066
92.035,-0.484539674133106,0.120040614446383,0.840421074540591,0.00436395358031069,-0.0228829238341187,-0.00683173424989889,-0.973474514200573,-0.011804490196559,-0.165225622553209,0.0879317735596422,-0.35479729171267,-0.0344014618321722,-0.983974673669208,-0.134318002705206,0.0448836320707393,0.240425348449167,0.479182573624786,-0.140395229560332,-0.970163583109796,-0.130286213050892,0.0892712130486404,0.0746359407532565,-0.0556606032071889,-0.0382602099152833
92.04,-0.469787298214525,0.128945023494391,0.844406305871934,0.0106750121904304,-0.0186755535656156,0.00263485286343947,-0.975509099586455,-0.0175822316271941,-0.15334121933069,0.086880017350691,-0.342176217205256,-0.0270391635588616,-0.990114326717875,-0.140949559367096,0.0497320621929002,0.301439744877123,0.411856331579901,-0.128823529704017,-0.962634219140554,-0.114121868674756,0.0913870387367179,0.0493377087065936,-0.0535524174711525,-0.0414224885193378
92.045,-0.473961638867283,0.129470539839512,0.8503921402334,0.0152257236556866,-0.0261631146303647,0.00765725531594533,-0.975040536505129,-0.0244954221891023,-0.143972804280854,0.110547106541779,-0.332213614058798,-0.0205408113760234,-0.982043015020941,-0.130851054612106,0.0555172586737535,0.294788534948061,0.409257369287615,-0.156603161607378,-0.953034685742466,-0.0894529465966625,0.100894931873287,0.0188798725531664,-0.0466147873660926,-0.0359908125324764
92.05,-0.478870766822628,0.11839318200894,0.844977435209443,0.0256520315887041,-0.0318562972086887,0.0110475181078598,-0.972690971621472,-0.0282471512849751,-0.144949157498339,0.12499436017247,-0.327295902570405,-0.012933224555417,-0.973164999860989,-0.11560829861205,0.0654395185717921,0.294343420036231,0.434951776081402,-0.191544909520242,-0.946102303514497,-0.0630707599804025,0.105910114501406,-0.0094387988622681,-0.040176298016707,-0.0182995557342836
92.055,-0.479390975724419,0.116278945628421,0.840165227851002,0.0343988030570357,-0.0354373600570021,0.0161220899051399,-0.967920140077616,-0.0295650902056133,-0.148681603780116,0.144089204137568,-0.32996488204056,-0.0136225015345122,-0.977155693321319,-0.105423443812149,0.0736855790574089,0.307748941958689,0.451688015608737,-0.209694790209804,-0.945043913534068,-0.0469868451441479,0.107819412996737,-0.0314160447560698,-0.0334505417881473,-0.0150523236039872
92.06,-0.476456499907542,0.124198034667116,0.843626671142831,0.0428472722085125,-0.03554041818216,0.02467362171043,-0.965634655024195,-0.0278990396314097,-0.149553186718848,0.161558376881123,-0.32392454660915,-0.0128791438537654,-0.98776377844708,-0.0973471450925361,0.0746299729808558,0.32364279528723,0.441148592819541,-0.208476058810711,-0.946215810130057,-0.0418512272665259,0.107496512740753,-0.0451231206433139,-0.0270029550549499,-0.0275150236936731
92.065,-0.473773823873783,0.122039208854868,0.851725864855044,0.0612736799394865,-0.0305184431903819,0.0359124216072436,-0.972214084865766,-0.0221850599351223,-0.147019437901206,0.155916547155835,-0.288714223387499,0.00802847169938903,-0.989950526992823,-0.0843352049794944,0.0689206486017395,0.32433579266845,0.40722149052821,-0.199815637975387,-0.947086723869563,-0.042703449360876,0.105554665968638,-0.0559311155947216,-0.0183876402511978,-0.0411699657268059
92.07,-0.4782590501199,0.0969117674294616,0.845222123545494,0.0854271447147807,-0.0758061965488135,0.0389316039369603,-0.974154568527946,-0.0181811835646517,-0.145374317181794,0.17199611489725,-0.279669448146274,0.0050135512156505,-0.98834490175883,-0.0760314680832084,0.073585141067104,0.289803828984468,0.38324095889214,-0.194060314594636,-0.960488411577939,-0.0522667712055456,0.104947062851716,-0.0837672796372933,0.00656891859599965,-0.0517285132316666
92.075,-0.455169444973345,0.126224648055487,0.850912901411608,0.0875243872641905,-0.0299999538504787,0.0486088991241165,-0.980637997445293,-0.00311770421790822,-0.144864795575459,0.171604960288586,-0.268094835835172,0.00682708617798615,-0.993632610870977,-0.0736604278042857,0.078649697237582,0.25079351880158,0.372275253836418,-0.195812673166512,-0.969875190932521,-0.0664301587557937,0.0937916591849019,-0.0839389097958316,0.00813602597413823,-0.0560909942925626
92.08,-0.4616750977629,0.139606361283,0.85565979891953,0.0872022774158961,-0.0115947411141949,0.0557301702110539,-0.980284800611993,0.00963978406866872,-0.139067118475386,0.166544183210862,-0.257910359722154,0.0103503641237403,-1.00185068968517,-0.0661651789953633,0.0786757751844313,0.215427230732174,0.357874034513267,-0.197042122483253,-0.979679961069098,-0.0825118320346264,0.0865326527984323,-0.0845777254617892,0.00894719437206335,-0.0606233068305674
92.085,-0.484280496803306,0.132316611763012,0.854545871679728,0.0846820871460867,-0.0320376950552433,0.0549658909023189,-0.976931699252004,0.0169875499789182,-0.132082090793251,0.158419468248481,-0.245846427691192,0.0123201034433793,-1.00844002040809,-0.054237659356841,0.0685110566313049,0.188393041766413,0.335444232255683,-0.194740191193663,-0.987126204903963,-0.100414888846498,0.0827172179508629,-0.0828020439500352,0.00695317019577969,-0.062930389063961
92.09,-0.472667176006447,0.138499550617111,0.850045356052974,0.0744515844612486,-0.0360245872750465,0.0485521233589285,-0.980569482180463,0.021853055600503,-0.132704823094539,0.144496369317374,-0.22841930346336,0.00985751941977126,-1.01030924625334,-0.0412434256802326,0.0513583611523248,0.170046265082676,0.30973646691926,-0.189100317840474,-0.98960063527207,-0.119367564874976,0.0770152236609735,-0.0745558832429616,-0.000924902384708239,-0.0592790345123638
92.095,-0.473095323586446,0.145895583291213,0.850484049357659,0.0701545752905094,-0.0338760826362333,0.0516259072119178,-0.981312596515806,0.0250454211008633,-0.135332851404404,0.119084471458362,-0.216700030808193,0.00566776760212522,-1.01563907057319,-0.0217712143828526,0.0486271207822371,0.153178902267218,0.298002975154075,-0.185957280806057,-0.990545716340005,-0.137153683020336,0.0657702702666519,-0.0701249038917911,-0.00722473286850877,-0.049797784378988
92.1,-0.473787754089826,0.149757705285951,0.847929297291546,0.0643795708294154,-0.0309885774707526,0.0477759052161664,-0.985502273062629,0.0271968625054971,-0.134131911756034,0.0988719705192018,-0.205150021886005,0.00374276807171636,-1.02407805264374,-0.00922890797080018,0.0457091527853244,0.14033590417592,0.286147881454695,-0.183981435872767,-0.989099922707657,-0.148719317945571,0.0649318230108622,-0.0631781064811765,-0.0121867310189478,-0.041858581286072
92.105,-0.479678236387299,0.158259658171326,0.848028746612207,0.0654573580144496,-0.0391108412078485,0.046177285991031,-0.987045753608834,0.0338988548840365,-0.13227020731988,0.0812671341863158,-0.194404419354956,0.00328513421118259,-1.03172711677595,-0.00691611624342952,0.0510345715811094,0.119716935494563,0.278101259400824,-0.178650137548832,-0.981100650902802,-0.165080490429913,0.0608479152453933,-0.0525807459856408,-0.0190211942568868,-0.0268070069318742
92.11,-0.479470016241904,0.161157741778531,0.848916064325488,0.0628305206295332,-0.0420698514051778,0.0452759257695112,-0.987001705528645,0.0408432591045164,-0.132373405636026,0.0615425852599201,-0.183698717388633,0.00178777460932294,-1.03130603667344,-0.00773563794591227,0.0561333958333819,0.0964655188009466,0.282596498119119,-0.176273316144943,-0.980570569422412,-0.174321202015209,0.0626887723732272,-0.0507486108648837,-0.0177671421510594,-0.0133757455855572
92.115,-0.464447623153986,0.150464851370411,0.84941411012338,0.0457384205178462,-0.026477969492622,0.0427991555225342,-0.985964846356322,0.0460086590673436,-0.134051934309575,0.0387389529594921,-0.173234128866214,-0.0006477291157671,-1.02790891165,-0.00815312206102575,0.0595208120978264,0.0743993150133618,0.290036867379703,-0.174904661927342,-0.984524537707996,-0.177982341270867,0.067283295093599,-0.0513532811078363,-0.0149354235592625,-0.00253545641600397
92.12,-0.47427363699686,0.161982532692329,0.848810873625036,0.0247598825796452,-0.0254789978780063,0.0298124392399029,-0.981817349475466,0.0447880046790849,-0.136480413138339,0.00877194720994103,-0.165242930378929,-0.00264553026055243,-1.03427792458556,-0.0044594476731996,0.0613208584696591,0.0604657790763812,0.27610334661675,-0.166942643126099,-0.987110096243449,-0.176790607070772,0.0683226721827645,-0.0403995451726836,-0.0248933686309907,0.00443510391962301
92.125,-0.481388270563165,0.155201413647213,0.849842602061178,0.0179027316425769,-0.0253767967224121,0.0256572685786909,-0.988620413788181,0.0393251055321945,-0.140584368072252,-0.00632407123226228,-0.154971022372341,-0.00377940682422164,-1.02550211471951,0.000249923575425355,0.0530098913530993,0.0567195180146313,0.253539335334882,-0.162538134467392,-0.986192223548654,-0.172557347112484,0.0696365466821386,-0.0339336995399748,-0.0242200090058092,0.010764289238378
92.13,-0.481241259657314,0.155097222204972,0.845588792019202,0.00692131705350444,-0.023902357945384,0.0196581953669527,-0.990994622171767,0.0333771319005216,-0.143918389933286,-0.0158064581491257,-0.142517245484633,-0.00329137980746437,-1.02068195194007,-0.00340223734984058,0.0416843853141043,0.0552385210617197,0.244515326187183,-0.163187261000512,-0.987936037731517,-0.165957112109146,0.0719548682635116,-0.0351189331346254,-0.0256302376972632,0.0176636313359439
92.135,-0.47946131920602,0.156687883776548,0.842278188148372,0.000623144209384918,-0.0224326262827844,0.0167676505248692,-0.987999245842557,0.0277228031236689,-0.148111297883059,-0.020066928357383,-0.137465019256871,-0.00385563682119122,-1.01752059837983,-0.013789822920553,0.0289605002602663,0.0548039637506008,0.246922643775152,-0.165773908929275,-0.98804537916131,-0.158050480527469,0.0802398749331127,-0.0345833342327861,-0.0264567136764526,0.0181892100132214
92.14,-0.480580108585213,0.153707751441532,0.842013875233945,-0.000991531689924345,-0.0244028355287556,0.0161430021148936,-0.981629576667284,0.0226399372843093,-0.152919174886229,-0.0196416145717974,-0.137462534986452,-0.00668030191539835,-1.01217403705041,-0.0254763635118785,0.0143840977463975,0.0551563956887579,0.251058815937338,-0.166311722576199,-0.98934058298213,-0.148857582958695,0.0892266119189162,-0.0341826637207211,-0.023850783922816,0.0141804096445213
92.145,-0.486758635516012,0.142347695188417,0.842817956013038,-0.00680906064349831,-0.0343368097956348,0.0105637974544106,-0.975030924967217,0.0185459488633998,-0.155814872940876,-0.0161180380443964,-0.132070605915715,-0.0113752000033855,-1.0029984970651,-0.0339906387409198,-0.00119101683915498,0.0553612173585031,0.248583911572336,-0.162834674119949,-0.994861550836882,-0.138656499335784,0.0929585559625128,-0.0385184754983275,-0.0171230691956407,0.0090628200205053
92.15,-0.483819964991129,0.139676964338801,0.844907769934753,-0.00783879342152369,-0.0384557409077363,0.00232593248275471,-0.973996397188321,0.0158230754338661,-0.152361906745553,-0.0181765108078278,-0.125895187625421,-0.0113752000033855,-0.997645079467843,-0.0456836794258935,-0.00713203429369821,0.0501209364843213,0.249631961355534,-0.162834674119949,-0.997562490081417,-0.130014889376922,0.0983297396449322,-0.0447819594856272,-0.0119034992062243,-0.00242023713939954
92.155,-0.480771059797717,0.143551731262239,0.84694783216924,-0.0108612922841966,-0.039792957586826,0.00453911208402231,-0.968016983610565,0.0135779427410405,-0.153322588439361,-0.0232874457108628,-0.122462453029859,-0.00840018323097167,-0.989322576259404,-0.0650449448699914,-0.00546965542236847,0.0266902262420678,0.246643101892328,-0.153745859427806,-1.00394624326637,-0.123951508690974,0.105140018526143,-0.0521036926475847,-0.000492796317862391,-0.00368350560212231
92.16,-0.48120851361273,0.140053309828785,0.849573634181847,-0.00757216524027726,-0.0424501111329783,0.00366296558484405,-0.967659552262556,0.00837170658472085,-0.151471612621268,-0.0260740664545009,-0.111953329851963,-0.00525535316119948,-0.986040858789861,-0.0741665602406165,-0.00254843123086399,0.0168164336497042,0.241005853299742,-0.151005795590598,-1.00642466277187,-0.112536204810863,0.10409520230273,-0.0577296706326292,0.0101768680789016,-0.00643798283281666
92.165,-0.48218302838274,0.129029341356278,0.846170647940518,-0.00424064751833171,-0.0449468972149542,0.00469525494379595,-0.966783072860823,0.00360407129535764,-0.149736872893119,-0.0256084435846924,-0.100749534047944,-0.00404503382742405,-0.985577895961888,-0.0823097584261329,0.00487409659900222,-0.00505287786493406,0.23542064061908,-0.142149999341604,-1.0088801749638,-0.100397697734305,0.105001453629936,-0.0656155641488849,0.0199039333789087,-0.0122441376782302
92.17,-0.480792522100527,0.123810251996732,0.844874563625827,0.00301981841727305,-0.0449332490711271,0.00891801845173541,-0.967273186103083,-0.00572936294236201,-0.149724903443396,-0.0290232412700244,-0.0890587794199584,-0.00112687122437625,-0.981916953098889,-0.0913277103788098,0.0121444203250712,-0.0280000892186394,0.226731684315756,-0.129347431419692,-1.00800468802113,-0.0933735853387697,0.106641213715237,-0.0738463865170943,0.0267289135530901,-0.0189062287919688
92.175,-0.477557130451166,0.129985899767758,0.851671737250873,0.0158526382825715,-0.0421959328097935,0.0153886762906036,-0.97322751380464,-0.0188092274271361,-0.150603894246751,-0.0349254286525532,-0.07887850989164,0.00357500675638479,-0.974477759700901,-0.0980937815885934,0.0150083198127806,-0.0356683545079646,0.218631341191172,-0.119427254816829,-1.00410169485097,-0.0893766706997145,0.107058874835931,-0.0812412035735717,0.0292694021090464,-0.0255479608746638
92.18,-0.479841210458845,0.12875948716223,0.855793619445816,0.0197852247417118,-0.0402296410791681,0.0262032845564054,-0.989444535815561,-0.0148830237664758,-0.148636287451748,-0.0162592604712218,-0.0857555170142423,-0.00231957377297972,-0.971263120775722,-0.0976605326149035,0.0139858867562383,-0.0251500044342338,0.227237255761615,-0.116558608851309,-1.00415282208019,-0.0778468028640471,0.108239258383621,-0.0898619298895745,0.0273536864480587,-0.0341686871906667
92.185,-0.47798166690867,0.132008963897817,0.85228076457138,0.0127755004257389,-0.0307936837851068,0.0291108125703542,-0.995929012588045,-0.00556304296027845,-0.144353693713021,-0.0259344055089562,-0.0684984365935533,0.000933462666777747,-0.982371017307842,-0.104150545064131,0.0236254759532831,-0.00734495593055862,0.224805327594975,-0.117369255070355,-0.998796039199917,-0.063823412085098,0.104811711709956,-0.100865509549068,0.0214329550541061,-0.0373524109583786
92.19,-0.475917673512237,0.150460431322658,0.857925983574969,0.0133395850051799,-0.0254658778225459,0.0314712435219379,-0.995615743884207,0.00998946763312755,-0.141823822492557,-0.0227198085831072,-0.0571269331584247,-0.000338207127607629,-0.993210517902314,-0.105057262854183,0.0310471198421263,0.0060709131961449,0.214710058158723,-0.117011519799022,-0.992155402351164,-0.0574118107873776,0.101679556143577,-0.105459659497303,0.0136082880312378,-0.0419006816056621
92.195,-0.473644387521444,0.163794893870881,0.862380407670715,0.0222114759032477,-0.0238464168879034,0.0329140912904023,-0.994161767077492,0.0242892306675404,-0.139486336902842,-0.0182978207764992,-0.0492256143445022,-0.00234091456226465,-1.00411600483312,-0.10348090278668,0.0329971109972123,0.0172750093600678,0.201232566660431,-0.114738115164499,-0.98695122239349,-0.05299551773645,0.0971434817835455,-0.108409699662289,0.00536518422015282,-0.046906182329176
92.2,-0.470369677616755,0.141145866820391,0.849786126692655,0.0463419659033885,-0.0277072941106353,0.0309836526790363,-0.995996029755515,0.0282936270016601,-0.135480645451549,-0.0279511077900064,-0.0424683154955384,-0.000410256276495503,-1.01573920173175,-0.100773252287859,0.0231394918551947,0.0269265633521608,0.185657135550545,-0.10881424379764,-0.985428619685072,-0.0484118113592818,0.0892939350444392,-0.111907938840368,-0.00339315389465767,-0.0517194513760185
92.205,-0.465296870387941,0.142552909209363,0.849169140703624,0.0287251280891381,-0.0288380896633847,0.0248197379510475,-0.993171630940565,0.0289755948396518,-0.138780286595885,-0.0353244643906118,-0.0341087298687424,-0.000379949808120728,-1.01876310946471,-0.0948785644499724,0.00396373723766829,0.0320564650921049,0.17437134546566,-0.102658355452699,-0.977019960456033,-0.05734644290218,0.0851642627895646,-0.10883455775756,-0.0249068777040667,-0.0547928387065767
92.21,-0.46944430623413,0.143582049603733,0.85160500169941,0.0292427730262903,-0.029879024087736,0.0244341868361695,-0.993977559081477,0.0201852373352798,-0.142541852545401,-0.0460139851123091,-0.0385447206966639,0.00217263633546824,-1.02082371845801,-0.0825186326311367,-0.0114364357963323,0.0519820891241597,0.169220744634559,-0.100878655678255,-0.977279927761594,-0.0602887967863252,0.0906078073804741,-0.109329929291777,-0.0303523341158976,-0.0480582955356312
92.215,-0.473630988238747,0.140400964570625,0.848632779322187,0.0288733567003728,-0.0279714215430402,0.0257355927715358,-0.995830473585081,0.0152566773755495,-0.147805019731336,-0.0463478873817257,-0.0402042353994735,0.000476192327455069,-1.01639214721244,-0.0758043528613244,-0.0190546455669956,0.0678217255596506,0.170688936057087,-0.101006555568824,-0.979028689584699,-0.0672567645298699,0.0924210174701725,-0.105229838827653,-0.0323280395977136,-0.0429538371879765
92.22,-0.476524600123083,0.134902132695382,0.842100121536589,0.0252345558375725,-0.0243326184610949,0.0271911122289979,-0.997808725808153,0.0136307628209826,-0.153859408705449,-0.0405248126850066,-0.0387484678350554,-0.00389111258532257,-1.00865907710678,-0.0726214448466131,-0.0229524503707785,0.0801939990406358,0.175055627342164,-0.101734335970198,-0.980875221639072,-0.0765710905579001,0.0918233236398243,-0.098686320814946,-0.0337821547116485,-0.0393185494031391
92.225,-0.486662363339388,0.141807279235906,0.845667179190151,0.0392114376603733,-0.0352764147205898,0.0222069759309983,-0.984124751392319,0.000334185380003472,-0.155205396476045,-0.0392941195431242,-0.0243406477895383,-0.00609596336128519,-1.00419903956812,-0.0710296923674876,-0.0270414621643045,0.0898205690989592,0.176189457541074,-0.0903087188234241,-0.976209415740246,-0.0705849530574292,0.0948272159395785,-0.0944220590624902,-0.0168148693932745,-0.0350637406759778
92.23,-0.479463889320378,0.121976675378869,0.851527851678231,0.0453986302806882,-0.037593737244606,0.0235820549669027,-0.976871659192067,-0.0177218939085638,-0.158575279908134,-0.0572804390192358,-0.00860590403221407,0.00823078093952911,-0.999482514187461,-0.0781106128103764,-0.0251651527039639,0.0844128083727252,0.178131547589297,-0.0883113220334053,-0.980681466250446,-0.0751353725112191,0.0955898278301147,-0.0910814928308706,-0.000755784945141521,-0.0200370525553343
92.235,-0.474874677275463,0.107389762160614,0.853679349438471,0.0538777363900654,-0.0431820860837125,0.0335117183138375,-0.971893162204887,-0.0422100151034547,-0.161406545772256,-0.058779677912789,-0.00857806331764797,0.0189266739930936,-0.987799520968761,-0.0854217949223602,-0.0255674940264666,0.0708418099702793,0.178814440965652,-0.0869563926136233,-0.984705986074668,-0.0805459133462088,0.0996508454907579,-0.084543210697921,0.0117443946897656,-0.0106953560244392
92.24,-0.474966002640425,0.105410940898404,0.853778189433836,0.0663633297716305,-0.0399993008401204,0.0509642366605998,-0.971213489776195,-0.0623318159315825,-0.161729665427316,-0.0490965177656936,-0.011643061652848,0.0228322464972734,-0.973742802607368,-0.0888166041812524,-0.027506793613692,0.0534835507126952,0.180256201191426,-0.0853873432791815,-0.98875573916474,-0.0842097624263623,0.101253342289177,-0.0763306583301307,0.0300523780493117,-0.003032573397519
92.245,-0.475862212697906,0.1087340064558,0.855507014400577,0.0807797613983024,-0.0220681246953368,0.0718707984928143,-0.974644658818731,-0.0662775192764962,-0.162053880346034,-0.0315732124878047,-0.00544967495976034,0.0216239956715857,-0.965733319034597,-0.0895548433432069,-0.0249735865972538,0.0420467464110717,0.178990466264626,-0.0862321650299667,-0.992475062178673,-0.0831333240349413,0.0971920106047886,-0.0678764750500994,0.0517648731143591,0.00580597784338584
92.25,-0.479437860292551,0.110790425866242,0.858687502745452,0.0969867366805725,-0.00991289570461502,0.0921295101827095,-0.975814104865108,-0.0506739613227442,-0.16588539381729,0.00331548682044849,0.00872316333220401,0.0169950582147838,-0.970205192108397,-0.0924402894773158,-0.0125564734346682,0.0473532347393412,0.166026755462884,-0.0917192277213898,-0.992522129513058,-0.0746581563304064,0.0922057156558093,-0.0614660820840579,0.0643341916283678,0.0114655899685682
92.255,-0.479289733303715,0.130727398707286,0.852754454669861,0.117506997157908,-0.00466495955696458,0.109626251380286,-0.976931795060451,-0.0246209084359021,-0.151239026095902,0.0376940060839856,0.0255126722120021,0.00979955397381641,-0.979132537285734,-0.092082493416395,-0.00175423007872374,0.0465462047443818,0.145851000667174,-0.0981754676810652,-0.988974896311481,-0.0649456365675694,0.0950861899641071,-0.0655169265771607,0.0813477434402673,0.00822491190365209
92.26,-0.475889254598836,0.152206717880108,0.848343655342869,0.128317112236932,-0.00400610338309477,0.115826006331481,-0.985853260287079,0.00381447759553421,-0.140872927241684,0.0640051478564832,0.0315262411369166,0.00695021729916334,-0.99737266388935,-0.0888336917081734,0.00936716310419123,0.05159353271372,0.123141903177027,-0.105869689884254,-0.984742997107057,-0.0606935944842844,0.0956462802606407,-0.0703420774857712,0.0961076684517587,0.00505300466892049
92.265,-0.47281789893828,0.161921802230968,0.848147155830285,0.131820665459537,-0.00715483972535122,0.112677273659849,-0.994933457454465,0.0260670267363231,-0.136097213742051,0.0818794411133933,0.03006256483785,0.00782708093129147,-1.01891732913709,-0.0845945318945585,0.0142753452436845,0.0579120015909477,0.100496244123765,-0.112659743989515,-0.980797019277052,-0.0555011888332609,0.0918902942154103,-0.0749738992072115,0.102060697939597,1.48287670391663e-05
92.27,-0.473278039037019,0.16078922274647,0.849239052155195,0.134443506299523,-0.0119381546974182,0.105441140688414,-0.996007362642694,0.0371986809364389,-0.137983259096944,0.0958537130188758,0.0270920296984957,0.0107976166677429,-1.03383708109819,-0.0793838269591057,0.00858476205101181,0.0644447311713697,0.0845084684042823,-0.118529665217974,-0.978385113943476,-0.0486576380856011,0.0888785896056264,-0.0809840025196303,0.103429949364957,-0.00664316796709246
92.275,-0.478284670213761,0.164745507989095,0.848981549187395,0.131592100304563,-0.0119381546974182,0.0930850673651967,-0.990579666336762,0.0433559983208948,-0.151641487238793,0.110121835350442,0.0204335724170646,0.017456073949174,-1.03557307650713,-0.0689686586355638,-0.00758346688428176,0.0786737642020536,0.0835598667807475,-0.127067079829786,-0.978296432604471,-0.0479614889964561,0.0965827231362497,-0.0923562803539412,0.113854532081825,-0.0123293068842479
92.28,-0.476265986515719,0.162212398410133,0.844047359757986,0.127030157455829,-0.015389594942796,0.0885604883129718,-0.98819003587136,0.0516627650362743,-0.158292420323719,0.123662629780663,0.03600545561678,0.00545336553147253,-1.02512687794418,-0.0545297274278494,-0.0249286468352263,0.0866206748579387,0.0945964773438043,-0.132019790674749,-0.988759614952235,-0.0460667005338784,0.104515713716691,-0.109498139980308,0.122508932311792,-0.0190178428998755
92.285,-0.479612198214247,0.163798433416498,0.839435095787814,0.118879947851459,-0.025723386378996,0.0814047177959558,-0.987383843764649,0.0588749698946759,-0.158669311451821,0.117041055646872,0.0485424435680197,-0.00246213658788101,-1.01053266174242,-0.0395466362140365,-0.0385836662901723,0.118381932786243,0.0893031339818326,-0.133514001965523,-0.995394423997981,-0.0531906564478528,0.115930152627369,-0.121593735889144,0.129966059687243,-0.0280279658234162
92.29,-0.47921494884386,0.168345154771379,0.838799429484919,0.110032055278069,-0.0313683873989583,0.0710093572579274,-0.987832087369082,0.0588095556887111,-0.159368951224024,0.0951787331866318,0.0510699463683735,-0.00570696760432535,-0.991636519816114,-0.029053932203118,-0.0462961898782447,0.158379540946323,0.0782055011561217,-0.133514001965523,-0.997262197542547,-0.0591447491037616,0.125994072913934,-0.132500118049388,0.139799351345119,-0.0308082401618342
92.295,-0.473126447491175,0.170189915638645,0.84276843423273,0.103429843801444,-0.0257686126961967,0.0618845020235486,-0.987169011938726,0.0492944374485059,-0.162423684161587,0.0699743372104309,0.045156610340619,-0.00715315587217773,-0.973439081700308,-0.0252765159079651,-0.0473814522244837,0.186983025180202,0.0729576896670796,-0.132097678436268,-0.999339086405514,-0.0619337602667002,0.130449437981648,-0.145282006070369,0.151781873178822,-0.0263182727752983
92.3,-0.483638743036183,0.161124917621271,0.846407992839023,0.0982307961037395,-0.0216406463099367,0.0638916396434836,-0.980070500234468,0.0359540857889432,-0.159145632638451,0.0548900547763129,0.0432389084855298,-0.0103185670553787,-0.968649399404429,-0.0251230301796128,-0.0434825786444585,0.188520511356332,0.0799123547535356,-0.125714773622912,-1.01168246796064,-0.0704916676103492,0.126941837295743,-0.160464191827263,0.160798746761201,-0.0233406639554802
92.305,-0.477776938800307,0.156908994916149,0.849840509570419,0.085529766772952,-0.0145845236853018,0.061774800704482,-0.979019388143404,0.0248044567012635,-0.166568702671263,0.0513592707442792,0.0467696925175635,-0.0173801383493535,-0.977157830436432,-0.0179724176407004,-0.0456557268931238,0.203353790412664,0.0813956871822546,-0.11310648642503,-1.01845633258316,-0.0687829018813902,0.119572541302093,-0.173062636739355,0.166727424592984,-0.0218584944975345
92.31,-0.47461904167077,0.156730570544138,0.850470062135361,0.0728671157877347,-0.0121205798805232,0.0605396288590241,-0.980238736629995,0.0180699631794983,-0.173289987769978,0.0507043566396752,0.0489581412972523,-0.0242106936713973,-0.984257880150928,-0.0116346453586236,-0.0554965316356101,0.215496434979962,0.0842342427704028,-0.103094626804198,-1.02373041162885,-0.0654247337149256,0.112227838582729,-0.179708873056921,0.158899965444028,-0.0209813229739666
92.315,-0.478487891519575,0.166323684544109,0.844705531853186,0.061038860034943,-0.0200440146487654,0.0609120587460325,-0.986730145708654,0.0226838160478679,-0.178319476882694,0.0568365599561097,0.0472724179142245,-0.0302144411393769,-0.990297703636365,-0.00509705074494042,-0.0767839895038643,0.222975259655278,0.0911261539926681,-0.0988840273729547,-1.02627830817621,-0.0598987530755514,0.103966571667642,-0.175578985308829,0.131036212246866,-0.0204464178415756
92.32,-0.482552521012192,0.170474345538614,0.845819098303089,0.0550526931492398,-0.0160532387531304,0.0559235888764887,-0.991805471686583,0.0322303995483607,-0.183350319410272,0.061976138065433,0.0411049279443204,-0.0343261058209178,-1.00243693127863,0.0092877160362891,-0.0951122970360128,0.228031279507663,0.108316564755568,-0.103940034891599,-1.0262542507539,-0.0554243344221796,0.0912555269445116,-0.161433347516516,0.102744924338228,-0.0174152097432228
92.325,-0.485976374557589,0.170728617946954,0.846697660679563,0.0431085169640302,-0.015603244304657,0.0525438004894262,-0.999527617715349,0.0411820606713804,-0.18486889669759,0.0651861333500366,0.0368684773108939,-0.0317040166852919,-1.00692203864701,0.0152888951376139,-0.110582446823121,0.233233373921142,0.109177842736244,-0.10914212868713,-1.02174043865172,-0.0520702380934969,0.0820797737072797,-0.140826586397547,0.062538655604325,-0.0193307302018958
92.33,-0.479972534272228,0.163946242439049,0.846185568781337,0.0440432913659043,-0.0192081753946183,0.0495330501685767,-1.00395875991025,0.0479504671977191,-0.185615253202895,0.0651938360618051,0.0242162113051098,-0.0316963147563231,-1.01338833884672,0.00879147194346769,-0.114454283073493,0.209766071422777,0.111561099246545,-0.118246013030654,-1.01549612973259,-0.0453117484229599,0.0765796881910111,-0.117056400584069,0.0217064714240636,-0.0221947771840836
92.335,-0.475960476469086,0.161154974648679,0.844501553821555,0.0449647634644536,-0.0217117071151733,0.045948158146861,-1.00409554931875,0.0454792013296879,-0.189498780543852,0.0573241689675611,0.0146461839700518,-0.0355695350171042,-1.01128697087365,-0.000436649655665164,-0.108069835491969,0.157370079064946,0.112842924892902,-0.123687440255068,-1.01067238930024,-0.0415401344076372,0.0740183775330994,-0.0957866021597046,-0.00792776283424845,-0.0276358847579366
92.34,-0.476935470324108,0.163538837624435,0.842710904562578,0.040341173765187,-0.0224395399196271,0.0409606520453675,-0.999520356613872,0.034428216041179,-0.191309640210432,0.0454636839965724,0.0113923158496618,-0.0402298254649478,-1.00151369454993,-0.0114752480124459,-0.0983837302011359,0.0985922056520878,0.110490517249809,-0.12731456375319,-1.00647851957649,-0.0361465326627309,0.0755349628909487,-0.0807204005302221,-0.0228015560666948,-0.0340292828045022
92.345,-0.476031514448606,0.16274130357212,0.841961829536892,0.0362646145178047,-0.0250044191025297,0.035176990617618,-0.991034162264571,0.0217872501815119,-0.185474451975509,0.0405862963735249,0.00822197882373686,-0.042370467626191,-0.992674434859984,-0.0269539883950922,-0.0943547272635711,0.0537548904425968,0.10479125219397,-0.133254326544706,-1.00106766030207,-0.0265244322416311,0.0811784113892795,-0.0747481953388363,-0.023683964736498,-0.0388605738112197
92.35,-0.473112008352128,0.160568993864076,0.840861638186209,0.0371359438421455,-0.0289958594775389,0.0321949136047073,-0.984269633100033,0.0171213824589353,-0.183236210483167,0.0533957368854749,-0.00608278073401358,-0.0440514721925708,-0.992503972136391,-0.0429326570430256,-0.0990385067240207,0.00815188365324401,0.10230537881227,-0.137865642621994,-0.995563824697725,-0.0247035656598926,0.0856297609440533,-0.07826806397862,-0.0162176143937616,-0.0424062760097309
92.355,-0.484987082736251,0.160880626049581,0.842281928185021,0.0340868157131726,-0.0279794906660485,0.0332112886146268,-0.980650309964573,0.00444376546181609,-0.190406261307466,0.0676108922623898,-0.0121749919504879,-0.0389746320922954,-0.985257069232347,-0.0486038432408485,-0.098494126746544,-0.0114280004319439,0.10848849712537,-0.147140326376335,-0.997018125015673,-0.0206284053663885,0.0867489855989433,-0.09579748151397,0.00234294497963925,-0.0496242751645724
92.36,-0.480803591671455,0.16233530972396,0.842809148800288,0.0353167304668783,-0.0337976148854707,0.0308088419178189,-0.983206466017163,0.00612797059542572,-0.190698994906871,0.0843967361246429,-0.0182523334269913,-0.0347786419314496,-0.977811159291411,-0.0522105101406495,-0.10401346518878,-0.0208202613147906,0.129904673966155,-0.153581343510905,-0.996051231447336,-0.0128297022106149,0.0902678463421713,-0.122283257703974,0.0206455781956036,-0.0549019729213814
