Header,foot_Accel_X,foot_Accel_Y,foot_Accel_Z,foot_Gyro_X,foot_Gyro_Y,foot_Gyro_Z,shank_Accel_X,shank_Accel_Y,shank_Accel_Z,shank_Gyro_X,shank_Gyro_Y,shank_Gyro_Z,thigh_Accel_X,thigh_Accel_Y,thigh_Accel_Z,thigh_Gyro_X,thigh_Gyro_Y,thigh_Gyro_Z,trunk_Accel_X,trunk_Accel_Y,trunk_Accel_Z,trunk_Gyro_X,trunk_Gyro_Y,trunk_Gyro_Z
0,-0.557088789189886,0.236629012967108,0.797063816752129,-0.00201805475722256,0.00307176133872673,0.00941760891206634,-0.994676255918976,0.0466377457169363,-0.0941094900291717,-0.00964857614675536,0.00973581027826032,0.00140551146604507,-0.997442478878645,0.0498012902904596,0.0558765474590972,-0.010145893653874,0.00487459515752239,0.00112990550039891,-0.980740884343728,-0.0774393567014856,0.182355458857271,-0.00734643996975846,-0.00808615709223075,-0.00129914965769665
0.005,-0.557205923848151,0.237025524731553,0.797644249280466,-0.00210099215838105,0.00282991297660028,0.00960817398735022,-0.994906877885918,0.0467481078080975,-0.0939770510696006,-0.00986941771510522,0.00989036521669953,0.00144553322924078,-0.997667842993557,0.0501587257050903,0.0560078421450713,-0.0103705729722809,0.00497825254477427,0.00119543456537432,-0.98106917508543,-0.0776751761026351,0.182312454224939,-0.00755637211134563,-0.008192943614925,-0.00125772680884616
0.01,-0.557322363667682,0.237484807611647,0.79867928396356,-0.00225474997016183,0.00224434159653382,0.00992786816005612,-0.99534215209563,0.0470621902633332,-0.0938868521085727,-0.0102514438059836,0.0101346945684732,0.00152871893499519,-0.998149305850677,0.0502311934439468,0.0559225321087508,-0.010755215670937,0.00516543398363782,0.0013179605735602,-0.981490510515478,-0.0777357500354963,0.182381351653827,-0.00795231938953808,-0.0083548322771577,-0.00115268551858499
0.015,-0.557308539732198,0.237591017417077,0.799494058164706,-0.00238118254010467,0.00147284716682653,0.0101241270795751,-0.995703034660786,0.0474516441302143,-0.0940119325460509,-0.0105123762422168,0.0102538274445616,0.00161689050168061,-0.998607787029784,0.0497073008481443,0.0554937634343144,-0.0110087529328429,0.00531257394902002,0.0014215105900609,-0.981637111766176,-0.0774247774262697,0.182660517334634,-0.00829548839855709,-0.00841673285865747,-0.00100480769795338
0.02,-0.55727247500031,0.237620302504234,0.800124849961452,-0.0024760450159494,0.000555302395294434,0.0101993338908248,-0.995971299848942,0.047774338550499,-0.0941298341890175,-0.0106519556134295,0.0102624218474405,0.00170735500238902,-0.998947506945524,0.049282214361482,0.0551235999249635,-0.0111326591444691,0.00542043369014767,0.00150116922701652,-0.981732678272099,-0.0771440310637702,0.182961807629664,-0.00857961093395276,-0.0083928488280207,-0.000821217343716416
0.025,-0.557220657450716,0.237562448082126,0.800567996475787,-0.00253761703441407,-0.000469151846704477,0.0101600866564293,-0.99613727573964,0.0480197931017184,-0.0942474425678477,-0.0106752418815628,0.0101803893212077,0.00179690954078279,-0.999153560064255,0.0489567071315486,0.0548248334106389,-0.011134189503459,0.0054911984620709,0.00154905562736489,-0.981790264384799,-0.0768582212072482,0.183266452402862,-0.00880769334812199,-0.0083090220734542,-0.000615283033050561
0.03,-0.557140313088181,0.237398366240292,0.80083121713383,-0.00256172170726458,-0.00156829982037958,0.0100080712570176,-0.996193639016537,0.0481899981240602,-0.0943737257067413,-0.010582247556836,0.0100239381749456,0.00188387982526313,-0.999219202336306,0.0486892658172346,0.0546063610229886,-0.0110150663031312,0.00552700935963984,0.00155149969562415,-0.98179484095664,-0.0765745021150129,0.183586885870681,-0.0089856609624711,-0.00819398668592935,-0.000403783019036898
0.035,-0.557009989691792,0.237117165782586,0.800908849761969,-0.00253583801008972,-0.00270823766449676,0.00973345060564344,-0.9961416869972,0.0482930756547688,-0.0945132966157006,-0.0103586183848334,0.00979787214035879,0.00196958892488571,-0.99915098691179,0.0484311971394688,0.054468003875007,-0.0107613965313436,0.00552837082495898,0.00148982686330725,-0.981726925630206,-0.0763398136126295,0.183943731497819,-0.00910933668804444,-0.00806760633643555,-0.000201053229113216
0.04,-0.556825541868441,0.236737904302878,0.800775694390654,-0.00244356730406323,-0.00384005398213632,0.00932408854776642,-0.99600087052741,0.0483317931396101,-0.0946613798643902,-0.00998538645828628,0.00950064285502102,0.00205622430440777,-0.998973795112074,0.0481765820009488,0.0543948755046181,-0.0103540486653929,0.00549453765359617,0.0013464645698142,-0.981609724642272,-0.0761882850282367,0.184319329355143,-0.00916490344067498,-0.00794211612380167,-1.54163347294489e-05
0.045,-0.556600756430372,0.236301338676654,0.800409031965779,-0.00227584108604882,-0.00489067096892371,0.00878295405904068,-0.995804909612185,0.0483045934732733,-0.094806288567821,-0.00945950948272639,0.0091365534247174,0.00214254828276589,-0.998725531299919,0.047955012712701,0.0543647217752837,-0.0097906117444913,0.00542489809950058,0.00111262352239281,-0.981505198640235,-0.0761264156869912,0.18466154808215,-0.00914045209235102,-0.00783320781316231,0.000150597173343558
0.05,-0.556356980625276,0.235845086607995,0.799836687502059,-0.00203215644289096,-0.00577048145648802,0.00812921867450087,-0.995588711160601,0.0482176651524048,-0.0949395653961323,-0.00879532771437508,0.00871712601154652,0.00222397909028999,-0.998444938753863,0.0477895215726915,0.0543653946672176,-0.00908693730705172,0.00531956616161798,0.000788990360649504,-0.981477164438247,-0.0761479118494695,0.184921030547654,-0.00902825147040207,-0.00776297170328402,0.000298045416914171
0.055,-0.556133004669048,0.2353995792333,0.799164407689158,-0.00171486857714621,-0.00640901796163748,0.00738552641152024,-0.995383171415715,0.0480876915976555,-0.0950629195866623,-0.00801083271100873,0.00825586067668816,0.00229652584816568,-0.998165328358741,0.0476942982105635,0.0544002764130616,-0.00826255314976431,0.00518016913100615,0.00038028016648311,-0.981587813450311,-0.0762178160499465,0.185052725544473,-0.00882275206800401,-0.00775933161525583,0.000425568219051582
0.06,-0.555979085630761,0.234993915040081,0.798528917382775,-0.0013291401894433,-0.00679407696971749,0.00657198503484157,-0.995214136353766,0.047934140749361,-0.0951844666111347,-0.00712288159467175,0.00776943837970416,0.00235877775731378,-0.997913634186143,0.0476835982782234,0.0544789756393849,-0.00733575357236259,0.00501142223443426,-0.000108255140862758,-0.981893495295096,-0.0762812336665692,0.185014819771936,-0.00852635293793398,-0.00786147393827089,0.000521894431200392
0.065,-0.555918853620034,0.234650676373384,0.798013506402576,-0.000882663141283132,-0.00696771896232395,0.00570663750605756,-0.995096790875468,0.0477741106364258,-0.0953103952466752,-0.00614749402501784,0.00727723055743487,0.00241199522987368,-0.997708029948907,0.0477496980356385,0.0546069768606121,-0.00632383323380369,0.00482114027835708,-0.000671415217473895,-0.98240628748735,-0.0763234413403821,0.184802410548424,-0.00814876930658461,-0.00811656944811436,0.000566485314407952
0.07,-0.55593664605465,0.234386916588032,0.797616735822469,-0.000380936102834889,-0.00698387030739666,0.00480584764155381,-0.995033430326218,0.0476199820203438,-0.0954411629361926,-0.00509737673402572,0.00679401452815219,0.00246006097947475,-0.997556238965812,0.0478588558927101,0.0547771158896305,-0.00524001053888134,0.00461816937381668,-0.00130443761206272,-0.98308337803893,-0.0763808715371938,0.184456747005728,-0.0076955133679926,-0.00856374939368195,0.000538595691376516
0.075,-0.556003712063264,0.23422577814317,0.797284146348368,0.000171674164334515,-0.00687498057502527,0.00389001907090865,-0.995018255106371,0.0474770973131766,-0.0955728425750136,-0.00398732728225352,0.00632777351066874,0.00250766262452518,-0.99745733318809,0.0479809988581036,0.0549654283891952,-0.00409883046281198,0.00441082545597224,-0.00200256088911047,-0.983860268496521,-0.0764899577587703,0.184032740219391,-0.00716538920262438,-0.00922468282694367,0.000425025864931582
0.08,-0.556095608235696,0.234192208205123,0.796952538514587,0.000765408726696985,-0.00664372089254718,0.00299220053099248,-0.995040650207924,0.0473467859404631,-0.0957001477288962,-0.00284535118125598,0.00588429092636136,0.00255751243732826,-0.997404588424318,0.0481002562649657,0.0551419351511405,-0.00292794262103699,0.00420673370121805,-0.0027594688570274,-0.984673639848751,-0.0766746333038971,0.183576845442068,-0.0065581116723885,-0.0101045760372112,0.000222773540283151
0.085,-0.556191984195128,0.234289764391231,0.796590755009537,0.00138557480152715,-0.006270813570371,0.00215512417593941,-0.995084760006163,0.0472344831479021,-0.0958189149209098,-0.00171036792474224,0.00546864089061888,0.00261039460133054,-0.997386989833596,0.048203604280564,0.0552917135552637,-0.00176596985788275,0.00401292201673084,-0.00356604124812342,-0.985479722791438,-0.0769790797278316,0.183111850316674,-0.00587360682625569,-0.0111943960684483,-6.15396612015334e-05
0.09,-0.556280275905612,0.23448886043956,0.796223348406791,0.00202088924144418,-0.00573977787193184,0.00141390756966824,-0.995130789066084,0.0471523711039298,-0.095926624744758,-0.000614113115728944,0.00508330435148478,0.00266797581638549,-0.997390219557844,0.0482825160949741,0.0554231282383415,-0.000644098926195707,0.0038357300963186,-0.00441003758613153,-0.986280932000967,-0.0774729468851805,0.182615573077158,-0.00510302209414776,-0.0124798884440048,-0.00041402231776569
0.095,-0.556356532617971,0.234743492681391,0.795903067862247,0.00266878936266246,-0.00506429909804459,0.00078110564940391,-0.995159357381157,0.0471115957406613,-0.0960210122245032,0.00043296047729583,0.00472864060565286,0.00273447969233852,-0.99740020487231,0.048335944485695,0.0555531645663106,0.000428008839582549,0.00368069299332334,-0.00527582625271271,-0.987096285197532,-0.0782265593643248,0.182048649901319,-0.00422516345955539,-0.0139551934300905,-0.000815402998530658
0.1,-0.556414183189525,0.235016733245846,0.795655322095304,0.00333263383187649,-0.00428679437471808,0.000249085997378382,-0.995155409118798,0.0471133905777531,-0.0960979549787914,0.00143778835298826,0.00440427674969675,0.00281542705821117,-0.997408697795731,0.0483569435008242,0.0556867850574015,0.00145806676599624,0.00355215741582365,-0.00614283392641206,-0.987876857375425,-0.0792969012756957,0.181429327708402,-0.00320924801981697,-0.01561707972023,-0.00124047614682416
0.105,-0.556438550890852,0.235289391114903,0.795463576165382,0.00401531436280386,-0.00345149875418724,-0.000196458264579005,-0.995110359008986,0.0471488394163976,-0.0961510454420196,0.00241053854489812,0.00410851816101212,0.00291505194228796,-0.997415004357854,0.0483267138878676,0.0558129020276409,0.0024568869673763,0.00345249907951065,-0.00698271818263753,-0.9884978788193,-0.0807182724192409,0.180844154037142,-0.00201762349057615,-0.0174382572567168,-0.00165599301078884
0.11,-0.556418316435848,0.235555687825974,0.795304238846387,0.00471564209450218,-0.00258661000779877,-0.000566884988073986,-0.995025707711207,0.0472046100444589,-0.0961753717500705,0.00335568015826254,0.00383750782035394,0.00303490474807145,-0.997421267606896,0.0482315134600018,0.0559210220123467,0.00342945108091063,0.00338174448200397,-0.00776018037050057,-0.988900279139583,-0.082467249944918,0.180340707946015,-0.000609749829718051,-0.0193576381518047,-0.0020220673345052
0.115,-0.556357900167355,0.235819970470756,0.795178109284497,0.00543042359629304,-0.00170787948348814,-0.0008673152080097,-0.994916485000223,0.0472671453943422,-0.0961720993378424,0.00427316837775478,0.00358521544060741,0.00317511382843234,-0.997427274100072,0.0480794151277224,0.0560180386104336,0.00437627251837352,0.00333862890624005,-0.00844531817092033,-0.989228375117268,-0.0844281640536576,0.179824327044927,0.00104744964572249,-0.0213204493361116,-0.00230352678639584
0.12,-0.556273131262092,0.236090455253832,0.795103758827334,0.00615854336921971,-0.000828963271681229,-0.00109535225364379,-0.994804841554804,0.0473233833314057,-0.0961468842208652,0.00516295894654731,0.00334362025924915,0.00333665536094043,-0.997431667343644,0.0478914464720407,0.056120721116659,0.00529817302203508,0.00332223792103209,-0.00902996930078688,-0.989727349399319,-0.0864296233634283,0.179129770905757,0.00296700190015773,-0.0233337576647668,-0.00248434290871296
0.125,-0.556176611891089,0.236368501896709,0.795089266341192,0.00689995424263074,3.59090334099911e-05,-0.0012421512413679,-0.994705525539468,0.0473606425497432,-0.0961040381199238,0.00602437634637394,0.00310347885742398,0.00352106282085961,-0.997436856484984,0.0476773179596288,0.056231805840873,0.00619554721086425,0.00333198936769111,-0.0095261274063799,-0.990476029778405,-0.088331779589071,0.178209750851291,0.00513882558124306,-0.025458719710803,-0.00256665540283064
0.13,-0.556071977638773,0.236645365297908,0.795119481491998,0.00764966313059037,0.000876769865966824,-0.00129590568512824,-0.994618981552358,0.0473677537767422,-0.0960447962958909,0.00685036937158994,0.00285596867304855,0.00372765012852679,-0.997449677389461,0.0474268637868413,0.0563313004980062,0.00706213478800719,0.00336608891021105,-0.00994656175675567,-0.991281917388413,-0.0900589414716751,0.177208176872689,0.00753577225885223,-0.0277408753622843,-0.00255477939939743
0.135,-0.555959484234269,0.236904741742848,0.795168813569691,0.0083932445870688,0.00169106307111512,-0.00124518810725403,-0.994537274279565,0.0473378487641204,-0.0959697744980084,0.00762318476934468,0.00259445823088929,0.00395163352132043,-0.997478020490284,0.0471243654064978,0.0563919379454024,0.00788031644063445,0.00342069460257122,-0.0102894538213958,-0.991816788823353,-0.0915633651769069,0.176363601500156,0.0101169145671527,-0.0301538931842806,-0.0024427982884429
0.14,-0.555842550724063,0.237116885038036,0.795224375480735,0.00910891141946892,0.00248091538117023,-0.00108446594622369,-0.994456407051526,0.0472735540512888,-0.0958800055632466,0.00831838552545026,0.00231568645548291,0.00418486887073083,-0.997530419551126,0.0467719912347814,0.0564054619066425,0.00862507757675165,0.00349037653570719,-0.0105360953521857,-0.991835787292136,-0.0927933902773399,0.175853076940616,0.012827709930568,-0.0325941932651923,-0.00221504255891024
0.145,-0.555731590231112,0.237238169085707,0.79529846353591,0.00977924739365341,0.00324588325447387,-0.000827966381354048,-0.994386103687252,0.0471888454539075,-0.0957779454322778,0.00892340724839356,0.00202022813336781,0.0044192653895453,-0.997617783541931,0.0464008416323113,0.0563977500810011,0.00928275408280105,0.00356909881315873,-0.0106580795805195,-0.991335692610873,-0.093693953835267,0.175680427989988,0.0156070930512587,-0.0349264475969752,-0.00185936827020917
0.15,-0.555643658559108,0.237250372656507,0.79540753391297,0.0104036763726194,0.00397808276569068,-0.000517458622486938,-0.994343896898396,0.0470947705390079,-0.0956733546405263,0.00945501927475185,0.00171159922258369,0.00465048537545084,-0.997746691621175,0.0460413054306324,0.0564037362572276,0.00986886521476455,0.00365130759198119,-0.0106299080283854,-0.990519684740508,-0.0942230877186107,0.175707280420588,0.0183999156396417,-0.0370498866910422,-0.0013838360779961
0.155,-0.555595733022078,0.237205250078737,0.79553797402692,0.0109919677403533,0.00467048093698171,-0.000192276560738107,-0.994336969115978,0.0469805252362973,-0.095587474713709,0.00994151325157715,0.00139218682074882,0.00487702712587316,-0.997906716302837,0.0456787208419991,0.0564220157577249,0.0104108080287571,0.00373242047953177,-0.0104423840285443,-0.989611308563513,-0.0943650882120491,0.175792692249083,0.0211633600585926,-0.0389265118192334,-0.000819051290215552
0.16,-0.555595659546722,0.237183700417341,0.79565791323543,0.0115445076543959,0.00533017790180402,0.00015583027136235,-0.994355714864828,0.0468249395618364,-0.0955432277497847,0.010384349534279,0.00105822300927533,0.00509570294693619,-0.998072003929821,0.0452684380360887,0.0564183393395127,0.0109098665187076,0.0038082852976899,-0.0101104509860746,-0.988736093909131,-0.0941279727015255,0.175875261159908,0.0238643764647598,-0.0405623991840489,-0.000205425215168408
0.165,-0.555638997582661,0.237198316490487,0.795767838645439,0.0120498229040443,0.0059713269236646,0.000570901009531598,-0.994384185606536,0.046629976055256,-0.0955505875365098,0.0107595576546752,0.000700052632089361,0.005301059007103,-0.99821929804706,0.0447925019384728,0.056377057735116,0.0113424754478759,0.00387449825563793,-0.00966764228312909,-0.987917441439057,-0.0935320267042435,0.175965190147298,0.0264738346122662,-0.0419819335673085,0.00041934080412153
0.17,-0.555716910420789,0.237182445300107,0.795911222485826,0.0125018742651859,0.00658899827896391,0.00106995194440261,-0.994411616855572,0.0464249126215916,-0.0956068247881517,0.0110594280275738,0.000306505255067677,0.00549005893819348,-0.998341521938011,0.0442703986229569,0.0563210294171554,0.0117015780560695,0.00392651901415037,-0.0091504615530568,-0.987083285553937,-0.0925934612467818,0.176133187086286,0.0289614392529698,-0.0432061736552405,0.00102515743980236
0.175,-0.555827837426423,0.237083270924632,0.79612279979054,0.0129081917420531,0.00714894065738447,0.0016166436418461,-0.994438762208882,0.0462365358885792,-0.0957045794875832,0.0113101459036006,-0.000131686892754144,0.00566471350984494,-0.99844727773067,0.043734115026642,0.0562775889706157,0.0120140792451014,0.00396071616385014,-0.00858683243450596,-0.986119050601664,-0.0913187429743716,0.176473790255777,0.0312909904401425,-0.0442293059774302,0.00158746577944406
0.18,-0.555978760024237,0.23692170094993,0.796391457777304,0.0132796834452174,0.00761120563926503,0.00215892225022915,-0.994478597937476,0.0460711044798464,-0.0958332583492907,0.0115452759807214,-0.000618078667162155,0.0058287734137113,-0.998553018311874,0.0432198908794813,0.0562503302950489,0.0123139045572519,0.00397551487517805,-0.00799452034498852,-0.984986808893504,-0.0897277970712851,0.177022390871616,0.033424021595285,-0.0450212843802049,0.002080151955309
0.185,-0.556177754797933,0.236753695482947,0.796691576437766,0.0136212564690964,0.00795536074791321,0.00266919435742027,-0.994549081154099,0.0459243149123436,-0.0959812877849052,0.0117803547024661,-0.00114840676663887,0.00598393912992078,-0.998675743824283,0.042758749387465,0.0562299340639912,0.0126162264469874,0.00397153104920434,-0.0073853318019543,-0.983727245593603,-0.0878545435314672,0.177757413278669,0.0353336571598174,-0.0455586703800022,0.00246867759026744
0.19,-0.556428804467873,0.236615293362558,0.797017244847361,0.0139323699444194,0.00817446884159921,0.00314263153948992,-0.994663148031768,0.0457958331341893,-0.096141154263043,0.0120150305235251,-0.00171408761812884,0.00613047842729463,-0.99882724255811,0.0423667283785054,0.056208940135822,0.0129199769477513,0.0039510695150641,-0.00676891415032873,-0.982369314996815,-0.0857193923324563,0.178668122166327,0.037004090346459,-0.0458282759772047,0.00271067706561385
0.195,-0.556728460013978,0.236518769986817,0.797367010928285,0.0142094140373418,0.0082623569101102,0.00357894729488959,-0.994824097425793,0.0456934198759101,-0.0963073666149726,0.012242887545131,-0.00230522654999697,0.00626850222410946,-0.999008728494307,0.042058299945107,0.0561764278204147,0.0132179789962178,0.00391737559607328,-0.00615462982250794,-0.980960779813633,-0.0833462856341997,0.179731242942628,0.038418514410019,-0.0458168655673154,0.00276509114672961
0.2,-0.557065594450131,0.236468106907072,0.797735980659666,0.0144468154932984,0.00821575012578138,0.0039760224405377,-0.995028312584244,0.0456287858549141,-0.0964728194865224,0.01245535109323,-0.00291067242711747,0.00639736706589418,-0.999212423734067,0.0418508175000286,0.0561163817955644,0.0135007025266756,0.00387353904007479,-0.00555428120217329,-0.979585774963076,-0.0807696716789198,0.180898067255878,0.0395607078115862,-0.0455285440519431,0.00260071497697243
0.205,-0.557427014222396,0.236466321367555,0.798121908774989,0.0146370397660031,0.00803164158697901,0.00432835484261317,-0.995270051138515,0.0456080727169487,-0.0966302596616174,0.0126425456304204,-0.00351955314763882,0.00651591184164689,-0.999427885168335,0.0417530606434229,0.0560132042581643,0.0137572820054873,0.00382225303982008,-0.00498390812778606,-0.978280586600013,-0.0779939833272764,0.18215676045821,0.0404126673970948,-0.0449839404117254,0.00219710436636585
0.21,-0.557799683314129,0.236522642535862,0.798504678736379,0.0147674049038908,0.00770801997465886,0.00463200187993477,-0.995540796169224,0.0456262449929833,-0.0967739535865424,0.0127876317625876,-0.00412205918967503,0.00662204436784273,-0.9996401170749,0.0417683362191013,0.0558466782477827,0.0139699499347387,0.0037659668263152,-0.00446396385563393,-0.977056651794061,-0.0750055299368167,0.183514340100089,0.0409441127229768,-0.0442015507280225,0.00154277304262797
0.215,-0.558170451357782,0.236647417786009,0.79884705475008,0.0148177714681193,0.00725711847184753,0.00489504975429639,-0.995826329954517,0.0456744181767324,-0.0969022512640658,0.0128605214133665,-0.00470866934133731,0.00671076423018439,-0.999826008194915,0.0418981651369758,0.0555905557215763,0.01410747902724,0.00370597313475678,-0.00402159013060339,-0.975946355576449,-0.0717936158477352,0.184963795905992,0.0411166332818151,-0.0432076611610021,0.000636077084846841
0.22,-0.558529121958178,0.236838904387596,0.799124749882355,0.0147618017948861,0.00670183096261703,0.00513341545739381,-0.996108386883743,0.0457489512024506,-0.0970202195461024,0.0128213371106886,-0.00527108591023424,0.00677444953911943,-0.999957539706029,0.0421386766960274,0.0552215974172244,0.0141287140005454,0.00364201667260181,-0.00369322667128645,-0.974960805266383,-0.0683169517620516,0.186518548533977,0.0408823417596254,-0.0420379930094475,-0.000513767900118031
0.225,-0.558865147806326,0.237085992143694,0.7993235832251,0.0145688374251011,0.00606275710653692,0.00535969547097883,-0.996366204452447,0.0458518188136572,-0.0971357153287281,0.012626698105171,-0.00580345804592153,0.00680448023219561,-1.00000160451938,0.0424871720382336,0.0547206451074048,0.0139891164335396,0.00357275852704942,-0.0035270897240947,-0.974125795877418,-0.0645170728172647,0.188188769842307,0.0401714729167532,-0.0407283273862097,-0.00188639589958301
0.23,-0.559164463419564,0.237371664081319,0.799432321835219,0.0142063744796091,0.00535996556316689,0.00558162059835815,-0.996577200936826,0.0459898795796441,-0.0972545913481975,0.0122333819004698,-0.0063030118466396,0.00679153480150988,-0.999921604225048,0.0429477307395106,0.0540703095343368,0.0136444699457927,0.00349544077612425,-0.00358753534777712,-0.97348782187607,-0.0603448767356504,0.18997731440716,0.0388952252265133,-0.0393316604659077,-0.00344839362510533
0.235,-0.55941850579146,0.23766322613399,0.79946302788205,0.0136415307640887,0.00460812107892735,0.00579586656896002,-0.996724042702492,0.0461754131598232,-0.0973807326418078,0.0116023684413829,-0.00676968726478378,0.00672608929034898,-0.999691586198036,0.043529187297798,0.0532627413756283,0.0130549045245042,0.00340592787728807,-0.00395351951985362,-0.972979092323181,-0.0557140414039378,0.19197439768156,0.0369440219132934,-0.0379106456086606,-0.00515137751167449
0.24,-0.559625855674997,0.237919893976522,0.799439935432759,0.0128415253022693,0.00380254392319056,0.00597402502347496,-0.996804893011115,0.0464222796819449,-0.0975121586298885,0.010703629514408,-0.00720347491295709,0.00659974039225194,-0.999306957449201,0.0442528026646057,0.0523081496139689,0.0121895758754718,0.00329998033596663,-0.00470860023784787,-0.972445988896002,-0.0505013371700472,0.194329083266951,0.0341710144329694,-0.0364930337143604,-0.00693509244738367
0.245,-0.559780542629778,0.238122006681794,0.79935478184716,0.0117783816494002,0.00293241452276803,0.00606548388125446,-0.996835663022124,0.0467397257683133,-0.0976338070943111,0.0095189825425493,-0.00760144902917376,0.00640595026116448,-0.998778461617246,0.0451653159638061,0.0512296669863814,0.0110293241513213,0.00317429011998146,-0.00593515958432568,-0.971859309505958,-0.0446238608756306,0.197092561155164,0.0303993835579283,-0.0350761962845538,-0.00873886414907341
0.25,-0.559870396824112,0.238268452775509,0.799171441338528,0.0104332860918743,0.00201335960009603,0.00601824390636175,-0.996836931458489,0.0471309058106773,-0.097721811780712,0.00803841521228291,-0.00795561311365993,0.00613916303614522,-0.998117989255411,0.0463278179026572,0.0500481686552598,0.00956272977738153,0.00302659945229079,-0.00771645574593174,-0.971306033192365,-0.0380535644141595,0.200227327893168,0.0254478696501671,-0.0336772267688392,-0.0105120839517622
0.255,-0.559887485645756,0.238339108204789,0.79888173846109,0.00879422280920113,0.00108674167705739,0.00578283891507425,-0.996816437262663,0.0475969144835717,-0.0977591620206766,0.00625721358835594,-0.00825281716964525,0.00579328045839556,-0.997329322535472,0.0477791905495642,0.0487759176803802,0.00778304670488039,0.00285461298637608,-0.0101359845369547,-0.970779371601518,-0.0307724789951531,0.203761764411106,0.0191336886988929,-0.0323339515067597,-0.0122080267962247
0.26,-0.559836592978105,0.238300491209917,0.798520314549171,0.00685300246832868,0.000185386576096689,0.00529576847197354,-0.996772843713483,0.0481359966348569,-0.0977461557136409,0.00418183187990597,-0.00847853820188034,0.00536178866364262,-0.996412445390254,0.0495154617114573,0.0474260736338744,0.005694337504985,0.00265447210580627,-0.0132736850072868,-0.970175181876354,-0.0227632773828349,0.207790314186808,0.011260721820112,-0.0310603000077499,-0.0137698083337652
0.265,-0.559733733947516,0.238155273877022,0.798124176510511,0.00460615181176188,-0.000678739821782399,0.00448531374497432,-0.996714241352639,0.0487367246936629,-0.097694678149489,0.00183016397608242,-0.00862146230761578,0.00483950165468438,-0.99537473098575,0.0515040719183254,0.0460234836932311,0.00331241945173705,0.00242132578066592,-0.0172101684403367,-0.969486902342537,-0.0140431196272271,0.212323147240418,0.00162452472698724,-0.029845871249466,-0.015135124748382
0.27,-0.559590204338404,0.23793949220866,0.797712240143007,0.00205758803278079,-0.00149641335025613,0.00330080012956764,-0.996655633995321,0.0493805801070225,-0.0976102610166989,-0.000776852559640781,-0.0086753270038194,0.00422396073326347,-0.99423263494789,0.0537057445418895,0.0446046497563943,0.000656982728306831,0.00215132603134772,-0.0220326444466639,-0.96883207722298,-0.00471863959879387,0.217246106489319,-0.00996429227113994,-0.0286996227299384,-0.01625404529544
0.275,-0.559399741842717,0.237671832178681,0.797300996041102,-0.000777329133165424,-0.00225273926752222,0.00171867735300681,-0.996602010889646,0.0500507352221074,-0.0974828239690465,-0.00361241650557509,-0.00863829768179463,0.00351552691905165,-0.993006544618258,0.0560770213595913,0.0432129781769018,-0.00224567429574116,0.00184149139724834,-0.0278237129343205,-0.968313613916656,0.00498012604542836,0.222405031862721,-0.0236544244430693,-0.0276604431663408,-0.01708964883364
0.28,-0.559151294508722,0.237345933878719,0.796909992328731,-0.00386778217517963,-0.00293398656899337,-0.000272796030742233,-0.996549823711386,0.0507282071060446,-0.0973000671895399,-0.00663223088522606,-0.00851278181466351,0.0027171649219134,-0.991721869033758,0.0585562670249465,0.0418976749790772,-0.00535124398277926,0.00148804505008504,-0.0346430062304447,-0.967988884129327,0.0147250180465569,0.227635587053693,-0.0395344288863964,-0.0267761706146366,-0.0176073045097092
0.285,-0.558849223190212,0.236958598497242,0.796548534906791,-0.0071667049929287,-0.00352812364329569,-0.00267371826448007,-0.996495626231467,0.0513831843603627,-0.0970630437824786,-0.00977305073773416,-0.00830611289135324,0.00183443141366448,-0.990412403208531,0.0610570607428032,0.04071121548546,-0.00859591647119458,0.00108607299310616,-0.0425205016432018,-0.967914216539974,0.0241185301459722,0.232740105829686,-0.0576171220541863,-0.0260996549775991,-0.0177755785344421
0.29,-0.558511814480854,0.236516491367463,0.796212889839786,-0.0106127941438849,-0.00402114996297207,-0.00546190869533617,-0.996432364817902,0.0519778261800708,-0.0967808247567287,-0.0129587243210377,-0.00802866045248972,0.000874638323876503,-0.989120273481503,0.0634771062236349,0.0397032790944691,-0.0119026179342528,0.000629961791542462,-0.0514501309075604,-0.968118006160299,0.0326799718021318,0.237497957677683,-0.0778227902734818,-0.0256888692732637,-0.0175700563975749
0.295,-0.558156207765521,0.236028118681447,0.795900390966498,-0.0141327392456682,-0.00439895367039933,-0.00858875641361226,-0.996347483150259,0.0524703866752344,-0.0964542061720342,-0.0161035595125288,-0.00769026248788202,-0.000154561938509226,-0.987898142938209,0.0657057575428039,0.0389213170420861,-0.01518485445199,0.00011333784970247,-0.0613733742017488,-0.96856832315936,0.0398340970282149,0.241680490839374,-0.0999602276659166,-0.025591004214552,-0.0169704686339289
0.3,-0.557792367465566,0.23550225990792,0.795615367724649,-0.0176426383967873,-0.00465017419485884,-0.0119763738503697,-0.996229152558263,0.0528120189137584,-0.0960693171902269,-0.0191141504514218,-0.00729882286968333,-0.00124606041523588,-0.986812774745345,0.0676258369198745,0.0384180504333,-0.0183487649076484,-0.000471167240688217,-0.072162201876312,-0.969196392040196,0.0449296781754427,0.245038780671062,-0.123706389501365,-0.0258273432710517,-0.0159613316863462
0.305,-0.557427377330789,0.234949980863126,0.795355390316187,-0.0210489946546765,-0.00476356557756963,-0.0155129684639327,-0.996071700537927,0.0529494937070345,-0.095605651116772,-0.0218924058657594,-0.00685937246417455,-0.00239364027339915,-0.98594354176625,0.0691194920496663,0.0382568117385002,-0.0212962339001168,-0.00113157400666597,-0.0836069134441396,-0.96994264452008,0.0472992161682641,0.247284820296103,-0.148588801799181,-0.0263883412063015,-0.0145384356223874
0.31,-0.0849548015302162,2.68944551315593,-2.10129768162074,-0.0242498599526045,-0.00471928336265251,-0.0190557805920994,-4.11431131198333,-10.8786521336283,-7.86874362600722,-0.0243396780080917,-0.00637230872230584,-0.0035904565026146,3.48400455010824,-2.48778793109494,0.157260066199342,-0.023928881474291,-0.00187406921324097,-0.0954140009899656,15.9975957239899,0.815275676268499,-3.49114220100432,-0.173989916045714,-0.0272405128666559,-0.0127161718065012
0.315,-0.0851412327281196,2.68829936139713,-2.09992457555995,-0.027134908209724,-0.00448345678955884,-0.0224482332823602,-4.11284675229899,-10.8735269056829,-7.86508294735344,-0.0263583262563824,-0.00583616482014051,-0.00482345769971695,3.48191171401663,-2.4866564558059,0.157100323510633,-0.0261485188869792,-0.00269798371154839,-0.107221227585089,15.9896278815195,0.814844452240067,-3.4893826269381,-0.199181503415072,-0.0283438945145273,-0.0105365255691434
0.32,-0.085327663926023,2.68715320963832,-2.0985514694994,-0.0295851000985939,-0.00401775092943201,-0.025537396309224,-4.11138219261466,-10.8684016777375,-7.86142226869964,-0.0278498596786806,-0.00525492331770999,-0.00606758297138168,3.47981887792503,-2.48552498051686,0.156940580821924,-0.0278538155238553,-0.00359204251922756,-0.118615931606027,15.9816600390484,0.814413228211635,-3.48762305287187,-0.223348688217521,-0.0296572956755522,-0.00807513754008194
0.325,-0.0855140951241538,2.68600705787946,-2.09717836343862,-0.0314764674101697,-0.0033054568559295,-0.0281747758634886,-4.10991763293032,-10.8632764497921,-7.85776159004587,-0.0287161781875527,-0.00464334405842138,-0.0072853289049725,3.47772604183342,-2.48439350522779,0.156780838133159,-0.0289410189888394,-0.0045349476453222,-0.129140284522547,15.973692196578,0.813982004183231,-3.48586347880575,-0.24557759743219,-0.031114067370532,-0.00543554819438546
0.33,-0.0857005263220572,2.68486090612066,-2.09580525737829,-0.0326892285735593,-0.00237469874538765,-0.0302128149155697,-4.10845307324621,-10.8581512218466,-7.85410091139209,-0.0288676979214156,-0.00402716399318677,-0.00842961887781141,3.47563320574181,-2.48326202993874,0.15662109544445,-0.029312413667873,-0.00549712473161604,-0.13829718721064,15.9657243541074,0.813550780154799,-3.48410390473953,-0.264859462262613,-0.0325970560772626,-0.0027364163962546
0.335,-0.0858869575199606,2.68371475436186,-2.09443215131751,-0.0331174446618066,-0.00128472079326891,-0.0315158124273561,-4.10698851356187,-10.8530259939012,-7.85044023273832,-0.0282350861420007,-0.00343515296039819,-0.00944632494149525,3.47354036965021,-2.4821305546497,0.156461352755684,-0.0288890202194716,-0.00643986583285488,-0.145570047356474,15.9577565116369,0.813119556126367,-3.4823443306733,-0.280156206352202,-0.0339525951077167,-0.000104145344105563
0.34,-0.086073388717864,2.68256860260306,-2.09305904525695,-0.0326753587672246,-8.49801812828274e-05,-0.0319762651135177,-4.10552395387754,-10.8479007659558,-7.84677955408455,-0.0267790227600412,-0.00288708407698831,-0.0102767163321289,3.4714475335586,-2.48099907936063,0.156301610066976,-0.0276217177036008,-0.00731379624857916,-0.150449422696313,15.9497886691665,0.812688332097935,-3.48058475660707,-0.290487596991099,-0.0350284117573359,0.00232793578169333
0.345,-0.0862598199157674,2.68142245084425,-2.09168593919617,-0.0313034666110479,0.00119949986003916,-0.0315210878625459,-4.1040593941932,-10.8427755380104,-7.84311887543078,-0.0244963677840838,-0.00239030051397347,-0.0108606297499775,3.469354697467,-2.47986760407159,0.156141867378267,-0.0254981500844277,-0.00806057682494001,-0.152463922217492,15.9418208266954,0.812257108069502,-3.47882518254085,-0.294993865974582,-0.0356905269380534,0.00442377675597972
0.35,-0.0864462511137845,2.68027629908539,-2.09031283313584,-0.0289774022870692,0.00254802999688779,-0.0301129407645457,-4.10259483450909,-10.837650310065,-7.83945819677697,-0.021424110307027,-0.00194527200575279,-0.0111407939588691,3.46726186137539,-2.47873612878254,0.155982124689558,-0.0225467749922586,-0.00861815953400728,-0.151216839728165,15.933852984225,0.811825884041099,-3.47706560847462,-0.292985340761809,-0.0358159015442558,0.00605651925682469
0.355,-0.0866326823116879,2.67913014732659,-2.08893972707529,-0.025715547165596,0.00392704098779868,-0.0277558162941098,-4.10113027482475,-10.8325250821196,-7.8357975181232,-0.017639550492007,-0.0015502955684127,-0.0110682317643128,3.46516902528379,-2.4776046534935,0.155822382000792,-0.0188373917671653,-0.00892738689818372,-0.146421443262108,15.9258851417544,0.811394660012667,-3.4753060344085,-0.283996049912671,-0.0352873235799618,0.00712134335643816
0.36,-0.0868191135095913,2.67798399556779,-2.0875666210145,-0.0215814750335666,0.00528946568091679,-0.0245002773468444,-4.09966571514042,-10.8273998541741,-7.83213683946943,-0.0132555157302973,-0.00120285711626517,-0.0106079897096884,3.46307618919241,-2.47647317820446,0.155662639312027,-0.0144770761763198,-0.00893872472006134,-0.137927201743343,15.9179172992838,0.810963435984235,-3.47354646034228,-0.267830044739427,-0.0339978183272545,0.007544712472967
0.365,-0.0870055447074947,2.67683784380893,-2.08619351495395,-0.0166831667219566,0.00657817986227133,-0.0204415907576203,-4.09820115545631,-10.8222746262287,-7.82847616081565,-0.00841374481899095,-0.000900310103663557,-0.00974473843687183,3.46098335310057,-2.47534170291539,0.155502896623318,-0.00960430456849244,-0.0086188688347224,-0.125734635388145,15.9099494568131,0.810532211955774,-3.47178688627605,-0.24458732453954,-0.0318550422946168,0.00729264422028002
0.37,-0.0871919759056254,2.67569169205012,-2.08482040889317,-0.0111703563629931,0.00772713173031317,-0.0157123636687618,-4.09673659577197,-10.8171493982833,-7.82481548216185,-0.00327779392206233,-0.000640837154402321,-0.00848747701798449,3.45889051700919,-2.47421022762634,0.155343153934609,-0.00438241779223926,-0.00795650775695679,-0.109999202103289,15.9019816143425,0.81010098792737,-3.47002731220982,-0.214668201549488,-0.0287818928457124,0.00637847657199126
0.375,-0.0873784071035288,2.67454554029132,-2.08344730283284,-0.00522658774575937,0.00866399984135741,-0.0104745365030699,-4.09527203608764,-10.8120241703379,-7.82115480350808,0.00197894777815083,-0.000424844650778777,-0.00687192932736142,3.45679768091759,-2.47307875233727,0.155183411245844,0.00101211286210121,-0.00696640716553114,-0.0910261188307935,15.8940137718721,0.809669763898938,-3.4682677381436,-0.178760049216794,-0.0247187971020383,0.00486512081123719
0.38,-0.0875648383014322,2.67339938853252,-2.08207419677206,0.000945456878713094,0.0093174140032736,-0.00490978291249754,-4.0938074764033,-10.8068989423925,-7.81749412485433,0.00719069182390331,-0.000256310001488035,-0.00495993519276767,3.45470484482598,-2.47194727704823,0.155023668557135,0.00640719159259829,-0.00569107740479682,-0.0692586595753988,15.8860459294012,0.809238539870535,-3.46650816407737,-0.137809813299308,-0.0196319496840442,0.00285906127732253
0.385,-0.0877512694993356,2.67225323677371,-2.0807010907115,0.00713627117413962,0.00962678909778209,0.000796095866084448,-4.09234291671896,-10.8017737144471,-7.81383344620053,0.0122086894918387,-0.000141157862795847,-0.00283725167947774,3.45261200873438,-2.47081580175919,0.154863925868369,0.0116446245039929,-0.00419915417914918,-0.0452589030557261,15.8780780869308,0.808807315842074,-3.46474859001125,-0.0929799204651683,-0.0135209633464814,0.000499613085798066
0.39,-0.0879377006973527,2.67110708501491,-2.07932798465094,0.013128071379117,0.00955051333494232,0.00646928759345378,-4.09087835703463,-10.7966484865017,-7.81017276754676,0.0168894674563291,-8.05577599215237e-05,-0.000611418132711401,3.45051917264277,-2.46968432647014,0.154704183179604,0.0165681992420296,-0.00258012444670125,-0.0196805853870951,15.87011024446,0.80837609181367,-3.46298901594503,-0.045587898134382,-0.00641793155153476,-0.00205350910913038
0.395,-0.0881241318952561,2.66996093325605,-2.07795487859039,0.0186900439480274,0.00906415641093388,0.0119452948247098,-4.08941379735029,-10.7915232585562,-7.80651208889299,0.0210810548982129,-6.72692599148513e-05,0.00159450764706716,3.44842633655117,-2.46855285118107,0.154544440490895,0.0210105760398653,-0.00093552542113443,0.00674993603658233,15.8621424019896,0.807944867785238,-3.4612294418788,0.00294263940101322,0.00160959456977806,-0.00463517873571029
0.4,-0.0883105630931595,2.66881478149725,-2.07658177252961,0.0235909154614748,0.0081487469531377,0.0170424785700637,-4.08794923766618,-10.7863980306108,-7.80285141023919,0.0246359291455219,-9.3181518611332e-05,0.00365662010192529,3.44633350045956,-2.46742137589203,0.154384697802186,0.0248086776648033,0.000632280448546543,0.0332349895510106,15.8541745595192,0.807513643756806,-3.45946986781257,0.0510999411420463,0.0104366032313698,-0.00709131063493847
0.405,-0.0884969942911766,2.66766862973844,-2.07520866646905,0.0276214545843461,0.00679396392080537,0.0215480286668974,-4.08648467798207,-10.7812728026654,-7.79919073158541,0.0274324252917749,-0.000155571021901305,0.00546505439132038,3.44424066436795,-2.46628990060299,0.154224955113477,0.0278273173480314,0.00203084199934933,0.0589190021231033,15.8462067170483,0.807082419728403,-3.45771029374635,0.0973140663399973,0.0198556220561375,-0.00929417321043613
0.41,-0.0886834254891937,2.66652247797958,-2.0738355604085,0.0306106154608365,0.00502784617884505,0.0252469776210077,-4.08502011829773,-10.77614757472,-7.79553005293167,0.0293770429166879,-0.000250354998062265,0.0069306824868446,3.44214782827635,-2.46515842531394,0.154065212424712,0.0299616680721893,0.00318560599415151,0.0829358843770955,15.8382388745779,0.80665119569997,-3.45595071968012,0.14003575771296,0.029568366249471,-0.0111557319216159
0.415,-0.0888698566870971,2.66537632622078,-2.07246245434794,0.0324396214998451,0.00294310198074658,0.0279664133343771,-4.0835555586134,-10.7710223467746,-7.79186937427789,0.0304029671169747,-0.000363452237504432,0.00798851941750923,3.44005499218474,-2.4640269500249,0.153905469736003,0.03113541751043,0.00404548402567495,0.104468331756034,15.830271032107,0.806219971671538,-3.454191145614,0.17783326931156,0.039191847175765,-0.0126341572558794
0.42,-0.0890562878850005,2.66423017446198,-2.07108934828739,0.0330568082111414,0.000691451907663215,0.0295991139729031,-4.08209099892906,-10.7658971188292,-7.78820869562409,0.0304801773845104,-0.000471425781780552,0.0086027280938039,3.43796215609314,-2.46289547473586,0.153745727047237,0.0313114991453856,0.00458630702161748,0.122800743944292,15.8223031896366,0.805788747643106,-3.45243157154778,0.209482140327687,0.0482847160081171,-0.0137291295446473
0.425,-0.0892427190829039,2.66308402270317,-2.0697162422266,0.0324852394294724,-0.00155608657967975,0.0301123567081813,-4.08062643924472,-10.7607718908837,-7.78454801697032,0.0296270092589605,-0.000550893967072672,0.00877046977383945,3.43586932000153,-2.46176399944679,0.153585984358529,0.0305049700771494,0.00481078883720008,0.137366753805371,15.8143353471658,0.805357523614674,-3.45067199748155,0.234056203665418,0.0564063793516922,-0.0144700759921208
0.43,-0.089429150280921,2.66193787094437,-2.06834313616605,0.0308199455289781,-0.00365681671808557,0.0295502615821193,-4.07916187956039,-10.7556466629383,-7.78088733831655,0.0279145001584271,-0.000589059627254815,0.0085215143075819,3.43377648390992,-2.46063252415772,0.15342624166982,0.0287883243217411,0.00474483147769789,0.147788404470285,15.8063675046953,0.80492629958627,-3.44891242341532,0.251002446286364,0.063185893802628,-0.0149029772534046
0.435,-0.0896155814788244,2.66079171918551,-2.06697003010549,0.0282172802833803,-0.00551245516847186,0.0280242296392894,-4.07769731987628,-10.7505214349929,-7.77722665966274,0.0254621238882617,-0.000584460566850816,0.00791283281532872,3.43168364781855,-2.45950104886867,0.153266498981054,0.0262867200762823,0.00443219031591823,0.15390228406253,15.7983996622247,0.804495075557838,-3.4471528493491,0.260169899141305,0.0683596029812671,-0.015079509115224
0.44,-0.0898020126767278,2.65964556742671,-2.06559692404494,0.0248781579336266,-0.00705596676019626,0.0256967417828107,-4.07623276019194,-10.7453962070475,-7.77356598100897,0.0224250625545094,-0.00053956562173123,0.007019426083651,3.42959081172671,-2.45836957357963,0.153106756292289,0.0231635636981829,0.00392842520212772,0.155767701128894,15.7904318197541,0.804063851529378,-3.44539327528287,0.26179571953182,0.0717764174676801,-0.0150501981645654
0.445,-0.0899884438746312,2.6584994156679,-2.06422381798416,0.0210276335567443,-0.00824176590315165,0.0227646859576468,-4.07476820050761,-10.7402709791021,-7.7699053023552,0.0189779912919146,-0.000455850805424815,0.00592434813015678,3.42749797563533,-2.45723809829059,0.15294701360358,0.0196027271381024,0.0032940340144015,0.153651557588476,15.7824639772837,0.803632627500946,-3.44363370121675,0.256463217148994,0.0733943065276809,-0.0148601408700754
0.45,-0.0901748750726483,2.65735326390904,-2.0628507119236,0.0168948397381366,-0.00904497634015124,0.0194407724802354,-4.07330364082327,-10.7351457511567,-7.76624462370143,0.0153005645952304,-0.000333073898597421,0.00470995666875859,3.42540513954373,-2.45610662300155,0.152787270914871,0.0157929489586121,0.00258775825667581,0.147993326760036,15.7744961348128,0.803201403472542,-3.44187412715064,0.245036455898705,0.0732726859547757,-0.0145467523448615
0.455,-0.0903613062706654,2.65620711215024,-2.06147760586305,0.0126944524744268,-0.0094607113147359,0.0159354192457112,-4.07183908113893,-10.7300205232113,-7.76258394504762,0.0115636932948213,-0.000169062955643898,0.00345037906770612,3.42331230345212,-2.45497514771247,0.152627528226105,0.0119131853156229,0.00186101996627891,0.139359791388783,15.7665282923424,0.802770179444138,-3.44011455308441,0.228579342754776,0.0715586548959493,-0.0141394702964719
0.46,-0.0905477374685688,2.65506096039149,-2.06010449980249,0.00860949104191774,-0.00950375856685545,0.0124414722829568,-4.0703745214546,-10.7248952952658,-7.75892326639388,0.00791523090257944,4.08748813092193e-05,0.00220544800679547,3.42121946736052,-2.45384367242343,0.152467785537397,0.00811751991715036,0.00115409165626807,0.128396966401802,15.7585604498718,0.802338955415706,-3.43835497901819,0.208271118364107,0.068472144521051,-0.0136605935157132
0.465,-0.0907341686664722,2.65391480863263,-2.05873139374194,0.0047771861458295,-0.00920849869512986,0.0091209511373067,-4.06890996177049,-10.7197700673204,-7.75526258774011,0.00446645057010212,0.000304578961918651,0.00101742938011792,3.41912663126891,-2.45271219713439,0.152308042848631,0.00452124142785836,0.000494985366823492,0.115784135946283,15.7505926074011,0.801907731387246,-3.43659540495196,0.185325912028193,0.0642913698181697,-0.0131274902670106
0.47,-0.0909205998643756,2.65276865687383,-2.05735828768115,0.00128286296539609,-0.00862812851961256,0.0060929349299299,-4.06744540208638,-10.714644839375,-7.7516019090863,0.00128576932155078,0.000631362750313052,-8.81524636375353e-05,3.4170337951773,-2.45158072184535,0.152148300159922,0.00119487383434714,-9.90870878455549e-05,0.102189532062353,15.7426247649305,0.801476507358842,-3.43483583088573,0.160916704385964,0.059330674962893,-0.0125554884583402
0.475,-0.0911070310623927,2.65162250511503,-2.0559851816206,-0.00183194422269644,-0.00783429974673721,0.00342366944844476,-4.06598084240204,-10.7095196114296,-7.74794123043253,-0.001590877493568,0.00102543856342105,-0.00109745290369906,3.4149409590857,-2.4504492465563,0.151988557471213,-0.0018243090629567,-0.000619413550784573,0.0882250536592336,15.7346569224599,0.80104528333041,-3.43307625681962,0.136104098121558,0.0539042665585102,-0.0119597263484483
0.48,-0.0912934622602961,2.65047635335617,-2.05461207556004,-0.00455426412278936,-0.00691108440297829,0.00112876606726374,-4.0645162827177,-10.7043943834842,-7.74428055177876,-0.00414391913766366,0.00148110542890719,-0.00200315486978943,3.41284812299409,-2.44931777126723,0.151828814782448,-0.00451524117684064,-0.00106379203522625,0.0744151865523947,15.7266890799892,0.800614059301978,-3.43131668275339,0.111790641596831,0.0482949206471494,-0.0113569807003342
0.485,-0.0914798934581995,2.64933020159737,-2.05323896949949,-0.00689088679117002,-0.00594046162807156,-0.000808248121548547,-4.06305172303337,-10.6992691555388,-7.74061987312498,-0.00636675928082996,0.00198606488889711,-0.0028031765849808,3.41075528690249,-2.44818629597819,0.151669072093739,-0.00686985007033561,-0.00143484990549332,0.0611916628747435,15.7187212375186,0.800182835273546,-3.42955710868716,0.088712379389738,0.0427443208716553,-0.0107667571659358
0.49,-0.0916663246562166,2.64818404983856,-2.05186586343871,-0.00886005680746542,-0.00499291219540057,-0.0024173804543475,-4.06158716334903,-10.6941439275934,-7.73695919447121,-0.0082620820132038,0.00252288477845589,-0.00349932629434021,3.40866245081088,-2.44705482068915,0.15150932940503,-0.00888936003186476,-0.0017388231708067,0.0488875315811687,15.710753395048,0.799751611245114,-3.42779753462094,0.0674324985345205,0.0374369952851078,-0.0102057767124581
0.495,-0.0918527558542337,2.6470378980797,-2.05049275737815,-0.0104760946588043,-0.00412912670106248,-0.00373355226610209,-4.06012260366469,-10.6890186996479,-7.73329851581744,-0.00982489470884603,0.00306249122846629,-0.00409306948922657,3.40656961471927,-2.44592334540008,0.151349586716265,-0.0105663761453903,-0.0019851276158877,0.0377164308476274,15.7027855525776,0.79932038721671,-3.42603796055471,0.0483210709130922,0.032465302647048,-0.00967704199980522
0.5,-0.0920391870521371,2.64589174632096,-2.0491196513176,-0.0117405732093419,-0.00339981070744816,-0.00479162966519332,-4.05865804398036,-10.6838934717025,-7.72963783716366,-0.0110330101658834,0.00356303968752055,-0.00458350484402274,3.4044767786279,-2.44479187011103,0.151189844027499,-0.0118751027323718,-0.00218590310859071,0.0277712414327214,15.6948177101069,0.798889163188278,-3.42427838648848,0.0315605067460682,0.0278225925483067,-0.00916667572465846
0.505,-0.0922256182500405,2.6447455945621,-2.04774654525704,-0.0126521680878875,-0.00283601620562619,-0.00562534466351687,-4.05719348429602,-10.6787682437571,-7.72597715850986,-0.011862716218764,0.00398454050609026,-0.00497038536502716,3.40238394253606,-2.44366039482199,0.15103010133879,-0.0127885326433666,-0.00235355726350448,0.0190676520588108,15.6868498676363,0.798457939159846,-3.42251881242237,0.0171958937439642,0.0234613010311702,-0.00865830214023365
0.51,-0.0924120494479439,2.64359944280329,-2.04637343919626,-0.0132234807608392,-0.00243798687042933,-0.0062689611832061,-4.05572892461191,-10.6736430158117,-7.72231647985609,-0.0123141312646077,0.00430778467945005,-0.00525790129385548,3.40029110644468,-2.44252891953292,0.150870358650081,-0.0133056717925936,-0.00249678803227475,0.0116023286506326,15.6788820251656,0.798026715131442,-3.42075923835614,0.00519642116906018,0.0193717716472123,-0.00815248268748886
0.515,-0.092598480645961,2.64245329104449,-2.04500033313593,-0.0134836329068864,-0.00217265712544871,-0.006750811427964,-4.05426436492758,-10.6685177878663,-7.71865580120232,-0.0124175679968898,0.00453772307810746,-0.00545499849824546,3.39819827035308,-2.44139744424388,0.150710615961316,-0.0134581486664206,-0.00261929597335564,0.00537332863804294,15.670914182695,0.79759549110301,-3.41899966428991,-0.00451155592901522,0.0155986352295944,-0.00766645392020304
0.52,-0.0927849118438644,2.64130713928563,-2.04362722707538,-0.0134672574251637,-0.00198391482317056,-0.00708422274838326,-4.05279980524324,-10.6633925599209,-7.71499512254854,-0.0122185684985045,0.00469071298049343,-0.00557308517717033,3.39610543426147,-2.44026596895483,0.15055087327255,-0.0132939872265311,-0.00272246756204914,0.00036013515761144,15.6629463402246,0.79716426707455,-3.41724009022369,-0.0120426584223273,0.012195917922532,-0.00721639749370986
0.525,-0.0929713430417678,2.64016098752683,-2.04225412101459,-0.0132074773466761,-0.00181764713850432,-0.00727674121764931,-4.05133524555913,-10.6582673319755,-7.71133444389477,-0.0117621617656151,0.00478029821567141,-0.00562280553657217,3.39401259816987,-2.43913449366579,0.150391130583898,-0.0128603434913077,-0.00280761393085454,-0.00349762094780134,15.6549784977537,0.796733043046146,-3.41548051615746,-0.0175610418939272,0.00919541779574583,-0.00680759447040402
0.53,-0.0931577742397849,2.63901483576802,-2.04088101495404,-0.0127368002287864,-0.00164698091441681,-0.00735013569022189,-4.04987068587479,-10.65314210403,-7.70767376524097,-0.0110866994132121,0.00481017380501383,-0.00561111233673485,3.39191976207826,-2.43800301837675,0.150231387895133,-0.0121963607444625,-0.00287560396268584,-0.00630342872246732,15.6470106552833,0.796301819017685,-3.41372094209123,-0.0212823771209243,0.00660986208728505,-0.00643744703390246
0.535,-0.0933442054376883,2.63786868400916,-2.03950790889326,-0.012087847670574,-0.00146691805541471,-0.00733868829909392,-4.04840612619046,-10.6480168760846,-7.7040130865872,-0.010225637844683,0.00477702117709901,-0.00554225150485141,3.38982692598665,-2.43687154308768,0.150071645206367,-0.0113353260109411,-0.0029269495570737,-0.00819010141535161,15.6390428128125,0.795870594989282,-3.41196136802512,-0.023455097079359,0.00444037283089687,-0.0060977044190774
0.54,-0.0935306366357054,2.63672253225042,-2.03813480283293,-0.0112917323766063,-0.00126789920111536,-0.00727003674026595,-4.04694156650612,-10.6428916481392,-7.70035240793342,-0.00921165394813256,0.00467900147669397,-0.00542173452782427,3.38773408989505,-2.43574006779866,0.149911902517715,-0.0103100847854741,-0.00296314716752498,-0.00929874013811516,15.6310749703421,0.79543937096085,-3.41020179395889,-0.0243294547702121,0.00267613638480711,-0.00577423950341235
0.545,-0.0937170678336088,2.63557638049161,-2.03676169677215,-0.0103774648420222,-0.0010355520604127,-0.00716645201583453,-4.04547700682201,-10.6377664201938,-7.69669172927965,-0.00807591306086881,0.00451999452079742,-0.00525663605271008,3.38564125380344,-2.43460859250959,0.14975215982895,-0.00915274460722579,-0.00298607817451621,-0.00976860365616149,15.6231071278712,0.795008146932418,-3.40844221989266,-0.0241466495303443,0.00129186978725064,-0.00545372961364125
0.55,-0.0939034990315122,2.63443022873275,-2.03538859071136,-0.00937339323938789,-0.000775324899996527,-0.00706506793457178,-4.04401244713767,-10.6326411922484,-7.69303105062585,-0.00684434547426307,0.00430818216182299,-0.00505220377672818,3.38354841771184,-2.43347711722055,0.149592417140241,-0.00789036741527204,-0.00299554762685844,-0.00973883137883889,15.6151392854008,0.794576922903985,-3.40668264582644,-0.0231485010097515,0.000247038364763973,-0.00513454821002748
0.555,-0.0940899302294156,2.63328407697395,-2.03401548465081,-0.00830867359185643,-0.00051530909784859,-0.00701868950424247,-4.04254788745334,-10.627515964303,-7.68937037197207,-0.00553943037242771,0.00405468809090206,-0.00481141693733006,3.38145558162023,-2.43234564193151,0.149432674451475,-0.00654653636520231,-0.00298894717129298,-0.00934618940874971,15.6071714429304,0.794145698875582,-3.40492307176021,-0.0215754646620645,-0.000510424444090541,-0.00482765237021267
0.56,-0.0942763614274327,2.63213792521515,-2.03264237859048,-0.00721304701910825,-0.000282717713711899,-0.00707423509656928,-4.041083327769,-10.6223907363575,-7.6857096933183,-0.00418578703638526,0.00377325181224185,-0.0045382318053755,3.37936274552862,-2.43121416664243,0.14927293176271,-0.0051473227987639,-0.00296374464072616,-0.00871582544668205,15.5992036004595,0.79371447484715,-3.40316349769398,-0.0196464059055339,-0.0010366688091051,-0.00454701315542117
0.565,-0.0944627926253361,2.63099177345629,-2.0312692725297,-0.00611424366360854,-8.90617853156208e-05,-0.00725913596840377,-4.03961876808467,-10.6172655084121,-7.68204901466453,-0.00280983383635941,0.00347819212753032,-0.00423951645415052,3.37726990943725,-2.43008269135339,0.149113189074001,-0.00372106137527044,-0.00291986346707929,-0.00795459036447957,15.5912357579891,0.793283250818718,-3.40140392362787,-0.0175401046975167,-0.00138535169711819,-0.00430241096367212
0.57,-0.0946492238233532,2.62984562169748,-2.02989616646914,-0.00503463110757767,6.70126794084717e-05,-0.00758295918409828,-4.03815420840033,-10.6121402804667,-7.67838833601076,-0.00143408652884246,0.00318109907263798,-0.00392436127807453,3.37517707334541,-2.42895121606432,0.148953446385292,-0.00229233613056866,-0.00286051054483038,-0.0071499348648539,15.5832679155183,0.792852026790285,-3.39964434956164,-0.015387775260734,-0.00160394313567266,-0.00409847518512656
0.575,-0.0948356550212566,2.62869946993862,-2.02852306040836,-0.00399038645741284,0.000194427904622835,-0.00804030115647612,-4.03668964871599,-10.6070150525213,-7.67472765735698,-7.50960724689313e-05,0.00288905133357999,-0.00360310117076212,3.37308423725403,-2.42781974077528,0.148793703696526,-0.000879642294610276,-0.00279190701334194,-0.00637097041109963,15.5753000730479,0.792420802761882,-3.39788477549541,-0.0132741662505114,-0.00173214004852886,-0.00393533833308979
0.58,-0.0950220862192737,2.62755331817988,-2.02714995434803,-0.00299346261500161,0.000307818806661295,-0.00860984413345592,-4.03522508903211,-10.6018898245759,-7.67106697870321,0.00125323833224643,0.00260472611808897,-0.00328699438800644,3.3709914011622,-2.42668826548623,0.148633961007761,0.000501391220096657,-0.00272252751615391,-0.00566990837744981,15.567332230577,0.79198957873345,-3.39612520142919,-0.0112434847787713,-0.00180144424506211,-0.00380879177245818
0.585,-0.0952085174171771,2.62640716642107,-2.02577684828725,-0.00205411009641698,0.000426896364234268,-0.00925232299593007,-4.03376052934777,-10.5967645966305,-7.66740630004941,0.00253521615813098,0.00232712179766863,-0.00298816172094816,3.36889856507082,-2.42555679019719,0.148474218319052,0.00183356251170973,-0.00266230372060741,-0.00508376337431524,15.5593643881066,0.791558354705018,-3.39436562736296,-0.00930618001625969,-0.00183502594588782,-0.00371015772576395
0.59,-0.0953949486150805,2.62526101466221,-2.0244037422267,-0.00118306123824505,0.000576117657293404,-0.00990869379807048,-4.03229596966344,-10.5916393686851,-7.66374562139563,0.00374943984942446,0.00205254731599809,-0.00271960837980647,3.36680572897922,-2.42442531490812,0.148314475630343,0.00309416953571155,-0.00262191750946158,-0.00463619468393242,15.551396545636,0.791127130676557,-3.39260605329696,-0.0074452282793392,-0.00184761368633509,-0.00362602430585869
0.595,-0.0955813798129839,2.62411486290341,-2.02303063616591,-0.000393462423425991,0.000784359855830286,-0.0104983828995085,-4.0308314099791,-10.5865141407396,-7.66008494274189,0.00486522725932791,0.00177570762926331,-0.00249518420626777,3.36471289288761,-2.42329383961908,0.148154732941578,0.00425138709391631,-0.00261205245147618,-0.00433915250837281,15.5434287031653,0.790695906648153,-3.39084647923073,-0.00562221502255812,-0.00184551832155476,-0.00353790062811045
0.6,-0.095767811011001,2.62296871114461,-2.02165753010536,0.000299477192997147,0.00108238457351216,-0.0109257518982633,-4.02936685029476,-10.5813889127942,-7.65642426408809,0.0058438456631445,0.00149094608082797,-0.00232842165107626,3.362620056796,-2.42216236433003,0.147994990252926,0.00526554624071698,-0.00264214158424407,-0.0041939012472318,15.5354608606949,0.79026468261975,-3.3890869051645,-0.0037861195830478,-0.00182902822757226,-0.00342389180733663
0.605,-0.0959542422089044,2.62182255938575,-2.0202844240448,0.000884902156888703,0.00149483131119559,-0.0111115226144631,-4.02790229061043,-10.5762636848488,-7.65276358543431,0.00665352971352883,0.00119487833285199,-0.00222865517496019,3.3605272207044,-2.42103088904099,0.14783524756416,0.00610426959044135,-0.00271792621931697,-0.00419132604940999,15.527493018224,0.789833458591318,-3.38732733109828,-0.00189110951306947,-0.00180163460657278,-0.00326667891974686
0.61,-0.0961406734069215,2.62067640762695,-2.01891131798425,0.00136463035071278,0.00203110086701758,-0.0110327648205948,-4.02643773092609,-10.5711384569034,-7.64910290678054,0.00728916409002086,0.00089015434711707,-0.00219659143195945,3.35843438461279,-2.41989941375195,0.147675504875394,0.0067621804115057,-0.0028388169628972,-0.00431245378010443,15.5195251757536,0.789402234562857,-3.38556775703205,8.27289366689841e-05,-0.00178109265072644,-0.00306382403074229
0.615,-0.0963271046048249,2.61953025586814,-2.01753821192369,0.0017516771162658,0.0026855518690913,-0.0107218611378775,-4.02497317124198,-10.566013228958,-7.64544222812674,0.00776994119582229,0.000587179820480777,-0.00222476108487007,3.35634154852119,-2.41876793846288,0.147515762186686,0.00725837381241506,-0.00299763159956757,-0.00453017620565642,15.511557333283,0.788971010534453,-3.38380818296582,0.00212479288114529,-0.00179820676841219,-0.00282802423392769
0.62,-0.0965135358028419,2.61838410410934,-2.01616510586291,0.0020591822337821,0.00344564707849182,-0.010225259447696,-4.02350861155765,-10.5608880010126,-7.64178154947297,0.00811565117798551,0.000302816520360253,-0.00230262577361003,3.35424871242958,-2.41763646317386,0.147356019497977,0.00761241930559675,-0.00318280371765248,-0.00481135750923982,15.5035894908121,0.788539786505993,-3.38204860889959,0.00420536717692836,-0.00188382204660127,-0.00257745207884148
0.625,-0.0966999670007453,2.61723795235054,-2.01479199980258,0.00229167609294464,0.00429703238707657,-0.00957266687329963,-4.02204405187331,-10.5557627730671,-7.63812087081919,0.00832894906471985,5.90189001683633e-05,-0.0024207893080984,3.35215587633797,-2.41650498788479,0.147196276809211,0.00782638838409656,-0.00338050418608039,-0.00511812297384696,15.4956216483417,0.788108562477589,-3.38028903483348,0.00628362086611891,-0.00205836011514578,-0.00232869846142648
0.63,-0.0968863981986487,2.61609180059173,-2.0134188937418,0.00244491187911811,0.00522108384720149,-0.00877623516502209,-4.02057949218897,-10.5506375451217,-7.63446019216542,0.00839620559249087,-0.000118991077480075,-0.00257157235600555,3.35006304024637,-2.41537351259572,0.147036534120502,0.0078857678436007,-0.00357573043667136,-0.00540972367946629,15.4876538058711,0.787677338449157,-3.37852946076725,0.0083085136741048,-0.0023277467868667,-0.00209683320893745
0.635,-0.0970728293965522,2.61494564883287,-2.01204578768125,0.00251433178272659,0.00618570967512672,-0.00784808653892367,-4.01911493250464,-10.5455123171763,-7.63079951351162,0.00830452842360782,-0.000209949657518398,-0.00274602286414021,3.34797020415476,-2.41424203730668,0.146876791431737,0.00777731553278227,-0.00375327351714587,-0.0056476164142187,15.4796859634005,0.787246114420725,-3.37676988670103,0.0102240599863083,-0.00267990037639912,-0.00189923964930227
0.64,-0.0972592605944556,2.61379949707407,-2.01067268162046,0.00250504996446088,0.00713567489749367,-0.0068193758458753,-4.01765037282053,-10.5403870892309,-7.62713883485785,0.00806086202184698,-0.000205193087600894,-0.00293007292594973,3.34587736806338,-2.41311056201764,0.146717048742971,0.00750921913959642,-0.00389845297879386,-0.00580122553944541,15.4717181209298,0.786814890392293,-3.3750103126348,0.0119761475998354,-0.00308095471337384,-0.00175949466120463
0.645,-0.0974456917924726,2.61265334531521,-2.00929957556014,0.00243034445626591,0.00799324559720895,-0.00574123448443284,-4.01618581313619,-10.5352618612855,-7.62347815620407,0.00768995762397389,-0.000106187188127615,-0.00310497402393658,3.34378453197155,-2.41197908672859,0.146557306054262,0.00710881051292802,-0.00399669896133911,-0.0058477259105232,15.4637502784592,0.786383666363889,-3.37325073856857,0.0135055834510587,-0.00347457502931147,-0.00170758187047384
0.65,-0.097632122990376,2.61150719355641,-2.00792646949935,0.00230131841080376,0.00867393654599447,-0.00466824343039539,-4.01472125345208,-10.5301366333401,-7.6198174775503,0.00721565831043166,8.56459149610567e-05,-0.00325229124521151,3.34169169588017,-2.41084761143955,0.146397563365554,0.00660247403010465,-0.00403361556428792,-0.00576752751642989,15.4557824359888,0.785952442335457,-3.37149116450234,0.014739364349033,-0.00378999241335954,-0.00177536800451318
0.655,-0.0978185541883931,2.6103610417976,-2.0065533634388,0.00212425633037654,0.0091187339617401,-0.00364142794155929,-4.01325669376774,-10.5250114053947,-7.61615679889653,0.006653235892151,0.000369343428729074,-0.00335907237343616,3.33959885978834,-2.40971613615048,0.146237820676845,0.00600728337967012,-0.00399889251424632,-0.00554474711991963,15.4478145935182,0.785521218307053,-3.36973159043623,0.0156165549517405,-0.00396742481630853,-0.00198798842141883
0.66,-0.0980049853862965,2.6092148900388,-2.00518025737802,0.0019066850660177,0.00932674044339297,-0.00267939562650137,-4.01179213408341,-10.5198861774492,-7.61249612024275,0.0060155907846385,0.000736170799224965,-0.00342031995684647,3.33750602369696,-2.40858466086144,0.146078077988079,0.00533747014293859,-0.00389139242482702,-0.00517275401379778,15.4398467510475,0.785089994278621,-3.36797201637,0.0161325574851353,-0.00398770612338987,-0.00235494388499103
0.665,-0.0981914165843136,2.60806873828,-2.00380715131746,0.0016587835916258,0.00935247468880999,-0.00178167582048715,-4.01032757439907,-10.5147609495038,-7.60883544158898,0.00531533582539954,0.00116988131303692,-0.00343783757192016,3.33541318760535,-2.40745318557239,0.14591833529937,0.00460662848782719,-0.00371824197867211,-0.00465580814063252,15.4318789085769,0.784658770250161,-3.36621244230389,0.0163361492999267,-0.00387084510106041,-0.00286908656788198
0.67,-0.098377847782217,2.60692258652119,-2.0024340452569,0.00138928599098186,0.009266478909507,-0.000943830950004032,-4.00886301471473,-10.5096357215584,-7.60517476293518,0.00456300455667461,0.00165452586712324,-0.00341656661815767,3.33332035151375,-2.40632171028332,0.145758592610605,0.00382580667199143,-0.00348925422227803,-0.00400618505274512,15.4239110661063,0.784227546221757,-3.36445286823766,0.0162816102280249,-0.00364445245678706,-0.00351425180727558
0.675,-0.0985642789801204,2.60577643476233,-2.00106093919635,0.00110747548119212,0.0091139746644091,-0.000176243243980497,-4.0073984550304,-10.504510493613,-7.60151408428143,0.00377662540070682,0.00217354825998528,-0.00336030214877917,3.33122751542214,-2.40519023499428,0.145598849921896,0.00301366201847995,-0.00321422600478102,-0.00324495248484074,15.4159432236358,0.783796322193325,-3.36269329417144,0.0160033847213365,-0.00331885919707316,-0.00427340683897428
0.68,-0.0987507101780238,2.60463028300353,-1.99968783313579,0.000830029987678368,0.00889669382117894,0.000487034224736095,-4.00593389534606,-10.4993852656676,-7.59785340562766,0.00299554693187442,0.00270215048306437,-0.00326910207944502,3.32913467933054,-2.40405875970524,0.145439107233187,0.00221114772442735,-0.00290397520819487,-0.00240508759110832,15.407975381165,0.783365098164893,-3.36093372010521,0.0155303079536813,-0.00288554432694731,-0.00513218281131632
0.685,-0.0989371413760409,2.60348413124473,-1.99831472707524,0.000578916667619782,0.00859046404431126,0.00100486974973383,-4.00446933566195,-10.4942600377222,-7.59419272697386,0.00227268443818054,0.00321023432346677,-0.00314218656338675,3.32704184323893,-2.40292728441617,0.145279364544422,0.00147317693892801,-0.00257146858588837,-0.00152597129907766,15.4000075386946,0.782933874136489,-3.35917414603898,0.0149086958558127,-0.00233527850393827,-0.00607720099896781
0.69,-0.0991235725739443,2.60233797948587,-1.99694162101468,0.000370903448339284,0.00818112344734909,0.00135874279260294,-4.00300477597762,-10.4891348097768,-7.59053204832009,0.00164988837115123,0.003674514701102,-0.002984133783277,3.32494900714732,-2.40179580912712,0.145119621855656,0.000842349260916889,-0.00223184920771258,-0.00064169906893613,15.3920396962237,0.782502650108029,-3.35741457197275,0.0142137256302995,-0.00168118765084898,-0.00709080773032955
0.695,-0.0993100037719614,2.60119182772706,-1.9955685149539,0.00021214443825092,0.00767597251230128,0.00155948191696651,-4.00154021629351,-10.4840095818313,-7.58687136966631,0.00114722160605101,0.00408246020338215,-0.0028063219139661,3.32285617105595,-2.40066433383808,0.144959879166947,0.000337821826678253,-0.00190154909499054,0.000221443179356587,15.3840718537533,0.782071426079625,-3.35565499790653,0.0135362058084136,-0.000961568696254131,-0.0081448840512522
0.7,-0.0994964349698648,2.60004567596832,-1.99419540889335,0.000100317240271721,0.00708661045320927,0.00162866532760196,-4.00007565660917,-10.4788843538859,-7.58321069101254,0.000770851357311526,0.00442557102331234,-0.00262297422847315,3.32076333496411,-2.39953285854904,0.144800136478239,-3.57212215979095e-05,-0.00159704408168854,0.00103690807773234,15.3761040112825,0.781640202051193,-3.3538954238403,0.0129514428119677,-0.000222582132050222,-0.00919523326488891
0.705,-0.0996828661678819,2.59889952420946,-1.99282230283279,2.76081983791696e-05,0.00641360975570997,0.00158285917906142,-3.99861109692483,-10.4737591259405,-7.57955001235877,0.000521674364622783,0.0046924431357306,-0.00244767557985879,3.31867049887273,-2.39840138325999,0.144640393789473,-0.000278429259099741,-0.0013342054033296,0.0017709052210406,15.368136168812,0.781208978022761,-3.35213584977407,0.0124979690979408,0.000494741617518338,-0.010177229287347
0.71,-0.0998692973657853,2.59775337245065,-1.99144919677224,-1.67398039349598e-05,0.00564542153631171,0.00143071118014064,-3.9971465372405,-10.4686338979951,-7.57588933370499,0.000398625851681444,0.00486736401740588,-0.0022918176128357,3.3165776627809,-2.39726990797092,0.144480651100764,-0.000391667024206393,-0.00112754755037954,0.00238401597453315,15.3601683263416,0.780777753994329,-3.35037627570796,0.0121782238945208,0.00115567866239199,-0.0110090115852843
0.715,-0.100055728563689,2.59660722069179,-1.99007609071145,-4.15196171017641e-05,0.00476804300792651,0.00117582892032999,-3.99568197755616,-10.4635086700497,-7.57222865505119,0.000400932984461385,0.00493659684746965,-0.00216316785001296,3.31448482668952,-2.39613843268188,0.144320908411999,-0.000376143416030467,-0.000987671832700305,0.00284487142943103,15.3522004838708,0.780346529965897,-3.34861670164173,0.0119772279037392,0.00173047566299949,-0.0116146189415883
0.72,-0.100242159761592,2.59546106893299,-1.9887029846509,-4.8500015418153e-05,0.0037778702260188,0.000820198960548775,-3.99421741787205,-10.4583834421043,-7.56856797639742,0.000530078756077385,0.00489778479890423,-0.00206505576984693,3.31239199059769,-2.39500695739284,0.14416116572329,-0.000230697727275557,-0.000918541610593727,0.00314645032187311,15.3442326414004,0.779915305937465,-3.3468571275755,0.0118845569772677,0.00219443679382132,-0.0119542515376975
0.725,-0.100428590959609,2.59431491717419,-1.98732987859012,-3.29695148812424e-05,0.00268438945711803,0.000364855145891965,-3.99275285818771,-10.4532582141589,-7.56490729774364,0.000789528966746299,0.00475989288760506,-0.00199734610160402,3.31029915450631,-2.39387548210379,0.144001423034581,4.72908546988854e-05,-0.000918398238877271,0.00330396299869338,15.3362647989295,0.779484081909061,-3.34509755350939,0.0118948380883593,0.00252695075955991,-0.0120228889901472
0.73,-0.100615022157513,2.59316876541533,-1.98595677252979,1.01709190553252e-05,0.00150264784643265,-0.000188454660124341,-3.99128829850338,-10.4481329862134,-7.56124661908987,0.00117954935382389,0.00453458792350093,-0.00195787562766326,3.3082063184147,-2.39274400681475,0.143841680345815,0.000457358322592159,-0.00098249121571905,0.00333854289078518,15.3282969564591,0.779052857880629,-3.34333797944316,0.0119901603555668,0.00271082211832098,-0.0118234848371203
0.735,-0.10080145335553,2.59202261365658,-1.98458366646923,7.85799392274487e-05,0.000250719826945665,-0.000824098025512558,-3.98982373881904,-10.443007758268,-7.5575859404361,0.00168252405196965,0.00423500732901779,-0.00194262487171727,3.3061134823231,-2.39161253152568,0.143681937657107,0.000981589914760284,-0.00110165699007714,0.00327366045804674,15.3203291139885,0.778621633852197,-3.34157840537694,0.0121339205696473,0.00273855211179641,-0.0113657788759319
0.74,-0.100987884553433,2.59087646189778,-1.98321056040845,0.000156976741211907,-0.00104591017467171,-0.00149660634575659,-3.9883591791347,-10.4378825303226,-7.5539252617823,0.00224784943700851,0.00388241077681612,-0.00194538700747814,3.30402064623149,-2.39048105623661,0.143522194968398,0.00156920583838016,-0.00125852103074375,0.00314452066570563,15.3123612715178,0.778190409823765,-3.33981883131071,0.0122800308678431,0.00262295587179971,-0.0106914338244253
0.745,-0.101174315751337,2.58973031013892,-1.9818374543479,0.000220554943299398,-0.00235599194073514,-0.00213878672181283,-3.98689461945037,-10.4327573023772,-7.55026458312852,0.00279992413040826,0.0035047636588815,-0.00195781401454824,3.30192781013989,-2.38934958094757,0.143362452279632,0.00214454745356535,-0.00142888547219076,0.00299693738661923,15.3043934290472,0.777759185795333,-3.33805925724448,0.0123786734790306,0.00239913470622396,-0.00987712519220377
0.75,-0.101360746949354,2.58858415838012,-1.98046434828734,0.000246071466853329,-0.00365077685690654,-0.00269053504874532,-3.98543005976603,-10.4276320744318,-7.54660390447475,0.00326603360026041,0.0031261193349356,-0.00196922932834145,3.29983497404828,-2.38821810565852,0.143202709590867,0.00263550561264588,-0.00158757514295166,0.00287357136063094,15.2964255865766,0.777327961766929,-3.33629968317825,0.0123742858638059,0.00211624206197169,-0.00900925770950676
0.755,-0.101547178147257,2.58743800662131,-1.97909124222656,0.000219695086775168,-0.00490698332690873,-0.00311742202736339,-3.98396550008192,-10.4225068464864,-7.54294322582098,0.00359495161229131,0.00276037041206565,-0.00196653202991795,3.29774213795667,-2.38708663036948,0.143042966902158,0.00299240460083399,-0.0017121764003397,0.0028045310401381,15.2884577441062,0.776896737738497,-3.33454010911214,0.0122039934120885,0.00182966045825586,-0.00816483051989654
0.76,-0.10173360934516,2.58629185486245,-1.977718136166,0.000138092050821219,-0.00610255479524032,-0.00341165160119773,-3.98250094039781,-10.4173816185409,-7.5392825471672,0.00375885918752296,0.00241257634350474,-0.00193497738404478,3.2956493018653,-2.38595515508044,0.142883224213449,0.00318965252989078,-0.00178373049007838,0.00280699752671805,15.2804899016353,0.776465513710065,-3.33278053504591,0.0117996738246398,0.00159769829599432,-0.00740953682290997
0.765,-0.101920040543064,2.58514570310365,-1.97634503010545,7.71102509850453e-06,-0.00721245351492227,-0.0035887823043751,-3.98103638071348,-10.4122563905955,-7.5356218685134,0.00375147570208448,0.00208149274993482,-0.00185927110874722,3.29355646577346,-2.38482367979137,0.142723481524683,0.00322350806074955,-0.00178696509802389,0.00288733944468996,15.2725220591649,0.776034289681633,-3.33102096097969,0.0110922467621595,0.00147992889309393,-0.00680112708345733
0.77,-0.102106471741081,2.58399955134485,-1.97497192404489,-0.000157218344069085,-0.0082086478711266,-0.00368217989872135,-3.97957182102914,-10.4071311626501,-7.53196118985963,0.00358470540132794,0.00176273766465943,-0.00172522385846619,3.29146362968208,-2.38369220450232,0.142563738835918,0.00310824379192528,-0.00171072689143604,0.00304412998049308,15.2645542166943,0.7756030656532,-3.32926138691357,0.0100202826161312,0.00153382777543725,-0.00639177075759689
0.775,-0.102292902939098,2.58285339958604,-1.97359881798434,-0.000342315539884491,-0.00906637699784211,-0.00372730641121974,-3.9781072613448,-10.4020059347047,-7.52830051120586,0.00327659930369066,0.00145698285103644,-0.00152385091124953,3.28937079359025,-2.38256072921328,0.142403996147209,0.00286293935508103,-0.00154849145152903,0.00327526551056576,15.2565863742236,0.775171841624797,-3.32750181284734,0.00854885454520241,0.00180608908666627,-0.0062289964078933
0.78,-0.102479334137001,2.58170724782724,-1.97222571192356,-0.000542592354446429,-0.00977319722492508,-0.00374329184700589,-3.97664270166047,-10.3968807067593,-7.52463983255208,0.00283676048827085,0.00117847795962753,-0.00125614458577885,3.28727795749887,-2.38142925392424,0.1422442534585,0.00249562578538349,-0.00129911573433762,0.00358586855425983,15.248618531753,0.774740617596365,-3.32574223878112,0.00669047029239466,0.00232214880569252,-0.00635492726035275
0.785,-0.102665765334905,2.58056109606844,-1.970852605863,-0.000762119495353976,-0.0103301003094657,-0.00373314352626938,-3.97517814197613,-10.3917554788139,-7.52097915389831,0.00226734110798417,0.000951621498924005,-0.000932734290749965,3.28518512140704,-2.3802977786352,0.142084510769791,0.00200462518256708,-0.000967434280037142,0.00398678964448932,15.2406506892823,0.774309393567933,-3.32398266471489,0.0045050949227569,0.00308465313494066,-0.00680351087661596
0.79,-0.102852196532922,2.57941494430958,-1.96947949980245,-0.00100454852660108,-0.0107417140126045,-0.00369964824743757,-3.97371358229179,-10.3866302508684,-7.51731847524454,0.0015769435673074,0.000798078585370872,-0.000568577197887667,3.28309228531566,-2.37916630334612,0.141924768081026,0.00139419493903567,-0.000563914122754101,0.00448424786430602,15.2326828468117,0.773878169539501,-3.32222309064866,0.00207899437281356,0.00408054260277777,-0.007596270219389
0.795,-0.103038627730825,2.57826879255077,-1.96810639374189,-0.00126776814720672,-0.011002947337566,-0.00365206507906858,-3.97224902260768,-10.3815050229231,-7.51365779659076,0.000786020509021825,0.000729338771294818,-0.000179322917906519,3.28099944922383,-2.37803482805708,0.141765025392317,0.000681062636608621,-0.000103572384692676,0.00507235838498682,15.2247150043411,0.773446945511068,-3.32046351658244,-0.000494080393692606,0.00528523564134943,-0.00873818574089518
0.8,-0.103225058928729,2.57712264079191,-1.96673328768111,-0.00154584706783719,-0.011088806741324,-0.00359929875463508,-3.97078446292335,-10.3763797949776,-7.50999711793696,-7.92369280491256e-05,0.000747081202911619,0.00021846122208201,3.27890661313245,-2.37690335276804,0.141605282703608,-0.000111656759718634,0.000394672327089259,0.00573232339989265,15.2167471618704,0.773015721482636,-3.31870394251632,-0.0031190175904698,0.00666004730857924,-0.0102142267316649
0.805,-0.103411490126632,2.57597648903311,-1.96536018162055,-0.00183103349107365,-0.0109505992530626,-0.00354333816867973,-3.96931990323901,-10.3712545670322,-7.50633643928319,-0.000991326391892856,0.000843680076275506,0.000606324082194268,3.27681377704084,-2.37577187747897,0.141445540014843,-0.000959011540905244,0.000907751724660364,0.0064334864007493,15.2087793194,0.772584497454233,-3.31694436845009,-0.00569678029080785,0.00814691491777993,-0.01198548285122
0.81,-0.103597921324649,2.57483033727431,-1.96398707556,-0.0021137828802653,-0.0105260858919996,-0.00347946884681986,-3.96785534355467,-10.3661293390868,-7.50267576062942,-0.0019207683426379,0.00100269534055945,0.000964532759305431,3.27472094094924,-2.37464040218993,0.141285797326077,-0.00183351142977502,0.00140905626671909,0.00713511505316923,15.2008114769294,0.772153273425801,-3.31518479438387,-0.00812222830202015,0.00966748661314525,-0.0139876165851549
0.815,-0.103784352522666,2.5736841855155,-1.96261396949944,-0.00238459282990312,-0.00977851856387154,-0.00340398913916956,-3.96639078387057,-10.3610041111414,-7.49901508197564,-0.00283542629421423,0.00120412497251838,0.00127498994454832,3.27262810485763,-2.37350892690088,0.141126054637368,-0.00270448649289998,0.00187238139162819,0.0077928788974382,15.1928436344588,0.771722049397368,-3.31342522031775,-0.0102955905474469,0.0111357289957645,-0.0161389045394482
0.82,-0.10397078372057,2.5725380337567,-1.96124086343866,-0.00263764290980675,-0.00874538233743986,-0.00332340802144975,-3.96492622418623,-10.355878883196,-7.49535440332184,-0.00370116390742604,0.00143053395280703,0.00152438326553557,3.27053526876603,-2.37237745161181,0.140966311948659,-0.00353880435810414,0.00227647200041193,0.00836786685378326,15.1848757919881,0.771290825368936,-3.31166564625153,-0.0121398826223574,0.0124745247793002,-0.0183515717785185
0.825,-0.104157214918473,2.5713918819979,-1.95986775737811,-0.00287152056929698,-0.0075374649631849,-0.00325287260426728,-3.96346166450189,-10.3507536552505,-7.49169372466807,-0.00448375621056977,0.0016664928640662,0.00170447536635132,3.26844243267465,-2.37124597632277,0.140806569259894,-0.00430265707017654,0.00260541370273372,0.00882967955145994,15.1769079495175,0.770859601340504,-3.3099060721853,-0.0136026768501458,0.0136177021301476,-0.0205345135405439
0.83,-0.10434364611649,2.57024573023904,-1.95849465131778,-0.00308650347757638,-0.00628186017100898,-0.00320614579987747,-3.96199710481778,-10.3456284273051,-7.48803304601429,-0.005155593212094,0.00189647877005978,0.00181233504506928,3.26634959658281,-2.37011450103373,0.140646826571128,-0.00496793547719385,0.00284922398996288,0.00915692217527144,15.1689401070471,0.770428377312101,-3.30814649811907,-0.0146557072478285,0.0145148040948534,-0.0226051665916397
0.835,-0.104530077314394,2.56909957848023,-1.957121545257,-0.00328230087922809,-0.0050722374671827,-0.00318999131813861,-3.96053254513345,-10.3405031993597,-7.48437236736052,-0.00570382253411646,0.00210716081078473,0.00185255876702179,3.26425676049143,-2.36898302574468,0.140487083882476,-0.00552010814393359,0.00300757008428134,0.00934068522589188,15.1609722645762,0.769997153283668,-3.30638692405284,-0.0153064995521302,0.0151499331437586,-0.0245138384784263
0.84,-0.104716508512297,2.56795342672143,-1.95574843919644,-0.00345743284087246,-0.00396290880437894,-0.00320419913698391,-3.95906798544911,-10.3353779714143,-7.48071168870675,-0.00612941660568511,0.00228754363807874,0.00183651167160181,3.2621639243996,-2.36785155045564,0.140327341193711,-0.00595742904997965,0.00308895460655413,0.00938307401952455,15.1530044221058,0.769565929255236,-3.30462734998662,-0.0155950349069865,0.0155410519384896,-0.0262425629593945
0.845,-0.1049029397102,2.56680727496257,-1.95437533313566,-0.0036099787745001,-0.00298664358501011,-0.00324425750957241,-3.95760342576477,-10.3302527434689,-7.47705101005297,-0.00644121783720669,0.00242749106706456,0.00177919437045514,3.26007108830822,-2.36672007516657,0.140167598504945,-0.0062854196155156,0.00310659151091766,0.00929229741775106,15.145036579635,0.769134705226804,-3.30286777592039,-0.0155761641743879,0.0157222455406576,-0.0277888495873611
0.85,-0.105089370908104,2.56566112320377,-1.9530022270751,-0.0037391866804394,-0.00216872016296783,-0.00330603146722159,-3.95613886608044,-10.3251275155235,-7.47339033139917,-0.00665437503960517,0.00252028236284981,0.00169825340582839,3.25797825221639,-2.36558859987753,0.140007855816293,-0.00651570756323141,0.00307784955558016,0.00908266827076867,15.1370687371646,0.768703481198372,-3.30110820185422,-0.0153147904794949,0.0157407331127816,-0.0291677493447026
0.855,-0.105275802106235,2.56451497144502,-1.95162912101455,-0.00384558362626805,-0.00153141575472033,-0.00338687253115855,-3.9546743063961,-10.3200022875781,-7.4697296527454,-0.0067861700149029,0.00256165949453943,0.00161113129367275,3.25588541612501,-2.36445712458848,0.139848113127528,-0.00666226766565489,0.00302075005009334,0.00877088369151613,15.1291008946939,0.768272257169968,-3.29934862778799,-0.0148784858445535,0.0156492402030214,-0.030399003478182
0.86,-0.105462233304138,2.56336881968616,-1.95025601495399,-0.00392973574824934,-0.00109154612152138,-0.00348020293054967,-3.95320974671176,-10.3148770596326,-7.46606897409163,-0.00684765665959958,0.00254497695631335,0.001528367851124,3.25379258003318,-2.36332564929944,0.139688370438762,-0.00673378170055212,0.0029453074310916,0.00836763454887275,15.1211330522233,0.767841033141508,-3.29758905372188,-0.0143161275476676,0.0154775024212346,-0.0314683059416069
0.865,-0.105648664502041,2.56222266792736,-1.94888290889321,-0.00399296757221954,-0.00084901286821139,-0.00356996360842723,-3.95174518702765,-10.3097518316872,-7.46240829543785,-0.0068462410360031,0.00246668890392814,0.00145114022471895,3.2516997439418,-2.3621941740104,0.139528627750053,-0.00673704621036016,0.00285276590871979,0.0078824335889184,15.1131652097529,0.767409809113076,-3.29582947965571,-0.0136523198557006,0.0152192579694535,-0.032326720298515
0.87,-0.105835095699945,2.5610765161685,-1.94750980283266,-0.00404001017188013,-0.000776296141111945,-0.0036352081503464,-3.95028062734355,-10.3046266037418,-7.45874761678408,-0.00679937909989487,0.00233611298345522,0.00137821406474368,3.24960690785019,-2.36106269872133,0.139368885061344,-0.00669026655641296,0.00274633466133827,0.00733800625991248,15.105197367282,0.766978585084672,-3.29406990558948,-0.0129093069590241,0.0148642494488553,-0.0329477044771521
0.875,-0.106021526897962,2.55993036440969,-1.9461366967721,-0.0040795378883805,-0.000826122101126839,-0.00366441786928068,-3.94881606765921,-10.2995013757964,-7.45508693813031,-0.00673840291295178,0.00216909285525005,0.00131445656280128,3.24751407175859,-2.35993122343226,0.139209142372579,-0.00662495426934855,0.00263841374672364,0.00676886293081313,15.0972295248116,0.76654736105624,-3.2923103315232,-0.0121262490309791,0.0144446134458907,-0.0333664677589601
0.88,-0.106207958095865,2.55878421265089,-1.94476359071155,-0.00412116415102976,-0.000948491677036949,-0.00366232335428715,-3.94735150797487,-10.294376147851,-7.45142625947651,-0.00669495866930026,0.00197274561500254,0.00126924200647583,3.24542123566698,-2.35879974814324,0.13904939968387,-0.00657145815637675,0.0025437633365499,0.00620386533789533,15.0892616823407,0.766116137027808,-3.29055075745703,-0.011349876276456,0.0140356677142339,-0.0336431594118571
0.885,-0.106394389293769,2.55763806089203,-1.94339048465099,-0.00417189119034072,-0.00109893588461455,-0.0036427884957001,-3.94588694829054,-10.2892509199056,-7.44776558082273,-0.00668631381732184,0.00174270964581077,0.00124766151271076,3.24332839957538,-2.35766827285417,0.138889656995104,-0.00654560219023021,0.00246849734737188,0.00565677579531629,15.0812938398703,0.765684912999376,-3.2887911833908,-0.0106112159191984,0.0137126920787964,-0.0338016721218436
0.89,-0.106580820491672,2.55649190913323,-1.94201737859044,-0.00423393840422766,-0.00124342695707246,-0.00362253108869402,-3.9444223886062,-10.2841256919601,-7.44410490216899,-0.00671248987501906,0.00147461766686863,0.00124779837867259,3.24123556348377,-2.35653679756513,0.138729914306339,-0.0065473078650758,0.00240975609149049,0.00513445546541913,15.0733259973997,0.765253688970944,-3.28703160932457,-0.00991694399173801,0.0135197196684085,-0.0338278251309397
0.895,-0.106767251689803,2.55534575737448,-1.94064427252988,-0.00430330643501694,-0.00136559633615945,-0.00362192425014557,-3.94295782892186,-10.2790004640147,-7.44044422351519,-0.00675999108967003,0.00117648401722492,0.00126489427802475,3.23914272739216,-2.35540532227608,0.13857017161763,-0.00656473504968966,0.0023630845293145,0.0046497549737535,15.0653581549291,0.76482246494254,-3.2852720352584,-0.00925498146572139,0.0134663336580597,-0.0337095238207685
0.9,-0.106953682887706,2.55419960561562,-1.9392711664691,-0.0043698721620977,-0.00146680042299736,-0.0036628176885621,-3.94149326923775,-10.2738752360693,-7.43678354486138,-0.00680482219982906,0.00086821187666555,0.0012934239576153,3.23704989130079,-2.35427384698701,0.138410428928921,-0.00657689041871475,0.00232470540980431,0.00422165439727932,15.0573903124584,0.764391240914108,-3.28351246119217,-0.00859884744969503,0.0135342056301061,-0.0334463555429238
0.905,-0.10714011408561,2.55305345385682,-1.93789806040854,-0.00442087512538202,-0.00155874442399149,-0.0037563140313997,-3.94002870955342,-10.2687500081239,-7.43312286620761,-0.00682093979144049,0.000567805002695237,0.00132827509484496,3.23495705520895,-2.353142371698,0.138250686240156,-0.00656053205665622,0.00229053323821412,0.00386183257804701,15.0494224699878,0.763960016885676,-3.281752887126,-0.0079127142542758,0.0136947438937948,-0.0330407097935979
0.91,-0.107326545283513,2.55190730209802,-1.93652495434776,-0.00444533720924473,-0.00165807003923454,-0.00388875369208956,-3.93856414986908,-10.2636247801785,-7.42946218755387,-0.00679355899078709,0.000279114346917805,0.00136852645099271,3.23286421911757,-2.35201089640893,0.138090943551447,-0.00650159263511708,0.00225867513039779,0.0035631192007009,15.0414546275174,0.763528792857244,-3.27999331305983,-0.00716083855792109,0.0139321474274734,-0.0325089991964372
0.915,-0.10751297648153,2.55076115033916,-1.93515184828743,-0.00443392234481056,-0.00178190553777653,-0.00402361153113527,-3.93709959018474,-10.2584995522331,-7.42580150890009,-0.00671915526808285,-7.02155675314517e-06,0.0014173904330936,3.23077138302574,-2.35087942111988,0.137931200862738,-0.00639529204338587,0.00222964107299284,0.00330170324069861,15.0334867850465,0.763097568828812,-3.27823373899361,-0.00630989269312877,0.01424321276094,-0.031879804846854
0.92,-0.107699407679434,2.54961499858035,-1.93377874222665,-0.00437470798376292,-0.00193763569453814,-0.0041235507528296,-3.93563503050041,-10.2533743242877,-7.42214083024629,-0.00659184080582993,-0.000299105628806392,0.00147786039003295,3.22867854693436,-2.34974794583084,0.137771458173972,-0.00623461711447229,0.00220357810180449,0.00305332361851775,15.0255189425761,0.762666344800408,-3.27647416492738,-0.00532433748894746,0.0146162491192898,-0.0311744708959948
0.925,-0.107885838877337,2.54846884682155,-1.9324056361661,-0.00425112876275864,-0.00211512389502278,-0.0041718945181667,-3.93417047081607,-10.2482490963422,-7.41848015159252,-0.00639628001620385,-0.000592897892253114,0.00155174403198295,3.22658571084253,-2.34861647054177,0.137611715485264,-0.00600457683754283,0.00218124148130151,0.00280865531507226,15.0175511001055,0.762235120771976,-3.27471459086121,-0.0041674074054089,0.0150222142161241,-0.0304096319802845
0.93,-0.10807227007524,2.54732269506269,-1.93103253010531,-0.00404511088781362,-0.00229933293801539,-0.00417100413725755,-3.93270591113196,-10.2431238683968,-7.41481947293875,-0.00611227801214218,-0.00087789139396288,0.00164185208229955,3.22449287475115,-2.34748499525276,0.137451972796555,-0.00568580427631567,0.0021651881363317,0.00256686714137723,15.0095832576349,0.761803896743544,-3.27295501679498,-0.00280593217595746,0.0154272514361236,-0.0296050498643935
0.935,-0.108258701273257,2.54617654330394,-1.92965942404498,-0.00374261394242551,-0.00249226150043482,-0.00412423752029765,-3.93124135144785,-10.2379986404514,-7.41115879428494,-0.00572271777897204,-0.0011538049254059,0.0017525223302985,3.22240003865954,-2.34635351996369,0.137292230107789,-0.00526081422259971,0.00215746289170124,0.00231621943398146,15.0016154151642,0.76137267271514,-3.27119544272875,-0.00121211188766072,0.0158069006778872,-0.0287737293369279
0.94,-0.108445132471275,2.54503039154508,-1.92828631798443,-0.00333761289301852,-0.00270821193400459,-0.00402565506786562,-3.92977679176352,-10.232873412506,-7.40749811563117,-0.00522066130710342,-0.00142925212091674,0.00188716993039771,3.22030720256794,-2.34522204467461,0.137132487419024,-0.00472148608806781,0.00215846084665811,0.00203515462338072,14.9936475726936,0.76094144868668,-3.26943586866258,0.000636342542013984,0.0161416988984649,-0.0279149628636091
0.945,-0.108631563669178,2.54388423978628,-1.92691321192365,-0.00283318504839872,-0.00294912920269044,-0.00386333111425745,-3.92831223207918,-10.2277481845606,-7.40383743697743,-0.00461312454986118,-0.0017051212929864,0.00204522064833846,3.21821436647633,-2.34409056938557,0.136972744730315,-0.00407473362505354,0.00216832844435456,0.00171139466467783,14.985679730223,0.760510224658248,-3.26767629459636,0.00275511554897072,0.0164022505421591,-0.0270203683237617
0.95,-0.108817994867081,2.54273808802748,-1.92554010586309,-0.00224012266789273,-0.0032065964861466,-0.00362552189301185,-3.92684767239484,-10.2226229566152,-7.40017675832365,-0.0039180208131805,-0.00197333423588248,0.0022228765050126,3.21612153038473,-2.34295909409653,0.136813002041606,-0.0033394902183027,0.00218759792234224,0.00134345026926984,14.9777118877525,0.760079000629844,-3.26591672053013,0.00515004408607058,0.0165529536542692,-0.0260822119068257
0.955,-0.109004426064985,2.54159193626862,-1.92416699980254,-0.00157501431636115,-0.00348623941524906,-0.00330291681536371,-3.92538311271051,-10.2174977286698,-7.39651607966985,-0.00315843305515118,-0.00223096192492892,0.00241654122874416,3.21402869429312,-2.34182761880749,0.13665325935284,-0.00253928624173244,0.00221646400295619,0.00092487810466002,14.9697440452817,0.759647776601412,-3.26415714646396,0.00781303657114862,0.016571017863211,-0.0250973976479294
0.96,-0.109190857263002,2.54044578450981,-1.92279389374198,-0.000860919647781967,-0.00380226743856982,-0.00288575336836121,-3.92391855302617,-10.2123725007243,-7.39285540101608,-0.00236434301924951,-0.00247999509579714,0.00262200571950807,3.21193585820151,-2.34069614351844,0.136493516664132,-0.00170409614192939,0.00225427368765453,0.000444753782597438,14.9617762028113,0.75921655257298,-3.26239757239773,0.0107212221083587,0.0164471698857883,-0.024064965956579
0.965,-0.109377288460905,2.53929963275101,-1.9214207876812,-0.00012978495550341,-0.0041461549718394,-0.00235974342623529,-3.92245399334183,-10.2072472727789,-7.3891947223623,-0.00157968772503866,-0.00271286848090051,0.00283017416598375,3.20984302211014,-2.33956466822937,0.136333773975366,-0.000879230768924972,0.00229968508826359,-9.63249417361027e-05,14.9538083603406,0.758785328544548,-3.26063799833156,0.013838626035006,0.016170748217194,-0.022982049091327
0.97,-0.109563719658809,2.53815348099215,-1.92004768162064,0.000578448084559547,-0.00448618427269543,-0.00170910340341805,-3.9209894336575,-10.2021220448335,-7.38553404370853,-0.00086129529266544,-0.00291258078221168,0.00302806003165724,3.2077501860183,-2.33843319294033,0.1361740312866,-0.00012412659438231,0.00235146045352243,-0.000685440032446573,14.94584051787,0.758354104516116,-3.25887842426539,0.0171165440364408,0.0157350171388844,-0.021849970215895
0.975,-0.109750150856712,2.5370073292334,-1.91867457556009,0.00122207356803975,-0.00479859680650302,-0.000928386602398836,-3.91952487397339,-10.1969968168881,-7.38187336505476,-0.000265983678304176,-0.0030681235683334,0.0032050757517219,3.20565734992692,-2.33730171765126,0.136014288597949,0.000502692688005147,0.00240927237871365,-0.00131145644034024,14.9378726753994,0.757922880487712,-3.25711885019916,0.0204935845879442,0.0151579728846066,-0.0206845411582179
0.98,-0.109936582054843,2.5358611774746,-1.91730146949953,0.00176578503931123,-0.00507999286974895,-3.51269002889017e-05,-3.91806031428905,-10.1918715889427,-7.37821268640099,0.000165751206138528,-0.0031792471475421,0.0033549261949742,3.20356451383509,-2.33617024236221,0.135854545909183,0.000960385412904009,0.00247231827951227,-0.00196975609391982,14.9299048329287,0.75749165645928,-3.25535927613294,0.0238946957484529,0.0144782326109067,-0.01950718724283
0.985,-0.110123013252746,2.53471502571574,-1.91592836343875,0.00218711152291867,-0.00533401977023614,0.000923207464312649,-3.91659575460471,-10.1867463609973,-7.37455200774718,0.000422410363470423,-0.00324717456094211,0.00347141824538249,3.20147167774371,-2.33503876707317,0.135694803220417,0.001236795598088,0.0025358137960027,-0.0026566949381748,14.9219369904583,0.757060432430819,-3.25359970206677,0.0272261560419533,0.0137266120389067,-0.0183191982369335
0.99,-0.11030944445065,2.53356887395694,-1.9145552573782,0.00247757883724602,-0.00555986058238403,0.00187518585847877,-3.9151311949206,-10.1816211330519,-7.37089132909341,0.000521914117089884,-0.00326801963283299,0.00354550570614928,3.19937884165188,-2.33390729178413,0.135535060531765,0.00134782931415536,0.00258962592522175,-0.00336689482889308,14.9139691479875,0.756629208402416,-3.25184012800054,0.0303730814704563,0.0129118779219263,-0.017091232365783
0.995,-0.110495875648553,2.53242272219813,-1.91318215131764,0.00263457132899557,-0.005747198016921,0.00275577347596644,-3.91366663523627,-10.1764959051064,-7.36723065043964,0.000489209306698225,-0.003234432487804,0.0035661656965476,3.1972860055605,-2.33277581649509,0.135375317843,0.00131569807690602,0.0026216177926956,-0.00409373574101451,14.9060013055171,0.756197984373983,-3.25008055393431,0.0332119288877407,0.0120353751424575,-0.0157853049082329
1,-0.11068230684657,2.53127657043927,-1.91180904525709,0.0026526239737862,-0.00587526939734243,0.00353779477645676,-3.91220207555193,-10.171370677161,-7.36356997178586,0.00033187864444978,-0.00314087996382248,0.00352313511769772,3.19519316946867,-2.33164434120602,0.135215575154234,0.00114580454367614,0.00262219313372298,-0.00482819190634736,14.8980334630462,0.75576676034558,-3.24832097986814,0.035632689216979,0.0111140410414872,-0.0143868199708734
1.005,-0.110868738044474,2.53013041868047,-1.91043593919653,0.00252742945527648,-0.00592109648338674,0.00422072750029342,-3.91073751586759,-10.1662454492156,-7.35990929313206,4.83001196811298e-05,-0.00298678490252413,0.00340942292531662,3.19310033337729,-2.33051286591697,0.135055832465525,0.000835437371138054,0.00258493635575062,-0.00555663784353696,14.8900656205758,0.755335536317148,-3.24656140580191,0.0375484964105957,0.0101869735163841,-0.0129096450232978
1.01,-0.111055169242377,2.52898426692161,-1.90906283313575,0.00226159310621959,-0.00586999657710139,0.00479933951586969,-3.90927295618349,-10.1611202212702,-7.35624861447829,-0.000353142907126534,-0.00277471367407633,0.00322102724971852,3.19100749728568,-2.32938139062793,0.134896089776817,0.000392472270625294,0.00250429381477269,-0.00625983509915293,14.8820977781052,0.754904312288716,-3.24480183173574,0.0388946101348115,0.00930809369869233,-0.0113764390721277
1.015,-0.11124160044028,2.52783811516287,-1.90768972707519,0.00186096046800979,-0.00571939284240028,0.00525564835558108,-3.90780839649915,-10.1559949933248,-7.35258793582452,-0.000854951794319641,-0.00250733216915314,0.00295494687825346,3.18891466119408,-2.32824991533889,0.134736347088051,-0.000166080025719393,0.00237448308805434,-0.00691287161603041,14.8741299356345,0.754473088260283,-3.24304225766952,0.039631240872314,0.00854183459304942,-0.00980495525258642
1.02,-0.111428031638411,2.52669196340406,-1.90631662101464,0.00133400638386379,-0.00547972290648114,0.00555891324494791,-3.90634383681481,-10.1508697653794,-7.34892725717074,-0.0014312503739596,-0.00218679695648394,0.00260904283256677,3.18682182510247,-2.32711844004984,0.134576604399285,-0.000814875454116951,0.00218959940889573,-0.00748631572126213,14.8661620931641,0.754041864231851,-3.24128268360329,0.0397418031699279,0.0079599295289714,-0.00820414387385951
1.025,-0.111614462836314,2.5255458116452,-1.90494351495386,0.000692344477004607,-0.00517535342881331,0.00566994173109914,-3.90487927713048,-10.145744537434,-7.34526657851697,-0.00204802200086819,-0.00181613933091954,0.00218213779960834,3.18472898901086,-2.32598696476077,0.134416861710577,-0.00152033112577251,0.0019434231969337,-0.00795008543750371,14.8581942506933,0.753610640203419,-3.23952310953712,0.0392309979366474,0.00763367520564935,-0.00657030291189556
1.03,-0.111800894034218,2.5243996598864,-1.9035704088933,-5.64246972651145e-05,-0.00484289020624073,0.00555944382191478,-3.90341471744614,-10.1406193094885,-7.3416058998632,-0.00267744458759896,-0.00140033821800166,0.00167249308739453,3.18263615291949,-2.3248554894717,0.134257119021868,-0.00225487122172676,0.00162954336726125,-0.00827744702039171,14.8502264082229,0.753179416175016,-3.23776353547089,0.0381321561105493,0.00762791034478241,-0.00488601814577516
1.035,-0.111987325232121,2.5232535081276,-1.90219730283275,-0.000908379500435791,-0.00452872270284772,0.00521021020603868,-3.9019501577618,-10.1354940815431,-7.3379452212094,-0.00329907345746592,-0.000945981242689596,0.00107837299485762,3.18054331682765,-2.32372401418269,0.134097376333159,-0.00299803626886346,0.00124213134984621,-0.00844575621969404,14.842258565752,0.752748192146584,-3.23600396140472,0.0365058911267885,0.00799897597291491,-0.0031233070646023
1.04,-0.112173756430025,2.52210735636874,-1.90082419677219,-0.00185692780594705,-0.0042866406995589,0.00460842990188839,-3.90048559807747,-10.1303688535977,-7.33428454255562,-0.00389071294653976,-0.000461277007087382,0.000400291539716634,3.17845048073627,-2.32259253889362,0.133937633644393,-0.00372715602555286,0.000776933261517716,-0.00843747346682221,14.8342907232816,0.752316968118151,-3.23424438733855,0.034431744718526,0.00879262101007016,-0.00124859271930293
1.045,-0.112360187628042,2.52096120460993,-1.89945109071164,-0.00289652292751637,-0.00417116131812681,0.00375537512718981,-3.89902103839358,-10.1252436256523,-7.33062386390185,-0.00443819434943112,4.43066588806558e-05,-0.000359135743586687,3.17635764464444,-2.32146106360457,0.133777890955685,-0.00442702998150201,0.000232463666697654,-0.00824316915848676,14.8263228808109,0.751885744089719,-3.23248481327232,0.0320051809898753,0.0100405883211486,0.000772057859594249
1.05,-0.112546618825945,2.51981505285113,-1.89807798465085,-0.00402154449235537,-0.00422916934479796,0.00267000965972448,-3.89755647870925,-10.1201183977069,-7.32696318524808,-0.00493675805861719,0.000563487555537967,-0.0011947858233888,3.17426480855306,-2.3203295883155,0.133618148266976,-0.00509153605383137,-0.000388626572709549,-0.00786043660982898,14.8183550383403,0.751454520061287,-3.23072523920609,0.0293232333086522,0.0117576967677763,0.00296915929854223
1.055,-0.112733050023849,2.51866890109233,-1.8967048785903,-0.00521296694851498,-0.00449573342627752,0.00136899971765727,-3.89609191902491,-10.1149931697614,-7.3233025065943,-0.00537016372972486,0.00109428965769964,-0.00209582805741807,3.17217197246123,-2.31919811302646,0.13345840557821,-0.00570286301880174,-0.0010784150626044,-0.00728941147505156,14.8103871958697,0.751023296032884,-3.22896566513992,0.0264644178521128,0.0139401203552459,0.00536584559186567
1.06,-0.112919481221866,2.51752274933352,-1.89533177252974,-0.00643893987750172,-0.00499069554883573,-0.00012625914752922,-3.89462735934057,-10.109867941816,-7.31964182794053,-0.00571452602957203,0.00163714863551185,-0.00304484409230851,3.17007913636985,-2.31806663773742,0.133298662889445,-0.00623489411609137,-0.00182304153977781,-0.00653383967489803,14.802419353399,0.750592072004451,-3.2272060910737,0.0234978951090589,0.0165635739013269,0.00797050701567771
1.065,-0.113105912419883,2.51637659757472,-1.89395866646919,-0.00767018568237446,-0.00571360438977094,-0.00175510696492428,-3.89316279965624,-10.1047427138706,-7.31598114928673,-0.00596846390320611,0.00218869631095677,-0.00401994124225726,3.16798630027802,-2.31693516244837,0.133138920200736,-0.0066826481704875,-0.0026023362737639,-0.00560684740666671,14.7944515109286,0.750160847976019,-3.22544651700747,0.0205133573486633,0.0195794988987848,0.0107673309599903
1.07,-0.113292343617786,2.51523044581586,-1.89258556040841,-0.00887884318511816,-0.00664179872847922,-0.00341564057742821,-3.8916982399719,-10.0996174859252,-7.31232047063295,-0.00615278488462468,0.00274050714637336,-0.00499405217300775,3.16589346418664,-2.31580368715933,0.132979177512027,-0.00706174939221935,-0.00338948212315586,-0.00453194166900682,14.7864836684578,0.749729623947587,-3.2236869429413,0.0176264487173673,0.0229075528607347,0.013708668827412
1.075,-0.11347877481569,2.51408429405706,-1.89121245434785,-0.0100180971859517,-0.00773049453725343,-0.00499924358706908,-3.89023368028757,-10.0944922579798,-7.30865979197918,-0.00627537983396743,0.00328400341444699,-0.00593105897445766,3.1638006280948,-2.31467221187029,0.132819434823261,-0.00737372100930715,-0.00415062913265909,-0.00333904698451403,14.7785158259874,0.749298399919155,-3.22192736887507,0.0149537586937115,0.0264249346426178,0.0167093828106632
1.08,-0.113665206013593,2.51293814229825,-1.8898393482873,-0.0110084401954217,-0.00890809928217304,-0.00641057514299554,-3.88876912060346,-10.0893670300344,-7.30499911332538,-0.00630897898367087,0.00381537175132808,-0.00678361683465033,3.16170779200343,-2.31354073658122,0.132659692134496,-0.00758419640243689,-0.00484449747528735,-0.00206317769956128,14.7705479835167,0.748867175890751,-3.22016779480884,0.0125885670042173,0.0299547049744672,0.0196402677785757
1.085,-0.11385163721161,2.51179199053939,-1.88846624222674,-0.0117428982325188,-0.0100730192736968,-0.00756245650736581,-3.88730456091912,-10.084241802089,-7.30133843467164,-0.00619848790808885,0.00433661563322557,-0.00749541286810596,3.15961495591182,-2.31240926129217,0.132499949445844,-0.00763057306770368,-0.00542337486828246,-0.000744271220768886,14.7625801410461,0.748435951862319,-3.21840822074267,0.0105971636422044,0.033264908250274,0.0223294582644746
1.09,-0.114038068409513,2.51064583878059,-1.88709313616596,-0.0121113792569798,-0.0111077226403469,-0.00837327041499658,-3.88584000123478,-10.0791165741436,-7.29767775601783,-0.00588622671696777,0.00485346018799672,-0.00800940231884912,3.15752211982021,-2.31127778600313,0.132340206757078,-0.00744791568700814,-0.00583832206811363,0.00058085117398789,14.7546122985755,0.748004727833859,-3.21664864667645,0.00904217983064554,0.0361000809216375,0.0245919938132506
1.095,-0.114224499607417,2.50949968702179,-1.8857200301054,-0.0120292077013452,-0.0118993702358007,-0.00877237854888967,-3.88437544155045,-10.0739913461981,-7.29401707736406,-0.00533789968048976,0.00537324417656645,-0.00827801181548893,3.15542928372884,-2.31014631071409,0.132180464068313,-0.00699587734604154,-0.00604618201047168,0.00188897829698767,14.7466444561048,0.747573503805455,-3.21488907261022,0.00801487867223984,0.0382242001922781,0.0262685220548107
1.1,-0.114410930805434,2.50835353526298,-1.88434692404508,-0.0114426317371447,-0.0123436758609191,-0.00870245441856778,-3.88291088186611,-10.0688661182527,-7.29035639871029,-0.00454622319497346,0.00590375307841558,-0.00826589187593222,3.153336447637,-2.30901483542505,0.132020721379604,-0.00626258231941873,-0.00601204016826203,0.00316691942798624,14.7386766136342,0.747142279777023,-3.21312949854405,0.00763626717074384,0.0394251858943843,0.0272276547424057
1.105,-0.114597362003451,2.50720738350418,-1.88297381798429,-0.0103214486156758,-0.0123551011842871,-0.00812705585701025,-3.881446322182,-10.0637408903073,-7.28669572005651,-0.00351772775989758,0.0064497213531061,-0.00794812048574897,3.15124361154562,-2.30788336013597,0.131860978690895,-0.00525104764547753,-0.00570999304389407,0.00439991406551506,14.7307087711638,0.746711055748591,-3.21136992447788,0.0080241250831437,0.0395160653925765,0.0273600979243468
1.11,-0.114783793201354,2.50606123174532,-1.88160071192374,-0.00866708113443423,-0.0119041677241218,-0.00705089151211095,-3.87998176249766,-10.0586156623619,-7.28303504140274,-0.00226898185473009,0.00700808215484617,-0.00731355148811068,3.14915077545379,-2.3067518848469,0.131701236002129,-0.00397555201168605,-0.0051279616077903,0.00557103430911132,14.7227409286929,0.746279831720159,-3.20961035041165,0.00926113884008904,0.0383868685705643,0.0266074276054681
1.115,-0.114970224399258,2.50491507998652,-1.88022760586296,-0.00652341175909601,-0.0110334858462633,-0.0055279533863464,-3.87851720281355,-10.0534904344165,-7.27937436274895,-0.000832372492301379,0.00756781773433924,-0.0063698665249301,3.14705793936241,-2.30562040955786,0.131541493313421,-0.00246808629990029,-0.004271849048331,0.00666529998333358,14.7147730862225,0.745848607691727,-3.20785077634548,0.0113795884357723,0.0360429593994877,0.0249790937570596
1.12,-0.115156655597161,2.50376892822771,-1.87885449980263,-0.00397551261338908,-0.00982613647439248,-0.00363945963236901,-3.87705264312922,-10.0483652064711,-7.27571368409519,0.000736725088581064,0.0081127161357812,-0.00514565719647888,3.14496510327058,-2.30448893426885,0.131381750624655,-0.000785982681175733,-0.00316597550204814,0.00766419825320818,14.7068052437519,0.745417383663323,-3.20609120227925,0.0143522175273033,0.0325778313907645,0.0225373768576303
1.125,-0.115343086795178,2.50262277646885,-1.87748139374185,-0.00114725678067035,-0.00837475641506165,-0.00146796017726768,-3.87558808344488,-10.0432399785257,-7.27205300544141,0.00235357315799991,0.00862181236194323,-0.00369225669324021,3.1428722671792,-2.30335745897978,0.131222007935946,0.000981481759320075,-0.00185390631690551,0.00853863017357514,14.6988374012813,0.744986159634891,-3.20433162821303,0.0180834754733402,0.0281416466161315,0.0193972038561902
1.13,-0.115529517993082,2.50147662471005,-1.87610828768129,0.00180386524454405,-0.00678399300485691,0.000900497022741233,-3.87412352376055,-10.0381147505802,-7.26839232678763,0.00391271730901595,0.00907010694478142,-0.00208384539019001,3.14077943108737,-2.30222598369073,0.131062265247181,0.00272150011987363,-0.000399475525185775,0.00925391390829905,14.6908695588106,0.744554935606459,-3.20257205414686,0.0224073178140135,0.0229494814105931,0.015740093665461
1.135,-0.115715949190985,2.5003304729513,-1.87473518162051,0.0047014862457634,-0.00518381372643915,0.00335497933870021,-3.87265896407621,-10.0329895226348,-7.26473164813383,0.00531171112995563,0.00943169365782284,-0.000412387083381863,3.13868659499599,-2.30109450840166,0.130902522558472,0.00432156353250827,0.00111579257984088,0.00978073102167318,14.68290171634,0.744123711578027,-3.20081248008063,0.0270941303830962,0.0172964567033743,0.0118106750811379
1.14,-0.115902380388889,2.49918432119244,-1.87336207556018,0.00736780116454799,-0.0037199161596704,0.00575339253108095,-3.87119440439187,-10.0278642946894,-7.26107096948007,0.00646609320787824,0.00968287902173932,0.00122202570689907,3.13659375890416,-2.29996303311262,0.130742779869706,0.00568538422759747,0.00260079519728951,0.0100979749937063,14.6749338738696,0.743692487549595,-3.1990529060144,0.0318657821007749,0.011534829394318,0.00788876144284411
1.145,-0.116088811586906,2.49803816943364,-1.8719889694994,0.00963963450944543,-0.00251960709506934,0.00794841574050097,-3.86972984470754,-10.022739066744,-7.2574102908263,0.00730764179142737,0.00980811726103459,0.00272192775649546,3.13450092281278,-2.29883155782358,0.130583037180998,0.00673228509432831,0.00396681968027706,0.0101942934855279,14.6669660313987,0.743261263521191,-3.19729333194823,0.0364251047477444,0.00601882576453497,0.00424608982730169
1.15,-0.116275242784923,2.49689201767484,-1.87061586343884,0.0113848786000365,-0.001665576713969,0.00982535951514615,-3.86826528502343,-10.0176138387986,-7.2537496121725,0.00778263819460213,0.00980800871006306,0.00400115029858389,3.13240808672117,-2.29770008253453,0.130423294492289,0.00739610478250697,0.00513797532758228,0.0100776937919254,14.6589981889283,0.742830039492759,-3.195533757882,0.040496549919598,0.00106417715379841,0.00110924247784706
1.155,-0.116461673982826,2.49574586591598,-1.86924275737829,0.0125177725929876,-0.00119642954112788,0.0113144403648828,-3.86680072533909,-10.0124886108532,-7.25008893351873,0.00786280572365902,0.00969884599817925,0.00499212526941103,3.13031525062956,-2.29656860724549,0.130263551803523,0.00763713344683633,0.00605670241203125,0.00977946370513544,14.6510303464574,0.742398815464327,-3.19377418381578,0.043855632807137,-0.00306391157469897,-0.0013570366706054
1.16,-0.11664810518073,2.49459971415718,-1.86786965131751,0.0130067434079915,-0.00111420691011358,0.0123746801940725,-3.86533616565498,-10.0073633829077,-7.24642825486497,0.00755773504425427,0.00950521555009444,0.00565159314572972,3.12822241453819,-2.29543713195642,0.130103809114814,0.0074558923066925,0.00668592531595885,0.00934677802845371,14.643062503987,0.741967591435923,-3.19201460974961,0.0463352632035411,-0.00615962671495253,-0.00305224158995089
1.165,-0.116834536378633,2.49345356239832,-1.86649654525718,0.0128722545661042,-0.00138306268315317,0.0129811160496823,-3.86387160597064,-10.0022381549623,-7.24276757621119,0.00691402208118271,0.00925626447830348,0.00596237399671885,3.12612957844635,-2.29430565666738,0.129944066426106,0.0068929064626175,0.00700997633945253,0.00883592015474806,14.6350946615166,0.741536367407463,-3.19025503568338,0.0478229470154885,-0.008091298036188,-0.0039396448847165
1.17,-0.11702096757665,2.49230741063951,-1.8651234391964,0.0121775801927395,-0.00193126613939892,0.0131326121351711,-3.86240704628631,-9.99711292701691,-7.23910689755739,0.00600198891337947,0.00898401736225873,0.00593146394324121,3.12403674235497,-2.29317418137833,0.12978432373734,0.0060155092062549,0.0070340653734517,0.008306540221072,14.6271268190458,0.741105143379031,-3.18849546161715,0.0482668274038703,-0.00881455071321295,-0.00404765213768439
1.175,-0.117207398774553,2.49116125888077,-1.86375033313584,0.0110137596390895,-0.00266411819592943,0.0128711692342452,-3.86094248660197,-9.99198769907149,-7.23544621890363,0.0048952663516818,0.0087185977703096,0.00558563753295424,3.12194390626314,-2.29204270608926,0.129624581048631,0.00489751064399228,0.00678156021008566,0.00781083177791929,14.6191589765754,0.740673919350627,-3.18673588755104,0.0476885974950627,-0.00838153346386416,-0.00346717693242091
1.18,-0.117393829972571,2.49001510712191,-1.86237722707506,0.00948459567212911,-0.00348080471026508,0.0122829851519722,-3.85947792691763,-9.98686247112607,-7.23178554024986,0.00365736044850829,0.00848194435162376,0.00496646474707039,3.11985107017176,-2.29091123080022,0.129464838359922,0.00360577813468629,0.00628946168372314,0.00738279132761492,14.6111911341045,0.740242695322195,-3.18497631348481,0.0461803358252271,-0.00693433853030084,-0.0023347901925447
1.185,-0.117580261170474,2.4888689553631,-1.86100412101473,0.00769868912022982,-0.00428498406695356,0.0114686633088827,-3.85801336723353,-9.98173724318067,-7.22812486159607,0.00234507542925335,0.00828662036266605,0.00412613011636095,3.11775823407993,-2.28977975551118,0.129305095671157,0.00220306920801026,0.00560366246011336,0.00703942647082129,14.6032232916341,0.739811471293763,-3.18321673941858,0.0438787420740167,-0.00467588656957207,-0.000806835158843634
1.19,-0.117766692368491,2.4877228036043,-1.85963101495395,0.00576661442610013,-0.00498410334347669,0.0105122954740703,-3.85654880754919,-9.97661201523525,-7.2244641829423,0.00101650996273454,0.00814089946735084,0.00312381027151322,3.11566539798855,-2.28864828022211,0.129145352982391,0.000754889021766101,0.00477561057853147,0.00679066460439815,14.5952554491632,0.739380247265331,-3.18145716535241,0.0409359435881851,-0.00183901145665982,0.000957163951067214
1.195,-0.117953123566394,2.48657665184544,-1.85825790889339,0.00379861302254773,-0.00548923156923579,0.00947112899044693,-3.85508424786485,-9.97148678728983,-7.22080350428853,-0.000266365808366474,0.00804997626255475,0.00202284958244795,3.11357256189672,-2.28751680493306,0.128985610293682,-0.000668517274628907,0.00385953712046023,0.00664078413315465,14.5872876066928,0.738949023236898,-3.17969759128619,0.0374949075591617,0.00133651963431802,0.00280112662087897
1.2,-0.118139554764298,2.48543050008664,-1.85688480283261,0.00189608959057937,-0.00572746390718855,0.0083861635731272,-3.85361968818052,-9.96636155934442,-7.21714282563475,-0.00144592960051842,0.0080127308187468,0.000886139009571069,3.11147972580534,-2.28638532964402,0.128825867604974,-0.0020006771147701,0.00290831427109377,0.00658455406788895,14.5793197642222,0.738517799208495,-3.17793801721996,0.0336810178741611,0.00462782852829535,0.00458197390670526
1.205,-0.118325985962201,2.48428434832783,-1.85551169677228,0.000138992915182954,-0.00565516054911929,0.00730358353035024,-3.85215512849618,-9.96123633139901,-7.21348214698097,-0.00248509701211157,0.00802240680789865,-0.000230278902455795,3.10938688971351,-2.28525385435498,0.128666124916208,-0.00319586905452335,0.00196955147429003,0.00660989020226603,14.5713519217516,0.738086575180063,-3.17617844315379,0.029615274727678,0.00784470865529446,0.00617862695936266
1.21,-0.118512417160218,2.48313819656897,-1.8541385907115,-0.00141627642851095,-0.00525539950036462,0.00627972473123997,-3.85069056881184,-9.95611110345359,-7.20982146832719,-0.00337043229941091,0.00806900009211563,-0.00127923512991171,3.10729405362213,-2.28412237906593,0.128506382227499,-0.0042327102537524,0.00108460949054251,0.00670050542411493,14.5633840792809,0.737655351151631,-3.17441886908756,0.0254164254215996,0.0108291254717092,0.00749227475391251
1.215,-0.118698848358122,2.48199204481023,-1.85276548465094,-0.00273238242077224,-0.00453407389617325,0.00536480439958907,-3.84922600912751,-9.95098587550818,-7.20616078967342,-0.00410166629056698,0.00814105964402583,-0.00222233573467531,3.10520121753029,-2.28299090377686,0.12834663953879,-0.00510398814043073,0.000287759775016086,0.0068401865509684,14.5554162368103,0.737224127123199,-3.17265929502133,0.0211907112967359,0.0134611162735257,0.00845167124458014
1.22,-0.118885279556025,2.48084589305142,-1.85139237859016,-0.00379228583118259,-0.00352863786039649,0.00459015721417319,-3.8477614494434,-9.94586064756276,-7.20250011101962,-0.00468601349298846,0.00822841537157921,-0.00303267379208482,3.10310838143891,-2.28185942848782,0.128186896850025,-0.0058117306032576,-0.00039652863727874,0.00702281465572658,14.5474483943399,0.736792903094766,-3.17089972095516,0.0170378401152989,0.0156760480389349,0.00902677744698458
1.225,-0.119071710754042,2.47969974129256,-1.85001927252961,-0.00459553185700556,-0.00230450583665956,0.0039668220966838,-3.84629688975929,-9.94073541961735,-7.19883943236584,-0.00513388378988971,0.00832131276559636,-0.00369366651978929,3.10101554534754,-2.28072795319878,0.128027154161259,-0.0063627322309921,-0.000953224878941887,0.00724928170682288,14.539480551869,0.736361679066363,-3.16914014688894,0.0130531896522178,0.0174539377680928,0.00922160557759159
1.23,-0.119258141952059,2.47855358953376,-1.84864616646928,-0.00514378297444924,-0.000930022452113728,0.00348681981513155,-3.84483233007495,-9.93561019167193,-7.19517875371207,-0.0054487355645593,0.00840462274407676,-0.00419139864474981,3.0989227092557,-2.27959647790971,0.12786741147255,-0.006756875106883,-0.00137202552838163,0.00750684564914638,14.5315127093986,0.735930455037931,-3.16738057282271,0.00930939271003279,0.0187753176926871,0.00904237506246029
1.235,-0.119444573149963,2.4774074377749,-1.8472730604085,-0.00543211798751314,0.000540069543608596,0.00312555379409512,-3.84336777039061,-9.93048496372651,-7.1915180750583,-0.00562165651690131,0.00845527931858261,-0.00451017784733911,3.09682987316432,-2.27846500262069,0.127707668783842,-0.00698088276280023,-0.00164437807077187,0.00775838808866156,14.523544866928,0.73549923100947,-3.16562099875654,0.00584644910571479,0.0195962653752303,0.00847867988410456
1.24,-0.119631004347866,2.4762612860161,-1.84589995434794,-0.00545663195045771,0.00205836596695491,0.0028483113244658,-3.84190321070628,-9.92535973578109,-7.18785739640451,-0.0056395137245048,0.00844973735889529,-0.00463754272823873,3.09473703707249,-2.27733352733162,0.127547926095133,-0.00701777708985152,-0.00176551405623313,0.00796066290270762,14.5155770244573,0.735068006981066,-3.16386142469031,0.00268661699065053,0.0198782691194158,0.0075199057724783
1.245,-0.11981743554577,2.47511513425729,-1.84452684828739,-0.00522837001233673,0.00357178370562837,0.00261923762640428,-3.84043865102194,-9.92023450783569,-7.18419671775072,-0.00549934477868801,0.00837536580103183,-0.00457258163414263,3.09264420098111,-2.27620205204258,0.127388183406367,-0.00686334039171532,-0.00173793558463918,0.00809246402430472,14.5076091819867,0.734636782952634,-3.16210185062414,-0.000144742283503369,0.0196371576927318,0.0061842454390705
1.25,-0.120003866743673,2.47396898249849,-1.84315374222683,-0.00477738756547696,0.0050208450251901,0.00240804900558381,-3.8389740913376,-9.91510927989027,-7.18053603909695,-0.00521554226887781,0.0082323147269204,-0.00432690928824848,3.09055136488928,-2.27507057675354,0.127228440717602,-0.00653350615591639,-0.0015709761745688,0.00815591155890367,14.4996413395161,0.734205558924202,-3.16034227655797,-0.00261659622429891,0.0189419107809969,0.00452178772282127
1.255,-0.12019029794169,2.47282283073969,-1.84178063616605,-0.00414534725591186,0.0063492680270252,0.00219193882983642,-3.83750953165327,-9.90998405194485,-7.17687536044318,-0.00481659753030618,0.00802459942305268,-0.00391794432690194,3.0884585287979,-2.27393910146446,0.127068698028893,-0.00605932584706836,-0.00127681494179113,0.00815061258026048,14.4916734970454,0.73377433489577,-3.15858270249174,-0.00470456245301449,0.0178634756716807,0.00259149629304803
1.26,-0.120376729139593,2.47167667898088,-1.84040753010549,-0.00337802787802401,0.00750891574110071,0.00195397391120984,-3.83604497196916,-9.90485882399944,-7.1732146817894,-0.00433888359384147,0.00775157092403089,-0.0033632707052772,3.08636569270607,-2.27280762617542,0.126908955340184,-0.0054792221056781,-0.000867836114050147,0.00805343714489404,14.483705654575,0.733343110867338,-3.15682312842551,-0.00639569345706485,0.0164348769840599,0.000444407551997203
1.265,-0.12056316033761,2.47053052722202,-1.83903442404494,-0.00252529701938404,0.0084613173424332,0.00168454469217454,-3.83458041228482,-9.89973359605403,-7.16955400313562,-0.00382752713299658,0.00740687929289901,-0.00268021443366705,3.08427285661469,-2.27167615088638,0.126749212651418,-0.00483968975832237,-0.000356346054126199,0.00781673392191029,14.4757378121044,0.732911886838906,-3.15506355435934,-0.0076849966143349,0.0146431214881463,-0.00187529378364716
1.27,-0.120749591535514,2.46938437546322,-1.83766131798438,-0.00164382670252128,0.00918266634621005,0.00138459298988258,-3.83311585260049,-9.89460836810861,-7.16589332448184,-0.00334121636719627,0.00698314492102773,-0.00188741662028941,3.08218002052286,-2.27054467559731,0.126589469962653,-0.00420068654390667,0.000245631242452385,0.00737867822556616,14.4677699696338,0.732480662810502,-3.15330398029312,-0.00857685185467971,0.0124418429996481,-0.00432497962104308
1.275,-0.120936022733531,2.46823822370442,-1.8362882119236,-0.000790346771285976,0.00966656562260396,0.00105437807651314,-3.83165129291615,-9.8894831401632,-7.16223264582807,-0.00294112884094494,0.00647764078418326,-0.00100412090527064,3.08008718443148,-2.26941320030829,0.126429727273944,-0.00362513523046191,0.000926921079999632,0.00668510890665927,14.4598021271631,0.73204943878207,-3.15154440622689,-0.00909112966676408,0.00979277743285044,-0.00686756495495847
1.28,-0.121122453931434,2.46709207194556,-1.83491510586305,-8.94448531649043e-06,0.00992129627205606,0.000673026334043301,-3.83018673323204,-9.88435791221777,-7.1585719671743,-0.00266865367191619,0.00589590493142779,-4.81076959758177e-05,3.07799434833964,-2.26828172501922,0.126269984585235,-0.0031570068067804,0.00167711413791454,0.00571243745605663,14.4518342846925,0.731618214753638,-3.14978483216072,-0.00926711406110373,0.00671723110228411,-0.00947972222717245
