Header,foot_Accel_X,foot_Accel_Y,foot_Accel_Z,foot_Gyro_X,foot_Gyro_Y,foot_Gyro_Z,shank_Accel_X,shank_Accel_Y,shank_Accel_Z,shank_Gyro_X,shank_Gyro_Y,shank_Gyro_Z,thigh_Accel_X,thigh_Accel_Y,thigh_Accel_Z,thigh_Gyro_X,thigh_Gyro_Y,thigh_Gyro_Z,trunk_Accel_X,trunk_Accel_Y,trunk_Accel_Z,trunk_Gyro_X,trunk_Gyro_Y,trunk_Gyro_Z
99.23,-0.492077954693275,0.2023097162736,0.910292141004216,-0.353872391076009,2.5632363737771,-0.144123192510483,-1.29153832777899,-0.116850363348359,-0.302620134716905,0.323649569837402,1.82918589020271,-1.20522616693706,-1.15270400480291,-0.0575168476460834,0.162096484947533,-0.21878769927819,0.132091899191886,-0.663000817853236,-0.851377479228138,0.0871468086399809,0.418983494179214,-0.330475703527134,0.091183369672396,-0.267824039629077
99.235,-0.486858312430283,0.216319484520206,0.941683800570888,-0.386891315363756,2.7686034841369,-0.151888106612922,-1.33336075914261,-0.130269222588023,-0.315614070149987,0.314757717484429,1.87053807123184,-1.2568373245835,-1.15254196549565,-0.0248031468014602,0.208071748330611,-0.108209806125652,0.0322596119357577,-0.709627676420722,-0.83551413429093,0.103698674434943,0.373554640905195,-0.36094648913241,0.199236488657768,-0.258595693968567
99.24,-0.482954464538308,0.232282292285811,0.959600230266356,-0.441502453199933,2.99465490839472,-0.147625035011521,-1.41144331321682,-0.1402623974049,-0.329408871046344,0.28517971240534,1.90544763339738,-1.33885946264339,-1.20096057879431,0.0388357246425483,0.23001337291059,-0.0310640180174884,-0.043117505201475,-0.749265790449459,-0.864919334863072,0.112626206232417,0.329149826378656,-0.386350178990811,0.2827308897345,-0.247026709352533
99.245,-0.49279002386244,0.257816739296598,0.94228840954607,-0.550307744211821,3.36952982460116,-0.148045914915514,-1.52723825738942,-0.0971867099850328,-0.339668944806553,0.271602795822532,1.93269012251716,-1.48073588072595,-1.32212052785783,0.113992095010342,0.254635881227641,0.0371850445762075,-0.107945214018206,-0.781188728270581,-0.915641753308686,0.11939524431564,0.306286389603789,-0.397791238612387,0.274469025497426,-0.230269020054463
99.25,-0.499656322358191,0.255811632352975,0.921898416666559,-0.647710273196898,3.73891527701073,-0.168433884189704,-1.63616307622359,-0.00817352098943169,-0.318434317799556,0.23299383686678,1.97971520297584,-1.62358606381076,-1.48986229746607,0.160667012345415,0.258803892647291,0.0389537785009854,-0.126766961871409,-0.77456127129235,-0.997435193833474,0.124105436441438,0.321474882079948,-0.416646145519608,0.153958520051205,-0.21475897809836
99.255,-0.463931419257448,0.260646637197932,0.893393813953407,-0.658634291569693,3.96732664954434,-0.228019430141043,-1.76879855132101,0.0899956371908201,-0.258922220070275,0.0894037067855269,2.05062684779935,-1.7202482776879,-1.68355546949454,0.199087711618803,0.264264773432986,-0.0170273571945694,-0.134860701697039,-0.728562198272672,-1.1104603345749,0.131680771455499,0.33633693857415,-0.472123985503928,-0.0715008527113268,-0.19270186609521
99.26,-0.445082217403769,0.249141550019768,0.882905624081972,-0.665472032122219,4.31716838695049,-0.330470818287322,-1.85372684118111,0.077609368267287,-0.166171300104483,-0.237222162071516,2.08393411107208,-1.67942004653794,-1.74669822097395,0.222898613457395,0.307072835563246,-0.136138420759315,-0.209575844759607,-0.646267282588476,-1.32760035474932,0.210163452811511,0.347666373702151,-0.532431008117638,-0.360113005153984,-0.160394533490381
99.265,-0.491410915191665,0.238753764984135,0.904913885000072,-0.707050056705248,4.72231603899997,-0.44997180517427,-1.90236748211602,-0.0269687306315242,-0.120304161476235,-0.467784665751933,2.12359052446737,-1.59307926533094,-1.68616307925209,0.222772244698809,0.365418705072636,-0.228929532861438,-0.361840681896578,-0.598672619745505,-1.48246188635554,0.321178634944415,0.324484785402927,-0.512225372243834,-0.500714460901704,-0.127342203852374
99.27,-0.571463004244303,0.231040621487725,0.913196023934981,-0.804887953391379,5.0454028222506,-0.53678787609644,-1.89494691187613,-0.179157055180025,-0.0838198675655645,-0.513127606806126,2.16323711922268,-1.53723002893757,-1.59169812307769,0.229757734795574,0.450124268906548,-0.376455530989242,-0.584473458107024,-0.584448197114604,-1.58730700274886,0.368711477837948,0.284252504250427,-0.432260932289477,-0.341476217289466,-0.0691734487690543
99.275,-0.614341307553999,0.257137839822047,0.898516268013941,-0.974620868928072,5.43513442032438,-0.638466904974291,-1.87424935381315,-0.290194757084943,-0.0432464948478474,-0.448804330566172,2.22304008231307,-1.5742340647706,-1.54768098149072,0.227996912147432,0.560521140818834,-0.607252974219725,-0.819945739420463,-0.582674612406597,-1.6689805077183,0.412298882855272,0.26110564636232,-0.447040543372658,-0.0650159489661323,0.0208533084349821
99.28,-0.655204871719514,0.284859768330834,0.8929940806635,-1.21873077579455,5.88429457385905,-0.783418820009431,-1.84837778549267,-0.303798167269666,0.0134437272832451,-0.348447085940802,2.32207830708294,-1.70241036837013,-1.55506107395071,0.218412932982275,0.637736670148884,-0.852267967602883,-1.04099146472295,-0.581160805303707,-1.67595281346099,0.402555289978774,0.254432666212995,-0.6017505511769,0.166525501188203,0.112783004771966
99.285,-0.716467515878167,0.301488540083111,0.907851743172925,-1.51807060605831,6.3393804061357,-0.965314373137388,-1.8304134978782,-0.243507727250487,0.0806355614256461,-0.259225793444424,2.43675536661982,-1.83872977507049,-1.56245474799544,0.186240542928721,0.663740857105886,-1.0271179360131,-1.24770117165212,-0.568436322406344,-1.59070781118011,0.319965641579479,0.248675614468283,-0.915571163657773,0.257097423344066,0.227567685500557
99.29,-0.667854787311806,0.374858169548933,0.918408294209347,-1.83066018305037,6.75147486551775,-1.15836098672703,-1.84731004646076,-0.16394469146892,0.132559485504096,-0.159137042966239,2.50501662554667,-1.8935475997552,-1.52924355294149,0.0954682905421287,0.674655888944958,-1.13622929310283,-1.43946218244914,-0.540543357979,-1.49515656416215,0.240936777080185,0.253130556867731,-1.28456824959718,0.223277061396625,0.364102127298159
99.295,-0.590007607782988,0.409127495291953,0.949573588421212,-2.10078133609172,7.07035975314894,-1.343767219313,-1.87721659766391,-0.0550736373698924,0.198577570860509,-0.0688029808544288,2.53376760902416,-1.90329343626884,-1.48541532045821,-0.0186309395612823,0.664378798661982,-1.30074398398012,-1.58249193379085,-0.510335636439335,-1.45553580584656,0.202738699547841,0.267288869338021,-1.56515306427733,0.200995840362216,0.441699054481788
99.3,-0.622555474044738,0.329487594263421,0.949176636091999,-2.43597149057714,7.42040515297805,-1.55316258374924,-1.90553275972898,0.0806240590234699,0.300512214995397,0.0871779848093705,2.51954707742445,-1.87316256516552,-1.44627540519115,-0.16144421539816,0.621105242779846,-1.56914107378221,-1.6725401899162,-0.487934348040232,-1.44452456560607,0.163061622048719,0.26829894890048,-1.81936583343573,0.227199914054691,0.481797639704298
99.305,-0.798184020542125,0.187659657989819,0.84448231608791,-2.93763344792354,7.88469642720627,-1.9060748999967,-1.90838697258825,0.184791738061021,0.342441211681803,0.34318894235878,2.47920628502194,-1.80456855028672,-1.44066390549593,-0.32437050614969,0.562596216669408,-1.86560780550611,-1.75888962955055,-0.509382176821597,-1.46695623203666,0.0928991732103418,0.238504923039063,-1.97870030403144,0.254835186311423,0.485989374930077
99.31,-0.938325544670187,0.231113892077027,0.794482794759266,-3.22882131141299,8.21905648876432,-2.27539573023763,-1.87993462604023,0.140880004944998,0.184837168817915,0.408327330371006,2.46509802798411,-1.74170180473043,-1.46304529767646,-0.438182960430355,0.511687493399771,-1.94332849641712,-1.88067451780862,-0.595326022205376,-1.5059655189526,-0.0206806726214531,0.165435933108558,-2.00907679177547,0.215196392265677,0.458855324903714
99.315,-0.87739334061662,0.329851648828471,0.89684124378589,-3.51875640232899,8.58812012924935,-2.65114300028365,-1.84401039855304,0.124828880271134,0.147267171123583,0.365291334958387,2.47947558762583,-1.78194852280717,-1.501475439147,-0.51786991760828,0.381548385974341,-1.66139583635362,-1.94664449802739,-0.697464892863279,-1.52706838913952,-0.145289952759292,0.0889776863723232,-1.91103363066361,0.101203004969501,0.416076779424103
99.32,-1.03079944298685,0.151783157068909,1.28357001504621,-3.7487496235682,8.89644129363516,-2.90355186220554,-1.85357800168568,0.179730103605005,0.168878399550716,0.283077985792834,2.51721346383766,-1.86800780644992,-1.52173410644332,-0.497102817686681,0.318852801670097,-1.32023377374765,-2.05129976368909,-0.791970233863108,-1.52086357852662,-0.246582553704203,0.0265819753847268,-1.66012115265982,-0.0126888250357345,0.370697746707571
99.325,-1.48291568973748,0.143632225144747,1.66572391982593,-3.74760088102101,8.86428188179128,-2.89895778859635,-1.87749562663539,0.243265706428521,0.132928398991337,0.267028442189062,2.52294526391821,-1.9081316374939,-1.54696795342904,-0.367556262311104,0.18869239795713,-0.903476012290531,-2.17367190805918,-0.858928508995036,-1.47693502421746,-0.356448440071738,-0.0524951258899638,-1.16580604279972,-0.156392825571644,0.347765992042608
99.33,-1.9653332856731,0.114889174691615,1.61017163229738,-3.52224547022626,8.56212851993292,-2.72217879866664,-1.80181680198431,0.239833741327759,-0.0950275499449189,0.349201066789297,2.44621534031556,-1.84058936620869,-1.52850881832062,-0.21176060468919,0.0326710022410926,-0.558347592527662,-2.21546140682324,-0.854192321213902,-1.38475402549013,-0.413118023753672,-0.0980524093621876,-0.69120277800318,-0.262431305754943,0.333311130460932
99.335,-2.42718990617549,0.176390019012325,1.46018436897121,-3.11510107091524,8.21879558962716,-2.57078729601818,-1.6708855088074,0.204454797659038,-0.377245737300118,0.506966115470004,2.40008224868339,-1.81633114154845,-1.48353833523657,-0.087875089132298,-0.0427756406724654,-0.349059802748786,-2.2455010230721,-0.826397690425427,-1.28833443108308,-0.419116900834397,-0.115519383544382,-0.356146888226271,-0.380216143582686,0.310974073870398
99.34,-2.68786836883147,0.217973725655476,1.36305379192606,-3.08180499094088,7.94600485708486,-2.4472662001761,-1.50096055657612,0.200091905855323,-0.73911462024979,0.610068284832645,2.44175898611533,-1.84938197618402,-1.47039968812448,0.0252085239204373,-0.107145398369288,-0.130232582492521,-2.28355124677046,-0.755894174947,-1.16160852495839,-0.378579182283663,-0.119732436037308,-0.188215382531996,-0.465659024756293,0.293908863047192
99.345,-2.68674549120384,0.218261304964156,1.27459123306918,-2.73186160155896,7.44216393083047,-2.38993005471673,-1.38883124136164,0.249324431607107,-1.00530551147876,0.609242871616157,2.59271472500169,-1.97864020630851,-1.43344068168223,0.143454919291296,-0.176556995715826,0.0711361431594208,-2.27070062472429,-0.640401193276169,-1.04448209896773,-0.326005367900746,-0.0549602807170036,-0.138990120407388,-0.550627713485453,0.253108350729402
99.35,-2.52412326446345,0.338370401874374,1.22668422660479,-2.4434940486466,7.10184776327639,-2.40439878662159,-1.39524150006606,0.338059504934208,-1.09540078120898,0.513217074811602,2.71662468337288,-2.10664200200908,-1.39546947925049,0.230492808326715,-0.231161281212474,0.186791904000477,-2.2061688599047,-0.554189222373521,-0.959280339732637,-0.281662955964301,0.0094447022109709,-0.0793599601147856,-0.694595278298919,0.184724044490881
99.355,-2.18195883421784,0.46516792583628,1.2519917878402,-1.99057926333307,6.77225669154292,-2.31818137309272,-1.49271062140873,0.52224513358144,-0.968175601260698,0.161843746517554,2.80719604501537,-2.21685538418059,-1.39274602304551,0.317103233197523,-0.294022287589504,0.26042828576293,-2.12877034136775,-0.414847403459573,-0.886833652931817,-0.240403322151346,0.0676169641586559,-0.0727553747298545,-0.791165710685662,0.0990318343127371
99.36,-1.85777515661004,0.496068269949158,1.36407331712578,-1.39415202987835,6.41917119593144,-2.15710905866212,-1.5146202095091,0.694083406242403,-0.707532687984796,-0.268420749923986,2.69058589059029,-2.18741444987658,-1.37879136219523,0.390393115022464,-0.337729737441075,0.23202792907984,-2.07563421178187,-0.268264901493032,-0.821352442740794,-0.195757996855664,0.147868929012996,-0.0699579390132317,-0.817275087960351,-0.00540580273859458
99.365,-1.60719542014846,0.571624272166755,1.50305439763412,-0.815246497132592,5.97066513924099,-1.86945157267447,-1.46979669553776,0.787148311044233,-0.512950460784879,-0.585135643397035,2.45387955633319,-2.07917831628333,-1.37337299192094,0.466729917456096,-0.391933539406186,0.0805643438397382,-2.00361434615621,-0.0949202451758494,-0.785375097011577,-0.155756472507072,0.203746546290971,-0.0964378827436029,-0.779091402428674,-0.0881040166147177
99.37,-1.41562735565109,0.673119526114399,1.62007774902952,-0.49178387428163,5.33040698224199,-1.56749492952476,-1.31685301106837,0.778223532831124,-0.392314455835538,-0.767349619830344,2.19715378348035,-1.85326319448344,-1.37346494131794,0.506208990386787,-0.442590319308984,-0.121694101398276,-1.9478352476372,0.036547602872646,-0.77751393834951,-0.128362142438168,0.231933086628778,-0.167606445683178,-0.693204741368781,-0.141495490504163
99.375,-1.23813426179615,0.689289284891551,1.70738373057259,-0.163260665603627,4.69512903722308,-1.34431264170677,-1.12845089858241,0.684416937655071,-0.355293033403234,-0.894724256541312,2.0372383082859,-1.64294102433803,-1.37280522324728,0.511556905549602,-0.492693643627347,-0.372331443444416,-1.90888766478723,0.143856501372255,-0.811737861390245,-0.114382000690328,0.249663969721425,-0.285959621117192,-0.539733485574806,-0.179589106650653
99.38,-1.08866396679018,0.587465281875946,1.76097071951489,0.194101507835547,4.14799120960745,-1.29427080860626,-0.944715571799454,0.574339564058485,-0.348662863670481,-0.996883107160796,1.9986183450229,-1.51158335997627,-1.36682282330393,0.475824434116721,-0.529786429018195,-0.63383367951464,-1.89439785579201,0.214157720539562,-0.862469732051659,-0.102465427898644,0.245314453411643,-0.451546765894827,-0.370763284844716,-0.184888037459894
99.385,-0.99123736027045,0.434517083654743,1.81222167104154,0.476670641009276,3.64675391976675,-1.51269345752776,-0.777889369631846,0.501435806619607,-0.312614683946304,-1.07632684142645,2.01028239895236,-1.4049937690176,-1.35063686853133,0.402121713492007,-0.554378416015857,-0.862668235108398,-1.90972741912123,0.241308987898527,-0.892747784259743,-0.082584107659316,0.216086528985438,-0.629550194476035,-0.239201649768854,-0.152623724183784
99.39,-0.82680664936346,0.525527584896858,2.20821483906911,1.1789807720325,3.16837888120655,-1.92382593699658,-0.674963881721065,0.435617079335082,-0.294641992355078,-1.14850950819505,1.97959967764669,-1.27526110495239,-1.31576523465371,0.305174038666371,-0.584229752907606,-1.0609033662155,-1.95662258440176,0.247411883487264,-0.898790687774566,-0.0479170806829182,0.173153280601675,-0.804394599562715,-0.121368057572398,-0.0797156946575795
99.395,-0.744180336869879,0.528404260347701,2.80225338346442,0.118677249726822,2.18221324394728,-2.54269696436253,-0.668378084208182,0.302250191284299,-0.430878848143883,-1.32656348501109,1.85364253628811,-1.22325695455025,-1.26505905747413,0.217953930157598,-0.595498133776756,-1.1996754444774,-2.02238471495934,0.244633339777327,-0.931765709850826,0.00454703682978584,0.138016353380522,-1.03068580931798,0.0292427938955536,0.0455475633897319
99.4,-1.28239342651002,0.496872524983523,3.07209488182948,-0.458510577951329,0.871957624779917,-2.27423939762252,-0.637407763068627,0.125008534871604,-0.55625794174778,-1.83928752565082,1.63130861485823,-1.24017887829682,-1.20922818569808,0.119889217000366,-0.584055601290072,-1.29338041635008,-2.0826269149889,0.235138385256747,-0.995229710022318,0.0320634186027532,0.131012750782224,-1.18783516388748,0.0573977677425734,0.155325002289485
99.405,-0.9373575833,0.36306876686165,2.49941029982203,0.196722434497239,-0.756891445831273,-1.56320879144027,-0.60786427327839,0.169320408277466,-0.352189900038408,-1.82054913179411,1.20626356766435,-1.3349538077596,-1.17208898855428,0.0179059883640713,-0.566067643923139,-1.33719025600006,-2.12310014843446,0.225433220109007,-1.02919443565892,0.0577806239828455,0.125393104650108,-1.30200412678071,0.0186745577996207,0.237927876396611
99.41,-0.658620424116929,0.988684698034303,2.03465951867277,-0.036851790940188,-1.404977711025,-1.83955017134072,-0.609558698693699,0.253525149564425,-0.204815831276768,-1.60664028610155,0.880463933737599,-1.32179016672518,-1.17417069776254,-0.0350809266234114,-0.54598931918197,-1.34148559528502,-2.12524776568581,0.212547123667424,-1.05339147651339,0.0486792222071586,0.12949403561723,-1.32755894350415,-0.0505362894387005,0.314592209681389
99.415,-0.524280779042762,1.09931247579641,1.86914874760992,-0.380264872586643,-1.85890423776313,-1.83965655695628,-0.629610957468312,0.322267740800895,-0.0632133632612645,-1.3656409687395,0.565760525718431,-1.18651752729031,-1.18177200441364,-0.0508219785102304,-0.521906928820456,-1.34873510630834,-2.13958599630809,0.215399898402561,-1.06697243212231,0.031719056123355,0.137567486254261,-1.32060533786031,-0.101366867333167,0.36811757286424
99.42,-0.394585006439261,1.04668791649359,1.67685996621921,-0.652039638115524,-2.32528779947739,-1.80018957116239,-0.613942215697284,0.353580771672726,0.0489127533519965,-1.13108404362773,0.307969232116332,-1.05044243374296,-1.19582091912754,-0.0635983255799142,-0.496923784904222,-1.34085233280272,-2.17126272514719,0.227349859654211,-1.07696768935181,0.0112293242637513,0.145742444037793,-1.3097531611617,-0.131515843678575,0.398333096203888
99.425,-0.25377584665906,0.803051047943261,1.40430447756635,-0.797261717884514,-2.83595884008817,-1.73369592445537,-0.543376517527693,0.330540225166192,0.117649589955719,-0.908586173144069,0.133909887436125,-0.924289352696808,-1.21687219801559,-0.0741471875982655,-0.47105481695869,-1.31609386702566,-2.22183317562723,0.24894765942597,-1.08481890420571,-0.0113792897604563,0.153966187835533,-1.29663681248981,-0.149172487480123,0.414476314448699
99.43,-0.116860341954457,0.579264669141413,1.13890184321577,-0.901791534708677,-3.32808021603113,-1.65842194128237,-0.478712954144525,0.286820025508271,0.177902259992081,-0.697863475265509,-0.0456035986858568,-0.783593382647038,-1.23841225307736,-0.0847945723482572,-0.44417560138547,-1.25707661696742,-2.28609724659711,0.271301348952056,-1.08228093986128,-0.0440244685401391,0.161829497516569,-1.27262782266759,-0.177028952206842,0.431525109685751
99.435,-0.0183003777629118,0.551021102661729,0.943960404746792,-0.605927252529708,-3.6376809913845,-1.4967532812421,-0.464680056710321,0.0732924870164529,0.167328609282179,-0.585140393057475,-0.269833367010523,-0.526169991102117,-1.26116621374364,-0.094735390063732,-0.413213125247685,-1.01333575247764,-2.42065544101777,0.296522468328476,-1.04137920572694,-0.112376076169521,0.167339512423658,-1.21101516625029,-0.242598498850484,0.450419032363704
99.44,0.0514125397326223,0.590242844900504,0.766423698856995,-0.423932534288844,-3.8407982878388,-1.37282418072777,-0.490041196441971,-0.00523135021986199,0.170413108142225,-0.448088720325544,-0.458560183338672,-0.453150687818104,-1.25466775593356,-0.0796863842254553,-0.411114204780624,-0.815766461035145,-2.46581407325533,0.296522468328476,-1.0379654369403,-0.128194768597556,0.161841184489421,-1.21891930904447,-0.273085993341421,0.448160686175958
99.445,0.0996825637658337,0.678110207378381,0.656171020351795,-0.328108615675119,-3.94534765891815,-1.21646077306899,-0.502746387167101,-0.046541446611381,0.171134413941885,-0.147616129087021,-0.654607992718583,-0.446712691892828,-1.22608111828807,-0.0451055699099774,-0.412444676746356,-0.666467188103368,-2.44642477302459,0.306997959471211,-1.04265856116694,-0.149800784581761,0.168833893960212,-1.23391351021625,-0.33305731446016,0.447081175821723
99.45,0.109710093059778,0.746285847870414,0.60497055827158,-0.265963431335265,-3.98720349139816,-1.06538282500114,-0.514840152198137,-0.0176425227640712,0.166937059427249,0.176350442910086,-0.848205483416886,-0.459738253284882,-1.19854617566737,0.00934011539221585,-0.418492089402998,-0.521118552461159,-2.40515190410129,0.337312268107423,-1.03621083896735,-0.163073572986727,0.1746159920826,-1.2341691832248,-0.384258110367404,0.44882119863804
99.455,0.0571732038875049,0.791013281809395,0.630114098317156,-0.220228551530217,-4.0156796501167,-0.892475108895897,-0.509390317511164,0.0310576391023068,0.12129165913644,0.459387554234139,-1.00141454129749,-0.448307944492815,-1.18366408737793,0.0503519671927229,-0.416181554762842,-0.427062214593582,-2.35630832717922,0.381722837696156,-1.03487559712398,-0.17270897398028,0.186046309475439,-1.22840617743178,-0.420461451588636,0.467244541116786
99.46,-0.0282927811403508,0.820835395318084,0.69160848982008,-0.162763356775613,-4.09637172270021,-0.67923211927337,-0.477377030631302,0.0842182347577767,0.0567953053165465,0.654905557561875,-1.17572986914191,-0.405752916500793,-1.15637733081096,0.0864046758455387,-0.416103553514433,-0.37380798048249,-2.30718951158108,0.433016322526715,-1.03098736997213,-0.181369337348717,0.199750451872612,-1.18149207629468,-0.444662905065545,0.48092635878134
99.465,-0.116075286346269,0.836041523440251,0.74360260846646,-0.117687847862494,-4.27314496451176,-0.418844716758849,-0.430813791757745,0.135565678741719,-0.0010126479006507,0.727422978332673,-1.39422088524613,-0.332937821851848,-1.11091463543642,0.119469280913677,-0.423178532560194,-0.352966242205111,-2.26331429134165,0.476918791309869,-1.02393290318577,-0.176672210081948,0.211984713305379,-1.09908549436426,-0.44504155521484,0.487513093490065
99.47,-0.170464705881601,0.842846946846439,0.746712473596108,-0.151632925168216,-4.49301611880512,-0.159913148257056,-0.4045306599606,0.174450648380563,-0.0339299066905468,0.719946891584679,-1.60285122667202,-0.253643932150975,-1.06608193947188,0.142163552619831,-0.432579633916524,-0.353681884642858,-2.22295856276377,0.502207028266122,-1.01766435896674,-0.151474841601402,0.220761880630859,-1.02467635660296,-0.416209394581662,0.499900598747764
99.475,-0.152772542955236,0.861393736314059,0.719134092776372,-0.206485112961673,-4.66747894475658,0.0158877092136657,-0.3794539270886,0.208742753243721,-0.0309010612253816,0.645362464200158,-1.80264998197764,-0.196611409166025,-1.02533383239008,0.155696220025527,-0.443356607331213,-0.384244737425932,-2.16441486350886,0.523175544807012,-1.00468293598461,-0.12965988427498,0.225121216314975,-0.973935542914898,-0.377330440532203,0.520022625657814
99.48,-0.17286759741663,0.847164394593876,0.665416554297213,-0.238813964259167,-4.83699064152563,0.308702993511128,-0.366238424333167,0.262070962150986,-0.00700871397515616,0.563165169864274,-1.99387398126099,-0.152591039439132,-0.977950809820115,0.184969583683608,-0.452525622280591,-0.456236534241188,-2.0960450280202,0.527913747748291,-0.987079289409681,-0.110815092355328,0.219979369970361,-0.926363039865776,-0.332764278991428,0.532526699503407
99.485,-0.179960337104472,0.810155817616889,0.633045928195901,-0.23789255790802,-4.94756030274973,0.561169952080992,-0.353071229713305,0.324555748105042,0.0417290698204666,0.339366936903785,-2.26797543576248,-0.100234567557543,-0.941801596890563,0.205511370513678,-0.44963378938786,-0.532177388803324,-2.0283139137048,0.537149808791301,-0.966855457316267,-0.0753030895655834,0.212751835673111,-0.887422555104593,-0.266155557689193,0.533551417525964
99.49,-0.215819638749765,0.748904945848346,0.587441875985403,-0.211641345839311,-5.06488231401524,0.804647553576726,-0.353209607935765,0.348890278434896,-0.000707851345022098,0.0819742030795253,-2.47216133571921,-0.02348795062112,-0.908461398237229,0.230113160018106,-0.449782641831083,-0.643215886828591,-1.96056358035993,0.563331228966501,-0.937455972603185,-0.0615242181865177,0.202500985490014,-0.893774269311937,-0.204672249775369,0.53072762642814
99.495,-0.23804103717044,0.701984232855017,0.536076491631466,-0.17103346462892,-5.15166595482093,1.00868834292644,-0.356464607662741,0.348987475712742,-0.022884573004641,-0.123686614177122,-2.61650524804689,0.0522696343921585,-0.899799885716048,0.244387051067886,-0.44240641715712,-0.786775576792236,-1.87552951643819,0.595084673510542,-0.903042742344818,-0.0453213863040521,0.200327390832704,-0.905299686928958,-0.160839821255414,0.525076180201272
99.5,-0.264005018437708,0.683475310048902,0.509246812604767,-0.127850346105644,-5.18992639041611,1.16549613698172,-0.397083281623602,0.338437383092245,-0.0298122064964672,-0.324519718783274,-2.76231082251041,0.134079862302115,-0.898210308650923,0.245850325295558,-0.439042329339624,-0.905373884689783,-1.81698189508394,0.622981578694064,-0.867879748746164,-0.0416205607692645,0.190964541194583,-0.920019626493813,-0.133724287229552,0.51130163681948
99.505,-0.299086719313033,0.671317540133369,0.501705424977257,-0.0546267380667676,-5.21604867236708,1.34081295015527,-0.461601158389072,0.312397530180902,-0.03504926850931,-0.487073642137669,-2.90804442485928,0.21597684443934,-0.893561696654904,0.237772596719151,-0.438836934639567,-1.02432329565156,-1.76111794848369,0.646925016384023,-0.833997754998507,-0.041297488574193,0.181456894874423,-0.949378142512448,-0.109001909180526,0.488355411923411
99.51,-0.333381934384092,0.660794991125457,0.506559102613442,0.02940464432358,-5.22415773887202,1.50595868381073,-0.533537715900929,0.287284622836048,-0.0589474715695316,-0.621553186783917,-3.06180878426171,0.295802647447433,-0.889122313488422,0.230594317841607,-0.438185200089647,-1.15253871246551,-1.69396918689823,0.663392775746655,-0.807219572713522,-0.0419743569668625,0.170548944815411,-0.964591649918908,-0.0837091821911925,0.464101547859202
99.515,-0.368981305316193,0.663237618448959,0.526850358988177,0.0953423341082292,-5.23314306865504,1.63831197355902,-0.606532589249755,0.28047852636707,-0.084561059122595,-0.742925710756472,-3.24709747378535,0.38201015320955,-0.890855270965529,0.219842052917778,-0.434628537100439,-1.29487040825543,-1.61695489570134,0.680673803853764,-0.79140395960993,-0.049407823240805,0.160348847193638,-0.979622747452798,-0.0614667561452609,0.439276504796298
99.52,-0.413923360932893,0.672559384609448,0.570947038003962,0.144705007451911,-5.26541315353803,1.76511046086736,-0.656242245036591,0.280486321610796,-0.10031790602776,-0.808301075812893,-3.41680396996161,0.451916505807214,-0.893602479910636,0.205808736364483,-0.437981655804937,-1.42042648646783,-1.54913542160211,0.684808170297059,-0.788602764519012,-0.0660699388950972,0.155102454709796,-1.00199512408996,-0.0473112098800653,0.41856428382469
99.525,-0.44382255596395,0.668221591452005,0.602657900953869,0.178139163547572,-5.32215689642893,1.89272326902141,-0.681066620870634,0.285915351106666,-0.128031254562531,-0.843622877623234,-3.56830304465783,0.510860421559447,-0.88738357846228,0.187800254545443,-0.447830341060035,-1.52945275777234,-1.49199338916116,0.675576601033696,-0.790520177086968,-0.0877583169654022,0.155864390780726,-1.04615612164423,-0.0417376014478534,0.403664342548356
99.53,-0.434014578576869,0.646757500984446,0.58193461538927,0.221314189655157,-5.38615570995269,2.01712018273476,-0.702712859108242,0.29897794179775,-0.149472663060063,-0.884113258239621,-3.71718891065619,0.582350150912496,-0.87599023647586,0.15814986204679,-0.457379327993461,-1.64148984368201,-1.44228752648737,0.660891910665133,-0.796350029480066,-0.106559326443669,0.163893348179746,-1.09852347712774,-0.0367130390280007,0.396838188171387
99.535,-0.422270039927853,0.624215956771197,0.553202898239613,0.29466256870338,-5.38819049589517,2.11923062957034,-0.735894845082466,0.310369176048863,-0.14648445474954,-0.92889124383131,-3.84267725910763,0.658741518226267,-0.865807631783213,0.127922984333822,-0.466061551337086,-1.73397587258288,-1.40554025364275,0.642859370979141,-0.809217900771751,-0.115439756559491,0.179723061684944,-1.13929196179562,-0.0327902597279758,0.399249480065683
99.54,-0.435892077196099,0.600781166364197,0.549270932136346,0.374004724621287,-5.32109369710545,2.19549872642972,-0.793326083851124,0.321188839835984,-0.148879103310561,-0.991863436088263,-3.98076337465309,0.747194136837975,-0.857482379835557,0.106948266504369,-0.478135788666106,-1.8189169252535,-1.37092693547161,0.623508249414872,-0.822854712671608,-0.118680592476438,0.196924782151389,-1.18390634281843,-0.0386538745350631,0.409325949726279
99.545,-0.471408768504323,0.570564346081509,0.537381422722524,0.525752449544062,-5.22434733038457,2.30808643086479,-0.862706508372428,0.317018638627644,-0.164912584769598,-1.05929532959672,-4.12742575381668,0.841844368319156,-0.856836525320552,0.0913180787075738,-0.489528575334862,-1.9179779827515,-1.33926544806309,0.599464079445631,-0.831347073404449,-0.122646896706918,0.207314764669943,-1.21929737171487,-0.0418929891747299,0.423421048649562
99.55,-0.504469781775012,0.562930549818146,0.511282527360728,0.682252953640871,-5.14034316637049,2.4012367915542,-0.905900861482827,0.29319683096391,-0.199785575683139,-1.13729260509981,-4.22588655334703,0.895570659790842,-0.857643359817241,0.0858526002083501,-0.490517575118929,-1.99263196818967,-1.32085009049159,0.584743630227885,-0.83891396794553,-0.123230860493843,0.212894535733091,-1.23360731073341,-0.048555045498355,0.431480827971777
99.555,-0.548670951204083,0.576363638674678,0.490832525111227,0.842769355374546,-5.00433186373729,2.51142908978183,-0.962143231685652,0.26553475254177,-0.262479658734079,-1.2763244605047,-4.32679488318084,0.945716458143336,-0.856051797933879,0.0827239372412788,-0.499225070852973,-2.09652590032058,-1.29686972402832,0.563908981255762,-0.846749360143239,-0.12019156957056,0.214804831018672,-1.22835085277373,-0.0748322190406255,0.439351370263215
99.56,-0.635801524154181,0.599548616086178,0.500454883830936,0.969661648410955,-4.79236064413627,2.64024887037952,-1.03779727857884,0.235052865758775,-0.324143889175751,-1.45188248468384,-4.36212165047838,0.954564673864821,-0.8485487445705,0.0692449265725249,-0.497882136489428,-2.19255289332003,-1.28630985186622,0.540774353251011,-0.850081052290949,-0.117837227378034,0.224579555443774,-1.21836273684802,-0.091342505146359,0.44471439574257
99.565,-0.754190670793343,0.656879130302158,0.57406151427795,1.05051619668103,-4.53744923899275,2.83575919510196,-1.05832664077519,0.138931787250799,-0.419065476684811,-1.5910582721427,-4.49199481127019,1.0245369892863,-0.867670185049024,0.0590692645651875,-0.493455200533749,-2.26538687699093,-1.26704365172139,0.518365931009322,-0.866357767884708,-0.108875209948642,0.230652385771334,-1.20834611040232,-0.115786234576838,0.438375800848007
99.57,-0.923184862164057,0.703718498222379,0.716533272018813,1.06244415621416,-4.40559504948464,3.04753711491947,-1.08840162410957,0.0930100886584342,-0.490435298152297,-1.73948127986884,-4.59986920079976,1.02127733772152,-0.866588028704873,0.0428187556497015,-0.487334100685577,-2.33962797472539,-1.24791319930862,0.500092505460232,-0.87756537164379,-0.0960629599724385,0.231465216862851,-1.22104351511647,-0.119450757951889,0.43751291992367
99.575,-0.996761267120241,0.74015749804981,0.773970620444491,1.04198528535625,-4.34144797567727,3.22683967564199,-1.10136386360188,0.0440072809635162,-0.515641455819977,-1.91620937424889,-4.70058610388268,0.98790028995668,-0.870057349187043,0.0197677077754866,-0.463844577643501,-2.41045612012084,-1.22227081108201,0.471233769391092,-0.89022053709067,-0.0874584000978553,0.232229040198804,-1.22901106158961,-0.139852762043922,0.430795608470717
99.58,-1.02050515971057,0.794742446565812,0.862443717557271,1.02957108847344,-4.27730802574597,3.47098507659469,-1.11659809057223,0.0311110072157956,-0.517417811393449,-2.0349915754179,-4.7945788472811,0.93935458344594,-0.862681305186235,-0.0125507968206339,-0.453781377399061,-2.45951821268924,-1.2076566487613,0.446180854218364,-0.891038640363693,-0.082130233803898,0.236057168375259,-1.24151207809769,-0.148186756107507,0.42871209724847
99.585,-1.00226265863373,0.797683405056956,0.909753525397679,0.847748310369349,-4.167066446659,3.74490773560366,-1.15111372275915,0.0217589561580732,-0.498821454705718,-2.08486816275882,-4.8509060414833,0.90094475811383,-0.854583777842732,-0.0629883840817238,-0.445173835386583,-2.4786489621099,-1.20140698715821,0.429843028936418,-0.893311500303118,-0.0760740948607866,0.232569905244132,-1.2464735669372,-0.133567674850322,0.424299823581766
99.59,-1.00827232930268,0.71709607999226,0.943968044150348,0.644149464271164,-4.04724992973091,3.95317867396499,-1.22422026375958,0.013782126189282,-0.496268323093859,-2.00364818893246,-4.90429408658837,0.889939625085215,-0.816832179443298,-0.117333109589873,-0.43217574561729,-2.46911533547519,-1.20150518400336,0.40158021732247,-0.894227744786099,-0.0773653250657233,0.232658000570015,-1.25442396602501,-0.107319630821115,0.421610893472476
99.595,-1.01985511515203,0.643768832526966,0.955105890255674,0.622081126803134,-3.93709324161629,4.11001817395301,-1.28820786574052,0.0306200479603262,-0.524025500060194,-1.87543262500306,-4.94103646916426,0.915570328350957,-0.771703674469854,-0.161468159800441,-0.417760761158407,-2.44976537023902,-1.21870858806426,0.368759371378942,-0.893329810108147,-0.0820469998284614,0.219656223864581,-1.24206212358325,-0.0738483592843854,0.41762518338709
99.6,-1.13890040843943,0.621419652696941,0.955550790929438,0.72536355466706,-3.80335804382371,4.19890025032191,-1.3629062831875,0.0545208283905607,-0.570836356661789,-1.73317443294865,-4.94367570941347,0.95550591534675,-0.768328668132684,-0.168871167508041,-0.390624019524057,-2.38723172900754,-1.2074517677839,0.353844354579073,-0.883659323161706,-0.0875512168938578,0.223275034008924,-1.2352128542908,-0.0578667564618192,0.418766718986804
99.605,-1.20225639670209,0.661065564379241,0.916050591486553,0.704150059984121,-3.72214965877276,4.24349933595329,-1.41656771880248,0.119807777728883,-0.63090939637486,-1.5830870440487,-4.94380044937134,1.03266603588893,-0.759664409787744,-0.16029453109205,-0.365640576453674,-2.33574886134719,-1.1903340670329,0.345609659777639,-0.863742426468001,-0.0944673683143735,0.212529023702319,-1.19739323843536,-0.0227611218715904,0.416688837968216
99.61,-1.265217793275,0.690080660457729,0.866984338222888,0.614654844071839,-3.59563462830692,4.26613155559537,-1.45417598225982,0.200691358792301,-0.686473251595562,-1.53489716370797,-4.94603541194963,1.11387157309343,-0.750630630690204,-0.1466507267847,-0.328970442018098,-2.27637947670468,-1.15222666202857,0.338366324599024,-0.865626324672882,-0.102439647731343,0.216756387464309,-1.1719100856401,-0.00129290149057606,0.425877859456879
99.615,-1.27260631295535,0.712039139354938,0.836128406098617,0.543096315412084,-3.43836839959665,4.28148361635751,-1.48932450017591,0.252839526822583,-0.729549398055466,-1.57603918703133,-4.962297420178,1.15523129228776,-0.756897804433437,-0.157844989138251,-0.306967402972529,-2.20844740685083,-1.10873328198113,0.342563417701917,-0.849477343339234,-0.118769539380319,0.212284238916351,-1.17943355996854,0.000358969606099572,0.433119420785869
99.62,-1.33978312646531,0.732712799981668,0.893955125430882,0.398527384594118,-3.25668938380547,4.27660651463709,-1.52004206196236,0.301830105017323,-0.763140626831694,-1.68699921335721,-4.98410977041351,1.17257124929981,-0.757167974949694,-0.175107116979707,-0.294212376582659,-2.15229747545753,-1.06724386625284,0.345054767795339,-0.836652253309775,-0.129328483339066,0.209988281167661,-1.15385736682814,-0.0125831084932383,0.435656316566108
99.625,-1.52913357020862,0.707649281302618,1.06663220378902,0.306056440559272,-3.0894650420885,4.31743954023109,-1.54986091760489,0.31769608763548,-0.806739605390109,-1.86799295760937,-5.00225551226698,1.16145001871488,-0.763603953170321,-0.214609231171199,-0.276344628322655,-2.07141189475337,-1.0274272338692,0.358057108337965,-0.829492886423235,-0.137781854458182,0.221799157688082,-1.1254986895591,-0.0273069259372496,0.446821709023469
99.63,-1.6677323168054,0.707583987827975,1.15495670676656,0.331351634805332,-3.03199374786326,4.36892857921874,-1.56396712529842,0.311221460892246,-0.869763849725079,-2.10621781348145,-5.0039224492727,1.13975263340112,-0.768915278715631,-0.242536636457113,-0.262948474413215,-2.00200722124428,-0.980864441906991,0.357104378090916,-0.825275107069707,-0.145341814845557,0.225318586638687,-1.10512134137684,-0.033995306712639,0.452225542069911
99.635,-1.71842372384643,0.746972931524674,1.22354703623437,0.400152967822802,-3.03017449872594,4.42785264143913,-1.57250222315473,0.282292041531767,-0.908894175565372,-2.32179872208704,-4.99759976013381,1.11724870190805,-0.777272368851056,-0.270739708054382,-0.244303291720017,-1.91267097482412,-0.925499958121898,0.364539524329464,-0.827171199617113,-0.14371959476293,0.228962523630353,-1.07079972472906,-0.0453007542360767,0.460521378540927
99.64,-1.71313522153441,0.767697984489575,1.19252513091951,0.378241772570844,-3.03163023423537,4.51246890837224,-1.58131409695171,0.249862896823762,-0.923390394289278,-2.51969167391461,-4.99670824050903,1.09497514247894,-0.783372732120304,-0.289990518641261,-0.214673089500474,-1.81094424555272,-0.871953212368342,0.380807286117999,-0.83478964192415,-0.143658660375011,0.236158279606953,-1.04411469103396,-0.0372375655232927,0.46453426168276
99.645,-1.67249167462149,0.763978987260712,1.13577188643289,0.313992577015087,-3.01544328918094,4.56738212129525,-1.61872680403809,0.218006487825555,-0.914438850175065,-2.68683064785462,-5.00231746598684,1.07978470091177,-0.794075972456506,-0.304509868823969,-0.183852605244685,-1.68181122245416,-0.802857315711402,0.405868838690576,-0.846665871719026,-0.135572364165682,0.241543813847364,-1.01397388646989,-0.00536216490380226,0.465253084897995
99.65,-1.62876883882842,0.743615385963195,1.08013525644944,0.218888342917063,-2.93814877437874,4.58075610820284,-1.66345361196169,0.188077777523512,-0.906273354494951,-2.81343631287742,-4.99961856013339,1.07198287368982,-0.8007833241669,-0.302929472206443,-0.157786905116182,-1.56336562474862,-0.747216280026838,0.427928308381816,-0.849425603347126,-0.135646853351037,0.242533207067741,-0.998081604240561,0.0138529144230365,0.460858770897927
99.655,-1.60955389092688,0.725099653431627,0.986354753411031,0.0905528689484047,-2.80529032835973,4.56218247832816,-1.70204131948596,0.15305696777402,-0.903636835371831,-2.90262479416382,-4.98030410205876,1.06860280036926,-0.811316317815882,-0.287626398308285,-0.131526539660168,-1.45602698020266,-0.706919295764187,0.460685577464826,-0.84927554172847,-0.132198300171224,0.24166786163625,-0.995977997629096,0.0211604465640232,0.455508475644525
99.66,-1.59249680272491,0.712925628701857,0.830377986919534,-0.0357544895299228,-2.67653296965488,4.50304804444643,-1.7307739764842,0.116770648910901,-0.896616439756678,-2.92809128344232,-4.93950699925769,1.07975241872391,-0.831785195831847,-0.261477738130307,-0.105083675522354,-1.35274581563142,-0.688534149005804,0.512838963394737,-0.855321069492195,-0.121478728555801,0.241457954231695,-1.00331553898099,0.0211957323430112,0.456082443830708
99.665,-1.51364673344506,0.674643828064499,0.604568507105217,-0.154270291927589,-2.50477881622713,4.3860233639753,-1.74102899958461,0.102890758329753,-0.879568815349787,-2.88989271190801,-4.90761656616712,1.10240751940941,-0.848144438410333,-0.229007216275872,-0.0827523960830901,-1.30081006311372,-0.693825632029385,0.551016145126559,-0.862234159448747,-0.115215084816456,0.244902821886081,-1.01643847643498,0.0235893446254347,0.466755616874046
99.67,-1.42285379654031,0.650565102298873,0.440257576290144,-0.224550923573988,-2.23607782180276,4.24226196460422,-1.73084709188213,0.109669171129247,-0.859197591643307,-2.81480699913986,-4.87699979454765,1.14918364265947,-0.865021379851214,-0.192919678659569,-0.0624994474607195,-1.31424124963278,-0.736088350273058,0.585562269639403,-0.868042901469555,-0.101775752716943,0.254553172859567,-1.03563519480854,0.0222844549900687,0.472583264112473
99.675,-1.49124101491315,0.652166700667445,0.484876514030563,-0.218289318403491,-1.81590214200851,4.07978348299207,-1.6781487347174,0.13465817907619,-0.87211526056321,-2.66524533262045,-4.85194696760214,1.217446870785,-0.900173332162394,-0.1658304555223,-0.0407523225681967,-1.35355300343222,-0.809042690038257,0.612901648936234,-0.876159438941589,-0.0853921124193594,0.264813925068867,-1.06316421789578,0.0146299320089982,0.484326314892802
99.68,-1.74310678335462,0.669930588129211,0.629136561180136,-0.0217374841040863,-1.52942397757626,4.03636064984426,-1.59284577538906,0.133824384762891,-0.961329376890678,-2.53008137912457,-4.79533899293268,1.26627395069737,-0.917612804564606,-0.139459260600982,-0.0109341853910866,-1.41021709566599,-0.900521057921486,0.624658412143836,-0.88311985728875,-0.0719275089179953,0.276188063649451,-1.0853408400076,0.00219083590874578,0.493447238671089
99.685,-2.04702757277026,0.742223279902654,0.771143264926078,0.229535069099012,-1.39944610348617,4.07795951114714,-1.45941170565718,0.132934758561802,-1.08385659984827,-2.40921113210407,-4.67493413007419,1.27524797257398,-0.937682429191755,-0.113948136071897,0.010436757927313,-1.47202076400239,-1.01268456567604,0.62637996673584,-0.898058652368218,-0.0599529479330523,0.2831941913397,-1.11381261796518,-0.00180334224101347,0.506805298114938
99.69,-2.18507958954782,0.906801549187263,0.728075482569528,0.342684077469265,-1.38766450324998,4.12298637457619,-1.35291222101065,0.162027755112416,-1.1653429934976,-2.32752194454162,-4.51933528264648,1.2634607432719,-0.952844075986075,-0.108554690432297,0.0273983963115133,-1.56482592860599,-1.0940746421676,0.617441724086212,-0.908922161090001,-0.0487211874571991,0.295717728610084,-1.13463922231944,-0.011174124442851,0.52021417279741
99.695,-2.21084533250487,1.07297303406107,0.645721652618525,0.322591588376616,-1.41567920790572,4.21620281904102,-1.28807178999816,0.23109853274977,-1.23005141343357,-2.27846382043349,-4.32987714481671,1.26698079280234,-0.97459583858384,-0.135844297913159,0.0362850691165275,-1.75105451063944,-1.17843404998831,0.593737197414463,-0.92226937595528,-0.0422098284130578,0.297896126225172,-1.16973621950349,-0.0281409469290573,0.542448795328657
99.7,-2.24039891436475,1.07716225843884,0.683253308014647,0.308054734683816,-1.40335282711883,4.35127305277466,-1.28246357520443,0.280025317760473,-1.21311120826979,-2.21469885544839,-4.18249512093594,1.26563024719287,-0.989260147046328,-0.144284510121712,0.044425659680904,-1.88015585323013,-1.20174023103173,0.566920357718493,-0.937822355478278,-0.0342853549009153,0.306342708053092,-1.19478940855431,-0.0453336652319465,0.552832137638018
99.705,-2.30092568829643,0.936382575532431,0.687538540859344,0.261222322930841,-1.42706759827972,4.53387467933995,-1.29487542750145,0.29385720117009,-1.22483734945982,-2.21420826045808,-4.039291792816,1.2944440128492,-0.974045351789443,-0.169252357450966,0.0484570056040856,-2.01767302093475,-1.20708152426575,0.51122243296451,-0.945738484868647,-0.0309516655042867,0.303670960953191,-1.23303823286223,-0.0758369964962652,0.574524510692926
99.71,-2.32605020616989,0.759054963153665,0.620162338833245,0.247030410900949,-1.49693511778243,4.68592402397636,-1.29161822294934,0.258117142121851,-1.24001259640515,-2.3616579531425,-3.85869670600679,1.30843342441115,-0.933822431102638,-0.184771119827564,0.075121869121366,-2.1536538086156,-1.17334095922048,0.441694501905672,-0.9607855959424,-0.0266293224710727,0.307078374609422,-1.2628378305654,-0.111639729419412,0.59184250272898
99.715,-2.22746185906235,0.661613911757796,0.499907591628674,0.340858244785052,-1.52277152127955,4.78213744164611,-1.29763460017021,0.178067319552116,-1.23162870755584,-2.49966269445945,-3.70186395488357,1.29556536062224,-0.884181321660643,-0.184052605575635,0.104246538415521,-2.20827946393804,-1.1038419085411,0.350734213698383,-0.966432122893539,-0.0307349267534658,0.309279976961674,-1.27280435661763,-0.142142371677252,0.607196793438996
99.72,-2.11833448736987,0.602638505285366,0.401323684314699,0.389266288240104,-1.52020624771597,4.83533092460707,-1.32098442906903,0.101501983023797,-1.20303051354442,-2.58435779474408,-3.56874826538318,1.28186959879269,-0.838485659608353,-0.171408575890611,0.14579876570407,-2.22173087668737,-1.01025719613761,0.25909388995075,-0.976117905262116,-0.0394911316225359,0.30686460586027,-1.27368893248929,-0.174064504701312,0.624087898674741
99.725,-2.04061611413159,0.537458410547045,0.327069854341976,0.349981453248034,-1.4843711245817,4.8470567470705,-1.32581261768304,0.0423220080628356,-1.16537912805009,-2.60684849587664,-3.47735382031418,1.2632737724187,-0.80663602252804,-0.154821819315371,0.193930201232381,-2.20718152858541,-0.92043850567921,0.174905254381711,-0.981410697259168,-0.0482550557622113,0.306736681952771,-1.26761275884863,-0.18885388632059,0.646705887163558
99.73,-1.9889450621082,0.420750053925978,0.242713245158153,0.256680778395404,-1.39080616278214,4.82006535238793,-1.30738210622397,-0.00655077725692879,-1.13305111252503,-2.60535407546732,-3.40982731664145,1.23254902856518,-0.785094021384309,-0.13674550894329,0.244619490309207,-2.1714456689213,-0.851092106856069,0.0999121450962465,-0.980444558688294,-0.0550145739691945,0.308215588156398,-1.25702192022879,-0.188718729027424,0.671614465204232
99.735,-1.95737500369267,0.242525987654625,0.140010859389029,0.174984778431806,-1.25368767223047,4.77541579816073,-1.28319879458115,-0.0396266246709263,-1.12243281055849,-2.60832142829895,-3.32876323988258,1.18304905743184,-0.769361605675957,-0.114965900624959,0.303838288238587,-2.11278323946881,-0.810476315186807,0.047616468681448,-0.979206663025526,-0.0628168819402675,0.307196373258257,-1.2417846846501,-0.181804223195239,0.692874722674601
99.74,-1.94630897935672,0.191873205178252,0.0532220372353373,0.153236752662962,-1.12628015045445,4.6825720739023,-1.21403275718979,-0.0793600755415985,-1.12910180224149,-2.60678440647174,-3.21754569760544,1.13306661029645,-0.754469188128298,-0.109712569306893,0.352659219290247,-2.06785467501448,-0.797122738716371,0.0272112488889242,-0.978935145372529,-0.0786615462877577,0.310812399403034,-1.22396401365757,-0.166038944973399,0.70993240090657
99.745,-1.96010226805829,0.167450073617745,-0.0605592282620311,0.0198282291018724,-0.983342407665514,4.55657529730895,-1.1256838808082,-0.112524951676579,-1.12635304500061,-2.59415345457985,-3.08702599833236,1.06043873962543,-0.755955125947896,-0.121868448576706,0.39868332953783,-2.00392053715385,-0.803411345793495,0.0314036482804234,-0.971916954355831,-0.0937976697167357,0.316619693253251,-1.19798252826061,-0.140880866880667,0.731790088016035
99.75,-1.94817404496883,0.117882117432808,-0.200857848630819,-0.160571716672943,-0.87289186486346,4.41124601190864,-1.07225828339758,-0.115019242794548,-1.12570558139122,-2.48318782349164,-2.91961000182015,1.01477092621844,-0.752490189246687,-0.119056674751936,0.421319594656448,-1.96932254612398,-0.794247017768283,0.0417433457814982,-0.968486511718075,-0.106098101627294,0.307170308655247,-1.1840966378311,-0.113108895481478,0.745676034901891
99.755,-1.9095142963261,0.0289087146798242,-0.32774016387021,-0.339961627550166,-0.704467756359319,4.23025528136328,-1.00399089970314,-0.11197854812049,-1.14032872605558,-2.38943300921418,-2.74834546831319,0.956565900403401,-0.795007973181927,-0.101821293374967,0.411370466500381,-1.99765083348735,-0.725179436943357,0.0139665506600307,-0.957147836728121,-0.115425488248366,0.31095634025641,-1.14957702002872,-0.0916036608209293,0.757560395669386
99.76,-1.88749093830969,-0.0958414148115584,-0.4501860828398,-0.483448365043871,-0.425531437716565,3.94223197763782,-0.916871216053716,-0.0822066354011824,-1.18645266607952,-2.2103316947129,-2.40374252413631,0.863350153349191,-0.803374465359449,-0.0663706744108554,0.407238016783293,-1.99037123156669,-0.563783139658792,0.00735644430028668,-0.941888370667566,-0.122073360227393,0.309103548827141,-1.06480936687981,-0.0759875290771733,0.756405615543156
99.765,-1.94980814763602,-0.155014325021143,-0.49730054927596,-0.464985252049879,-0.156283799739766,3.66945135031317,-0.885297681115202,-0.0666216200885676,-1.23477932083323,-2.1215406370635,-2.18333132835351,0.794340513867445,-0.85456098865597,-0.0572454967937744,0.400867201228347,-1.87182447045457,-0.469470614015742,0.127596199988443,-0.941932959389867,-0.125931711171832,0.310560660217308,-0.997241279928784,-0.117531864855262,0.754676524701519
99.77,-2.01289343904108,-0.148365827063545,-0.540446859386434,-0.454310886414549,0.0191580339011964,3.42559561137275,-0.82717240189155,-0.0360311960159816,-1.28657754193627,-2.05938108694962,-1.91697060338052,0.729848431727939,-0.945340598963354,-0.0357378745272152,0.405254401545084,-1.76311316343012,-0.440946120511787,0.204584830991051,-0.926834188450331,-0.131140407974381,0.300876692179684,-0.954480566361843,-0.158366982937187,0.740404057058552
99.775,-2.05165143608902,-0.138667165079357,-0.606109638955944,-0.479324999842315,0.155785582516913,3.17150138807541,-0.796652408281942,-0.00135675521051584,-1.32213963006518,-2.02269469893781,-1.64560784534723,0.650812272776149,-1.03076307630939,-0.0198226333549387,0.399600162035337,-1.65735577248924,-0.486243453077075,0.264617674439218,-0.909832299766149,-0.134414640672497,0.301952768115524,-0.903220850486287,-0.1795490787755,0.720907613160505
99.78,-2.01678762727136,-0.18938099317129,-0.700846332789027,-0.578836974384938,0.326476515472671,2.85232096861557,-0.775259027357227,0.0225700336504555,-1.34394882315375,-1.99981854679215,-1.35563679892464,0.58268979704862,-1.08516853547934,-0.0122457709944701,0.392556918488432,-1.52319995119272,-0.578751789443899,0.353389051681992,-0.909140554568634,-0.146740039755848,0.309049523862047,-0.849996164496877,-0.164671330338886,0.705027823708188
99.785,-2.00173325873636,-0.255855323994247,-0.679870006275258,-0.592042017569245,0.515710360232327,2.61943151884993,-0.737388018993103,0.00403438918077321,-1.36690133447129,-2.01793038472687,-1.14391464357217,0.526697470190848,-1.11004321485705,-0.00498613016041311,0.410978887903555,-1.30845169026567,-0.654627418175357,0.394022389145107,-0.898200635263792,-0.145486701079589,0.314116926922003,-0.796782789499618,-0.165300779578191,0.686546456612004
99.79,-2.04053725357107,-0.284464650730195,-0.606359047727152,-0.509407921558875,0.692883620697019,2.38518117430958,-0.726355042779244,-0.0201357590424854,-1.37907549529264,-2.01555104517525,-0.915857306829954,0.468441177942827,-1.09170384112456,-0.00277402226457753,0.439529069938595,-1.1161851019198,-0.70256491246712,0.414714085291725,-0.893143774487535,-0.150521786340412,0.333074303008601,-0.779228575770038,-0.174658921034513,0.674202702121334
99.795,-2.13504475942598,-0.212715005560628,-0.526677163379962,-0.428555060182151,0.828910300933035,2.09287387743262,-0.720458562202107,-0.0613729640370573,-1.40048017251396,-1.9949603221229,-0.590609743209695,0.404591344691475,-1.04674696314125,0.0119655741605642,0.483202134060482,-0.892154504328211,-0.73953599496233,0.406516525743465,-0.896772703330815,-0.148006711036046,0.348492093002217,-0.773168620176758,-0.19801505679047,0.662971090697914
99.8,-2.15061046598845,-0.157757845460813,-0.497737847442159,-0.442609742757047,0.859734056845238,1.88507878330142,-0.719949925538028,-0.0919358889756918,-1.4141637359505,-1.96979123894106,-0.327036978254471,0.326100766493847,-1.02753087168676,0.0243978617981001,0.483923161999218,-0.789949457786345,-0.696584810563004,0.363144196248074,-0.893565021068221,-0.139934842596919,0.363612954278034,-0.789816781261048,-0.24393056128509,0.653066627600367
99.805,-2.09519558903243,-0.155711110207261,-0.496863223003011,-0.505621461992848,0.873099387681716,1.69533099671076,-0.68326404624473,-0.121162773085199,-1.42392166230646,-1.90505892152049,-0.0569003985628128,0.274377824450211,-1.01044819166776,0.0490393571748596,0.484983146878893,-0.702642057489715,-0.657804372714929,0.326451676165741,-0.910137239129893,-0.130198940406542,0.371638471837797,-0.788650486499884,-0.259325499181946,0.649526122087827
99.81,-2.01253172050575,-0.17536823693886,-0.505062752399455,-0.576565031392995,0.906365005096297,1.49345609714936,-0.698647322796627,-0.132403435764829,-1.41396891669378,-1.82245219640583,0.20603234290485,0.236125926124091,-0.988731224663038,0.0732698675819875,0.498418108196778,-0.622597207721191,-0.627253685744589,0.284508743169653,-0.920410468865104,-0.107054519180178,0.380481994048217,-0.799516201533022,-0.258578658103943,0.648847573691028
99.815,-1.9445966256669,-0.170071269223284,-0.504228147013135,-0.615717598520046,0.94299806827244,1.32251768431564,-0.680525649990536,-0.141947683596972,-1.37100672004915,-1.7306827251282,0.471063281576611,0.17371091405853,-0.988258927966796,0.0963116834228204,0.508679414003706,-0.58543326113493,-0.588513610994702,0.245315192377454,-0.934606725140168,-0.0865153492518265,0.392707023582858,-0.825593153174958,-0.247637253924594,0.640975841171154
99.82,-1.86739012022093,-0.131900296535221,-0.486966969857028,-0.616757331126181,1.00082921354103,1.12050980927833,-0.640399062822669,-0.133329360104034,-1.30679425885422,-1.59067886018728,0.720985978762299,0.122414803846903,-0.985539466831658,0.0802361849449699,0.483261118552746,-0.616095777782949,-0.547279865416243,0.202411842571042,-0.947905097741973,-0.0846242545217479,0.407551373125464,-0.848303996331639,-0.237238127696948,0.626601010334947
99.825,-1.7758035360207,-0.0453241063267719,-0.463658557368832,-0.658647813150116,1.04838359838853,0.96240527073815,-0.612204605252354,-0.104114581652316,-1.26886868230999,-1.50172532581668,0.893282495973222,0.0815599343778028,-0.975174530015617,0.068090511215309,0.488380957332786,-0.661870564474359,-0.497751315343572,0.155169460289535,-0.954203207268036,-0.0843292961873816,0.417295086525899,-0.810710373635984,-0.249856654751124,0.621833446274144
99.83,-1.66286186066639,0.0587178317350574,-0.451916175133291,-0.720075327169859,1.10450091177428,0.791971513805132,-0.642564658999616,-0.0777068160284851,-1.17865741461675,-1.41327348862445,1.0815858665109,0.0533249126742099,-1.10715200533346,0.0749567043256851,0.651518723318729,-0.631445176022918,-0.54706480904938,0.0956623757717559,-0.948768726643313,-0.082769243290009,0.411383018615361,-0.777927219867706,-0.258393142198739,0.642251725377019
99.835,-1.61378360724769,0.0805726737793592,-0.484244207855243,-0.886532259469841,1.18453540924355,0.634698315260966,-0.709707376785971,-0.0976110590916914,-1.07599276189555,-1.36951313377362,1.26493175327004,-0.00285367903114187,-1.28887853876587,0.0765548970681905,1.0633027297196,-0.425163122110204,-1.20258944013381,0.000599598304927984,-0.927726784711098,-0.0764753444341918,0.395721547992462,-0.811844466191199,-0.261478203705083,0.665174010940665
99.84,-1.4964422908102,0.0881031830543157,-0.583211862419136,-1.0723267354011,1.39488351187239,0.464904698498989,-0.742660227155377,-0.159222470074906,-0.942241869215441,-1.36963365917006,1.44819407158787,-0.0606882031736662,-0.857396687638688,0.184217488914398,0.939710882978538,-0.594103159536191,-1.71778635547777,0.102961157002864,-0.920657429466019,-0.0639540056113431,0.390590227881802,-0.949424480999784,-0.241204903520366,0.675943248010394
99.845,-1.49199275279107,-0.0171176736087647,-1.15766917504682,-1.45987338192745,1.72152822240243,0.424888668199976,-0.774792896329349,-0.332599846311715,-0.793553577277825,-1.41226577666171,1.55334428475295,-0.0853945131864938,-0.233525305775803,0.3140950644844,0.213795514809836,-1.09559586892959,-1.119333315533,0.429506385792004,-0.90770727846335,-0.0738259169607779,0.385801962584112,-1.02137306779933,-0.234764783984947,0.665592671619798
99.85,-0.771096103042465,-0.999372731869524,-2.0606532334303,-1.88691423063299,2.60699320526961,0.594403338650429,-0.791012941451535,-0.684975238933396,-0.64192222778489,-1.62997638167975,1.63561234857459,-0.154150238718434,0.091595666190451,0.3556974516452,-0.423426653836746,-1.29837652602495,0.0627522519346873,0.607589156476449,-0.893814912954199,-0.0801469016908556,0.378842671234884,-1.06954144929583,-0.257297155412013,0.653252222657645
99.855,0.154430059096821,-2.1963400431536,-2.1293955264914,-1.28961392593948,4.47491031925614,0.850818091602747,-0.939805121368458,-0.995185103912194,-0.222220556621252,-1.81498639193417,1.68986655412567,-0.317725368307298,0.0599714052521506,0.302740127880626,-0.767660500878642,-1.07268302740548,0.997729839524001,0.600102500793904,-0.879888600104885,-0.0881552286962678,0.36498021681776,-1.03763783921863,-0.288430963416622,0.635574344720857
99.86,0.176415248634949,-1.92113993109518,-0.285581001439016,0.400675217388667,7.03578172796569,0.539823912069361,-1.39318125656049,-1.15974600725521,0.848780733774332,-1.74665486507769,1.66076504296505,-0.534471242710823,-0.119922961209421,0.255979604866903,-0.89015872836512,-0.75087812796351,1.35466920099129,0.577742573234099,-0.881376074356694,-0.0873878713890264,0.356335565362764,-0.994723226049609,-0.303207896839571,0.622146127804288
99.865,-0.764320694652823,0.182698702874225,2.18237698690676,1.68957139538895,8.35931288204834,0.0168807205438629,-1.8700967774108,-0.949518219829673,1.24420750391396,-1.91681885775907,1.47229526414341,-0.693165661686062,-0.526616325356555,0.199700517505666,-0.572211507028741,-0.228563426761449,1.31348975881721,0.559712964073273,-0.88481411807665,-0.0802020614842165,0.353440664128522,-0.891532834127864,-0.323885193751569,0.601416162889304
99.87,-1.93395776233731,2.80232693152833,4.32035541193495,-0.0967646721669783,6.91237606205085,-0.0664712748960165,-2.05375476299472,-0.238665157786924,0.322735511002271,-2.09996361607264,1.75090960105063,-0.494079581405706,-1.08499088533809,0.0626162161902205,0.0218134274716128,-0.232248382873987,0.989794022309217,0.656959396880784,-0.893107740442009,-0.0505307364383607,0.366780663722665,-0.807391016848105,-0.335159265188164,0.600295274973322
99.875,-3.26569435316583,1.96887323694212,6.40049534002306,-5.22605734438319,4.02427877426261,-0.219915458817815,-2.21125463312245,0.696676212204961,-0.0999986582132066,-1.02206680964333,2.28018552071993,-0.0548863196525936,-2.19890257551212,-0.162808961200415,0.716546311027166,-1.1037248511078,0.280825450035327,1.05303896304529,-0.895595527612793,-0.0042018952806346,0.371471349669435,-0.814021763229336,-0.31777629037004,0.611978074826884
99.88,-3.32963422496377,-3.04700002097486,5.02791305206557,-7.2890363801438,0.853218567001504,-0.797487422409107,-2.2472112416008,0.902178130221781,-0.496257603594951,-0.470873364356424,2.80838385111186,0.218001758232808,-2.95405331727184,-0.333302078548997,1.18580313912997,-2.27746831248971,-0.424944750716349,1.40061176712949,-0.906154031512672,0.0459434384862309,0.359950338182769,-0.901753993570124,-0.261753600010518,0.611428501758447
99.885,-2.69276433742733,-3.294264587389,1.09626484857778,-1.50393631695877,-0.813683564969534,-1.75325621796984,-2.34469108232817,0.556801117874197,-1.20488729068527,-1.74302999776033,3.43771921092698,-0.307312624542597,-3.34387634768376,-0.248337174463686,1.49749313372458,-4.11829860259107,-1.58264480880346,1.42237849448655,-0.942750012100858,0.0810719615408786,0.350512357654421,-1.03959247041633,-0.174609441723298,0.59373761734653
99.89,-1.57386131806286,0.563253451684303,-0.264281433376308,-0.668563224592302,0.0173211802373037,-3.22522049968857,-1.98261883830083,0.113583459906234,-1.3004463838207,-2.85199487494373,3.34543710125296,-0.63750617498827,-2.86921691279405,-0.139303475492571,1.08886595197706,-4.89917988788187,-1.72592961330516,1.12971263014929,-1.00251208580244,0.106348378749048,0.338048060000355,-1.21863021033542,-0.0486921666828061,0.577939780760361
99.895,-0.578950109310925,3.40211540465992,-0.0197942950078566,-1.33664373253322,0.115411795687648,-2.7362285192889,-1.54378188304236,-0.217524954554999,-1.18891577963016,-3.31480689859212,2.71719358459586,-0.506937634686877,-2.10171131530863,-0.271508165739823,0.402352932172374,-4.78067443834182,-0.638200806038086,0.545657340348332,-1.08011896922156,0.133170896829643,0.324435014443172,-1.39813165833101,0.0802206936629017,0.555666945196706
99.9,-0.520684058675655,3.60455590104953,-0.115727488145071,-2.83252112774045,0.56357144875184,-0.427046681656483,-1.22042291822715,-0.159710412638749,-0.756087758905255,-3.32729875446286,1.83011529508822,-0.551197407589299,-1.53574803132896,-0.398611753018852,-0.218868772424757,-4.34327304955201,0.289277687062262,0.219142800709074,-1.16667837449211,0.158827818910827,0.297572224581073,-1.62927822150896,0.203598348852816,0.534135463515981
99.905,-0.478598089155409,1.22431486265862,0.759500554652161,-4.22947842358924,1.29517302199387,0.47008543007131,-1.04255763571945,0.0543331222014036,-0.129064620183683,-3.1460510062827,1.25841904660105,-0.607207383799989,-0.867991378051151,-0.213878957094586,-0.699864912673053,-3.13779825852166,1.22756532389182,-0.220335067255548,-1.27744544378209,0.155387038634019,0.236719946017314,-1.90575509454591,0.378199494582826,0.491189272956573
99.91,-0.748880186871234,-0.850720788417659,1.6405080655348,-4.53722132744613,1.04162412198869,0.436362238153496,-0.745360608704249,0.23480828711081,0.0695566854863438,-3.06917222161365,1.55663578434144,-0.589484131007036,-0.587608305659439,-0.23515201190332,-0.909703952985713,-2.14363135267418,1.39678580946773,-0.21945463592442,-1.37698684467405,0.138591026502338,0.186639507639976,-2.0350231266374,0.482418819764045,0.445043510762513
99.915,-0.994835609654695,-2.25646919827397,1.73631277394345,-3.76462431506636,0.358705633637184,-0.0901918358330719,-0.534475509183999,0.155421514271675,-0.276663376860432,-3.43420576189959,1.83592846954696,-0.299123544463026,-0.345610603550025,-0.444631740357109,-0.962706615069468,-1.37877366840039,1.21404425626745,0.0730655015573898,-1.49786414645859,0.13419652759905,0.0952532058255272,-2.05489689970025,0.573685461481015,0.387597571299282
99.92,-1.86769908758744,-1.62699763540021,1.65022029449261,-1.73903174572827,-0.167876374744942,-1.05678286953268,-0.359643654239903,-0.134997104528452,-0.549477908216753,-3.87055553119154,1.87580544225804,0.126736570296819,-0.139712236655916,-0.603664489018752,-0.971458904854619,-1.08415642188508,0.789120927843194,0.427179216977119,-1.59089657372597,0.129726383751822,0.0235777294583647,-1.98586563415428,0.668195693079039,0.348982622416347
99.925,-1.12540185988253,0.412182613559539,0.617077852716825,-0.710343782740951,-0.323538223355575,-0.787535419577316,-0.479634275723902,-0.773485675209682,-0.8380805533476,-3.85928964304992,1.95346385876921,0.178229589488653,0.0352468915488004,-0.654510737793234,-0.857832371658747,-0.987850855849549,0.0740625800235492,0.822808919871014,-1.63945351376214,0.137704435816482,-0.0192825195445114,-1.78370596908186,0.709285211541148,0.29888609725714
99.93,-0.677906986397058,1.10186536739037,0.36518141766241,-1.16811467406622,-0.104928211379477,-0.201837270749485,-0.526038470343872,-1.11704077226106,-0.900236289942089,-2.84121894869734,1.95388565088893,0.0685760451614328,0.108523884954457,-0.645473347511313,-0.648931450534496,-0.998897684066054,-0.581601666336474,1.29324623620788,-1.63644045045509,0.141412980157998,-0.041157011144193,-1.44181373066926,0.599540250678027,0.258886966467287
99.935,-0.924583324295584,-0.0167679696639105,0.787911898764077,-1.86941456621621,0.120595389412901,-0.0855849090934842,-0.832619427976333,-0.753036968023283,-0.607047417128366,-1.45146868750126,1.86391075907787,-0.162499277698641,-0.102065201068193,-0.601347866963898,-0.504066432021975,-0.938272553239829,-0.687927901792522,1.56903160323239,-1.58783730727523,0.157688254041124,-0.0303472791293701,-0.999287752183712,0.409279588530779,0.243772516832943
99.94,-0.599567535067423,-0.481037674739888,1.13144265347076,-1.37410973369435,-0.109377891751011,-0.404333516831605,-0.977287044573236,-0.270254631479964,-0.241461445739887,-0.425710645818712,1.52973923131989,-0.185208385793277,-0.369606103105893,-0.51501424471082,-0.383435020597929,-0.722501721760325,-0.294961918926514,1.54558653846464,-1.54089508397161,0.155491093883873,-0.00385790588922728,-0.621903126621501,0.195609079446196,0.238667427475621
99.945,-0.495967511933287,0.154177712929117,0.833671253153063,-0.675521051335107,-0.232440172837814,-0.436893312717828,-1.02742168099337,-0.0326542539778345,-0.123951404253672,0.0933941407515883,1.31894172482555,0.0108047257983125,-0.72911354252933,-0.419939632435749,-0.386569575731012,-0.299876238431481,0.429085154032444,1.41419210754989,-1.50336302032431,0.15965127446387,0.0707440101379911,-0.243916022132671,-0.0787998843271698,0.251838623194319
99.95,-0.494375809188703,0.37923841060586,0.792157903227386,-0.47903477719651,-0.188814937264444,-0.341679220408065,-1.0437116034038,-0.0934200323212418,-0.225153311247125,0.324426366551888,1.25046253219859,0.255025500070733,-1.18375866886305,-0.333166682953346,-0.409767472275423,0.263482486380292,1.09248842397303,1.17924619175213,-1.47264861300239,0.153868654141171,0.12737375957683,0.0275880359223393,-0.305076448820915,0.252678245306015
99.955,-0.506847341877323,0.025295572349826,0.896983575840202,-0.548023602359101,-0.158482864727869,-0.339301071485649,-1.18579628979976,-0.344257570282952,-0.289828809767318,0.650373260042736,1.28521189456619,0.346716433306537,-1.63945493946922,-0.179318429285188,-0.430264154626985,0.728754943324206,1.42158714004208,0.832747741377835,-1.43538862530352,0.13297854970273,0.159332215780493,0.159628340681489,-0.502982725267173,0.26361964502074
99.96,-0.532393459841865,-0.0879750590787627,0.917927678455046,-0.2939002708685,-0.216122461107103,-0.331790179865068,-1.30022149482419,-0.458626643064139,-0.315803733146318,1.0708573826814,1.36187182551181,0.294892754906388,-1.85026414388473,-0.0629225386550238,-0.432064688991232,0.773414992855411,1.33622969179395,0.623678516799571,-1.38956902566567,0.107272443085923,0.177817490196741,0.111438632140293,-0.542480389464517,0.284395236256522
99.965,-0.524679457572308,0.0604613720911147,0.852883039219868,-0.224372234957783,-0.159585035912239,-0.252614061270334,-1.42270949456367,-0.355845844198643,-0.322170604198508,1.38001832865049,1.36862846196151,0.188163802557051,-1.85145856548904,0.0401995012428652,-0.403709749082885,0.377408339149547,0.974460537000452,0.469459245124804,-1.32009453565369,0.0775126935747611,0.174227718895468,-0.126543085021556,-0.509821232869107,0.333952440005478
99.97,-0.501046678863317,0.124822952864221,0.868239300447247,-0.204156801657805,-0.138857079821654,-0.215889708642867,-1.45090147537953,-0.140355504715838,-0.308638174871587,1.35679838784297,1.26860956599511,0.19826219309647,-1.64823888490909,0.0925502513552491,-0.311664709926723,-0.0465441241860206,0.712026844266278,0.392785202341085,-1.24265317300119,0.0512838025476592,0.1618055694946,-0.421707709433579,-0.383787587488211,0.386240379688343
99.975,-0.497371340418162,0.0697489915484944,0.881211849392812,-0.112135797867146,-0.111217271793807,-0.181976362677679,-1.4425009197046,0.0770301614306742,-0.256729450564883,1.13438638469419,1.13312073299342,0.238644521508024,-1.35591281115283,0.100406075111032,-0.208456352176924,-0.41558908347616,0.502529531946967,0.340476264263862,-1.1634806175939,0.0382870159702265,0.150250927680548,-0.650481126088195,-0.283716406806879,0.431832083223609
99.98,-0.504394143945518,0.112942168912583,0.891635199954776,-0.0909726893866529,-0.131623350939451,-0.192609243344035,-1.35435797636597,0.28568009967183,-0.210919850245347,0.640385013847128,0.936504476754199,0.308897915857348,-1.17483838082765,0.0872593339491047,-0.141412146486975,-0.567251681971905,0.412253442562124,0.309626259399732,-1.05310728427796,0.0234862267813074,0.14696540204996,-0.89705937349086,-0.160283719785109,0.480598441087986
99.985,-0.47804015919958,0.18081399625353,0.861479820734949,-0.113561098477444,-0.127374460726204,-0.197510322277882,-1.22746048116442,0.324434220457224,-0.183142503606823,0.151155155791467,0.740301872476628,0.342916190624237,-1.07392577358416,0.0386249588873465,-0.12445456544978,-0.566646034324489,0.36471473511476,0.291040421962872,-0.973424718639269,0.0239838782383056,0.156325854894511,-1.02560799650866,-0.111977744232695,0.498849079163821
99.99,-0.496529767175187,0.177604516459998,0.848978946014986,-0.169602563370808,-0.0945736965117931,-0.201351157835684,-1.06540651504068,0.268287131497199,-0.208231316606056,-0.410988564358203,0.571947299234991,0.334737426009851,-1.00275067769161,-0.0242678612497947,-0.118275427443117,-0.487799052554807,0.372621472386672,0.264066032879735,-0.891188921644521,0.0208025015128398,0.175802853250662,-1.10438829535267,-0.110979137381259,0.492448056604643
99.995,-0.489371644695677,0.165587305251955,0.846117230801575,-0.19477027432158,-0.0831504273756539,-0.1945337222812,-0.93017083716211,0.217752324729775,-0.24195418749787,-0.958862536389638,0.467574832929813,0.265545217046463,-0.957424898085449,-0.099868462612108,-0.114237476183861,-0.365498805878173,0.445622048010491,0.255936295012186,-0.826999186576353,0.010418900207327,0.206636406836118,-1.12926476035352,-0.146821639780756,0.459672864515287
100,-0.489500594098489,0.153056452900597,0.829659979629063,-0.184091456566805,-0.0609967546923744,-0.174851913752662,-0.883045349968865,0.189630504416057,-0.258441782827619,-1.41804449379315,0.410987409184906,0.209972611427109,-0.957787631815182,-0.160180622527959,-0.116715327209939,-0.175456594121666,0.56266270379475,0.294482577558438,-0.801284490824488,-0.00302764924765294,0.243390575112545,-1.09948028244453,-0.164503004920387,0.401389870097862
100.005,-0.491962013394504,0.149114726135211,0.830794677656942,-0.238355659248722,-0.0294330360233227,-0.147989134077618,-0.858640954330262,0.1259539225069,-0.275191956876894,-1.82898397103651,0.3498939389507,0.16924787649702,-0.981308137935674,-0.160166396283647,-0.113508036889745,-0.0637759802360838,0.6173775465992,0.344741604110262,-0.799690705577356,-0.0222877402727928,0.260968214618758,-1.04159283245389,-0.127254185767152,0.328615007046236
100.01,-0.506255210785512,0.13224357781257,0.845841125199688,-0.272362586255746,-0.0107545867097851,-0.117061944737933,-0.862547152749628,0.0374617534754173,-0.249997143394534,-2.06199448034952,0.293269710749674,0.185729311653944,-1.0124356278812,-0.151454149994148,-0.117796684663981,0.0496318488881311,0.652612438102307,0.394631102324618,-0.813121494144262,-0.0361427110057952,0.274534326508171,-0.958087051188637,-0.0465574375908297,0.265740022362472
100.015,-0.503172948596908,0.124347915873951,0.841063046663646,-0.260909405514406,0.0165816442581857,-0.0909766856711455,-0.889024811869389,-0.0749061383216468,-0.230884136794236,-2.10943511369774,0.246911121170023,0.218343940648219,-1.01342925249162,-0.1103985101091,-0.126857758550692,0.109868516151526,0.684056855917285,0.392700554266324,-0.844094930418879,-0.0455772647073403,0.283038327592306,-0.871165113708775,0.0527914102414838,0.222406113130724
100.02,-0.484113972071305,0.145722177047898,0.835839952623164,-0.249625990837296,0.0125844806290695,-0.0764724084707389,-0.919175073017166,-0.161307081490204,-0.218901400965432,-2.02810270396695,0.221325510817817,0.255881103456466,-0.99879428815516,-0.0553078673084722,-0.12040353964274,0.111604198939172,0.7860308880545,0.346226560761207,-0.890546312350036,-0.05907765920289,0.278399611682312,-0.729598805738145,0.211234349034459,0.169513921521451
100.025,-0.501617891109161,0.114875516399495,0.844502256001091,-0.213846214254071,0.0134280411592764,-0.0551373876739679,-0.972819540524693,-0.278521600147825,-0.194624904187919,-1.75039207235141,0.220351069737145,0.301354847321935,-0.981867388037679,-0.00230625352316967,-0.0942094061943898,0.0757505009028634,0.881022192778908,0.293012885326476,-0.913623283388022,-0.0586329500190857,0.273274259820772,-0.610416942267831,0.321210354206078,0.143059441151994
100.03,-0.483683208658914,0.10137944419108,0.846468639470663,-0.1336111743818,0.0101593071350165,-0.0323911680156241,-1.04651874722024,-0.330144234047285,-0.192978358838342,-1.35718437779057,0.270720962196372,0.306152676640222,-0.989125815709668,0.0620554419003292,-0.0754508445772267,-0.011251006556752,0.97968003952075,0.231441722463848,-0.933009086322328,-0.0340822444360986,0.26079424691583,-0.4724268605084,0.392052334117957,0.114228917582258
100.035,-0.485520825766724,0.113709313118072,0.848786438596018,-0.0783544549162005,0.00760895758867264,-0.00702095756310811,-1.0862494554071,-0.350245035422679,-0.176876393474082,-0.827555154613231,0.280114027928666,0.319556656836601,-1.01957054773463,0.111882046279543,-0.0205077688801861,-0.115860397641003,1.01671983948847,0.19922006492384,-0.954744535567421,-0.00241638634074845,0.242071820048186,-0.348123952999793,0.421943307368886,0.088913982344638
100.04,-0.492033992737194,0.113794049822179,0.845578322904614,-0.0215894262958262,0.0209935655434469,0.00301734981224561,-1.11347542061982,-0.331885522326857,-0.167455869036898,-0.340801892845021,0.273001036787604,0.323721451116259,-1.08758989142769,0.143178467598121,0.0223198464149796,-0.211267105166587,1.02345610542199,0.207077740779036,-0.985431874972867,0.0302805922860642,0.228469110634011,-0.239918927136939,0.375280566107299,0.0777905849519348
100.045,-0.481725392354726,0.138755347833905,0.844154261879486,0.0342711031646405,0.0194785149617437,0.0122544018109588,-1.10860765583357,-0.258209374712375,-0.167111856228779,0.0916117468804565,0.243680065882988,0.304484643109252,-1.07907081683023,0.145041022670972,0.0202781011670923,-0.334847490672261,1.02034875933637,0.165340102642011,-1.01496115546041,0.0733326423984996,0.217075249486738,-0.133692579803395,0.30340501251991,0.0564584389235264
100.05,-0.483639986057772,0.142319757153338,0.842485822829017,0.0816915633072239,0.0178023561780732,0.0150451762601733,-1.08093827577137,-0.16258369755106,-0.160688399614699,0.487053149517547,0.208333015251023,0.301781893207195,-1.09298928759602,0.100099647814529,0.0476114876061034,-0.387310656084508,0.960755529666458,0.151973545969344,-1.04331662059128,0.114724295435756,0.189255903905751,-0.0313149621098028,0.236564968544669,0.0332995833102324
100.055,-0.485674371364147,0.151833037868482,0.840730648428894,0.120490011478744,0.0146380984411034,0.0150451762601733,-1.06524690888308,-0.0913614707784235,-0.152029671979904,0.768046449329909,0.213562535557433,0.33386859774728,-1.09655023160796,0.0229657669166005,0.0591889911682906,-0.385255231442061,0.850907267462794,0.165278700936103,-1.06749893381642,0.134497813138353,0.170222724145745,0.029347502141606,0.218999179094652,0.0291081517934799
100.06,-0.482579411500731,0.154853966207365,0.839320105362806,0.140005897215765,0.0127428719864171,0.0161433020550826,-1.0369952243758,-0.0416240501512758,-0.140175994033144,0.908644630610846,0.216637000441551,0.350696149336298,-1.06864233959669,-0.0267451569249977,0.0732284519913142,-0.364315068197774,0.802389588072721,0.154378339561322,-1.07345281815584,0.157187443995801,0.145791726923825,0.0607739034834596,0.221456823431765,0.0291081517934799
100.065,-0.479957873994052,0.148651663114788,0.842826750710123,0.153049723324206,0.00903513397728288,0.0189147425543079,-1.02612889559652,0.0191031124726594,-0.137915116561456,0.971091173448343,0.21451806546588,0.340492765038958,-1.03764560048082,-0.0686545145029036,0.085603247151903,-0.317246798414386,0.777613013036137,0.134382399769843,-1.06371122560735,0.177304814530011,0.130242299511036,0.0318910739406077,0.230599115843353,0.0455449268925195
100.07,-0.483339741799852,0.146996863582762,0.846176517985467,0.149649258404853,0.0155654281751197,0.024213039390772,-1.00994397675747,0.070417425624189,-0.13056915507091,0.932875883038047,0.207814311037465,0.325133924557718,-1.00938913568872,-0.093793087280274,0.0957728556720076,-0.216393353956752,0.765594756925567,0.12453292418132,-1.04930192078848,0.188533091707003,0.12474940163781,-0.0257466268281265,0.217403115560932,0.0655433796043281
100.075,-0.48409100657865,0.15418646468071,0.841880936487261,0.134476384534327,0.0337755043801915,0.0284616212817162,-0.998301005536003,0.133301854203221,-0.127574836926363,0.785179361447809,0.179560936696454,0.312311332051703,-0.991809726597473,-0.0825424435306559,0.102845571113471,-0.123213617425729,0.760890307059078,0.110180998554455,-1.03354291405543,0.19861552024592,0.128190392016047,-0.121659633600836,0.192216843749917,0.0863426028470753
100.08,-0.477672221858517,0.173978060560365,0.842281375424679,0.0970085965859653,0.0142519258071845,0.0239961738520947,-0.988616135100862,0.177059933639431,-0.125710275856825,0.56937161947407,0.137705985533892,0.300553750076646,-0.977876999801546,-0.0645500764998356,0.107159443508819,-0.0368298275167227,0.772142702652685,0.107159800827503,-1.00545813336193,0.200931611885023,0.135874993779267,-0.219438519059916,0.161741437997363,0.0962877296102372
100.085,-0.47736617866815,0.171143142856764,0.840592926580464,0.0626964961074049,0.00952231885294555,0.0178795059790298,-0.946044668841003,0.223965767841291,-0.125076889532495,0.304901476371366,0.107591147572331,0.274541002186205,-0.977554422960741,-0.0392984782347301,0.106980022326054,0.0643987500668135,0.787246238056321,0.103204193005383,-0.972816549526985,0.181173393612186,0.153047696549052,-0.293237801992573,0.152464214961957,0.125830704830834
100.09,-0.475248608028597,0.173318148597665,0.836429618527128,0.0127423051819351,0.0140654328816048,-0.00188086821858593,-0.949126916855523,0.224711398147886,-0.125629412509858,0.0948090553134018,0.101893130635498,0.284625517262809,-0.981109692325662,-0.0115734496260534,0.102451731306647,0.119747101382402,0.8023725531387,0.101017928657414,-0.945903217066003,0.174525124696962,0.173912307655146,-0.343759783364779,0.141533919154581,0.146451864100593
100.095,-0.476081255492877,0.170108556083779,0.83877796948134,-0.0267518177815455,0.0165024399823917,-0.010071962414234,-0.951441096771004,0.216590431272731,-0.131175931189651,-0.1316335340116,0.0689608944657456,0.288265141840851,-0.988700229386763,0.00852160828185653,0.093476121040785,0.154789324509563,0.817824550954284,0.0939786614052867,-0.917250073762935,0.18061206765914,0.187529440810883,-0.393102599775511,0.131719670640697,0.155065770307751
100.1,-0.479274327906427,0.16436173170508,0.843625078785143,-0.0678764189516611,0.0270902123958877,-0.0203839652240276,-0.961478514638973,0.166287532539725,-0.141696684940161,-0.419553930477478,0.0278940010718749,0.273119063638745,-0.999645827130491,0.0286547670735145,0.0915534764808062,0.1702172571948,0.838029186567416,0.0671086595544388,-0.89384136641821,0.167176920370421,0.201589485427234,-0.446480850861741,0.126717187199281,0.156259329670415
100.105,-0.489251984784678,0.15927758530696,0.83996934196075,-0.0795554803868506,0.0186042040586472,-0.0211524466236804,-0.978276549095821,0.109233492057972,-0.14680447397992,-0.56338372597225,0.00147536157604003,0.264440446267705,-0.986972228559423,0.0442817817997425,0.0882864528094283,0.154477618625432,0.907573895528429,0.0165022267475936,-0.882507169859542,0.155033239522967,0.215114443227768,-0.457062989129383,0.112847463576972,0.160917554209484
100.11,-0.486249002114785,0.153693865556168,0.834131264710643,-0.0870844347299644,0.0173033054649759,-0.0260796017960481,-0.995389344687175,0.0629612845952835,-0.157090383338946,-0.618557562959933,-0.0193823552019513,0.266878691456491,-0.972035904241203,0.0477939926062872,0.0794386194411595,0.159983393760361,0.991108240461195,0.00487131264047448,-0.879295822070441,0.14688953488036,0.217470198932537,-0.470747878706894,0.0791722652076332,0.169310398457248
100.115,-0.492653399605548,0.154083025863149,0.834828341811917,-0.0855206763239031,0.0266971856977945,-0.0251044193387971,-1.01278916719172,0.0230038712595844,-0.149396532814331,-0.618055256637557,-0.0423822189304101,0.272753179079451,-0.989799208861949,0.0538546977092961,0.0725566400602924,0.166382620874378,1.01058621940732,0.000864053931337818,-0.864964713392126,0.139202508093968,0.200407098845523,-0.499626607021756,0.0385872798344496,0.174991616731182
100.12,-0.486064129712621,0.145479291669244,0.836469344075734,-0.0683806457372311,0.00371878232337638,-0.0264018354244595,-1.01889195837432,-0.0141439137759098,-0.13469454311805,-0.581011356108947,-0.0508413980076915,0.275650306858862,-0.99414097518578,0.0614945574420388,0.0695117220141223,0.159943095477923,0.995097193230799,0.0129278583230384,-0.859730904205091,0.134808529732084,0.196669868279258,-0.502044946395795,0.0289609144689937,0.165910344684044
100.125,-0.488591397719046,0.146955586792362,0.841023400295805,-0.0433889389480229,0.00173109006410737,-0.0231577171003623,-1.02903672170843,-0.0633064692191729,-0.133487248952171,-0.410210490453991,-0.0500629906046899,0.282534969730794,-0.988062319311283,0.0671954140062091,0.0792887304190047,0.136621909665089,0.917059581251971,0.0216411892324686,-0.844930033579536,0.135208074897194,0.190554533617345,-0.509626379257254,0.0543752487497,0.16589910253316
100.13,-0.484693487532166,0.145335052508501,0.83698208807024,-0.0202656381360657,0.000873279941391155,-0.0173897162344042,-1.02521197545825,-0.0867020215561844,-0.136697337502146,-0.2542174521805,-0.0602229978847145,0.280434365666025,-0.985456716085021,0.0797192792023911,0.100875080733512,0.108983026282795,0.89239661239411,0.0195096986103709,-0.839562082475094,0.134603088037129,0.185394002967671,-0.504033393713012,0.0894532424493876,0.167653340623863
100.135,-0.48450845014841,0.144395293105987,0.837374936962767,0.0140999531811402,0.00745103782492925,-0.000206920575801249,-1.00422723630283,-0.0938092523983213,-0.133175866575304,-0.0839662851123408,-0.0602221327941443,0.271126875767532,-0.9825465328603,0.0928757485431494,0.121562870881684,0.0677056786275884,0.88280510177101,-0.00212538671237302,-0.840770013068526,0.136944361027677,0.188531278655154,-0.482630334572962,0.134888002195672,0.174305082748379
100.14,-0.482021681335602,0.150233942530485,0.843059454758594,0.0428156843606626,0.00602864462882617,0.0124042489604597,-0.988136836400911,-0.0683201037146395,-0.114166921561763,0.102351183825157,-0.0596537596931254,0.256645726563513,-0.990196368242134,0.100784170844432,0.133904395407645,0.035040955420476,0.85967180761624,-0.0227424750319477,-0.84491662508665,0.148812007871375,0.185700564902531,-0.450132683212753,0.15985461787225,0.19056201883746
100.145,-0.450198948483389,0.168340024208757,0.852254657653033,0.0653233701043077,-0.0105316210196584,0.0103928204682772,-0.987569908431623,-0.0507072758846015,-0.106770753351504,0.276440692885412,-0.0301212743716102,0.248355126864792,-1.00068371542458,0.105944140226418,0.144871950612899,-0.00644577013498115,0.838108517153394,-0.0486805241642288,-0.864683908794563,0.159168118140916,0.180083412711496,-0.427073633810427,0.174480775843967,0.20049770981823
100.15,-0.471848132649361,0.148552082150261,0.846356287745734,0.0702597349882126,-0.000330884687013613,0.0144351664745057,-0.988791591519351,-0.0137540883724139,-0.0944908836855111,0.432635626483071,-0.00821484422389529,0.253286800798626,-1.00773806132672,0.101240588832016,0.153651815482285,-0.0486948966508096,0.810678270870494,-0.0559851104409361,-0.855805323021179,0.162299569203543,0.177282798661276,-0.413607389096637,0.192603130166982,0.190250155573852
100.155,-0.479834756067216,0.142367789963126,0.849815513988661,0.0836919019561629,0.00601036168842215,0.0226547840876041,-0.986485767878315,0.0196248122333257,-0.107790224138315,0.49580504179682,-0.00120151267696529,0.246268010099817,-1.0027945143037,0.0882273463247951,0.162375447050938,-0.114444088088282,0.794086131045962,-0.0822228645607298,-0.871717380055112,0.167048387204273,0.18966770710717,-0.388092338322291,0.218681534069097,0.183178665734811
100.16,-0.485226547624601,0.154081770640384,0.831224421374679,0.0954747275238366,0.0122203650403228,0.0282635204854176,-0.983256983418346,0.0612405363258001,-0.11563677255131,0.528247142550015,-0.00437542189861115,0.249924579039118,-1.00167520987193,0.0716477189251206,0.160048004459051,-0.140633140330476,0.784790773126904,-0.0944039186088368,-0.888598648434141,0.166706501789223,0.179069454615878,-0.348285808391469,0.194256685290286,0.179686552327577
100.165,-0.476555435013603,0.164390302507274,0.836926952786072,0.0940994965895126,0.0148528658593668,0.03126255735055,-0.98334070634905,0.0970204075846264,-0.122292682887715,0.514318115620333,-0.00804294067367746,0.24262539819457,-1.00097882663571,0.0453885196435807,0.161228198953666,-0.139705144136467,0.736946926759448,-0.0926261514505169,-0.900300807879528,0.169070610848145,0.178491167571665,-0.301205356205916,0.1673539961901,0.200103750732394
100.17,-0.478553085014758,0.162878065650355,0.833697934256509,0.0503169937437007,0.0100523456931114,0.0257785052888458,-0.987994101619291,0.134077635951914,-0.10325196457631,0.436474666979762,-0.0072164973920791,0.23728368088474,-0.984707157595922,0.0251181658284557,0.149795342224811,-0.149548792476064,0.73933984878494,-0.104950323013105,-0.914509695397721,0.176126976507188,0.171961479141158,-0.328695831731707,0.159753472694122,0.198293660647061
100.175,-0.469767922530089,0.180230692121113,0.839854051831143,0.250001646774885,0.00745922711149921,0.0179037471555958,-0.988878246592244,0.151026380970178,-0.0930138323071856,0.31504827644616,-0.0212403143908932,0.234534721949177,-0.982704888933589,0.0109934251540226,0.132781301342887,-0.141518670070907,0.735770146586349,-0.105840801548584,-0.919969614049779,0.169308360191681,0.168904174559987,-0.393604974408724,0.164344285012331,0.185319116044198
100.18,-0.457610591534898,0.192500722979238,0.849970282109034,0.0310958784846107,0.00506077119163044,0.00828518132617767,-0.992954497492128,0.155818338467308,-0.0931406013421565,0.173032037057526,-0.0329220079868613,0.23689354009702,-0.990833572160089,0.00148291992854336,0.125566349740321,-0.114436220372311,0.718793441894616,-0.108706516662699,-0.937276015217271,0.137258891267615,0.164806659790738,-0.483223884206703,0.166725908978202,0.153531266655848
100.185,-0.492071829360702,0.154581231269425,0.837491481853229,-0.00291397798208838,0.016674865751134,0.00263573771822012,-0.989033017616914,0.14255489563656,-0.11336503392093,0.0749662705684819,-0.0451623851518621,0.226338056130627,-0.989762889170034,0.00896106032365789,0.132469400173088,-0.0714851916413597,0.685615821456516,-0.117005953658878,-0.945482524576237,0.121887327900567,0.164091498949178,-0.494359229392827,0.170072673990346,0.129695665087407
100.19,-0.48089041875074,0.161789302562381,0.840527701436017,-0.00409736209819431,0.00778678687618083,0.0112615402686661,-0.986495312884015,0.112391885242548,-0.131956192610638,-0.0447153710811103,-0.0363679499163547,0.212499367237143,-0.985100300722504,0.0142947178460764,0.142126313021139,-0.0311956988345793,0.661895928640042,-0.121297068893909,-0.942143764275992,0.102271665014265,0.169335524549911,-0.468203593757544,0.180824582630012,0.10566675416069
100.195,-0.476672649141847,0.1514774815265,0.840731214796897,8.11220587545905e-06,0.0103626484176906,0.0138234822079539,-0.978143684948427,0.08407720733634,-0.148469738651013,-0.144102418035361,-0.0214500513868629,0.195923796861046,-0.986192335332702,0.0200586920117572,0.146469300555999,0.00592038125565427,0.648477648288728,-0.125118748262126,-0.949134909911926,0.091023204084437,0.173809965967441,-0.430152037568105,0.175326766032741,0.0813451828026279
100.2,-0.486053019379853,0.143141637475604,0.833424206659035,-0.0110824852440205,0.0276747056953387,0.0220557732889104,-0.979413361464555,0.0603504170837816,-0.13562730233967,-0.196170792296237,-0.00974527703411847,0.188023850165453,-0.978790235020661,0.02549454014908,0.143375004775006,0.00403138815496888,0.647406547975413,-0.12852964056169,-0.94419179086668,0.0835919502663244,0.177148566429375,-0.413447877591202,0.176158842832745,0.0643872667401415
100.205,-0.470319101225782,0.162963917804009,0.84367647781806,-0.000578751701179228,0.0133872531860543,0.0156461235207371,-0.983504067156982,0.0509165062070783,-0.109381514002452,-0.223372852579577,-0.015154423909364,0.171117432993519,-0.986259302913843,0.0223952026667016,0.132348503372413,-0.00637475094551654,0.657812656449963,-0.127043054396119,-0.952732022171691,0.0772539997654145,0.17902689452576,-0.375072904379704,0.145541782524135,0.0463473826815437
100.21,-0.478291545889363,0.153534639033228,0.844789237651445,0.00565230412648437,0.0140021932950269,0.0144699249147208,-0.9893684473999,0.0530366580816051,-0.0947258574885483,-0.213592394235941,-0.00962363932643193,0.162456477418592,-0.989812429462041,0.0198467380140756,0.127485432997009,-0.0205210665867303,0.666537748115553,-0.124150888172419,-0.949607426148267,0.0776790128087474,0.181619237432701,-0.337373358333185,0.134806960821152,0.0329373742868076
100.215,-0.483489893357925,0.148380934814811,0.839209628674665,0.0138024046191325,0.0147048088936529,0.0111457796088844,-0.988492311024694,0.0346747212478564,-0.108466083680577,-0.176034502909563,0.00438068734767505,0.169754124697112,-0.996338608891296,0.0113257458800588,0.123334835694083,-0.0383214376650731,0.673837496924238,-0.123543479328327,-0.950836822397962,0.0828102653544452,0.186492863661048,-0.313362627947197,0.122269361936912,0.0167474406826599
100.22,-0.482357248638732,0.14432854401602,0.837768489918983,0.0142814787229815,0.0172604565956178,0.0150329709190923,-0.99561605615573,0.0144823958780916,-0.123492160640524,-0.123078971380947,0.000720758208276058,0.16687080308532,-0.994430129816313,0.0104691731670656,0.131276410868397,-0.0396901599772727,0.691855512425898,-0.127334930730388,-0.956471283773896,0.086412780532758,0.19957489295485,-0.260563342530135,0.100975715418316,-0.00578836085555587
100.225,-0.488013823987903,0.1393592264146,0.842907813286516,0.0365698252468407,0.00542434026331255,0.0153761070796924,-0.996310163482321,0.00406384452728128,-0.120794214374067,-0.0668114901160706,0.0101706217974424,0.159241758050933,-1.00415878701196,0.00911357671760266,0.13355339495717,-0.0494727275464122,0.689745721113751,-0.125544718104297,-0.957065378148923,0.0987090091987511,0.205900230407474,-0.229024225004588,0.0673677119923016,-0.01721399432665
100.23,-0.47936452116312,0.148614526647645,0.843985228343492,0.0404350330028132,0.0180234171196833,0.0218001021816319,-0.991890262681483,0.00909343319667535,-0.117461483934195,-0.0126427243394813,0.0267477603815112,0.140918699726373,-1.00237949409898,0.00458400544902955,0.140479421156165,-0.0589671474247499,0.684976518965055,-0.125803283087808,-0.958431922355186,0.105781133462554,0.217032639358829,-0.198085096696909,0.0385732314519706,-0.0318506958416786
100.235,-0.468527585841649,0.154725378434836,0.843163854454891,0.0421607568860054,0.010370121383309,0.0195320312721407,-0.995192973037337,0.0300782087231175,-0.102740393898261,0.0398542550730458,0.0493471094461938,0.136449828743935,-1.00674950493857,0.00620166809060819,0.135933254113092,-0.0659660022739818,0.671512893309962,-0.127405539155006,-0.960185453093225,0.113254852266311,0.21910395508809,-0.177132663713483,0.00443453188531718,-0.0471954642557258
100.24,-0.475358359266033,0.160432503032632,0.839106842876175,0.0312772089734964,0.00880831119796532,0.017332182144356,-0.987432811914065,0.0450653668210132,-0.09928052201621,0.0936281820909618,0.0617428169903962,0.13390855804397,-1.01190100419753,0.0193507988796551,0.132170463834337,-0.0674230606417046,0.651322306782738,-0.125077313832068,-0.960889628120454,0.124474680927398,0.218750788058765,-0.161685709336481,-0.0164763989019254,-0.067695698071586
100.245,-0.482721864718104,0.166258520191912,0.837385305833164,0.0390889866796915,0.00730645658824537,0.00893670413643122,-0.987479231646763,0.0782736110625163,-0.103434802638282,0.127386636131193,0.0709290453795849,0.128709849717348,-1.01287360639107,0.0331217301246288,0.133566364983955,-0.066830262522498,0.632500532246138,-0.126702773583185,-0.963958480367961,0.12436292379824,0.220763837176912,-0.152540388914175,-0.0351340127602193,-0.0752282961623979
100.25,-0.483914098002123,0.161788167360834,0.831477083406717,0.0422042850092609,0.00518733354586163,0.00893670413643122,-0.980111053899485,0.0949563205312013,-0.105366439677266,0.133071834015201,0.0755886223019182,0.118060709722406,-1.00969870515802,0.0450390368576449,0.129094373839005,-0.0631120183872742,0.595232563171734,-0.128128692198347,-0.960452512324348,0.13172678225383,0.224554782324812,-0.1565376011643,-0.0424293188157628,-0.085346729490847
100.255,-0.472358862618256,0.160195250821184,0.839105478006212,0.0406530030027575,0.00300824121082361,0.0080010692019871,-0.981241287751641,0.105530688717396,-0.111120365725375,0.0998902751621828,0.0952898131645624,0.112966674291237,-1.00575042883015,0.0567931897780495,0.128328622006128,-0.0675929648308832,0.585659805375788,-0.131070613861084,-0.967117494316588,0.138840219583473,0.229401236186042,-0.172110853623112,-0.041576896911235,-0.0941251387153161
100.26,-0.478941440272339,0.153884068199212,0.83850835609748,0.0352367267929396,0.0198291860247299,0.00999594304758715,-0.981013396668447,0.099415159549386,-0.108231440545244,0.0514700198626726,0.106250173750078,0.100595248530007,-0.999960524300621,0.0616565312386435,0.125742053768463,-0.0638785373335558,0.576176877638583,-0.132247782694775,-0.966009942947677,0.130945690207831,0.228614904076827,-0.18640896582046,-0.037517392843311,-0.105103766363608
100.265,-0.480699484670927,0.151669208496125,0.836475361529742,0.0269768376807163,0.0130193187882711,0.0157432855877632,-0.982681469336049,0.0998768206618698,-0.113465109006429,-0.0124068722876029,0.109716749929591,0.0907936341107441,-1.00002029707438,0.0743459044872017,0.139454793801887,-0.0555962523942974,0.55576033346667,-0.120908177518202,-0.962427316857612,0.133762960668507,0.227785853894867,-0.191910673697563,-0.0321839910910093,-0.107721641659737
100.27,-0.485833631686003,0.151418214677654,0.839923163238025,0.0320769604175144,0.0126159768136794,0.0195014708984575,-0.983775549952191,0.0964912814672763,-0.117919518009021,-0.0668013047556535,0.109910752605208,0.0750251835926662,-0.997373688905663,0.0839435491581139,0.150885982446999,-0.0757858488338891,0.529966770902018,-0.113714929077495,-0.954606503649889,0.128914771959573,0.227295527674566,-0.200944503481248,-0.0225719274741762,-0.107721641659737
100.275,-0.487264883120827,0.160831401346005,0.837039456586093,0.029698891617868,0.0167964452486087,0.0283380276424133,-0.983351766834075,0.106178442143781,-0.121116406143468,-0.120312930685547,0.134746771033884,0.0576415058921848,-1.00612799416344,0.0932507723932282,0.161403155609457,-0.0975464182671373,0.500481526297682,-0.0984214169289408,-0.940383493966814,0.12175976985674,0.222208638761825,-0.211434899814932,-0.0150875235120367,-0.102319629650042
100.28,-0.483493293330836,0.170898333292966,0.835278202171047,0.036966076924295,0.0216359061857769,0.0294701902810824,-0.990409678073182,0.120173060642463,-0.0963479208084162,-0.153673855951994,0.142854490118176,0.0379734180997311,-1.00472448649808,0.100704213027586,0.163093377644782,-0.10860805160628,0.474001183428125,-0.0939564707536189,-0.933068446567737,0.119891610331924,0.217901112962891,-0.214222096301629,-0.0161333936899762,-0.0960544538051028
100.285,-0.463491412405062,0.173665109470245,0.839178727866298,0.0180261720058656,0.0267390270850792,0.0239257778498246,-0.988376217811335,0.129944664477572,-0.0729270947753521,-0.185141870313301,0.15966102801492,0.0167301452924182,-1.02131316787726,0.105230266710576,0.150986037024127,-0.107529453952823,0.462849659462786,-0.0916899746419842,-0.918725815935337,0.114328015299902,0.217250525858835,-0.211060971021652,-0.0208315861053697,-0.0923229587231563
100.29,-0.473953274071562,0.174808547504015,0.835767686214045,0.0120927400045256,0.0208283360780841,0.0109236599922439,-0.978264315262064,0.134743930556787,-0.081889856780013,-0.190588012337685,0.16865551011903,0.00369020382691484,-1.04383556832807,0.106493826801614,0.132421926086895,-0.0846874676885776,0.44387231611069,-0.088579389027178,-0.903726391585677,0.107600606949181,0.21394008371191,-0.207149638756506,-0.0207876645181046,-0.0891499754081901
100.295,-0.483265563673752,0.173171157890563,0.831361950956202,0.0150075674648811,0.00981623036008692,0.0017643879484015,-0.974443391804642,0.123764992025403,-0.109767484716579,-0.190588012337685,0.183429478942336,-0.00584450393304679,-1.05785909350955,0.098649181148795,0.11112122102729,-0.0764075291013903,0.43439743275208,-0.0936807630037522,-0.892996241616847,0.101769973565398,0.209867332852206,-0.173229871972654,-0.0213395675037101,-0.0849701722435563
100.3,-0.492761220861104,0.162373712376078,0.835805627524465,0.0139334996548829,0.00272218137979507,-0.00816701911389828,-0.961649890139716,0.109115994045413,-0.143990193890224,-0.176890307934351,0.198376351428805,-0.0289323070183957,-1.05912523965709,0.0878621033335548,0.0991018684374071,-0.0894453720574499,0.405137551983091,-0.0801260962957674,-0.882940401318366,0.0927036723623537,0.206929797262477,-0.137303376596267,-0.00402857606369386,-0.0878098241637365
100.305,-0.482032689076135,0.1610358065361,0.829496580641645,0.00629476084821583,-0.000117379771663193,-0.00925915749315256,-0.970542294359196,0.0983737688370553,-0.15054800955425,-0.1697176426712,0.205145886858264,-0.048802650584631,-1.04672466765328,0.0725980344426141,0.0938734988457816,-0.11811628285084,0.388071676193322,-0.0626557320356369,-0.878963215748439,0.0848544302296494,0.207479087151351,-0.0981781151792271,0.00821296798647209,-0.0837376110844885
100.31,-0.482736423111299,0.160078036265555,0.837102136896816,0.00700190214907707,-0.00705408387828779,-0.0135970734817907,-0.981276645096192,0.0894597419241959,-0.140933772997574,-0.177149385213852,0.21562811870216,-0.0659258179325072,-1.03587479422049,0.0618087876941357,0.0750588653018884,-0.119260510871085,0.390459498894227,-0.0562013403613457,-0.881209848644725,0.0897843301883372,0.205880768948013,-0.0498205299579197,0.037048158506245,-0.0896382302509572
100.315,-0.489310784036115,0.16309636473396,0.841165768874099,0.00562187513471558,-0.00749429420247138,-0.0166069280967495,-0.984912486248875,0.0805562942853534,-0.13416185746085,-0.16229058335308,0.211114562017611,-0.0703095527802366,-1.02492933213711,0.0481113579492032,0.0529199946418694,-0.10385463713736,0.387993680944008,-0.0468994676831321,-0.886239691854532,0.0934678310375966,0.210808803623147,-0.0236318174913152,0.0574514905409266,-0.0954390638176829
100.32,-0.487640125542698,0.162194709925744,0.835678917694717,0.00794409731676876,-0.0204838784709376,-0.0240429053380888,-0.981761321976978,0.0770939267422927,-0.133661692798912,-0.141482303498824,0.194705975598948,-0.074903316795826,-1.01183244456411,0.0336527944039362,0.0418223996900497,-0.0825457439411026,0.382169063036736,-0.0444639841834812,-0.890676043951634,0.095059021745775,0.207708497067455,0.00129905589138269,0.0744414310688661,-0.0900195195233844
100.325,-0.486734662848981,0.162420304437124,0.830185481891951,0.00404892251250079,-0.0185252401161804,-0.0225628746904162,-0.981634106888082,0.0644185204913399,-0.146214874499071,-0.11408442757766,0.201555446234185,-0.0762374460446941,-0.994978357859501,0.0184932034179354,0.0321946948300076,-0.0479727127786757,0.354322628911727,-0.0480511303868487,-0.891385379394483,0.0994574285554252,0.216524502534443,0.029963360824673,0.0948276807153694,-0.105278253555298
100.33,-0.480299287552122,0.167545601849482,0.83698417456495,0.0030665323138237,-0.0204900205135345,-0.0239453334634648,-0.978996759184255,0.0550818073337989,-0.141959050507009,-0.0938089246868975,0.209167706882669,-0.0844029711484952,-0.993421443130837,0.0180944618548801,0.0282233388964602,-0.00610458361673221,0.333619444128171,-0.0422356718894142,-0.89964999955626,0.105765790961782,0.218847800728251,0.056092942235946,0.0973376499675746,-0.112409820675373
100.335,-0.480299461893845,0.159700140539031,0.838642239800326,0.0021159809797582,-0.0176383607143389,-0.0178034524907352,-0.979918416560125,0.0550894149787268,-0.134200507049286,-0.0752104834468513,0.223544295478402,-0.0900036301524707,-1.00059813774476,0.0238951673249673,0.0298033946243409,0.00227110087871552,0.322960624853087,-0.03870501517948,-0.921287363140317,0.114690085197147,0.221062275184932,0.074330627680971,0.0922609871578597,-0.122537035908405
100.34,-0.474937050738384,0.161990911625874,0.851941513064366,-0.00405846654643141,-0.0180055983482028,-0.0261641649373982,-0.986905086643756,0.0737889225004859,-0.127796710770735,-0.0494791244141468,0.228789975277984,-0.0991133238302264,-1.01075938522249,0.0337784264308701,0.042698708259347,-0.00258602948710536,0.284109928563226,-0.0418646885380183,-0.94538470715842,0.119681500911916,0.220664916356773,0.0883474859253945,0.090769987544037,-0.128602392990158
100.345,-0.468947967830322,0.162097959783967,0.844167318248377,-0.00154236365492553,-0.0176010203022876,-0.0217733808144001,-0.989486511014057,0.0980217293893244,-0.123431025837395,-0.0427629761397839,0.234382992540389,-0.107058190819748,-1.02325072751439,0.0474624970162265,0.045291381935107,0.00227110087871552,0.255292978575554,-0.0434247946476397,-0.970967913600222,0.130990575883266,0.227231860007884,0.102788560331995,0.0864753369214205,-0.146130317819324
100.35,-0.482925020906144,0.159028304532793,0.843776760496525,0.000818711803566705,-0.0112295281958488,-0.025783804661924,-0.99468800239826,0.110845235814445,-0.145929192332482,-0.0499604326794293,0.233238771616063,-0.12442448995373,-1.02282926367391,0.062911070136778,0.0461960750705254,0.00376109065914099,0.229469220928005,-0.0495452825766544,-0.993741755620591,0.129524833369033,0.227824371074881,0.113576319413009,0.0937321592454287,-0.159458235589867
100.355,-0.482225101038033,0.153940807239401,0.845711422994046,0.00810021496186577,-0.0117590242560987,-0.0252707414329052,-1.00131419804114,0.115599767284313,-0.163334288602289,-0.0771072431006127,0.226364938650877,-0.142187735035181,-1.03111954972404,0.0709747006620722,0.0445535568892923,0.0133448415723061,0.216322678029033,-0.0550397669427831,-1.00885092901675,0.120561878344608,0.226528581956722,0.121814220717129,0.0921771431465636,-0.173620012950266
100.36,-0.486370790569773,0.158562556223604,0.843025873669227,0.0176061777759993,-0.01311962639119,-0.026452205921439,-0.996887384851114,0.10783130190632,-0.175293043258735,-0.101398483164561,0.209408158379663,-0.158637144542888,-1.02981380244726,0.0693287198616572,0.0437677547589317,0.00426366896326975,0.201200132000428,-0.0650991201400757,-1.02008177801967,0.110082546189363,0.223691754458696,0.114476396201103,0.0844282093301021,-0.183000488159456
100.365,-0.48265696287611,0.154292280384985,0.84366364092209,0.0157330491712855,-0.0112696484402323,-0.0256049945614982,-1.00000041501271,0.0973003970368115,-0.180305321100046,-0.132960560671022,0.212441677401767,-0.17386057972908,-1.02788231521262,0.0588986384106072,0.0264310397630652,-0.00449128232833956,0.187087510765098,-0.0632235168671885,-1.02521423025599,0.10471388466295,0.222567498675879,0.121239945292473,0.0613006845302261,-0.193976780859406
100.37,-0.484794314953108,0.156504846917228,0.841674380925935,0.0289478648428739,-0.00949476659297943,-0.0264924354851246,-0.998991424285875,0.0755044672868551,-0.171949093191688,-0.143976217110956,0.20817766402594,-0.176868549298592,-1.03286362143544,0.0413770248632405,0.00953785497150623,-0.0188026012106978,0.181375416946646,-0.061316445378858,-1.02748542511915,0.0928476046942031,0.219456099280372,0.113361810551284,0.0449953470968595,-0.199702658274532
100.375,-0.482833528159805,0.155453465229984,0.842798667203887,0.0319342720401562,-0.010460211416519,-0.0332505109792532,-0.995963693134894,0.0519244238419681,-0.172132146712149,-0.143429321602241,0.198552034959958,-0.181681366931483,-1.03320857328756,0.0173871463703733,-0.00617917620306779,-0.0176122001010382,0.186030964394393,-0.0586591741509025,-1.02466464259587,0.0827318005179583,0.21841864727534,0.118126087802712,0.0156603574664071,-0.205627697377404
100.38,-0.494359711474381,0.152887337966324,0.839370293605047,0.039539082962168,-0.0166975841032402,-0.029063174273236,-0.991507364883722,0.0294471316019293,-0.185085642183747,-0.110383001089234,0.185031023779399,-0.17758888806666,-1.02632381806699,-0.013898978494836,-0.0250798698020972,-0.0183830161589054,0.176428382635377,-0.0589988419683165,-1.01214758640839,0.0752299140233432,0.215954319547832,0.138569774725313,-0.0194883219320139,-0.215411652899308
100.385,-0.489457689397445,0.155837481904811,0.843637011479135,0.0438364311917922,-0.0260042638125812,-0.0267194263040653,-0.995605257452952,0.018225395057868,-0.193575541064562,-0.0654193722967865,0.17462145058859,-0.176542934964324,-1.01640897006807,-0.0349950492224149,-0.0338779911555332,0.00418942767850102,0.183327641526311,-0.0599464674300435,-1.00108502303252,0.0745765525895894,0.218819754791183,0.155124154941359,-0.0440928584521962,-0.228712187851091
100.39,-0.490530683469675,0.153827374647973,0.841307253871581,0.0458258390426636,-0.0143626657613243,-0.0283281277039295,-0.99449687008649,0.013187939404254,-0.194778502153195,-0.0172304430078945,0.175177434959972,-0.178786372084898,-1.00776070234166,-0.0594850217004626,-0.037788907155299,0.0468110879521775,0.182102623903609,-0.0635005492208962,-0.984242792894047,0.0758543278602929,0.222441589920588,0.184028456585485,-0.0738179106008781,-0.250166825530189
100.395,-0.495326605443382,0.149954282815766,0.83998989427794,0.0484589037948283,-0.00720570795604858,-0.027180449921305,-0.994492133548387,0.0140139768278663,-0.190329883124701,0.026896162280564,0.17309683015536,-0.176412290306606,-1.0017309143626,-0.0707134530671002,-0.0397776193806567,0.0924551928260277,0.187961335296454,-0.0702676164538601,-0.971929786030765,0.0714863560649966,0.224861654061054,0.222520362790946,-0.100484178887504,-0.267216639380446
100.4,-0.485648903907011,0.148348726882271,0.847958036435684,0.0562027767266069,-0.0159384537933569,-0.0212034072458529,-1.00121934370692,0.0134072959975192,-0.188752722956729,0.0732947112791205,0.162119901512126,-0.171417191624641,-0.999306925357207,-0.0755458834650069,-0.0465177987996916,0.164258804347834,0.200265982181001,-0.0850363754114924,-0.955315074578828,0.0801157463146881,0.225552001779915,0.274480311252361,-0.119975392667643,-0.289967098334126
100.405,-0.48452914731146,0.146458123897022,0.841947315579193,0.0651866726863101,-0.019834410188955,-0.0145101542847402,-0.997940331276117,0.0180357199588338,-0.185072522844946,0.113957331623228,0.148661244905204,-0.169914006439008,-0.993966235435194,-0.0686980553939763,-0.0459237129045125,0.220136175083804,0.210640989264309,-0.0903683136667682,-0.940633069257829,0.0842751690918019,0.221878518033947,0.323457143535783,-0.115885257082711,-0.306467603566274
100.41,-0.491095895520164,0.146631896698377,0.843154407861174,0.0598843307083691,-0.0119381546974182,-0.0123979370725759,-0.998855395878568,0.0223198302859556,-0.196131892769827,0.148279994049725,0.130528322372161,-0.164087027311325,-0.981045436834197,-0.0596321330375866,-0.0499788020202655,0.252211671634805,0.227218082782632,-0.0965679853685911,-0.930251536765031,0.0946814266345182,0.228088090663182,0.352392696533483,-0.126041816730099,-0.315723634655576
100.415,-0.489813900230972,0.147468709957403,0.840738179995631,0.0680372953958866,-0.0109942711388336,-0.0103326041319415,-0.9978360885541,0.0275793642200969,-0.206180872747644,0.170669698769276,0.114642774377484,-0.167916770812157,-0.973574987265438,-0.051334086194458,-0.0372612949200607,0.279384321185657,0.246523035808586,-0.108121269659449,-0.917582759843776,0.100732759497964,0.221775939174719,0.373123460796586,-0.14021723863987,-0.32876124488044
100.42,-0.486442858370702,0.136379254614198,0.839357353951048,0.0690739799432342,-0.0154594593502524,-0.0034959190355527,-0.992431331898403,0.0366039157093658,-0.20508062705254,0.191406748828856,0.104414186151115,-0.170170764120287,-0.966336037392641,-0.0255299089468955,-0.0176352042815968,0.285684527733244,0.265426691207804,-0.115149210586013,-0.917368841319419,0.122758172849952,0.221284531914094,0.377275628402202,-0.152388773581034,-0.33142178193868
100.425,-0.473534054209754,0.160632863709297,0.85890404604573,0.0799319259432919,-0.00648268722061869,0.00484375957556414,-1.00087943253498,0.0424308680731803,-0.194286137253698,0.188225946909554,0.0988099739598987,-0.168635123495827,-0.955786603194454,0.0032153074718345,0.00536709456377881,0.280141535844077,0.302778613146163,-0.133488795493234,-0.922057205216497,0.135509055786106,0.221636433665329,0.349709752505059,-0.154100037395305,-0.336178511381149
100.43,-0.456744566209788,0.179502371294828,0.864299854541315,0.0745874577920416,0.0133030516060589,0.00995121041399871,-1.01915632486844,0.0691335698892446,-0.168575473090431,0.187126459248294,0.0875009925612422,-0.181183451096726,-0.967645433142356,0.0539757126001615,0.01065401909815,0.303119172189418,0.32468590985981,-0.159815024609025,-0.933455979742489,0.140905637644908,0.234374719813417,0.314726163914294,-0.145153739483691,-0.332825571519811
100.435,-0.463845373236602,0.207204575149419,0.850610139794652,0.0700000915332548,0.0293971849852817,0.00180880835106005,-1.03701484488825,0.126227913796645,-0.143031184202626,0.200203598825988,0.0760640331408081,-0.199136821031123,-1.00045667571194,0.111044126414388,0.000961743240121761,0.352222150408399,0.312817453131739,-0.181131453804538,-0.944412258190685,0.133490792901171,0.244096936025667,0.283498076895121,-0.121712607335707,-0.323885810931247
100.44,-0.470145202766176,0.218718494150719,0.834873581740701,0.0580705451041884,0.028387016623233,-0.0337393292280905,-1.04545255293364,0.168494149887997,-0.148185909387353,0.219976543045041,0.0662289063657709,-0.221635592431843,-1.0492681722392,0.152792322716878,-0.0205384880645402,0.392858173884998,0.315520415652583,-0.188614046637687,-0.957049679400801,0.0994475377738576,0.264153343679313,0.248684480581443,-0.0820984457399244,-0.307246148381392
100.445,-0.470882540005358,0.212610042824365,0.82770333198547,0.0369570160481848,0.0234500578153895,-0.0586143869712131,-1.03861399994793,0.167106892395117,-0.17004682716168,0.226717311606352,0.0461468094465619,-0.239349455061172,-1.07995408188129,0.17497617545652,-0.0706523870803968,0.418603907562863,0.316443568591561,-0.190560905876245,-0.996439812698643,0.049722242760857,0.282071458024182,0.228833317087721,-0.0420859749376803,-0.284024787130366
100.45,-0.472576680467025,0.201318775163303,0.836404733435175,0.0197541990036285,0.0143432587525754,-0.0861157317276787,-1.02380969092109,0.144100819845019,-0.19642891419279,0.207487292493451,0.0228640240967515,-0.258282922308059,-1.08365819060396,0.165951625978904,-0.115306379629154,0.413647914679499,0.349521308819046,-0.185408171001709,-1.04890093435149,-0.000715967500233379,0.295938691337306,0.238304334607672,-0.00498639604670892,-0.261806100053505
100.455,-0.482369647952009,0.179685518040021,0.836267762597728,0.00139636028778929,0.00163684310570651,-0.114714541928515,-1.02380338595365,0.101504747949421,-0.218744064514919,0.139356255259164,0.00324299381166562,-0.268635316010325,-1.07696183857184,0.148411923575053,-0.163926620452165,0.393836770077042,0.390850165551547,-0.182853610358904,-1.13696656976066,-0.0569486238433582,0.30464902404754,0.284964963081447,0.0661944183046258,-0.248545901532811
100.46,-0.505301192051121,0.179698544901744,0.825489752431908,-0.00449785184573973,-0.00582967698574066,-0.123053149655719,-1.02534123773211,0.0793525623986803,-0.224890848651974,0.0933016269933628,-0.0124187202120028,-0.261523160811442,-1.05122299948899,0.0981915174030989,-0.199419188882685,0.359251899888649,0.414314507685557,-0.178314951128681,-1.21252550564597,-0.0896985368656518,0.2958347226894,0.346142783302815,0.150948116001061,-0.238220832511885
100.465,-0.502075900002204,0.176469979686891,0.827789662775533,-0.0198575818174078,-0.00764806375236178,-0.127008306281577,-1.00923936928714,0.0678707304692266,-0.219869636038641,0.0595017205218052,-0.037813213695746,-0.247748237046509,-1.02966275454776,0.0597746543067528,-0.20332334824563,0.331812582857118,0.404171214383529,-0.164180849158959,-1.27694918910007,-0.116704714651096,0.28801937705061,0.424642041982937,0.233525604169173,-0.234777867794037
100.47,-0.49338519167437,0.16672887548851,0.835598963171101,-0.0407021982257223,-0.0156645563306327,-0.135987396366654,-0.992115070513451,0.0455051981673318,-0.214082404372965,0.0259285407733636,-0.0601532884627497,-0.232072338582778,-1.00335423115791,0.00164502350610398,-0.2020315803796,0.292369511188803,0.370907756309912,-0.138000969026853,-1.33481258940898,-0.147222046501001,0.265183291231793,0.491117119527202,0.313340827030047,-0.234084443228485
100.475,-0.489224781798908,0.161130767758106,0.834325771314242,-0.0490958353974985,-0.0227833283389816,-0.141441931133562,-0.975239492608333,0.0259481753602177,-0.209047589524914,-0.0149643736741262,-0.0812877278478941,-0.218648167680235,-0.988739265605011,-0.0404661272180457,-0.197012580711253,0.251453874407724,0.339338250178521,-0.118328914284677,-1.35382288790989,-0.16267830884039,0.23645839942381,0.522025205518591,0.356539502556853,-0.235363875758276
100.48,-0.49550743864181,0.154986952664321,0.835719766094531,-0.0596528663733727,-0.0304700607473674,-0.142346931058663,-0.959041596812538,-0.00678044918152271,-0.209826844561354,-0.0388730394337397,-0.106242618406322,-0.213614364528295,-0.981698606377812,-0.0761144560760441,-0.186750303616936,0.191678140306572,0.319587681807059,-0.110571329683024,-1.32914181017583,-0.170429259704469,0.1966375412084,0.512893884054166,0.36382764623364,-0.231781056833877
100.485,-0.505538640754506,0.141927267955293,0.837184869241259,-0.0644545015313233,-0.0343461288853906,-0.138798698090022,-0.950143638699681,-0.0209338329242082,-0.211306340680843,-0.0295441034315433,-0.127528425234551,-0.207390847507555,-0.975295564396701,-0.0883134458475094,-0.184864481442373,0.125989989952157,0.316355486021444,-0.115662768332569,-1.26055222197715,-0.161065853169475,0.182013453005444,0.435052019831865,0.273113782129613,-0.218895852565765
100.49,-0.495037294635837,0.133053816912515,0.849300786381534,-0.0638952817693961,-0.0402685139402139,-0.129410944928519,-0.953154593377934,-0.0272690413768143,-0.220309374180557,0.00542493923939184,-0.150006586873442,-0.201891941959691,-0.96607942265759,-0.0974985647582632,-0.170902023065854,0.0696259006893005,0.306616964140275,-0.126369241754713,-1.19513652329745,-0.149045090053857,0.180563235812419,0.345740075391,0.109980022810574,-0.21419937309242
100.495,-0.489953680778006,0.134130111120574,0.851278673309478,-0.0608394386071645,-0.042291587253349,-0.121318626741307,-0.969372584902615,-0.0259949361552667,-0.205863233247688,0.0370602519079779,-0.154758140444756,-0.195279785976056,-0.960083008440853,-0.0938129402433349,-0.160604608952832,0.023999886987349,0.278652297592444,-0.137279563743594,-1.13667228000099,-0.137111017920684,0.186538830768291,0.243946429090204,-0.127957737931669,-0.200628856677322
100.5,-0.487473410332934,0.146228124009872,0.846112927902055,-0.0487270711990475,-0.0358002197082532,-0.11030692392267,-0.989267987570193,-0.0152112558460729,-0.198261723008123,0.0612506156449111,-0.153621224178083,-0.190703002092598,-0.96063281818528,-0.0873305666803414,-0.135226040909845,-0.0172058241943409,0.254093364464018,-0.157990494063564,-1.10475045266757,-0.139679109452185,0.190700586543458,0.166012383463434,-0.330699738091125,-0.171730217260618
100.505,-0.490716889751712,0.143255838547251,0.840637901313942,-0.0471152360175681,-0.0155784251288668,-0.105043128593119,-1.00327151799726,-0.00426529192145259,-0.197738772043206,0.093296816806625,-0.171644911447891,-0.18763175603254,-0.964847867284921,-0.0803311770478295,-0.111454184722967,-0.0540041722767349,0.249958800988731,-0.176922833971858,-1.06758500641345,-0.117708495932773,0.199208724309357,0.0880243041262824,-0.51675972120723,-0.130847021819351
100.51,-0.490077576487345,0.140529115982729,0.844974099690238,-0.0279744486420001,-0.0173280636076758,-0.0983344033809528,-1.00876223875596,-0.0023874242652037,-0.202747585456662,0.127642939732256,-0.194561247348857,-0.18383128756363,-0.978045237604198,-0.080431436429844,-0.095587079284446,-0.0708488744944207,0.240727049410239,-0.193069151749179,-1.03629721338482,-0.0810514667968706,0.212002585636988,0.00992701152880105,-0.675613637658131,-0.0865294542370956
100.515,-0.482266041740978,0.13796504370342,0.852239942881729,-0.0121421728236014,-0.02307571015722,-0.0907285796603453,-1.00530811951842,-0.0066460465508594,-0.206072314009177,0.163407344530289,-0.204352464407995,-0.183469086275089,-0.989507904539936,-0.080178910659974,-0.0828262620861501,-0.0793001834759957,0.241636915175935,-0.208271199554012,-1.00359872427615,-0.0415234901635404,0.226167875779825,-0.0668695892807841,-0.75550809684182,-0.0439821224297637
100.52,-0.492499247718808,0.137193867893968,0.840493609460663,-0.00484681625959694,-0.0203737568757108,-0.0895555005624181,-1.01086262670538,-0.0160882950511683,-0.202060543995675,0.190814761946187,-0.213654468253195,-0.191803499584268,-1.00670673673853,-0.0839458440643452,-0.0794664958202611,-0.0553389613572012,0.243053312423809,-0.223749090900438,-0.975671302966792,-0.00234087781282583,0.242719288671708,-0.126440254742646,-0.775511603824662,-0.00778379712947867
100.525,-0.493827927454219,0.136045904483189,0.836398648613403,0.0145659241728993,-0.0184054014816294,-0.0821135647168193,-1.00339381255275,-0.0209337128608018,-0.200924120514289,0.225474095572985,-0.216741414078818,-0.184477403067067,-1.01205520113405,-0.094629590361001,-0.0823361683055666,-0.0289551485398063,0.267898225374086,-0.235936557913566,-0.945982085059845,0.0370298135898172,0.249040257896641,-0.139719401439261,-0.712016518515954,0.0202470922329748
100.53,-0.489242235036364,0.138599430205856,0.834541836423872,0.0206562217412839,-0.0182896079544651,-0.0758495791790671,-1.00608562647534,-0.0187873381101192,-0.195106383574062,0.260794317871179,-0.223619333189324,-0.177525654435158,-1.01442382919411,-0.112306786691967,-0.0859538124889087,0.0193386532304932,0.278627869563234,-0.251978887767691,-0.899308934536064,0.0645009006413747,0.250974174422884,-0.134250470046977,-0.587619309621862,0.0369923452656393
100.535,-0.48211384453792,0.146011897191113,0.840994306908558,0.026774428718191,-0.0182281297213474,-0.0753602236509323,-1.00075703657716,-0.0151264924332439,-0.186660529447112,0.288173762955578,-0.233255619359195,-0.166829808632235,-1.01302876166611,-0.1238869168217,-0.0838224642868983,0.0539213441360325,0.289146910134921,-0.263393594293673,-0.85024858296322,0.0779015026739648,0.259076727973797,-0.110866633649538,-0.413130424998383,0.051170237296763
100.54,-0.472467046635619,0.144086760678602,0.83885368247681,0.0320431205993721,-0.0228187145956014,-0.0780329984011855,-0.996619991196238,-0.0180925785558508,-0.168815362187175,0.313243012605599,-0.247814038543644,-0.150076862514519,-0.996331339244926,-0.134232558459707,-0.0854033603274485,0.112807744557976,0.30270330505393,-0.272815990092986,-0.785813213682824,0.107913733910583,0.277494597630192,-0.0730094760656357,-0.222349471445323,0.0507947734319418
100.545,-0.482021418790375,0.148893810167246,0.834922788659255,0.0291571353188055,-0.0212766918362559,-0.0806820177917125,-0.990788006630403,-0.0111121717414667,-0.157016341475166,0.327526817486888,-0.263954339536504,-0.140409436237167,-0.991294300563851,-0.137331511522821,-0.0898477925363416,0.166559842021462,0.31818564736354,-0.280868661039427,-0.736158567777071,0.107543478701491,0.292688933021803,-0.0657653007623215,-0.10643795362696,0.0321491388405157
100.55,-0.488297244535537,0.148113365526839,0.833393907207049,0.0277232479235654,-0.0123479495158562,-0.0792481303255944,-0.981976844135088,-0.00743482507361201,-0.165911077479925,0.341121840478755,-0.280023298530728,-0.125842877975364,-0.976306320524685,-0.124464231519955,-0.100722841524374,0.205265838111657,0.326523023396932,-0.289425155673339,-0.708484703953141,0.0904020133432682,0.310639913882403,-0.0192088303213037,-0.000473827491290234,-0.00947894397661515
100.555,-0.500512839156217,0.141654588534687,0.83446258241916,0.0221402308772238,-0.0173976188999496,-0.0757343636730893,-0.967546959491582,-0.00406109614254339,-0.177004552036962,0.350296139862801,-0.284257769584656,-0.121490964721794,-0.976709909781378,-0.114855894241289,-0.102724176991983,0.230791395025842,0.341923194460746,-0.292614287244918,-0.696918870288059,0.0578526761735777,0.31316521262499,0.0528194152365572,0.0904381905698467,-0.0520043362233107
