Header,foot_Accel_X,foot_Accel_Y,foot_Accel_Z,foot_Gyro_X,foot_Gyro_Y,foot_Gyro_Z,shank_Accel_X,shank_Accel_Y,shank_Accel_Z,shank_Gyro_X,shank_Gyro_Y,shank_Gyro_Z,thigh_Accel_X,thigh_Accel_Y,thigh_Accel_Z,thigh_Gyro_X,thigh_Gyro_Y,thigh_Gyro_Z,trunk_Accel_X,trunk_Accel_Y,trunk_Accel_Z,trunk_Gyro_X,trunk_Gyro_Y,trunk_Gyro_Z
3.54,-0.489153192816847,-0.0318890256505844,0.766375923563759,-0.765634168866803,-0.358204308867371,-0.14052277234997,-0.972206275059879,0.11183516469648,-0.332644373757896,-0.516478647535133,2.24671941094084,-0.988373105917261,-1.0289520276908,-0.0261633462978899,0.0951785749300775,-0.961541704389361,0.0825259208364863,-0.236296623845894,-1.00991594397506,0.0378633121069363,-0.0950759841803336,0.891706404294847,0.406606418941178,-0.897541308294994
3.545,-0.461161242770545,-0.0174652504881414,0.72335726238581,-0.610449906021425,-0.287548855632305,-0.0432296591593205,-0.968337357318225,0.0186246290536559,-0.465079907873726,-0.40508385108991,2.19879981736937,-0.943938034136947,-1.07906419039631,-0.231474163269745,0.190568868794476,-0.835278791496893,0.0628600749243924,-0.25496630842809,-1.02077638419907,0.0821188779200208,-0.153687578792436,0.939236676564451,0.404613559174773,-0.895924790204003
3.55,-0.442548119934778,0.0214195086124676,0.663424903487623,-0.300994025149134,-0.146494676485288,0.146868704928532,-0.937796777893074,-0.0534560864317578,-0.60860069148612,-0.165155903370855,2.11012435490374,-0.855745136581255,-1.12871590124436,-0.457034413819042,0.278040448597123,-0.580489634490095,0.023646523992898,-0.296610670872802,-1.04011681646631,0.103834551396171,-0.208221689180343,1.03222172048274,0.40374547004018,-0.888960327146581
3.555,-0.459440971245314,0.0615736118818403,0.637937850415489,0.00415963267917477,-0.0103725712470481,0.322363017195252,-0.889709720570715,-0.0161206458681769,-0.634042030039733,0.074488345712345,2.01688023429165,-0.762148451493542,-1.1279403671571,-0.489587628901799,0.260504364256484,-0.324904564734068,-0.0175542844219337,-0.343768885038522,-1.05720752748658,0.052937475511966,-0.201697814962142,1.12471249857532,0.401491020863351,-0.87119663827344
3.56,-0.475630226316683,0.0924530968135055,0.626947130321139,0.298697165807573,0.116817191194487,0.481620561004717,-0.852068025822298,0.0196297193449818,-0.646038022484577,0.308875301375982,1.92082881802814,-0.666072137275201,-1.1265245104255,-0.504944808113689,0.237673620550743,-0.0740604717483216,-0.0602788508398658,-0.394461233235795,-1.07485478821807,-6.48423573927485e-06,-0.195402352921474,1.21656793610131,0.397471227193313,-0.842604156312622
3.565,-0.490172983194058,0.113567592167816,0.629364851227545,0.576612990105069,0.231729174670479,0.623181805706829,-0.825354558578813,0.0532438790473517,-0.64535820032906,0.533434625299238,1.82368750839249,-0.570424394712062,-1.12434520195447,-0.503631016690518,0.209866272761814,0.166891507109373,-0.103993872057984,-0.446710122244686,-1.09235406131147,-0.0530589187057073,-0.189660026155614,1.30771082482826,0.391287250880495,-0.803544587792811
3.57,-0.502614358159663,0.125161652008196,0.643288123011623,0.832595315512987,0.331843135483113,0.745969386873991,-0.80938285097229,0.0843387696542649,-0.633461920991547,0.744205482944383,1.72709241251246,-0.477948388202768,-1.12125702523952,-0.486863357449504,0.177632189712911,0.393422506328292,-0.148138165713256,-0.498632372333083,-1.10900786130348,-0.104393073349348,-0.184645898504883,1.39814615827652,0.382524482656396,-0.754734751102556
3.575,-0.512973153923319,0.127997367576471,0.666262907475278,1.06230259184575,0.415559754460954,0.849404741718504,-0.803376374197431,0.112739107221377,-0.612303613501025,0.937977057081846,1.63256369054614,-0.391094025501941,-1.1171486127045,-0.456460137536927,0.141683998497782,0.601796418188014,-0.192159766299328,-0.548512049062166,-1.12417899028188,-0.152384028872768,-0.180300264088939,1.48795418251708,0.370789104376457,-0.697167790912574
3.58,-0.521639735116308,0.12312923562794,0.695560955474696,1.2624196384075,0.482187892188628,0.933327298749102,-0.806084118677875,0.13845423711051,-0.584112369755805,1.11230369905325,1.54146640049669,-0.311928321967356,-1.11198872973712,-0.414699543182796,0.102859309949204,0.78911177243637,-0.235531370275524,-0.594873534418629,-1.1373223308344,-0.195584049281033,-0.1763362996859,1.5772575181317,0.355774975340271,-0.632051896336342
3.585,-0.529204735480846,0.111891380022488,0.728391658556062,1.43065945551998,0.531869959131602,0.997896420185382,-0.815923585177519,0.161579434664022,-0.551231205441468,1.26548183568814,1.45497498915254,-0.242075207120897,-1.10581976651814,-0.364127988443101,0.0621511941022569,0.953298617401183,-0.277761180581335,-0.63654657698538,-1.14798681246079,-0.232679483281732,-0.172343030938599,1.66618838146033,0.337312970626436,-0.560784027241691
3.59,-0.536299196120433,0.0959646025533603,0.762084401465235,1.5658606853056,0.565492038481201,1.0436335780234,-0.831128098387811,0.182210834180419,-0.515997139422229,1.39657537793216,1.37405010332966,-0.182668065300718,-1.09872880446132,-0.307369854634408,0.0207320210267042,1.09315630264383,-0.318416101275088,-0.672711712249505,-1.15580959329132,-0.262507961147108,-0.167877812394646,1.75485347141623,0.315384704587661,-0.484944730627562
3.595,-0.543495956671439,0.0772826912765255,0.79428740792362,1.66811029271252,0.584568738350101,1.07153428979191,-0.849883842005858,0.200448472387245,-0.48059714316698,1.50546003600763,1.29942726936776,-0.134320084772833,-1.09082991450372,-0.246988682564459,-0.020137109652368,1.20840335742801,-0.357150058713913,-0.702918716156862,-1.16052358476385,-0.284174589694675,-0.16250487779029,1.84328994365651,0.290118441295993,-0.406282406533939
3.6,-0.551250138410202,0.0577589138606359,0.823146824711832,1.73870922667454,0.591073385271964,1.08306879567554,-0.870452960503322,0.21645353150311,-0.446896051557681,1.59278946644594,1.23161174962181,-0.0971362714424729,-1.08226034978265,-0.185398807971174,-0.0592897296422265,1.29964265341473,-0.393717766105652,-0.727067480228513,-1.16197573528308,-0.297216586681269,-0.155802067462289,1.93143534256004,0.261787967630863,-0.326646696762929
3.605,-0.559846182912128,0.0390266880921724,0.847393346738427,1.77993298863827,0.587228595343736,1.08002076882268,-0.891276667336422,0.230472403763464,-0.416306442641237,1.65985297599892,1.17087712484011,-0.0707740826534062,-1.07317542714751,-0.124786657096828,-0.0957931796113625,1.36821173578622,-0.427967193034903,-0.745352537474478,-1.16013600883163,-0.301691919409378,-0.147371981580857,2.01912701379885,0.230820561180674,-0.247870889626723
3.61,-0.569355104108118,0.0223626784256234,0.866316789008281,1.79470862709418,0.575307697097338,1.0642732176679,-0.91104100296387,0.242791230935763,-0.389760683602983,1.70838616156229,1.11727160397729,-0.0545318115815592,-1.06372872176276,-0.0670200078931265,-0.128955125114389,1.4159809074345,-0.459820706712119,-0.758190430271131,-1.1550833704537,-0.298123091592371,-0.136880555626928,2.10611935818258,0.197801196307243,-0.171650163772005
3.615,-0.579622134415124,0.00879099503105351,0.879676662160798,1.78636997991015,0.557484424594304,1.03768728802458,-0.928698653460415,0.253654230070298,-0.367775403951541,1.74042116500837,1.07063628338117,-0.0474337233045692,-1.05404210616572,-0.013563921716942,-0.158228546603479,1.44518781468137,-0.489260395064435,-0.766156171432905,-1.14697432538628,-0.287340634233082,-0.124111446317721,2.19208558327739,0.163455692284806,-0.0994666877530882
3.62,-0.590301714461591,-0.000822673274414773,0.887615697963291,1.75855593738393,0.535734825132428,1.002130646842,-0.943468435227289,0.263232858488662,-0.350523761421158,1.75821366665205,1.030635003082,-0.048294865814959,-1.04418524108284,0.0345615369269378,-0.18315793652492,1.45834783394008,-0.516324883930789,-0.76994143621854,-1.13601583950107,-0.270360000148548,-0.109000530798742,2.2765857636312,0.128608780013166,-0.0325764274160187
3.625,-0.600930224747047,-0.00585557786760854,0.890596418651303,1.7151161455322,0.511766175365141,0.959515006375746,-0.954833906238834,0.271682539535127,-0.337852911854768,1.76417472302819,0.996791145262881,-0.0557838857278065,-1.03417426811108,0.0767668963562912,-0.20345829128431,1.45816950346595,-0.541104537086523,-0.770314242958595,-1.12245991093306,-0.248381421873752,-0.091631337247083,2.35904423587682,0.0941332243391284,0.0279912056565917
3.63,-0.611000132799156,-0.00607564401806185,0.889325370696208,1.6598965907652,0.486957410040404,0.911702727187687,-0.962535093939996,0.279198727781635,-0.329298651533749,1.76073704360237,0.968526286394021,-0.0685052676176864,-1.02398022576394,0.112846406837153,-0.219114702759851,1.44740433620573,-0.563722784632709,-0.768060943706959,-1.10660968096141,-0.222823249486315,-0.0722114325865712,2.43877848136484,0.0609058076762131,0.0814682483385697
3.635,-0.620015569705257,-0.00164317979089419,0.884645640472781,1.59648633021441,0.462324482822774,0.860354713599356,-0.966545122799685,0.285992700987147,-0.324171281251025,1.75019774788605,0.945199387312381,-0.085088171776274,-1.013542778321,0.142927975120263,-0.230357858536814,1.42867291260769,-0.584312640791674,-0.763925420480509,-1.08881448178451,-0.195242164051425,-0.0510481687871821,2.51505655624469,0.029768433919654,0.127395263538366
3.64,-0.627534212521847,0.00704086527089008,0.877427433810443,1.52806719359223,0.438530472962112,0.806861219889445,-0.967037569275736,0.292224339923727,-0.32169524069193,1.73462024839481,0.926145901802858,-0.104253362501788,-1.00279437600569,0.167419627110254,-0.23753700153409,1.40435140274514,-0.603003911323692,-0.758569820385418,-1.069450957611,-0.167141926062033,-0.0285181700006509,2.58713996747459,0.00149023795017141,0.165627519089978
3.645,-0.633209282127739,0.0194686787009605,0.868495634039697,1.45739734047839,0.415938184219724,0.752385737847912,-0.964349655908147,0.297979857815608,-0.32111783439241,1.71581960099115,0.910713182457155,-0.124846253092283,-0.991686838351238,0.186938739075604,-0.241037886419397,1.37654504217892,-0.619924654513491,-0.752561764715299,-1.04890845196465,-0.139832232617581,-0.00503351202078782,2.65430119066291,-0.0232662192882268,0.196286606592237
3.65,-0.636831376328951,0.0350161371178765,0.858593033558889,1.38681695177323,0.394672325144607,0.69791497334505,-0.95894657673627,0.303307150252496,-0.321742544773143,1.69536199913963,0.89828979882308,-0.1458578721117,-0.980206576431736,0.202228233137498,-0.241315674913725,1.34707877867025,-0.635203254666172,-0.74636885354015,-1.02758901240698,-0.114439240868817,0.0189841589111267,2.71584344557769,-0.0439678220720464,0.219706522798708
3.655,-0.63834548755094,0.0528855778255658,0.848348120428994,1.31818676304828,0.374673972434068,0.644231027444116,-0.951387835063579,0.308230738805764,-0.3229427329034,1.67452115344661,0.88832906293154,-0.166456015057958,-0.968383197347325,0.214075090954856,-0.238926972767445,1.3174455547648,-0.648961440965347,-0.740344969767715,-1.00591118479887,-0.0919534276176137,0.0431237260419243,2.77114244594313,-0.0602189304292073,0.236414737667544
3.66,-0.63784075642766,0.072151870978847,0.838248442671984,1.25282978098534,0.355761064999157,0.59186839016378,-0.942290175831651,0.312715031645821,-0.324212278568762,1.65423919382939,0.880364569880799,-0.186011633604652,-0.95630606279425,0.22323743637951,-0.23446508394595,1.28876017349711,-0.661308496794646,-0.734721530744992,-0.984305658634142,-0.0731766641928512,0.0670085033748782,2.81969012411022,-0.0717589009605785,0.247121139330555
3.665,-0.635535884436074,0.091892728760119,0.828641753189885,1.19155642128151,0.337694497844552,0.54113640766714,-0.932290696785047,0.316635685244532,-0.325218671819436,1.63513995145561,0.874015348963926,-0.204101041956055,-0.944142320991604,0.230390407388915,-0.228469547803772,1.26176865676858,-0.672344469100375,-0.729620174759531,-0.963201861079127,-0.0586112352435009,0.0903190744506143,2.86111996514998,-0.0784533307639871,0.252673848244655
3.67,-0.631760470542778,0.11129282847287,0.819753741116553,1.13474803456611,0.320235614405862,0.492196494473661,-0.922012495846367,0.319797697079758,-0.325810356289472,1.61757374425365,0.868983280955395,-0.220489640757597,-0.932133401674287,0.23609772314898,-0.221393672491913,1.23689271218469,-0.682166540508576,-0.725079888978256,-0.943011345161942,-0.0484180732037649,0.112797015152855,2.8952181665276,-0.080281195312932,0.253986506296271
3.675,-0.626930180605859,0.129661304427698,0.811711829440217,1.08244555401618,0.303190410469479,0.445139136291907,-0.912027139037656,0.321978844334905,-0.32598812711058,1.60166485205814,0.865046145832068,-0.235109263181214,-0.920570905482175,0.240794822794262,-0.213621883313559,1.21427965313656,-0.690873454497997,-0.72108330372368,-0.924115749170582,-0.042468442438172,0.134229914625489,2.92193078128069,-0.0773219076154038,0.251971579001057
3.68,-0.621526580285162,0.146388467635067,0.804590984993228,1.03441490617836,0.286428049803118,0.40001378411892,-0.902818569098601,0.322976346818346,-0.325864693527044,1.5873470304994,0.862046591914752,-0.248035064260068,-0.909773087830179,0.244778105151419,-0.205499309261952,1.19384237867784,-0.698565587345174,-0.717580195640729,-0.90685918552463,-0.0404106625811175,0.154434951489693,2.94136899920562,-0.0697438254518334,0.247492937985606
3.685,-0.616053682332149,0.160964667784331,0.798442402736843,0.990185976668902,0.269861488631857,0.356803093783141,-0.894764354524403,0.322632468999368,-0.325629135060688,1.57438061178421,0.859877124628641,-0.259463221348714,-0.900066416623157,0.248208093427555,-0.197326707621969,1.17528296811856,-0.705338442885347,-0.71451205731658,-0.891538837474624,-0.0417230115334827,0.173262634239841,2.95380906345681,-0.0577934235391386,0.241325794382412
3.69,-0.61094689324791,0.173118802180753,0.793249149408575,0.949120810616023,0.253438996217845,0.315432224544529,-0.888140302230577,0.320806549130019,-0.325534186695651,1.56239328976736,0.858461927770765,-0.269678191781004,-0.891766625761585,0.251120449001631,-0.189289030211341,1.15814258225049,-0.711280377699561,-0.711831757016606,-0.878394248949069,-0.0457853258068383,0.190632762774795,2.95968476252169,-0.0417795594314408,0.234127294370618
3.695,-0.606508186593699,0.182866916414407,0.788893777994944,0.910554181173618,0.237195285736563,0.275888195165158,-0.883131094677452,0.317341531209796,-0.325875598691983,1.550983191576,0.857737236077965,-0.27900178192981,-0.885164975157189,0.253441856824907,-0.181408216535788,1.14191531909997,-0.716486960163975,-0.709512960616359,-0.86760148197773,-0.0519432620685894,0.206551377318626,2.95957218151021,-0.0220471580887917,0.226428697434873
3.7,-0.602924618904987,0.190318637899968,0.785239716478938,0.873897929491202,0.221291744068198,0.238304362855763,-0.87983012796551,0.312112210035252,-0.326912736022409,1.53979929417961,0.857632617401864,-0.287750758397441,-0.880522047592529,0.25502506548894,-0.173627120729243,1.12613820150494,-0.721072171267316,-0.707558450396454,-0.859274506874181,-0.0595198813021051,0.221050175587371,2.95416937328322,0.0010476423617056,0.218631222906211
3.705,-0.600295019932099,0.195505282198852,0.782243184525518,0.838606246775461,0.205970703226893,0.202864272288116,-0.878231949608147,0.30510046700492,-0.32878656058157,1.52851215012518,0.858053549835276,-0.296227486107436,-0.878044935314863,0.255704307224934,-0.16591493618572,1.11036934130386,-0.725152854747538,-0.706014040992787,-0.853464563869286,-0.0678283249097661,0.234102793699399,2.94427660777172,0.0271421825797787,0.210986554989859
3.71,-0.59861442692843,0.198466965380893,0.779970991997877,0.804130519394689,0.191468047632401,0.169671281547404,-0.878227615386729,0.296376544090765,-0.33153634439689,1.51677421674455,0.858868505223165,-0.30471589978656,-0.877838657759789,0.255341879763633,-0.158234102780019,1.09415503003817,-0.728830397872308,-0.70497938905753,-0.850148806725516,-0.0762454408287495,0.245608743217009,2.93076804368888,0.0558512057771884,0.203584911821988
3.715,-0.5977655168779,0.199398623610861,0.778528628184071,0.770002352646032,0.177955823130093,0.138766250253859,-0.879619810839634,0.286024189160709,-0.33517102304828,1.5042847836141,0.859906480927708,-0.313452273932146,-0.879886558810213,0.253837132248504,-0.150453732962732,1.07710096522065,-0.732200089846085,-0.704608366763494,-0.849226259140335,-0.0842778617989983,0.255436571218239,2.91454335859619,0.0867481482844487,0.19637501385189
3.72,-0.597537090240955,0.198629062507873,0.777985771423514,0.735940831428901,0.165536500517665,0.110216011766869,-0.882160069591301,0.27412212090025,-0.339684173208189,1.49088105288378,0.86096047878422,-0.322592823626074,-0.884089278893047,0.25111131851972,-0.142364931704523,1.05896811860667,-0.735369903711814,-0.705102663671754,-0.850540958313968,-0.0915545421465965,0.263461156524474,2.89648127804592,0.119361265026129,0.189196275661241
3.725,-0.59765119926936,0.196514849628134,0.778354491982157,0.701867344963416,0.154262378533741,0.0841408673533533,-0.885580399241172,0.260773761741604,-0.345026848451779,1.47655963762823,0.861788439490794,-0.332204377755219,-0.890304898130843,0.247104344365316,-0.133764439979639,1.03969677394908,-0.738465127150877,-0.706704334211081,-0.853914307436646,-0.0978020422046217,0.269568962746042,2.8774147470222,0.153179997650901,0.181803032822795
3.73,-0.597799691868704,0.193366955853002,0.779589732057404,0.667867286967184,0.144149538356318,0.0606907791658578,-0.889611619553548,0.246131957092095,-0.351096568072771,1.46145665185512,0.862114937383143,-0.342271680660101,-0.89835498929585,0.241792933038432,-0.124520940833896,1.01938647870326,-0.741625581772497,-0.709687032692899,-0.859160857105349,-0.102846169273309,0.27363933736729,2.85811637221951,0.187657488933779,0.173890597741386
3.735,-0.597694042082801,0.189426966759752,0.781597139356726,0.634129891968006,0.135192307484034,0.0399975604840807,-0.893996955444805,0.230412064086644,-0.357747691912665,1.4458103271646,0.861640307060755,-0.352715068922494,-0.908015049950978,0.235214936106052,-0.114606835951486,0.998256417506931,-0.744999333928904,-0.714340588337567,-0.866083619109922,-0.106609070093791,0.275517037960378,2.83929018552028,0.222207789531776,0.16512792244448
3.74,-0.597123369084323,0.184911606945301,0.784280503069088,0.600891811094029,0.127366569559638,0.0221300832883415,-0.898487890844865,0.213881501658339,-0.364832507754181,1.42992028799803,0.860058165519668,-0.363411546969455,-0.919000187254092,0.227476611489474,-0.10407980910435,0.976601856442739,-0.748734001000216,-0.720950278142326,-0.874457496484249,-0.109090458906428,0.275006274340695,2.82156395783214,0.256200702298449,0.155188595835253
3.745,-0.595995334671651,0.180068534551863,0.787577073166937,0.568437134958898,0.120594186661684,0.00710342991789897,-0.902832980289102,0.196834552500362,-0.372250810483304,1.4141418270069,0.857077968684804,-0.37420479163804,-0.930967158594051,0.218731491309749,-0.0930426793292008,0.954786024460975,-0.752975066275614,-0.729780186081647,-0.884022521668762,-0.110352726619199,0.271903537071822,2.80546471030107,0.288959001070077,0.143777530700719
3.75,-0.594332531637468,0.175157778572172,0.791414277727821,0.537108869224488,0.114708118230258,-0.0050951777816031,-0.906793021843795,0.179591314050678,-0.379951568294851,1.39888821333977,0.852445552584488,-0.384910525230182,-0.943547765786704,0.20915572600817,-0.081643019238753,0.933240760399584,-0.757865277729145,-0.741061836443815,-0.894498674549499,-0.110516373370029,0.266041406757601,2.7913904105227,0.319768851643973,0.130653954319971
3.755,-0.592247241535523,0.170407602036569,0.795657482945658,0.507267096121389,0.109467539876924,-0.0145234158099089,-0.910170332219805,0.16251362566696,-0.387902064132402,1.38459494345347,0.845958350252735,-0.395331531869883,-0.956381828879221,0.198944218585357,-0.0700961984505741,0.912429724197358,-0.763533694177709,-0.754981421558021,-0.905602162533337,-0.109754566763919,0.2573111992321,2.77960080749841,0.34790447425743,0.115649405271761
3.76,-0.589927318594053,0.166005432743444,0.800120819720246,0.47922603487425,0.104593564397938,-0.021319763066935,-0.912820490922375,0.146007590736544,-0.396073989401797,1.37166533078806,0.837478205583583,-0.405277873114212,-0.969128372010667,0.18831183486042,-0.058689070004296,0.892793258332074,-0.770079284034357,-0.77166491745758,-0.917051240240569,-0.108281819025021,0.245670011903789,2.77022168301882,0.372656407606441,0.0986800471398956
3.765,-0.587619571613839,0.162094349521966,0.804589061712569,0.453207396772122,0.0997901719878519,-0.0257335782098057,-0.914652044436637,0.130513235790799,-0.404445219182026,1.36042612321005,0.826941651373038,-0.414583884131855,-0.981473083523018,0.177482535531208,-0.0477703689061248,0.874703397983064,-0.777557184654724,-0.791164827995568,-0.928576250071396,-0.106351127038727,0.231151615143316,2.76325350345931,0.393358190801186,0.0797560617053654
3.77,-0.585603786738572,0.15876635320679,0.808809905109137,0.429303889432368,0.0947698673433108,-0.0281588383233601,-0.915631096186185,0.116490579402328,-0.413003180137579,1.35109532728666,0.814365065277507,-0.423121402494782,-0.993142306723175,0.166677029858971,-0.0377377094941175,0.858430959659055,-0.785969453701574,-0.813448747957582,-0.939936271718862,-0.104259183273238,0.213884242720123,2.75858929594866,0.409412819210459,0.0589937723277565
3.775,-0.584181513017531,0.156087876171465,0.812508104963619,0.407453030738238,0.0892948796406673,-0.029162900387488,-0.915786913619025,0.104397304808707,-0.421754179631732,1.34376123877334,0.799846354736586,-0.430809480418286,-1.0039140032337,0.156112536042463,-0.0290064475685577,0.844123690886496,-0.795259758513496,-0.838389264719837,-0.950925492518582,-0.102327199285534,0.194103882415781,2.75604208646534,0.420320071642208,0.036627643383843
3.78,-0.583679538421053,0.154161486080948,0.815445228642302,0.387440798746267,0.0832036470664443,-0.029478936740755,-0.915208111254845,0.0946538642073242,-0.430737701476361,1.33837927412573,0.783566220173428,-0.43761753223832,-1.01361979515166,0.146011266688011,-0.0219561938192856,0.831802243404966,-0.805312501184182,-0.86576017016565,-0.961365550531864,-0.100845401908035,0.172152589456182,2.75536802166932,0.425700693572399,0.0130074998835078
3.785,-0.584440952935321,0.153179185300903,0.81747208257045,0.368943266319679,0.0764057935167285,-0.0299468648488274,-0.914031104396912,0.0876135580403944,-0.440033264018235,1.33479155451889,0.76578852808353,-0.443559778968704,-1.02214696389989,0.136600223286701,-0.0168808597594802,0.821378761477241,-0.815957924313381,-0.895243991168949,-0.971099913427027,-0.100021010976639,0.148470908649106,2.75627155546769,0.425311796986166,-0.0114259649737126
3.79,-0.586791307648244,0.153420684788576,0.8185306155085,0.351584558791149,0.0688637307043138,-0.0314340038418019,-0.912432863479551,0.0835594020646925,-0.449750687298949,1.33275930767751,0.746855844237737,-0.448682697846807,-1.02944977867066,0.128094799358303,-0.0139697705396005,0.812688924055177,-0.826980809097625,-0.926447628208754,-0.980003037471788,-0.0999730872108157,0.12360122091413,2.75839734675841,0.419058465266566,-0.0361764927995739
3.795,-0.590990781933858,0.155196688862493,0.818613016335575,0.334981400372201,0.0605892008135181,-0.0347854649874079,-0.910633462208555,0.0827149410894699,-0.460008435282307,1.33199358083662,0.727177939372005,-0.453049904751346,-1.03556255653302,0.120680488783136,-0.0133171029153054,0.805523624466812,-0.838129129788545,-0.958916389512901,-0.987999266794387,-0.100767354240332,0.0981960019175304,2.76133070797585,0.40700969407928,-0.0607209408267063
3.8,-0.597194433040715,0.158778349207357,0.817719486471379,0.318766674618738,0.0516686042489576,-0.0408161393406827,-0.908898080429565,0.0852411474119092,-0.470912165292583,1.33218192796955,0.707215150997617,-0.456728766315677,-1.04060002279272,0.114506982876841,-0.0149358988176798,0.799656489764917,-0.84912392007347,-0.992141839811088,-0.995076647048442,-0.10244717806636,0.0730037967639297,2.76461949438053,0.389415712462519,-0.0845243014406752
3.805,-0.605439553092294,0.164341776362375,0.815841276418245,0.30260330507611,0.0423006341918916,-0.0503225034047091,-0.907533165068841,0.0912266457412012,-0.482538491956939,1.33301519493994,0.687459939209283,-0.45978025575564,-1.04473873668277,0.109703373554812,-0.0187754883318235,0.794869650278993,-0.859672541304105,-1.02556788086523,-1.0012867634305,-0.10503429906957,0.0488120869436367,2.76780868459905,0.366714829833666,-0.107048523424755
3.81,-0.615663861444237,0.171945042472555,0.812963072078707,0.286190625398957,0.032830840799565,-0.064106069435889,-0.906880757870969,0.100684170230862,-0.49493055506414,1.33421199109824,0.66842252663471,-0.462254778039407,-1.04818659910299,0.106408671923325,-0.0247369694931342,0.790974496253604,-0.869484100995973,-1.0585948562397,-1.00672828969113,-0.108505535160565,0.0263755236325998,2.77048234831051,0.339518356901235,-0.127761216054289
3.815,-0.627735660730973,0.181559046240315,0.809091865430111,0.269274593966112,0.0237761266660764,-0.0829903344762101,-0.907305034227221,0.113532287591347,-0.508112169671369,1.33554602704061,0.65062430947765,-0.464190515448136,-1.05115967231407,0.104784016370957,-0.0326404962472177,0.787833942558412,-0.878285664991802,-1.09058122988609,-1.0115167741196,-0.11276641702501,0.00639896175601838,2.77230109944349,0.308580975148433,-0.146149270729128
3.82,-0.64145826010477,0.193099720908859,0.804286262206539,0.251686901293959,0.0158221817975185,-0.107795832185718,-0.90917594072303,0.129562445559949,-0.522095540401398,1.33689018324382,0.634593108614246,-0.465602568343518,-1.05387997187845,0.104992622559714,-0.0421639746236307,0.785403500329155,-0.885839415488974,-1.12085116992989,-1.01576199391545,-0.117644864474412,-0.0104226660937523,2.77300761046884,0.274782236853809,-0.161744453274774
3.825,-0.656541629304733,0.206391872653727,0.798635847753505,0.233389485115119,0.00981605940647337,-0.139301475826394,-0.912862797968978,0.148427344265233,-0.536858300640183,1.33826285020731,0.62085213721116,-0.466467238545489,-1.05657921132163,0.107181154598614,-0.0528380761156503,0.783776533215449,-0.891959044678016,-1.14870760028377,-1.01956948253329,-0.122901733195214,-0.0234074189665495,2.7724136504795,0.239124377172866,-0.174153424198432
3.83,-0.67259626574032,0.221139217977357,0.792243146928887,0.214489966439388,0.00678034039144894,-0.178238507293888,-0.918721338894641,0.169655454933502,-0.552322297949998,1.33985653334859,0.609904238834475,-0.466714484233565,-1.05947630347778,0.111489860918609,-0.0640868753729196,0.783210538553544,-0.89652420036537,-1.17344375286955,-1.02303999892685,-0.128235016926424,-0.031984479800059,2.77040470363295,0.202716070453145,-0.183082036189091
3.835,-0.689175725980224,0.236975444349224,0.785241559038636,0.19525464538527,0.00790618313218691,-0.2252796066556,-0.927070155318135,0.192674388466779,-0.56836154679355,1.34206535322945,0.602221176376713,-0.466224392067778,-1.06273754040073,0.118074943178186,-0.0752566816033677,0.784150934005015,-0.89949523446637,-1.19435485363977,-1.02624629084204,-0.133275489905466,-0.0357986947255265,2.76695129438283,0.16672103591126,-0.188356328863204
3.84,-0.705812932698679,0.253517305734364,0.777768395417422,0.176128457854851,0.0145224553924418,-0.280996494906097,-0.938187394502707,0.21685144934144,-0.584803082072411,1.34551061956287,0.598241656109523,-0.464824527061035,-1.06646281881908,0.127119799742702,-0.0856514668407364,0.787253638273872,-0.90092425322246,-1.21074832486467,-1.02921237917798,-0.13758239665933,-0.0347426605160605,2.76211006825245,0.132294195623086,-0.18994357411106
3.845,-0.722026282002473,0.270389258303154,0.769922076848821,0.157723477627159,0.0280965275052614,-0.34583168378666,-0.952318889115481,0.241551197578321,-0.601406588828922,1.35102955914277,0.59837214308142,-0.462296832651219,-1.07068755447808,0.138838183424381,-0.0945938182552488,0.793372640593152,-0.900953184853405,-1.22194592995765,-1.03191456996554,-0.140675469492126,-0.0289530175170127,2.75602852085311,0.100529748972582,-0.187973722876027
3.85,-0.737345344538478,0.28727498249595,0.761799891406723,0.140789889856356,0.0502351267249738,-0.420080491924894,-0.969661434443831,0.266164216047217,-0.617878809561157,1.35964260955514,0.602987630818871,-0.458390885559551,-1.07537015365028,0.153455645436287,-0.101472982534468,0.803526866530487,-0.899805985856606,-1.22727874215284,-1.03430099433627,-0.142155610388101,-0.0187767197579162,2.74894699605978,0.0724151274634122,-0.182739018198813
3.855,-0.751379930111931,0.303922688561023,0.753559528680555,0.126212987718305,0.0826300261749753,-0.503836840072484,-0.990336922212385,0.29008051238865,-0.633928908771237,1.37254646656008,0.61243215079456,-0.452832865130867,-1.08039864323879,0.171146907402859,-0.105749174913142,0.818891200889632,-0.897791994151104,-1.22608009852353,-1.03631452882055,-0.141818716148803,-0.00468185838933835,2.74117436730901,0.0488010733101601,-0.174638918461946
3.86,-0.763882781260491,0.320050137844047,0.745435811627167,0.115001139107202,0.126974047833386,-0.596948888631626,-1.01438465438338,0.312677691387166,-0.649275446413666,1.39109685259877,0.627015882727773,-0.445336854818607,-1.08563316455209,0.191978072270385,-0.106941698867624,0.840776736954949,-0.895308628273216,-1.21768546622263,-1.03788949577158,-0.139604138857993,0.0127878212938621,2.73305109951339,0.0304051604233489,-0.164113997230277
3.865,-0.774733949961494,0.335310370927693,0.737718733373882,0.10821075948614,0.184869881639386,-0.699053003039739,-1.04176040548735,0.333388946603762,-0.663582956890444,1.41670846836448,0.647007056583437,-0.43562814928821,-1.09093931944968,0.215901459304655,-0.104650589842437,0.870532750766791,-0.892814867134431,-1.20144872010342,-1.03893947003778,-0.135491542451721,0.0329712642204987,2.7249269897879,0.0178187915669488,-0.151645335859269
3.87,-0.783853212486318,0.349388749565946,0.730674779201264,0.106846940477591,0.257753770336563,-0.809634642353403,-1.07234102308866,0.351779880796643,-0.676423555307419,1.45070581820131,0.672616811107441,-0.423468156521528,-1.0961973605718,0.242761633818674,-0.0986001142177515,0.909404867663255,-0.890785704408147,-1.17676600352601,-1.03938512483636,-0.129545236254302,0.0550877934738139,2.71715043727532,0.011497961795288,-0.137780307575779
3.875,-0.791144055091939,0.362075628176991,0.724468661386447,0.111803079587641,0.346882684196629,-0.928049634752372,-1.10593775625611,0.367556720884045,-0.687308541699846,1.49421243677387,0.703978298556541,-0.408668172304371,-1.10130307963534,0.272284443933585,-0.0886553504659693,0.958431878571464,-0.889681718491265,-1.14308711020199,-1.03919836462789,-0.122017288243428,0.0782841567924448,2.71006242844989,0.0117626608095409,-0.123105425398737
3.88,-0.796539307182698,0.373252702532731,0.71919706052959,0.123837695589621,0.453348353326355,-1.05353210237482,-1.14228938090597,0.3805451343262,-0.695750420725511,1.54809032054704,0.741127715060148,-0.391093928013523,-1.10615967097633,0.304072602511974,-0.0748125668682353,1.01839031515547,-0.889937978125394,-1.09991690119621,-1.03841537588532,-0.11336888141958,0.101622614587954,2.70399301174065,0.0188029801154671,-0.108182039354915
3.885,-0.800102823668561,0.382880384154685,0.714985945610083,0.143565146995309,0.578028770059935,-1.18522070979935,-1.18103192994759,0.390688369154605,-0.701332028794629,1.61289817481621,0.783992526443858,-0.370665031444447,-1.11067182822212,0.337608475101404,-0.057179969748419,1.08975652669795,-0.891956991453503,-1.04682781556921,-1.0371267858106,-0.104229887095321,0.124032720388495,2.6992461096526,0.0326646120956197,-0.0934879214053772
3.89,-0.802088538878586,0.391040542369937,0.712022404872177,0.17145706871714,0.721483683645012,-1.32219688658922,-1.22167919932731,0.398062339699703,-0.703761791340403,1.68885852704797,0.832386500151398,-0.347346528638258,-1.11476798182567,0.37223990444756,-0.0359367080104251,1.17267903020769,-0.896097391686333,-0.983489621878901,-1.03545757833274,-0.095302408239691,0.144333665890222,2.69607384717526,0.0532168153737487,-0.0793825319862439
3.895,-0.802904135295886,0.398007989327571,0.710538591987193,0.207853578137806,0.883860802271764,-1.46351385266569,-1.26362491587399,0.402899870113809,-0.702870564479662,1.77582339894796,0.88600357980777,-0.321129137617888,-1.11843893769358,0.407155471097185,-0.0112892459423809,1.26695532875494,-0.902651215046892,-0.909707692144924,-1.03353905515069,-0.0872324595796509,0.161349348113624,2.69465587509876,0.0801379596304559,-0.0661190149975182
3.9,-0.803033327186115,0.404246130241309,0.710859063196978,0.252973891360701,1.06481899300384,-1.60821164498868,-1.30615535405332,0.405616793665802,-0.698558435517204,1.87323098859231,0.944402722395505,-0.29200304470771,-1.12173735398186,0.441404948454772,0.0164992652223417,1.37200567921586,-0.911810338395487,-0.825457762213371,-1.03150059926632,-0.0806063191430216,0.174021080443905,2.69508528411758,0.11293894601244,-0.0538910443104031
3.905,-0.803012854951688,0.410277650003188,0.713479984472711,0.306910743422754,1.26341818102203,-1.75536643000554,-1.34845645346652,0.406801750823227,-0.690777850100307,1.98008060480018,1.00699313093887,-0.25993992300647,-1.12472611976767,0.473971880336795,0.0470032777881573,1.48686108256138,-0.923642559863069,-0.730902473908038,-1.02949975687149,-0.0761122090150981,0.181423360526695,2.6973618795873,0.150996280358564,-0.042833531785027
3.91,-0.80345385022084,0.416584305455533,0.719010412429817,0.369609736724712,1.47798539539297,-1.90418472599745,-1.38960703931881,0.407135754597915,-0.679601405952283,2.09495739073016,1.07303287774517,-0.224890598254247,-1.1274470712007,0.503823696563127,0.0796139423072135,1.61018832768594,-0.938094242790992,-0.626395874924331,-1.02774363227513,-0.0745934864591892,0.182703476411496,2.70139653751853,0.193554442268244,-0.032941699385375
3.915,-0.80501628270043,0.423664367061161,0.728002166215419,0.440870476729486,1.70605953315535,-2.05405635833342,-1.42858446061041,0.407308215674021,-0.665294487473955,2.21610810497814,1.14163886762627,-0.186777385570057,-1.1299512713815,0.52992170586068,0.113684130248845,1.7403621994335,-0.955005155666244,-0.512502947248356,-1.02644709957162,-0.0768192718661839,0.177075079159617,2.70701172657188,0.239697083402698,-0.0240168030103596
3.92,-0.808333179908672,0.432094808980728,0.740913153042251,0.520380988389515,1.94443636137893,-2.20454340821186,-1.4643010962099,0.408005536441605,-0.64829816146679,2.34154038782123,1.21180113840236,-0.145462511289518,-1.13233734542336,0.55124177906506,0.14863940813383,1.8755723378087,-0.974109990263993,-0.390026279984317,-1.02577836951414,-0.0832664611912126,0.16395845433854,2.7139262015929,0.288342451404045,-0.0157236889961327
3.925,-0.813965720094221,0.442453863658527,0.758191920151951,0.60773057052705,2.18920077080773,-2.35538435565937,-1.49561829416217,0.409899277923637,-0.62917681601728,2.46911039266748,1.28239736684175,-0.100718854001477,-1.13475223533985,0.566807700088913,0.183917989833653,2.01392391718571,-0.99503090523723,-0.260004503080627,-1.02587057393347,-0.0941610778680158,0.143147277658203,2.7217450731141,0.338303701841298,-0.00766804533488298
3.93,-0.822342141370121,0.455240978458001,0.780311978633381,0.702375150669455,2.43571512349669,-2.50650856996991,-1.52135677222266,0.413592966236056,-0.608554759858424,2.59659108966286,1.35220589022632,-0.052230121559632,-1.13738004056769,0.575713097770899,0.21889241253706,2.15350948946446,-1.01728052518442,-0.123691441340221,-1.02686275147269,-0.109560384799845,0.114843851389433,2.72996902078141,0.388370400510743,0.000587373557909499
3.935,-0.833632050426488,0.47086677603037,0.807749206748404,0.803583218776575,2.6786368470111,-2.65800528045452,-1.5403539529553,0.419589390449925,-0.58701565804117,2.72172460382556,1.41991797379239,0.000390616564385021,-1.14043718473583,0.577158452407089,0.252879195791523,2.29245764083865,-1.04027020205191,0.0174553281113285,-1.02890738538412,-0.12930460733264,0.0795945465851924,2.73800677441128,0.437367228762283,0.00950701713601906
3.94,-0.847654530393061,0.489632603364625,0.840881197938067,0.910378317559698,2.91199709644179,-2.81007579840001,-1.55149765460007,0.428262753459942,-0.565055019914407,2.84226524891816,1.48415309012197,0.0575776153899739,-1.14414694666158,0.570522671636316,0.28518184523509,2.42897160995693,-1.06331644005765,0.161786213181252,-1.03215626165358,-0.152985111101941,0.0382000139002846,2.74519060247841,0.484192867161518,0.0195351492712563
3.945,-0.863820309182567,0.511767957214258,0.879827460973077,1.02150710931236,3.12935587602981,-2.96297412492647,-1.55373494866725,0.43982531297912,-0.543084615096574,2.95604579117518,1.54348343185323,0.119791776238222,-1.14868938351444,0.55542549681613,0.315149073703844,2.5613891152428,-1.08565771563203,0.307486110087293,-1.03674069342435,-0.179996849887211,-0.00836020957304582,2.75080451700544,0.527838192952735,0.0310559350640894
3.95,-0.881086124448128,0.537547311636347,0.924330299526026,1.13547291407362,3.32404663659391,-3.11688095237522,-1.54610165930901,0.454320656588999,-0.521424374918938,3.06108124947453,1.59646756276396,0.187511932911414,-1.15415868524049,0.53174467357032,0.342237557609688,2.68827814210261,-1.10648697686531,0.452612031576929,-1.04274729103118,-0.209598841259158,-0.0589475722203426,2.7541151474603,0.567394759018441,0.0443714970815285
3.955,-0.897987434565564,0.567345663626614,0.973734857231312,1.25063036758308,3.4894747680334,-3.27172257298596,-1.52776786035732,0.471647013393584,-0.500290729647678,3.15568224022316,1.64168771926063,0.261234466987521,-1.1605526871151,0.499605268111999,0.366039864759927,2.80854115175242,-1.12499338996457,0.595140854946256,-1.05020657385552,-0.24094997736256,-0.112252365986608,2.75439945907539,0.602075548409277,0.0596935625378287
3.96,-0.912754409396672,0.601585985096538,1.02706516171093,1.36530459108289,3.6194099305425,-3.42701565511557,-1.49810357822856,0.491603628325936,-0.479780177981186,3.23853750492194,1.67778871777583,0.341470563739314,-1.16779579652414,0.459371187690709,0.386280923339266,2.9214870330178,-1.14040106088641,0.733023020027409,-1.05909914893261,-0.273110496771991,-0.166798256290938,2.75097665130508,0.631246252960771,0.0771372667968627
3.965,-0.923440123860298,0.640653961053291,1.08311461121826,1.47790490974287,3.70824149643861,-3.58178989417034,-1.45675505943417,0.513929836992265,-0.459838110861174,3.30873844965778,1.70351583298296,0.428734822812193,-1.17576442821751,0.411647974391099,0.402807674584514,3.02684453591818,-1.15199267625759,0.864233211808329,-1.06936249030903,-0.305034055927257,-0.220976004991192,2.74324668748045,0.654455063179251,0.0966951177177142
3.97,-0.928023434274256,0.684852722560822,1.14048305508991,1.58703949036771,3.75121795244184,-3.73456377179527,-1.40371322815602,0.538307675701019,-0.440232186133935,3.36576424635736,1.71774765588605,0.523526076620728,-1.18428005912034,0.357286308545049,0.415584394910815,3.1247331577578,-1.15912557072912,0.986818225911965,-1.08088367366054,-0.335608964193966,-0.273111812131169,2.73073176962208,0.671452111602321,0.118203895797581
3.975,-0.924526750171752,0.734396577699078,1.19758083569061,1.69165486921712,3.74469472273934,-3.88332558874613,-1.33936949027452,0.564340031562754,-0.420560848338656,3.40946719360485,1.71952506824469,0.626305899044944,-1.19308294579676,0.297369710832237,0.424692078202223,3.2156272586624,-1.16125602649108,1.09894922032162,-1.09348129850028,-0.363748236795621,-0.321550998644685,2.71311430927932,0.682194389126674,0.141336633994046
3.98,-0.911185118892784,0.78938609577055,1.25265689306941,1.79119462003777,3.68637851267483,-4.02551584827523,-1.264559115486,0.591528415434084,-0.40030610946549,3.44006649926197,1.7080785552575,0.73747642346025,-1.20183340648697,0.233173129267208,0.430329086594179,3.3003209814533,-1.15797279656855,1.19898098816864,-1.10689898610623,-0.38847445096087,-0.364716314248448,2.69026250676418,0.686845042005316,0.165628747069363
3.985,-0.886647263393468,0.849725987000446,1.30388351668789,1.88574400361435,3.57553006980846,-4.15804737334829,-1.18057972963155,0.619263039152428,-0.378910213799693,3.4581361253633,1.68285104934183,0.857357665210965,-1.21015228790901,0.166100030226828,0.432806132133,3.37988240869198,-1.14902973586479,1.28550832881223,-1.12081898078952,-0.40894592646918,-0.40116230902695,2.66224103669496,0.68577487416018,0.190519664604248
3.99,-0.850152058310084,0.91500058904951,1.34948167336532,1.97611643877427,3.41307695335512,-4.27740016906993,-1.08917645093453,0.64683702533274,-0.355839873662026,3.46456770817115,1.64351320688424,0.986161512949591,-1.21766688142241,0.0976213828185493,0.432509423363327,3.45558135193084,-1.13436483864879,1.35740728276871,-1.13487785315319,-0.424431133703743,-0.429661147278711,2.62931707235012,0.679552431187126,0.215379883390118
3.995,-0.801626632699422,0.984344285610447,1.38783779777662,2.06384365358771,3.20161877081388,-4.37980370269171,-0.99250208307549,0.673471752827026,-0.330628616283025,3.46049804376061,1.58997035279478,1.12395645132757,-1.22404265354907,0.0292233890764949,0.429839923173363,3.52878229142339,-1.11409795612904,1.41386303047235,-1.14867972535833,-0.434312031433178,-0.449274450800484,2.59196186649403,0.66891921145019,0.239519221012538
4,-0.741700035507426,1.056354372012,1.41759760808418,2.15106749659849,2.94534781916765,-4.46148660086235,-0.893050622265055,0.698326229980399,-0.302917950916695,3.44722073967996,1.52235977566792,1.27062674905994,-1.22899948872509,-0.0376385383355819,0.425169545830411,3.60082306140868,-1.08851371678903,1.45439121540059,-1.16181317031103,-0.438137832317649,-0.459402736769363,2.55083435834596,0.654765930816329,0.262200974746284
4.005,-0.671664209940642,1.12908582405839,1.43775387418255,2.24035989401248,2.64989304377341,-4.51894333232258,-0.793549909225867,0.720502991799449,-0.272507397210017,3.42611085317503,1.44104075049574,1.42583526678641,-1.23230968408743,-0.101580983253383,0.41881721608134,3.6729084306967,-1.05804138563703,1.47884957672973,-1.17386356323439,-0.435664896968276,-0.459852713608025,2.5067545260631,0.638097609716353,0.28267043800194
4.01,-0.593388737413787,1.20011362146349,1.4477249314712,2.33449104577893,2.32207818324714,-4.54917913561208,-0.6968232645298,0.739077073315442,-0.239396795849294,3.39856546163601,1.34658206003234,1.58899436676244,-1.23379006749302,-0.161335196652482,0.411032828560813,3.74602499471515,-1.02323143598076,1.48743463145211,-1.18442037126855,-0.42687564285713,-0.450872584804562,2.46067917027593,0.619975047929736,0.300184100704958
4.015,-0.509178877021289,1.26663242198888,1.44741158332488,2.43616085973362,1.96960920929307,-4.54992765143855,-0.605643597980362,0.753142676013698,-0.203804279307122,3.36595271265227,1.23974702378016,1.75924859627432,-1.23329643339253,-0.215789068378413,0.401992723783857,3.82087592767651,-0.98472460366609,1.48066553339889,-1.19308892510104,-0.412016865183472,-0.433118501683471,2.41367028496996,0.601455567168834,0.314037509696413
4.02,-0.421599147927444,1.32559987689412,1.43722547507445,2.5477238819661,1.60071770600015,-4.51983273416051,-0.522587692131827,0.761865986361086,-0.166164591314209,3.32957463431497,1.12147549877269,1.93547353882082,-1.23071272116251,-0.264020734565598,0.39180312117995,3.89784334485073,-0.943218507405352,1.45935868464756,-1.19950648307385,-0.391646513888439,-0.407602683851956,2.36685255946556,0.583543430801686,0.323602231171197
4.025,-0.333293919032556,1.37392537953005,1.41807584847411,2.67094462964926,1.22378167302793,-4.45857654460571,-0.449897121736923,0.764543822024205,-0.12711395312138,3.29064911172241,0.992864901326373,2.11629339448247,-1.22593926983811,-0.305324003289714,0.380509151446674,3.97698402527819,-0.899438019451259,1.42459338317223,-1.20336043303527,-0.366654902963503,-0.37563914556642,2.32136907040426,0.567141222893121,0.328373791669047
4.03,-0.246818109358935,1.40867632852328,1.39130733910882,2.80681072673332,0.846953196011457,-4.3669484321645,-0.389358731930629,0.760662303140619,-0.0874560034542901,3.25030735621351,0.855150493949436,2.30011838393741,-1.21889043359807,-0.339229204659544,0.368114621886335,4.05805620876829,-0.854110182325173,1.37766837848614,-1.20440804195016,-0.338245782313664,-0.33876833320664,2.27833583822217,0.553004330478139,0.328023207812908
4.035,-0.164495103494757,1.42727631909283,1.35861026859148,2.95541955671715,0.477822446591902,-4.24685914245998,-0.342215341470687,0.749943091304458,-0.0481068457716471,3.20959967854754,0.709682999172157,2.48520065995453,-1.20949742416028,-0.365517422966144,0.354607203078345,4.14057078372792,-0.807942529168977,1.32005065763288,-1.20249058158618,-0.307874867730152,-0.298671833512154,2.23879334659484,0.541705961505843,0.322441997892392
4.04,-0.0883235227445789,1.42768410189094,1.32192666056452,3.11594669242286,0.12312764244951,-4.10129888952416,-0.309115755920668,0.732366032325543,-0.0100303550516221,3.16950333431175,0.557903394652525,2.66970278050167,-1.19770510621469,-0.384220163389664,0.339978614337001,4.22385759580582,-0.761604618708365,1.25332012181835,-1.19753634382451,-0.277166151371528,-0.257100374036531,2.20366249763629,0.533613382847862,0.311773121086584
4.045,-0.0199339890799707,1.40852630684071,1.28333072866862,3.28670316367602,-0.211484036953056,-3.93423101661799,-0.290108641279019,0.708166716306331,0.0258210680953004,3.13093364630186,0.401317527765488,2.85177166853914,-1.18347296433464,-0.395605064191779,0.32424167213489,4.30714158977638,-0.715716350288729,1.17911506402242,-1.18956090037423,-0.247810302167291,-0.215798577275561,2.17371556959382,0.528869301281511,0.29643076822774
4.05,0.0394216650936114,1.36914027735409,1.24487483341322,3.46526781186512,-0.521619414982343,-3.75043969729164,-0.284685151465855,0.677822373802149,0.0585652764154647,3.09475350682371,0.241470282645909,3.02961243122374,-1.16680760516193,-0.400148851599156,0.307448784081565,4.38961983832739,-0.67084064074652,1.0990784291974,-1.17867406757386,-0.221395281630225,-0.176376572744779,2.14955707553043,0.527385340362172,0.277100182678757
4.055,0.0888727652922727,1.30955126493756,1.20845266159683,3.64864875114924,-0.804208037470911,-3.55537880470494,-0.291873305989473,0.642030686266941,0.0874647520756897,3.06175846411247,0.0799143998503893,3.20155392821106,-1.14780321276217,-0.398481987248261,0.289703696981499,4.47051689066964,-0.627465793764506,1.01480154020567,-1.16508319489941,-0.199209057530289,-0.140173344326235,2.13159539148265,0.528869972068485,0.254685004629208
4.06,0.1279351788608,1.23047158100313,1.17568877167305,3.83345934989002,-1.05748185556394,-3.35501459942615,-0.310356454108184,0.601661374901706,0.111990389438324,3.03264368888571,-0.0818254463927487,3.36610073896393,-1.12662949709785,-0.39131403768714,0.271159969428014,4.54911753416921,-0.585981815110698,0.927772716021411,-1.14907859274699,-0.182174772227829,-0.10823565119274,2.12000997061207,0.532878736083343,0.230215171342958
4.065,0.156485886720221,1.13330720538034,1.14783612161232,4.0161409015349,-1.28086912414756,-3.15560007541648,-0.338573597265187,0.557681649769004,0.131827528670557,3.00799747584349,-0.242284581781601,3.52197491387946,-1.10348945418859,-0.379387178560794,0.252009591760146,4.62480722001593,-0.546678648417662,0.839343301615493,-1.13101176895257,-0.17090720493058,-0.0813766813995715,2.11474362432114,0.538844190067796,0.204781694300665
4.07,0.174685595675057,1.02007944864532,1.12572647728416,4.19321334390132,-1.47483927346597,-2.96339445846441,-0.374805885781516,0.511090942592035,0.146839500054371,2.98831979078723,-0.400082901699961,3.66814632932621,-1.07861829792336,-0.363465920388155,0.232462474409984,4.6971168499858,-0.509763682516138,0.750706906109568,-1.11128089149624,-0.165713763910477,-0.0601679951901765,2.11551600173784,0.546091432308327,0.179503188326494
4.075,0.182915526183014,0.893301332691328,1.10975373676402,4.36149023202371,-1.64074124055901,-2.7843972040217,-0.417278131748804,0.462864014843914,0.15703739661438,2.97402665688718,-0.553946677756575,3.80384375830877,-1.05230982782443,-0.344327427111325,0.212730113760404,4.76574029583397,-0.475372581163961,0.662884329583913,-1.09031189458918,-0.166541269137324,-0.0448808652888996,2.1218364921065,0.553876017000783,0.15547879914924
4.08,0.181764087778072,0.755895281983659,1.09985276974308,4.51824833792795,-1.7805997097284,-2.62407947792776,-0.464260357298146,0.413877376008762,0.162562289758501,2.96544715488849,-0.702729044707156,3.92854858602628,-1.02492028331695,-0.322743160910777,0.193034353084582,4.83053081583736,-0.443577428252403,0.576721607132397,-1.06852740833939,-0.172980788846406,-0.0354748302783075,2.13303849943373,0.561439260628806,0.133732725512754
4.085,0.172000603791542,0.611079951011594,1.09555736349288,4.66136610968425,-1.8968762706035,-2.48708098030997,-0.514140019312392,0.364854654398942,0.163666805533642,2.96282840507896,-0.845426395767262,4.04197735724441,-0.996852343470913,-0.299453336255384,0.173616191248643,4.89149115282321,-0.414400435526096,0.492899897032751,-1.04632526816558,-0.184331102294151,-0.0316327206191793,2.14834071779826,0.568061174877308,0.11516722277544
4.09,0.15453066662724,0.462164459056561,1.09610592273803,4.78940372265433,-1.99227445015203,-2.37696223688827,-0.565469537571307,0.316366216890289,0.160694902435852,2.96633484715094,-0.981188649441902,4.14405380646903,-0.968536910050855,-0.275133263868495,0.154714118770847,4.94874945435755,-0.387822801766794,0.41194422548437,-1.02407800875753,-0.19968546730714,-0.0328158739502234,2.16688039072802,0.573108020055425,0.100522882696541
4.095,0.130383272500707,0.312372157918687,1.10048049131685,4.90160468404436,-2.06956375417157,-2.29608539537387,-0.617004022172245,0.26884165760017,0.154063052861019,2.97604435080469,-1.10932437621687,4.23487481895191,-0.940416233998757,-0.250368735885935,0.136548725056626,5.00252663692263,-0.363789922362674,0.334231555478904,-1.00212915548715,-0.218009335916826,-0.0383335390528895,2.18770980261367,0.576068814228395,0.0903558442148608
4.1,0.100691518761115,0.164767328283522,1.10747632991319,4.99784641312234,-2.13137878906011,-2.245558640094,-0.667730019045552,0.222572742997912,0.144246443196734,2.99195077904425,-1.22930206144371,4.31467696274833,-0.912924145960816,-0.225639477232651,0.11933357244612,5.05310732046363,-0.342218508256499,0.260005061836906,-0.980771593045315,-0.238190957613753,-0.0474081691777701,2.20980834754034,0.576577299184619,0.0850240077840034
4.105,0.0666354277788428,0.0221895233569146,1.11587653810428,5.07856605733061,-2.18006872930659,-2.22520448568108,-0.716868287003417,0.177735440144319,0.131770498377607,3.01396257425294,-1.34074461812268,4.38380249614495,-0.886465263639304,-0.201304916906186,0.103260639040152,5.10080809805299,-0.322998537516505,0.189392572691651,-0.960236788553916,-0.259093375137512,-0.0592280760852965,2.23211538051642,0.574424116043283,0.0846695044865478
4.11,0.0294146945253184,-0.112831486424242,1.12458458025113,5.14465749229441,-2.21764480858449,-2.23359490716028,-0.763839480069117,0.134425315937995,0.117205534580274,3.04188762238751,-1.44342087023655,4.44266024083618,-0.861409950241453,-0.177619473333815,0.0884491083471561,5.14593257204609,-0.305987588293833,0.122418768102957,-0.940716560916919,-0.279619311356502,-0.0729858990804268,2.25355851811977,0.569554995495037,0.0892061641939358
4.115,-0.00974561292391995,-0.238119447746809,1.13266221355236,5.19734705589417,-2.24576844468593,-2.26814646788064,-0.808230546871987,0.0926744298178939,0.101154947794312,3.0754127305194,-1.53724399625404,4.49168505101588,-0.838100994920284,-0.154771914776797,0.0749259620815633,5.18871972414728,-0.291006331701268,0.0590088721819414,-0.922379618621912,-0.298790671024522,-0.0878864674952438,2.27308360581984,0.562055642191949,0.098325749682515
4.12,-0.0496322178107805,-0.351915474441311,1.13938737216308,5.23807714296856,-2.2657490897087,-2.32523722460437,-0.849798870562268,0.0524580926637221,0.0842378280907536,3.11409140606956,-1.62227117132655,4.53130485816438,-0.816838084648279,-0.132884734097555,0.0626521634576483,5.22930370764547,-0.277839444479027,-0.000998855498222762,-0.905350126087837,-0.315803292586706,-0.103171328449557,2.28969384569637,0.55214651514359,0.111529702964914
4.125,-0.0891055022971886,-0.453008536780758,1.14431935633074,5.26839311877086,-2.27858141194397,-2.40039445713295,-0.888469696020499,0.0137313160320869,0.0670782128058977,3.15733900036772,-1.69869079958138,4.5619138326723,-0.797833824079042,-0.111969600298,0.0515126594576103,5.26768605201284,-0.266238046658013,-0.0578280598376839,-0.889686718307691,-0.32999966828169,-0.118232230740347,2.30248892748358,0.540170332436695,0.12816378311195
4.13,-0.127127519187758,-0.540781166654163,1.14727040964761,5.28981594531106,-2.28501557833294,-2.48859130577681,-0.924286598088733,-0.023523850795611,0.050284567184937,3.2044306406111,-1.76680011583879,4.58384655483925,-0.781188565540062,-0.0919249493294784,0.0412708107757703,5.30371191593652,-0.255924489655331,-0.111743896003348,-0.875397632289852,-0.340851021489065,-0.132697010294937,2.31069989736109,0.526529778934295,0.147441216442865
4.135,-0.162770956571513,-0.615100836111526,1.14822427159061,5.30373386256443,-2.28562060326826,-2.58454366343082,-0.957360797323776,-0.0593072362800838,0.0344082662044838,3.25450811012926,-1.82698414143173,4.59735854175867,-0.76691239344805,-0.0725971479517756,0.0315885601035199,5.33705734325672,-0.246604207768383,-0.163036347928216,-0.862466854967574,-0.348038846918506,-0.146348321711947,2.31372129195021,0.511615452760008,0.168485909457794
4.14,-0.19523327207846,-0.676212955479035,1.14728781096002,5.31134678823743,-2.28083029575984,-2.68291363457709,-0.987851665710285,-0.0936581052171941,0.0199101967374198,3.30660047903882,-1.87969779103644,4.60261896694044,-0.7549573316866,-0.0538330226687541,0.0221109755417051,5.36723624780822,-0.237984056459098,-0.211996864239309,-0.850864349768238,-0.351531590171178,-0.158993506092418,2.31113653632229,0.495781548402496,0.190407774247409
4.145,-0.223856103313847,-0.72474995170003,1.14467998644482,5.31364396473951,-2.27098459448201,-2.77846197592575,-1.01595230050408,-0.126690587306674,0.00715760864009184,3.35965306125943,-1.92544755528707,4.59971157635139,-0.745222258156,-0.035486450352956,0.0125159826951066,5.39362101051028,-0.229793115414896,-0.258893805133084,-0.840543694063344,-0.351549581631225,-0.170447987699946,2.30273262934342,0.479349319952623,0.212379460548999
4.15,-0.248154362581446,-0.76178341322687,1.14072420492323,5.31137376246497,-2.25638518225228,-2.86623056846629,-1.04186330355593,-0.158579560400614,-0.00356660669239225,3.41254973432912,-1.96477118584735,4.58863428627113,-0.737546333551468,-0.0174096328240509,0.0025025095229813,5.41545921280926,-0.22179954853967,-0.303955019047188,-0.831441169266664,-0.348465180078734,-0.180597268804471,2.28850879182309,0.462595538366921,0.233687019377172
4.155,-0.267841522912016,-0.788774645161133,1.13580849071477,5.30499675381338,-2.23736264363396,-2.94175901251074,-1.06577071038385,-0.189541316569645,-0.0120708483736391,3.46412126665527,-1.99821729912049,4.56929630894293,-0.731730291037136,0.000531959020398604,-0.00821051386192987,5.43188006027607,-0.213819435122903,-0.347357814175311,-0.823489759341914,-0.34274178699165,-0.189401642743925,2.26868153473669,0.445725299863963,0.253755784164314
4.16,-0.282840040929336,-0.807461820346416,1.13033406038188,5.29465855399924,-2.21431964589113,-3.00124477875505,-1.08784004577976,-0.219835690400241,-0.0182636321611439,3.51315372511981,-2.02632993443244,4.5415225704205,-0.727569217980345,0.0184383546152716,-0.0198458467346303,5.44190637878766,-0.205723117100868,-0.389222010536522,-0.816631902171217,-0.334909692868817,-0.196846784287611,2.24368115192589,0.428864018381441,0.272171551992706
4.165,-0.293303949499772,-0.819839500512218,1.12469815621312,5.2801806724708,-2.18775554666962,-3.04165693313434,-1.10820262685093,-0.249739085310191,-0.0221391370438906,3.55839900846761,-2.04963583407494,4.5050649824332,-0.724846009286718,0.0363849021844832,-0.0325627952772352,5.44447311716335,-0.197439406593116,-0.429605326901244,-0.810803644471679,-0.325501141950089,-0.202958253689625,2.21413799737792,0.412065023209796,0.288691406586925
4.17,-0.299646218585691,-0.828127352013359,1.11927352680698,5.26102666084216,-2.15830931780588,-3.0609029119173,-1.12692973378809,-0.279484931876697,-0.0237658493748773,3.59856875862178,-2.06862832059759,4.45961127516902,-0.723321372074993,0.0544304790574228,-0.0464865807015434,5.43843234595466,-0.188948269024347,-0.468505758448485,-0.805919936635757,-0.314978902642786,-0.207821835437496,2.18085922035514,0.395302261471885,0.303225056519538
4.175,-0.302518089342858,-0.83455182278011,1.11434208691714,5.23627202257363,-2.12679014622429,-3.05797088416077,-1.1440374927984,-0.30924115435193,-0.023299370082908,3.63232001572519,-2.08375442699734,4.40479765197566,-0.722778302922614,0.0725923012045058,-0.0616824712289941,5.42255351310187,-0.180266256432614,-0.505870534958132,-0.801899301432868,-0.3037411431555,-0.211501522237839,2.14479500093899,0.37847202600377,0.315804794440862
4.18,-0.302740425056506,-0.841080798287984,1.11003524107688,5.20463833436797,-2.09414311208516,-3.03291664764829,-1.15952390141015,-0.339124454270088,-0.0209886404475501,3.65826353533402,-2.09541242446434,4.34023806817263,-0.723072790574127,0.0908275958778236,-0.0780887419713191,5.39554941370723,-0.171438696105673,-0.5416049990862,-0.79869635660562,-0.292161753059274,-0.213956637495616,2.10699775945236,0.361430428532261,0.326569091539026
4.185,-0.301229574851157,-0.849311623821592,1.10633386136647,5.16458019897032,-2.06137028359955,-2.98674151051317,-1.173391247952,-0.369199117998908,-0.0171519434458476,3.67499862220678,-2.10395469234256,4.26556565145816,-0.724135330376729,0.10904536967982,-0.0954988490875203,5.35612876701838,-0.162539964044512,-0.575579981497687,-0.796305887889299,-0.280582200395009,-0.215058063582229,2.06857864477037,0.34403962368608,0.335752885820431
4.19,-0.298935018163922,-0.860471223096765,1.10309998662355,5.114378108773,-2.02945777797872,-2.92126324554688,-1.18564459199851,-0.39944876873974,-0.0121401991529595,3.68115241928027,-2.10969223939338,4.180472249868,-0.725947787269073,0.127124296975912,-0.113599446615197,5.30305021405277,-0.15367363775575,-0.607643627176408,-0.794750950554165,-0.269267461285951,-0.214651730426991,2.03066237820463,0.326195116814144,0.343666137185777
4.195,-0.29678730794928,-0.875406367362906,1.10009522948143,5.05222152240715,-1.99931618223356,-2.83900536402775,-1.19629091440577,-0.429743814646942,-0.00631319655134511,3.67541332389733,-2.11290074566574,4.08474255886886,-0.728521601770319,0.144928461674424,-0.132004076270831,5.23516783014371,-0.144967929236002,-0.637637369551873,-0.794066864115072,-0.258387577890809,-0.212611524396673,1.99434460859229,0.307836372052571,0.350661058446568
4.2,-0.295659073036097,-0.894547608474865,1.09700032310124,4.97629923924016,-1.97171849160955,-2.74307823886876,-1.20534567728166,-0.459824144541422,-3.26386425490123e-05,3.65656966047984,-2.11382404510939,3.97828810973611,-0.731879535753773,0.162327694739564,-0.150259445975174,5.1514807608418,-0.136568741281556,-0.665409767226768,-0.794281435600881,-0.24801158111335,-0.208875998322875,1.96065472207413,0.288949460337862,0.357098062499371
4.205,-0.296336237468983,-0.917908428841699,1.09345859556814,4.88490707380662,-1.94724854217516,-2.63703932821253,-1.21284490130596,-0.489285154670175,0.00634158708728536,3.62355672132637,-2.11267365627482,3.86118179076602,-0.736057244190858,0.179206014163546,-0.167865967566192,5.05118973074686,-0.128631314552931,-0.690830595959392,-0.795410618466856,-0.23811692022476,-0.203456982999739,1.93051617263106,0.269565738863353,0.363303524385083
4.21,-0.299478892156552,-0.945151123293327,1.08910090501896,4.77654182532112,-1.92626850710587,-2.52477302058663,-1.21886699733157,-0.517570696359718,0.0124617817995007,3.57549571024989,-2.10963031130018,3.73368559176432,-0.741118361661474,0.195446745581169,-0.184331716303809,4.93374304007288,-0.121307364310318,-0.713801120756713,-0.797476587635816,-0.228694172742505,-0.196415222323586,1.90469903925411,0.249770002855186,0.369541414200368
4.215,-0.305570488520629,-0.975617917584814,1.08353698841643,4.64995914005815,-1.90887670330929,-2.4104056588504,-1.22354831781359,-0.544027353416743,0.0179950385759769,3.51172352971492,-2.10484799673375,3.59626495445297,-0.747140764277726,0.210938535919441,-0.199187986496545,4.79886815338382,-0.114733063346494,-0.734247035553545,-0.800513837943888,-0.219827741795678,-0.187859097590271,1.88377865488686,0.229720497243345,0.376040533188812
4.22,-0.314880353744833,-1.00821935886281,1.0763767836646,4.50426237557728,-1.89485889613768,-2.29813891048066,-1.22707475580909,-0.568009760407551,0.0226078242964464,3.4318461110158,-2.09845060105781,3.44959646754866,-0.75417671417475,0.225634569633232,-0.211936838793666,4.64661838039794,-0.109030972066768,-0.752112792067683,-0.80454721178339,-0.211562418400151,-0.17798910393038,1.86811087841371,0.209644802273249,0.383016440367564
4.225,-0.327443303910525,-1.04135748734319,1.06728608774934,4.33907185086331,-1.88367013460685,-2.19192165892145,-1.22967043493856,-0.588928998679978,0.0259682691266138,3.33582661814363,-2.0905199161201,3.29457697746166,-0.762232558781368,0.23960267195859,-0.222046392508857,4.47744798103218,-0.104325304841582,-0.767381729717884,-0.809571569630304,-0.203765358020817,-0.167110162646771,1.85781894583026,0.189796119733029,0.390611821098398
4.23,-0.343080624907329,-1.07312214369181,1.05598191018813,4.15466352900069,-1.87444262272005,-2.09513592218389,-1.23157365260288,-0.606231339198244,0.0277554363204334,3.22405889575423,-2.08108512673668,3.13232101534982,-0.771280035421129,0.253004702563178,-0.229055438254378,4.29227111419125,-0.100752620633159,-0.780090789567758,-0.815552608256725,-0.196234729783194,-0.155566661184405,1.85279548639528,0.170411856730059,0.398835123433465
4.235,-0.361501684978201,-1.10160694242638,1.04214502128909,3.95196722789787,-1.86600168089281,-2.01046492848618,-1.23296237226837,-0.619414286457268,0.0276071854374908,3.09737631117629,-2.07011868924391,2.96413074533471,-0.781284662540633,0.266045483368745,-0.232677423441923,4.09245655766443,-0.0984559990783309,-0.790311038630751,-0.822441852076967,-0.188854890844858,-0.143646570187843,1.85272595375539,0.151709161990968,0.407581482402507
4.24,-0.382262851925552,-1.12494595970233,1.0256241442579,3.73247290032055,-1.8569018272535,-1.93985539817202,-1.23408620586297,-0.627999265531868,0.0252799220788693,2.95700133024161,-2.05753760223176,2.79144463189545,-0.792214218689992,0.278965139858025,-0.23281360359867,3.87976231705231,-0.0975678447217536,-0.79812170334833,-0.830183432124674,-0.181586459807254,-0.131545031651368,1.85712293080748,0.133906374992499,0.416679019103422
4.245,-0.404676655014012,-1.14121821536625,1.00666836468749,3.49814898515019,-1.84548903948857,-1.88444582774724,-1.23541281448701,-0.631492197374017,0.0208486384010885,2.80449129662385,-2.04320177362204,2.61578398646623,-0.804002747315715,0.292069571984751,-0.229513597032619,3.65626462134252,-0.0981979974548428,-0.803597187641023,-0.838695620731786,-0.174411691915855,-0.119416947892108,1.86535448169048,0.117229685138128,0.425904547524395
4.25,-0.428006826207426,-1.14865061651942,0.985643835379725,3.25138438851399,-1.82997221065055,-1.8444832621898,-1.23739919989841,-0.629518271408897,0.0144887594819538,2.64170371240077,-2.02690422928299,2.43870436183168,-0.816528878688946,0.305730784248935,-0.222947862848979,3.42430657549182,-0.10043160812097,-0.806790884345197,-0.847854251473421,-0.167345505574533,-0.107415863777651,1.87666735514415,0.101896325950906,0.43499566262445
4.255,-0.451612577653481,-1.14582491232537,0.962839144613287,2.9948893148317,-1.80848536683945,-1.81931844559394,-1.2403541012671,-0.621921740938972,0.00631939491023231,2.47074174146591,-2.00836410503536,2.26174522771656,-0.829622342416496,0.320368947937571,-0.213381625028578,3.18643036848879,-0.104324170331625,-0.807709029143503,-0.857499799908275,-0.160430480492127,-0.0957167059767529,1.89021888433392,0.0881089916296208,0.443680941432481
4.26,-0.474920235524188,-1.13164428145078,0.938564549726154,2.73160482303558,-1.77914262749286,-1.80743560252836,-1.24449836289846,-0.60877517835253,-0.00354338438198037,2.2939165132848,-1.98722257899708,2.08638652702528,-0.843049104748361,0.336455736930921,-0.20112437217484,2.94532730670748,-0.109905755577374,-0.806287632821329,-0.86745126011836,-0.153685059786524,-0.0845796265307053,1.90510587813837,0.0760342934777518,0.4517017194953
4.265,-0.497456813206611,-1.10533833948124,0.913219537772381,2.46469451276371,-1.74011428033382,-1.80641563176766,-1.24996905593668,-0.590405999064058,-0.0149848109943693,2.11375956396139,-1.96303703211584,1.91401702138932,-0.856533346174114,0.354474583899051,-0.18650887664436,2.70383669820731,-0.117203260074518,-0.802384490966963,-0.877531576745544,-0.147088487090534,-0.0743229341365071,1.92037691867232,0.0657491992811492,0.458813965667975
4.27,-0.518902373031779,-1.06664216660795,0.887329894440591,2.19750094645016,-1.68974500811955,-1.81294467203912,-1.2568250126984,-0.567350577462604,-0.0278626136841519,1.93297503536725,-1.93528923919704,1.74589303522572,-0.869832911267158,0.374838531663952,-0.169932945746027,2.46488761555917,-0.126247833922586,-0.795787404486416,-0.887604947387113,-0.140590514411757,-0.0652364321541597,1.9350525359079,0.0572253762039682,0.464788190024709
4.275,-0.53910534926156,-1.01597359304985,0.861510960523626,1.93339603260864,-1.62668215588315,-1.82301611639319,-1.26505520339503,-0.540271175197772,-0.0419873010539353,1.75430787257739,-1.90340898458886,1.58308835956542,-0.882769337794741,0.397849703957832,-0.151883338294429,2.23136235334286,-0.137060806196402,-0.786228920113389,-0.897591633998601,-0.134109777605462,-0.0576005900093753,1.94816622876944,0.0503385328336501,0.469408487670143
4.28,-0.558063583042883,-0.954442566242944,0.836402121452645,1.67563217797101,-1.54996093568912,-1.83224124175513,-1.27459225029198,-0.509917051766455,-0.0571322861406532,1.58043305482427,-1.86679733653736,1.42646171383406,-0.895225694503618,0.423676832802107,-0.132887474127552,2.00598623736499,-0.149644099650388,-0.773394665240153,-0.907457740552609,-0.127569159775153,-0.0516870349915327,1.95880520579119,0.0448632415331218,0.472479335894883
4.285,-0.575881113733245,-0.883764667992093,0.812663349188701,1.42722897693328,-1.45905275123138,-1.83615284188688,-1.28533130957389,-0.477104150396359,-0.0730072335289674,1.41386004616389,-1.82485370173237,1.27664125947163,-0.90716327650945,0.452316611291468,-0.113463234312438,1.79123821644776,-0.16397309859308,-0.75692720182596,-0.917208139268009,-0.120928853433921,-0.0476999883118027,1.966137060188,0.040499216937288,0.473850355331554
4.29,-0.592728312114216,-0.80613281539432,0.791002704238674,1.19085698722906,-1.3539184704965,-1.83049648679789,-1.29712549254433,-0.442662788032325,-0.0892305541498841,1.2568019845509,-1.77701443498165,1.13401240936442,-0.918623220482495,0.483573534384364,-0.0941072094917664,1.58922910712729,-0.179983835290844,-0.73644256758482,-0.926885668213966,-0.114154291808899,-0.0457916681067614,1.96942875708919,0.0369140478631439,0.473431456183249
4.295,-0.608828039407213,-0.724060158130156,0.772190915109243,0.968752965324585,-1.23506775053572,-1.81150335287773,-1.30978530921398,-0.407363254854548,-0.105359071852655,1.11105759994438,-1.72279504494578,0.99872075846682,-0.929720772453157,0.517056542157789,-0.0752605294493823,1.40159484017516,-0.197563750775723,-0.711563281770592,-0.936560938841537,-0.107186172668716,-0.0460431660866153,1.96806582502427,0.0337619711522599,0.471181926509299
4.3,-0.62442797460338,-0.640226328187041,0.757077311922605,0.762681177803542,-1.10359572123536,-1.77615710880375,-1.32310857765064,-0.371855103021128,-0.120916165899886,0.97794414099919,-1.66183139557414,0.870704079350182,-0.940649976421338,0.552175270429724,-0.0572506790474966,1.22944671058325,-0.216545714363079,-0.681952928511774,-0.946312769795014,-0.0999590884359931,-0.0483632342691354,1.96156154579819,0.0307264136870552,0.467093923407881
4.305,-0.639722138629608,-0.557269866356154,0.74656748218873,0.573914490404663,-0.961190481661142,-1.72243206648974,-1.33687089968342,-0.336643456038755,-0.135388223434272,0.858261360168321,-1.59392370118071,0.749741864659136,-0.951640434448293,0.58815800566836,-0.0402849572348076,1.07335630017038,-0.236703405822667,-0.647346641636791,-0.956211744381451,-0.0924169669089045,-0.0525347259725967,1.94955308469805,0.0275886162628533,0.461181920339014
4.31,-0.654787377559838,-0.477561716610701,0.741508541513294,0.403266204169212,-0.810117906875188,-1.64940252881919,-1.35074977717139,-0.302079348074171,-0.148257707812548,0.752303048076314,-1.51907748092652,0.635508301059338,-0.962865286569939,0.624089253006678,-0.0245032205495264,0.933383918846634,-0.257761029384759,-0.607583679941752,-0.966306419822105,-0.0844986703568672,-0.058416313495845,1.93181121844951,0.0242300777039973,0.453469402923152
4.315,-0.669609462378667,-0.403094052575438,0.742558334874532,0.251158320910455,-0.653165928478979,-1.55726009068168,-1.36428828480093,-0.268335961475661,-0.159090331210992,0.659924617635311,-1.437530867563,0.527627474204501,-0.974401614029143,0.658913392808458,-0.0100231437354304,0.809159025098713,-0.279413892721702,-0.56264088814327,-0.976610096883178,-0.0761315801456869,-0.06600609206296,1.90826495776409,0.0205637437193761,0.443972256711156
4.32,-0.684133652680207,-0.335412427449776,0.750118694024243,0.117650278477121,-0.493540556313983,-1.44732511763895,-1.37692481811234,-0.235405603906404,-0.167607786209123,0.580607470155238,-1.34977343726864,0.425727677336781,-0.986262532564949,0.691402491071306,0.00305474590436242,0.699958128049274,-0.301338778977775,-0.512663941220759,-0.987097377640062,-0.0672588221918855,-0.0753099520484547,1.87901090727271,0.016494613159713,0.4326897917552
4.325,-0.698272467663889,-0.275524777483008,0.764281941288233,0.00244535181511696,-0.334733641028091,-1.32197988487688,-1.38801548899749,-0.203137141036727,-0.173728376212441,0.513502670295655,-1.25656232381802,0.329489051354985,-0.998423050789602,0.720161246413376,0.014663485554947,0.604761386712937,-0.323194789163002,-0.45799863926347,-0.997704978461518,-0.0578718214978848,-0.0862182471748316,1.84430555257059,0.0119323762535883,0.419605843100234
4.33,-0.711894513132872,-0.223888772239583,0.784762352337774,-0.0950881629075295,-0.180360844794673,-1.18451360610415,-1.39685344655922,-0.171286081700282,-0.177595363365702,0.457492720497373,-1.15892589760028,0.238686294427903,-1.0108222994801,0.743694365908799,0.0247955050801064,0.522324280033315,-0.344624259923157,-0.399219584516368,-1.00832457007283,-0.0480146928242732,-0.0984538016375218,1.80454326362952,0.00681880717468139,0.404689478265307
4.335,-0.724793443309464,-0.180434138715676,0.810850133664351,-0.175891694367109,-0.0339648417148396,-1.03894268250525,-1.40269672926238,-0.139586899180678,-0.179576634089075,0.411279424619316,-1.05815044934058,0.153226565168171,-1.02334971660478,0.760499559108603,0.0335138544450786,0.451272688387652,-0.365253942224913,-0.337148442883978,-1.0187969686937,-0.0377747273740388,-0.111594591981413,1.76021321501948,0.00116607186584571,0.387889125259515
4.34,-0.736666866436788,-0.144576138605256,0.841392877871834,-0.241152591090541,0.101187651738361,-0.889734493296202,-1.40478270210626,-0.10784455672271,-0.180244503203553,0.37349397034838,-0.955750854509985,0.0731705373225521,-1.03580620378276,0.769168104860758,0.0409157497722746,0.390214463899544,-0.384705445760979,-0.272851966120658,-1.02891675265753,-0.0272854082341078,-0.125196166912818,1.71186709402356,-0.00493091390500669,0.369134607760694
4.345,-0.747163265628532,-0.115335350245921,0.874813824027876,-0.292206080858157,0.222286418421602,-0.741448271738192,-1.40236048328641,-0.0759919672054823,-0.180352819094623,0.342810764107303,-0.853418550730953,-0.00127376524512682,-1.04789521546528,0.768492301857655,0.0470983713803013,0.337847078059076,-0.402616549795043,-0.207613411640034,-1.03844042759029,-0.0167134779651994,-0.138867307499997,1.66012013303227,-0.0113330854534934,0.348358499932264
4.35,-0.755945589406553,-0.0914717987972656,0.90919999186096,-0.330459676064727,0.327130360552329,-0.598427652652947,-1.3947689210621,-0.044122239583785,-0.180798672705144,0.318032406175846,-0.752947632303192,-0.0697751818239711,-1.05927357499289,0.757581502459578,0.0522045582729506,0.293033260330177,-0.418657354738205,-0.142887000202221,-1.04709134910114,-0.00618761261078134,-0.15221118264217,1.60564699690335,-0.0178846235835872,0.325510301475442
4.355,-0.762699020892383,-0.0714950934901903,0.942437813286223,-0.357278935220957,0.414250631755659,-0.464488543630051,-1.38151447028341,-0.0125249821016079,-0.182556320251028,0.298177643400188,-0.65614912512899,-0.131903954711712,-1.06959185796219,0.735981535611431,0.0564910125489417,0.254879423150932,-0.432542046077715,-0.0802466741594971,-1.05456699572466,0.00428723372610607,-0.164800805601031,1.54915211961538,-0.0244044638058943,0.300532547434968
4.36,-0.767120633487691,-0.0537520647714372,0.972354158164985,-0.373796782163084,0.482995199181046,-0.342552262805398,-1.36230798488146,0.0183363750166382,-0.186563006934271,0.28259625477399,-0.564761111193191,-0.187157165076651,-1.07849688155806,0.703755236047681,0.0602910512165405,0.222839177686597,-0.444048090338846,-0.0213239733568195,-1.06056658592402,0.014829274936509,-0.176268096819424,1.4913454809845,-0.0306963967801314,0.27331821258307
4.365,-0.768976645269586,-0.03671580879646,0.996922380489789,-0.38079740502228,0.533554593651299,-0.234427831861619,-1.33709185433576,0.0479403776566833,-0.193558914666549,0.27102651688287,-0.480363854832954,-0.235001195504528,-1.08565104551009,0.661489950181533,0.063882052393893,0.19675749997695,-0.453034361977708,0.0322705942729728,-1.06483785402825,0.0255529579942736,-0.186345988900972,1.43293553908882,-0.0365913467186179,0.243698083858768
4.37,-0.768218592156986,-0.0192588966105557,1.0145825503883,-0.378778390343891,0.566873873672557,-0.140857930196672,-1.30610088899841,0.0758226928923567,-0.203934531647992,0.263507947570129,-0.404304243423593,-0.2749395232216,-1.09078691667478,0.610263611511169,0.0673923138615407,0.176770404343163,-0.459441164279512,0.079043415330066,-1.06721100726555,0.0363888226407222,-0.19477038710933,1.37462304633493,-0.0419634450531363,0.211487284818686
4.375,-0.765011688304221,-0.00076558398667492,1.02448053162745,-0.368113340654412,0.584434441611886,-0.0617050949981085,-1.26992322626617,0.101603906258652,-0.217647382460599,0.260183613386639,-0.337628900110947,-0.306595004799588,-1.09374920263794,0.551612330451711,0.0708185897128426,0.163095522729983,-0.463273513257078,0.1177278137998,-1.06760512022571,0.0470112348494492,-0.201201177957073,1.31708965159527,-0.0466845373161157,0.176576607044907
4.38,-0.75961368842908,0.0188820121617913,1.02643102245343,-0.349199089219153,0.588032602928284,0.00383045330438894,-1.22949452932755,0.124956957082031,-0.234245121684234,0.261134313414751,-0.281036443452939,-0.329777519250866,-1.09449107068468,0.487483818340026,0.0741021683554126,0.155855931681788,-0.464588578211957,0.147382817334249,-1.06602281859779,0.0569486474455754,-0.20530950525114,1.26098093417282,-0.0505756850545351,0.139007815135148
4.385,-0.75226218969702,0.0393967780102165,1.02076613522406,-0.322525558339494,0.579663458967702,0.0570047573215544,-1.18603466021491,0.145586291369506,-0.252971856522238,0.266338780246952,-0.234858647934813,-0.344515738236481,-1.09305146347635,0.420135703984894,0.0771865694316075,0.155031847011137,-0.463499488321816,0.167454996962164,-1.06254199230839,0.065724458223907,-0.206901694309546,1.20688921847989,-0.0534171774376987,0.0989918091777389
4.39,-0.743176677691608,0.0601930241710048,1.00827079035053,-0.288676031739777,0.561451861114346,0.0993571365971363,-1.14097229863111,0.163239022714722,-0.272887974791268,0.275713185153598,-0.199064775055249,-0.351060005085584,-1.08954422291959,0.351981602570781,0.0800366436661821,0.160494738238603,-0.460184543220741,0.17781063366607,-1.05730339448812,0.072879525818872,-0.205922634923936,1.15534528103905,-0.0549838363022211,0.0569016573722187
4.395,-0.732599600732377,0.0804823994962557,0.990137318207615,-0.248306081503648,0.535561819399901,0.132555937077383,-1.09585795275279,0.177723779412465,-0.292966478136954,0.289152935499029,-0.173282419339477,-0.349871252041656,-1.08415471804311,0.285424191469751,0.0826319267689207,0.172047264610451,-0.454889626613956,0.178747885661841,-1.05050296387347,0.0779509417333932,-0.202412346219558,1.10681485195397,-0.0550595055690063,0.0132751122989754
4.4,-0.720811426158454,0.0993962224858869,0.967846760682793,-0.202132761053678,0.504098575030904,0.158270095631486,-1.05225395057416,0.188928344125623,-0.312176372402848,0.306546403858804,-0.156834792431331,-0.341603618375919,-1.07713228984825,0.222702147954246,0.0849430365658873,0.189437352931579,-0.447922667832798,0.170977654913908,-1.04239459509665,0.0805078096028656,-0.196517054873867,1.06169825448538,-0.0534459428041971,-0.0311908774318016
4.405,-0.708126843506355,0.116123974383317,0.943008336723724,-0.150933557157589,0.469026159184525,0.178084486801677,-1.01161533885705,0.196843350241788,-0.329564415713016,0.327763434156757,-0.148792800100426,-0.327081443230071,-1.068776627392,0.165755758373165,0.0869049992455849,0.212348905463372,-0.439642100233123,0.15556806314737,-1.03329345887731,0.0802049992551038,-0.188514147553114,1.02033787827002,-0.0499873953997982,-0.0756701777103898
4.41,-0.694881896728416,0.130033987981789,0.917206848595425,-0.0955447011521326,0.432106651231567,0.193449449664458,-0.975184534323806,0.201587041887339,-0.344324410327616,0.352635450748024,-0.148038030009458,-0.307267568154818,-1.05942324172423,0.116116534619306,0.0884003737408328,0.240387286696016,-0.430440849354726,0.133864003939286,-1.02357206742595,0.0768092888533527,-0.178794832648782,0.983032959725869,-0.044601064795431,-0.119249214055635
4.415,-0.681423829630365,0.140732370547809,0.891893184732372,-0.0368569362303959,0.394861008033525,0.205658332187497,-0.943915444810166,0.20342426727336,-0.355843681594296,0.380931632611703,-0.153332547307807,-0.283224087153333,-1.04942572230655,0.0748481660229732,0.0892607654531279,0.273064407313461,-0.420726949857556,0.107393350645899,-1.01364300445247,0.0701977113825694,-0.167805844791866,0.950058446178577,-0.0372996502630673,-0.160970463228344
4.42,-0.668112498206786,0.148012396536963,0.868333932958533,0.0241937552211048,0.358538437348458,0.215812454811895,-0.918432425268236,0.202774161249818,-0.363728532566641,0.412345660571956,-0.163385570087088,-0.256065600174633,-1.03912509061505,0.042555888353805,0.0892889233552138,0.309797699578676,-0.410901895109665,0.0777734565894225,-1.00392419541845,0.0603165024345279,-0.155971667996089,0.921661001218507,-0.0281921558255227,-0.199870064123997
4.425,-0.655302641132568,0.151796255474296,0.847564807582887,0.0866408351738003,0.324083664585839,0.224729615872824,-0.899017947230894,0.200187220432634,-0.367801608041987,0.446509585240667,-0.176907998881361,-0.226906781631663,-1.02882252610051,0.0194162080623304,0.0882733011779026,0.349938462434353,-0.401340109859476,0.0466329371332423,-0.994810457454261,0.0471575082538982,-0.143662456405749,0.898012772814001,-0.0174572490344068,-0.234995140090356
4.43,-0.643287512671264,0.152209008799156,0.830296535455102,0.149494440425015,0.292129147230931,0.23287941118677,-0.885622179800037,0.196289332027072,-0.368074564156061,0.483002353389653,-0.192661878908374,-0.196818147749236,-1.0187804404102,0.00518793500986199,0.0859864561674598,0.392793531126455,-0.392373718670777,0.0155426879325156,-0.98666742419891,0.0308512626839588,-0.131245890885252,0.879181184146678,-0.0053240120394511,-0.265417632859571
4.435,-0.632264710751127,0.149667687895499,0.816864133505827,0.211747963972532,0.263041976637963,0.240438052257374,-0.87789740944791,0.191730560870441,-0.364725358271983,0.521333930578845,-0.209511317545689,-0.166794779023157,-1.00923005205421,-0.000741323373535518,0.0822015979483914,0.437619371107322,-0.384282627434481,-0.0140580117452183,-0.979821157824714,0.0117759617858212,-0.119125263835479,0.865165959834905,0.0079123191548206,-0.290286404307477
4.44,-0.622369556260671,0.144809386377597,0.807306666486459,0.27241069972822,0.236980356620094,0.247385968702403,-0.875257048025755,0.187155291093039,-0.358086124175284,0.560946130484363,-0.226460972808149,-0.137727831430544,-1.00035968229836,0.000751372660215385,0.0767240855297449,0.483631045141638,-0.377288264768573,-0.0409264414536455,-0.974537176427201,-0.00949445717514767,-0.10769351085765,0.855937218653226,0.0218736111186234,-0.308894974719208
4.445,-0.613710779326552,0.138352005993398,0.801464329501794,0.330553596078974,0.213908417274144,0.253553221891413,-0.876951918509482,0.183166471047897,-0.348617513850103,0.601238988575093,-0.24267375343575,-0.110380237998962,-0.992317137799005,0.00861497207194476,0.0694162744933922,0.530034597255532,-0.371551226416243,-0.064055997515296,-0.971013793225785,-0.0322827720686929,-0.0972860818809214,0.851416564097647,0.0361095409523151,-0.32071265284151
4.45,-0.606358481374255,0.131034345961451,0.798995562274893,0.385330834563675,0.193617611147165,0.258646538521148,-0.882150879353262,0.180283509176441,-0.336866956683086,0.641585961216051,-0.25748113478012,-0.0853729212127275,-0.985241058376102,0.0216664036417832,0.0602161863277372,0.576045549310792,-0.367171003837504,-0.0827024337069333,-0.969389014581407,-0.0558109077469231,-0.0881726548457901,0.851461016351737,0.0501158615540327,-0.325408145308057
4.455,-0.600335125975107,0.123584772243974,0.799408615874379,0.435978683661417,0.175787435762214,0.262296872815269,-0.890005282816516,0.178911607436194,-0.323430670951909,0.681333235050213,-0.27039268559253,-0.0631799423364516,-0.979273619981707,0.0386297229037504,0.0491395861654085,0.620889629763894,-0.364186802790614,-0.0964007844173261,-0.969747455572726,-0.0792759018921103,-0.080526344918691,0.855878552472835,0.0633542946916148,-0.322878331886731
4.46,-0.595634540275215,0.116655638407379,0.802146844636655,0.481816470821333,0.160028865966466,0.26410907350843,-0.899696113493996,0.179312187899059,-0.308927164927838,0.719801194134059,-0.281097155340105,-0.0441329489528163,-0.974544170987067,0.0581973590384193,0.0362809685735651,0.663803276855106,-0.362582526406528,-0.104961561729062,-0.972120090684869,-0.102002122676166,-0.0743808138560553,0.864418787363662,0.0752908992825865,-0.313229251379426
4.465,-0.592231631423154,0.110768760886348,0.806636902543435,0.522258672925589,0.145903120514299,0.263704638764587,-0.910480869980152,0.181578132749071,-0.293975131394215,0.756298610695645,-0.289452515151145,-0.028431671000477,-0.971161613662675,0.0791031362931617,0.0218408607878021,0.704044583820364,-0.36229571226911,-0.108450691282578,-0.976471929376346,-0.123468387773415,-0.0696235161278852,0.876740010925296,0.0854446699893905,-0.296727640810404
4.47,-0.590078623684972,0.106295671859706,0.812292793866629,0.556830666108202,0.132962482295961,0.260758702471973,-0.921731535798128,0.185635812221464,-0.279166848600827,0.790150969496624,-0.2954681444685,-0.0161535898430024,-0.96921336229815,0.100198725106817,0.00614664225150362,0.740917917359882,-0.36322620692071,-0.10716258068856,-0.98268640925323,-0.143236060993788,-0.0660259441533395,0.892398695219575,0.0934313470067988,-0.273777136867598
4.475,-0.589110577918114,0.103449308308646,0.818539079586586,0.585180518204353,0.12080318173435,0.255025472805068,-0.93293833491952,0.191273971450178,-0.265036242175423,0.820732842198908,-0.299279238514313,-0.00726489437118341,-0.968738576604775,0.120533617788105,-0.010375230621207,0.773801997379002,-0.365243581662683,-0.101587854454935,-0.990556596525978,-0.160902051004073,-0.0633339248507764,0.910862457660764,0.0989904835733735,-0.244917110344728
4.48,-0.589254373329112,0.10228994453623,0.824850322132793,0.607089099251754,0.109090201349374,0.246348866360838,-0.943691538761447,0.198188441279467,-0.252028539066402,0.847498465623934,-0.301111732628692,-0.00163760822261991,-0.969698242492829,0.139394701156364,-0.0272624537487527,0.802174211329797,-0.368195642362332,-0.0923760137530459,-0.999793459582977,-0.176123948529487,-0.0613446806206323,0.931532100006779,0.101971924727492,-0.210827058533331
4.485,-0.590422303827385,0.102753179340633,0.830774208951527,0.622465184151151,0.0975590343824648,0.234660850831491,-0.95367902605144,0.206022812328389,-0.240474539464617,0.869995118250708,-0.30124789094214,0.000927726633890069,-0.971993699071329,0.156260705415296,-0.0440664792297412,0.825617697791327,-0.371916479040509,-0.0802898965200511,-1.01005888144331,-0.188708547395501,-0.0598366096673302,0.953761034796611,0.102316501526191,-0.172303138788255
4.49,-0.592503067232694,0.104682768322326,0.835948204960861,0.631311409042021,0.0860221527203711,0.219975505847601,-0.962687527804697,0.214388465807155,-0.23057852126069,0.887844606393961,-0.300005110494474,0.000677562881337357,-0.975495860777602,0.170769410319344,-0.0603608885688462,0.843798968798565,-0.376230907970136,-0.0661557373440566,-1.02099272892555,-0.198589682369092,-0.0585339909770742,0.976862257319967,0.100082294536944,-0.13019708798743
4.495,-0.595370837777024,0.107879001593162,0.840112734290717,0.63370210289356,0.0743651522743859,0.202389696274668,-0.97057441213904,0.22288990309906,-0.222432495072326,0.90072982148545,-0.297716572330254,-0.0021148957324818,-0.980028401171727,0.182770283267057,-0.0757399995177964,0.85645061333818,-0.380958487888203,-0.0508286033987784,-1.0322116421458,-0.205651998094556,-0.0572732282594888,1.00011876898292,0.095443162017062,-0.0853987502855055
4.5,-0.598883414952261,0.112170449989311,0.843082910697274,0.629801181950557,0.0625243400039859,0.182095177674034,-0.97724529486567,0.231173448081397,-0.216036218062767,0.90841463595564,-0.294703968489811,-0.00716125204719092,-0.985362359921256,0.192323061940322,-0.0898417505067298,0.863386658137506,-0.385918738998689,-0.0351736735614964,-1.04332060449025,-0.209710276757347,-0.0560465483062383,1.02280958481042,0.0886161695032054,-0.0388798686695817
4.505,-0.602854426234324,0.117445594224356,0.8447022648883,0.619870211263978,0.0504958285748669,0.159390779048844,-0.982670136197952,0.238957410899602,-0.21129698074095,0.910758867398134,-0.29125955041028,-0.014164855300034,-0.991259622314543,0.199592697581603,-0.102376733333973,0.864516510762117,-0.390934268275463,-0.0200343235354576,-1.05395548253582,-0.210709404620425,-0.0547913352920629,1.04423571845569,0.0798315653138667,0.00831618487418882
4.51,-0.607058913465835,0.12361241008136,0.844866810046991,0.604242926344312,0.0383744147605395,0.134680321943424,-0.986891746403745,0.246023823300839,-0.208029713762658,0.90770840513445,-0.287642826767336,-0.0228304449811189,-0.997490460251699,0.204804017085498,-0.113140229883841,0.859836713577828,-0.395833927853841,-0.00618343350547553,-1.06380725461883,-0.208817434691617,-0.0533082327640203,1.06373727212737,0.069375249219619,0.0551620515467659
4.515,-0.611287422594524,0.130550091572212,0.843599400035975,0.583307935091676,0.0263447333910655,0.108454925302115,-0.990002605915246,0.252207961071986,-0.205977698364147,0.899289050388499,-0.284071950851407,-0.0328767116537228,-1.0038062890652,0.208280850387649,-0.122011797075002,0.849424130440735,-0.400459045171523,0.00571796402336849,-1.07261188937324,-0.204357000874741,-0.0513945719138663,1.08070596952659,0.0576017663176679,0.100716762089292
4.52,-0.615372606109541,0.138095132952947,0.841059238820758,0.557506501702671,0.0146205968912733,0.0812646179480459,-0.992128967968992,0.257392592295217,-0.204836460792772,0.885607349474907,-0.280706691837095,-0.0440477641861001,-1.00994098657295,0.210431245332819,-0.128943593125209,0.833434479271983,-0.404669104988416,0.0151506595843179,-1.08014838070279,-0.197771451352931,-0.0489005536983025,1.09459680986029,0.0449064475223634,0.144163916446112
4.525,-0.619163301982343,0.14604331601091,0.83747673394711,0.527315579739626,0.00340657149099939,0.0536868563045719,-0.993430676414873,0.26148620756932,-0.204273436480556,0.866839286010101,-0.277641203427258,-0.056121580107932,-1.01565078514031,0.211676856149812,-0.13393354038621,0.81208996915241,-0.408345016362641,0.0217584406364017,-1.08625378426873,-0.189584456346894,-0.0456866283611329,1.1049448574187,0.0317148700159232,0.184851541823539
4.53,-0.622502397070367,0.154164001258933,0.833097218370279,0.493225149964476,-0.00710043220211987,0.0263026430750296,-0.994087992150515,0.264403759033036,-0.203956065371089,0.843217320891306,-0.274910555870486,-0.0689135610652209,-1.02073605188078,0.212419312673469,-0.136998865536921,0.785665720506613,-0.411392819579248,0.0253480641956988,-1.09082454261632,-0.180269258452142,-0.0416520401370051,1.11138700934512,0.0184764131662915,0.222302589756038
4.535,-0.625233578448094,0.162229772698668,0.828159256615951,0.455735554789908,-0.0167046929842243,-0.000316225440783025,-0.994277328095203,0.266072569896675,-0.203583960212982,0.81503418777444,-0.272500152600684,-0.0822733365820607,-1.02503504755085,0.213036294504747,-0.138167008978139,0.754492584131851,-0.413747858552755,0.0258690578885149,-1.09380346310354,-0.170159089671686,-0.036801688450046,1.1136804403308,0.00563100113128324,0.256178348701011
4.54,-0.627215039516066,0.170038108827993,0.822882822077507,0.415368692390992,-0.0252113296430994,-0.0256151545767686,-0.994155270750401,0.266445535000971,-0.202910757338927,0.782656178382272,-0.270353985504381,-0.0960769496209563,-1.02841748014326,0.213863647034569,-0.137479739167564,0.718970178538723,-0.41537708174245,0.0233907513768677,-1.09517223907763,-0.159474776068538,-0.0312447786785255,1.11171358076435,-0.00643029454678942,0.286237264978394
4.545,-0.628328329601483,0.177416464880164,0.817460266289384,0.372677428053609,-0.032427110407498,-0.049065498480501,-0.993848716028248,0.265505633215399,-0.201756080791124,0.74653307750701,-0.268383612490357,-0.110218621169914,-1.03078299717187,0.215171635239539,-0.135001515449782,0.679577251570903,-0.416279640440543,0.0180823666864653,-1.09494964242298,-0.14838220171501,-0.025144370495649,1.10551002704541,-0.0173891322569064,0.312313416452873
4.55,-0.628485826018632,0.184221858805424,0.812050646908969,0.328252144132414,-0.0381655631499449,-0.0701734198245676,-0.993445021907139,0.263269735902188,-0.200011694962783,0.707203687230769,-0.266478161158226,-0.124603466870173,-1.03205812123105,0.217153977091065,-0.13082673919986,0.636877635196402,-0.416486799896067,0.01019259031753,-1.09318526995722,-0.137009243524156,-0.0186818561363636,1.0952258136569,-0.0270111550689475,0.334306505681508
4.555,-0.627637453163498,0.190332496214938,0.806770154981394,0.282722337791596,-0.0422557341851234,-0.0884936430811967,-0.992985050978239,0.259800748490093,-0.197636984506656,0.665295489047739,-0.264513649729194,-0.139140828651658,-1.03219242562773,0.219934750656851,-0.125084037616234,0.591520404413642,-0.416059827764763,2.75669414608465e-05,-1.08994663914537,-0.125414388821906,-0.0120596091024013,1.08114216320108,-0.0351526667242119,0.352169221313968
4.56,-0.625773966432954,0.195645444609914,0.801689265983787,0.236742361938588,-0.0445490520351734,-0.103661698131184,-0.9924564435562,0.255222912770183,-0.194653083335072,0.621510568915688,-0.262359976689938,-0.153738932033318,-1.03115438343835,0.223569886578538,-0.117944524217683,0.544226483393647,-0.41508354533931,-0.0120731248507371,-1.08531173798057,-0.113585062945524,-0.00550049709953856,1.06365668746062,-0.0417696382388627,0.365879450839872
4.565,-0.622927974142489,0.20010330148671,0.796855353262722,0.190976427885857,-0.0449333846343843,-0.11542784305289,-0.991788758373016,0.249713915892366,-0.19115626565085,0.576608983638018,-0.25988867972708,-0.168299601733773,-1.02892661761323,0.228019027818707,-0.109626542348532,0.495773271874624,-0.413658791085353,-0.0257574526420579,-1.07937601875472,-0.101543331076825,0.000804784954826007,1.04326984706571,-0.0469189393441489,0.375426977000842
4.57,-0.619176225842102,0.203714657414581,0.792313648694982,0.146115171891429,-0.0433621467448922,-0.123651395475399,-0.990866287741448,0.24346743455189,-0.187328919069912,0.531414969143479,-0.256983562580103,-0.182711187495383,-1.02550455218681,0.233136832777413,-0.100375103976612,0.447002542044909,-0.411900547797645,-0.040671977175722,-1.07225371204839,-0.0894176434740209,0.00674035219487739,1.02056264044627,-0.05073800089975,0.38084698208382
4.575,-0.614640364543392,0.2065312915673,0.788091146102241,0.102901685571818,-0.03987530383736,-0.128269230828831,-0.989559420927739,0.236669290533056,-0.183407933141067,0.486829502894419,-0.253547101123143,-0.196843565650534,-1.0209008587785,0.238729929995139,-0.0904288926611447,0.39883380118504,-0.409938051169069,-0.0564692739399387,-1.06405840031014,-0.0773483995641304,0.0122296377466087,0.996172631377517,-0.0534211608427761,0.382247522026618
4.58,-0.609479040846813,0.208615244044838,0.784169366552906,0.0621196615476065,-0.0345920458342361,-0.129285980669351,-0.987753554218644,0.229505018429799,-0.179630522020945,0.443810494116799,-0.24949766075591,-0.210549911552059,-1.01515111011814,0.244621487714909,-0.0800065865541143,0.352244171985535,-0.407907882590107,-0.072818346079677,-1.05488697860915,-0.0653939976972465,0.0171953877884022,0.970774972025848,-0.0552093012483486,0.37978465025008
4.585,-0.603873356658331,0.210027014008038,0.780486258446365,0.0245517963718122,-0.0276862961349696,-0.126784400179372,-0.98536376043636,0.222163604249995,-0.17620306277495,0.403327347940823,-0.24476315003817,-0.223673445772114,-1.00831736394359,0.250663367536072,-0.0693067811740939,0.30822259784032,-0.405942429387909,-0.0894113028011837,-1.04482387970874,-0.0535644801545622,0.021579821980852,0.945064394349916,-0.0563773614350587,0.373629296347239
4.59,-0.598017644380006,0.210822932036709,0.776969791386557,-0.0090599495178488,-0.0193648954657316,-0.12093087434759,-0.982339829344654,0.214824240200394,-0.173293704710848,0.366316391518322,-0.239277511519807,-0.236054800458378,-1.00049295611566,0.256716958133302,-0.0585022550058509,0.267725267908927,-0.404160232551852,-0.105964263283798,-1.0339506418728,-0.0418675763671814,0.0253817858016317,0.919736629819161,-0.0572098446911599,0.363957273076801
4.595,-0.592116796402495,0.211050577566871,0.773579119517323,-0.0380481620432671,-0.00986206721334315,-0.111973551267631,-0.9786689911949,0.207644459794964,-0.1710263852423,0.333638198759103,-0.232981195523242,-0.247538777609292,-0.99180818644193,0.262640337799649,-0.0477337212953225,0.231633077319712,-0.402658186579259,-0.122219449293995,-1.02235164378701,-0.0303029762428032,0.0286729667635421,0.895473208210578,-0.0579713303877602,0.350942346962416
4.6,-0.586378963115743,0.210746425722982,0.770319866727235,-0.0618546332424684,0.000553121952217215,-0.100238982015461,-0.974381051622498,0.200756350358828,-0.169467613072374,0.30603191416493,-0.225823746031683,-0.257981704353738,-0.982428983084837,0.268297248805124,-0.0371128119647911,0.200705914705295,-0.40150473124816,-0.137949414914257,-1.01011876465456,-0.0188580214771356,0.0315878354636648,0.872929455548691,-0.0588784606902858,0.334744819282898
4.605,-0.581003808316197,0.209942442821587,0.767223449549536,-0.0800673196639657,0.0115760639499575,-0.0861247247606385,-0.969557444005188,0.194267611030104,-0.16861073325579,0.284069341010726,-0.217764284066482,-0.267261177243753,-0.972546592671864,0.273587081587687,-0.0267317875452723,0.175536082562552,-0.400735044841222,-0.152957452891925,-0.997353158519257,-0.00751763434687514,0.0342869229236694,0.852721990916935,-0.0600794262598951,0.315504463029937
4.61,-0.576173568218754,0.208675493715925,0.764319190312284,-0.0924579215768183,0.0228854353990586,-0.0700832049854547,-0.964336445297978,0.188265376876049,-0.168372930877451,0.268111723604457,-0.208766303331299,-0.275288745657912,-0.962368191090842,0.278467207596307,-0.016671911037504,0.156503603296768,-0.400348378292227,-0.167069947383133,-0.984167407992452,0.00372554804856768,0.0369204767373121,0.835414560288325,-0.0616444484374543,0.293339431066252
4.615,-0.57204506494199,0.206985528108371,0.761631931744803,-0.0990108640709969,0.0341718403965824,-0.0526036160896215,-0.958900340940332,0.182817791550374,-0.168617690859034,0.258278738791394,-0.198791182033804,-0.28202093673137,-0.952115517196598,0.282932113598133,-0.00700406816416553,0.143743699600941,-0.400307824912827,-0.180125947919567,-0.97069686797929,0.0148474625362535,0.039624000799566,0.821504093870347,-0.0635633754524335,0.268350671054737
4.62,-0.568742936034522,0.20490824485475,0.759202200383927,-0.099931783603172,0.0451541650011914,-0.0342016432018478,-0.953448766053848,0.177972011187029,-0.169188584404847,0.254440820559232,-0.187799509335489,-0.287462330312617,-0.942024950956698,0.286968555100063,0.00221522554351447,0.137138616828577,-0.400543300948389,-0.191974959485868,-0.957113356431536,0.0257652002371037,0.0425274983503963,0.81140816243791,-0.0657450490655529,0.240633947057378
4.625,-0.566360312263131,0.20248012371641,0.757098291064643,-0.0956369085485618,0.0555774468985923,-0.0154126972874747,-0.948181214621793,0.173756399909607,-0.169927185004215,0.25623041471799,-0.175759170372803,-0.291661941439589,-0.932338705821546,0.290546015321004,0.0109427057684148,0.1363291722359,-0.400956863564276,-0.202483642428703,-0.943623400066213,0.0363458342976448,0.0457373775051732,0.805453794331428,-0.0680210496933367,0.210294265231344
4.63,-0.564962235552173,0.199751256757268,0.755407699688474,-0.0867335958929479,0.0652072184663262,0.00322080331912381,-0.943292894157316,0.17018894819889,-0.170674219374844,0.263060849423383,-0.162649828099627,-0.294709103433778,-0.92328774232398,0.293646945861284,0.0191410718839016,0.140733682042358,-0.40142852951955,-0.21154102363007,-0.930451852241379,0.046442317632618,0.0492988197744736,0.803869027192691,-0.0701605803894493,0.177452805207301
4.635,-0.56458310301634,0.196788083981861,0.754225949598776,-0.0739938797562308,0.0738295959970302,0.0211656992896083,-0.938967771865248,0.167283508149114,-0.171272946370068,0.274153575130083,-0.148461479433067,-0.296729822977463,-0.915077333225466,0.296286809037268,0.0267732600550855,0.149574853419243,-0.401822587628888,-0.219058458896287,-0.917829623307571,0.0559106742106685,0.0531769104765093,0.806778340108518,-0.0718956857126985,0.142247425814551
4.64,-0.565223818820739,0.19367165989595,0.753656122831482,-0.0583194979825394,0.0812503481200381,0.0379104642484335,-0.935366135686904,0.165051689898893,-0.171579141473104,0.288576097726639,-0.13319342276261,-0.297880960539077,-0.907882473165141,0.298505903734973,0.0338006203588059,0.161917460499117,-0.40199478191347,-0.22497115234478,-0.905991980181797,0.0646041330853264,0.0572626172553138,0.814199239146799,-0.0729503751309758,0.10483256869028
4.645,-0.566848362859224,0.190509712563663,0.753801358943848,-0.0407029601472227,0.0872874708773129,0.0529769016262726,-0.932617018304731,0.163503259346238,-0.171472408799788,0.305282425872152,-0.116856055708448,-0.298342569884845,-0.901847642607818,0.300349695288679,0.0401810068467296,0.176708872496546,-0.401798964611992,-0.229243964497461,-0.89517571839218,0.0723545842175745,0.0613966943934172,0.826038006437434,-0.0730679080602463,0.0653797567448247
4.65,-0.569364154325564,0.187457420165377,0.754724788898682,-0.0221800624369238,0.0917724005590525,0.065942979314367,-0.930821296588501,0.162639003933904,-0.170870148668334,0.323161369284741,-0.0994742009024413,-0.298308829835082,-0.897081854620115,0.301851108877751,0.0458669903397804,0.192828094935487,-0.401094397906929,-0.231872299472445,-0.885606971194833,0.0789345057774229,0.0654163747161968,0.842091294791022,-0.07202865596523,0.0240893633238474
4.655,-0.57260502028568,0.18470300655726,0.756405337814361,-0.00375963319668405,0.0945858537887926,0.0764849069613953,-0.930058593517387,0.162437595552027,-0.169736249819167,0.341114145753693,-0.0810905043755353,-0.297976617263726,-0.893649812394664,0.303032916008576,0.0508094981644432,0.209164804872231,-0.399758259519406,-0.232867234490051,-0.877483890926045,0.0840410489015962,0.0691940223356953,0.862061103111175,-0.0696535077797236,-0.01877297945087
4.66,-0.576361632320145,0.182382935382832,0.758760022719899,0.0136451620750297,0.0957072074492425,0.0844033503592104,-0.930379621660184,0.162860050697855,-0.168065337309464,0.358139048804841,-0.0617655415072723,-0.297534901595685,-0.891567692363224,0.303936466140582,0.0549642039249034,0.224704981356765,-0.397698987064474,-0.23223664077855,-0.87096289323439,0.0873660029292264,0.0726162512652717,0.885568985109867,-0.0658030240663959,-0.0628430018694596
4.665,-0.580436770708871,0.180516966569519,0.76172652578261,0.0292284609857444,0.0952127238448031,0.0895751608077495,-0.931785287826785,0.163870752548244,-0.165854955636587,0.373359876083522,-0.0415736842904616,-0.297160469248693,-0.89080933257426,0.304631164909251,0.0582849855124218,0.238558949122049,-0.394857794470498,-0.229988611549419,-0.866158705438265,0.088690443838844,0.0755295805951898,0.912147496415076,-0.0603882956130931,-0.107674610370846
4.67,-0.584660331437872,0.179081442791873,0.765310391292932,0.0422649086776843,0.0932164866722069,0.0918882426509978,-0.934217714675679,0.165435122105338,-0.163108094795049,0.386001994745414,-0.0206021941770021,-0.297019833914993,-0.891319471517553,0.305164764056087,0.0607051731855418,0.249936415601552,-0.391202098884045,-0.226152345457699,-0.863159567317137,0.0878882214789917,0.0777255711470581,0.941231735731287,-0.0533923822951978,-0.152782843827122
4.675,-0.588865978760759,0.178111411369703,0.76954513523317,0.0521167830173148,0.0898147183204667,0.0912702699133372,-0.937570662610653,0.167498321686597,-0.159859999440785,0.395383090851039,0.00104099622311118,-0.297271434372806,-0.893021388357489,0.305516546250579,0.062136402774672,0.258136571198846,-0.386726150172509,-0.220790475808325,-0.862034536109493,0.0848721250012866,0.0789733804371464,0.972188212702137,-0.0448894040188428,-0.197655803414564
4.68,-0.5928807035534,0.177648650636891,0.774417574336786,0.0582682928835009,0.0850769554895457,0.0877500081249364,-0.941707045807784,0.169990621789426,-0.156180247049033,0.400936005906741,0.023220117429146,-0.298063302834332,-0.89581623149605,0.305624685439464,0.0624934839642993,0.262571229764971,-0.381456310338586,-0.213997596730769,-0.8628179736168,0.0795857106762819,0.0790659705308207,1.00435394616866,-0.0350496249443572,-0.241745448216402
4.685,-0.596550752426964,0.177608842587851,0.779850904564091,0.0603229450544973,0.0790713428196889,0.081421449650789,-0.946473176591577,0.172852616041922,-0.152147327248412,0.402221156149997,0.0457746043325077,-0.299528869524359,-0.899593142628494,0.305430102975394,0.0617154156393357,0.262778253985711,-0.375448384626307,-0.205896288378267,-0.865497975598315,0.0720518230164186,0.0778534178330461,1.03704142415243,-0.0241242800116701,-0.284476142780155
4.69,-0.599767005791547,0.177779996867703,0.7857570260146,0.0579487916105471,0.0718713781635104,0.0723354815835422,-0.951704889415767,0.176035707741193,-0.147841040863679,0.398892848000438,0.068524984123484,-0.301787195002779,-0.904250481950631,0.304859100851512,0.0597658227700157,0.258388670122056,-0.368775332176907,-0.19664323139684,-0.870033182564164,0.0623987601283098,0.0752366633136758,1.06952746996676,-0.0124207896335624,-0.325280594387284
4.695,-0.602443467029655,0.177982320201718,0.792062859070661,0.0508458676485771,0.0635331776241809,0.0604593944663757,-0.957230782912354,0.179461715682639,-0.143386408574152,0.390666602519493,0.0912709676967308,-0.304944082522135,-0.90969678916003,0.303777534852064,0.056629256626699,0.24909454268039,-0.361519018839988,-0.186438888443081,-0.876381621001581,0.05077851945276,0.0711382159266586,1.10106913715794,-0.000289640172192324,-0.363628132806536
4.7,-0.604486531488103,0.17818348235382,0.798666622005125,0.0388204207020145,0.0540944820856108,0.0457801943922922,-0.962883103534747,0.182976190774026,-0.139013808954309,0.377379669288424,0.113785299092139,-0.309084131071369,-0.915838327611699,0.301979735916893,0.0523260116630085,0.23470997195538,-0.35378177581886,-0.175518677805295,-0.884514538768869,0.037260118330335,0.065513838692565,1.13094423159361,0.0118748247865122,-0.398996638206046
4.705,-0.605817213994674,0.178413244529744,0.805400833218209,0.0219008455208098,0.0436129943388344,0.0284362826636535,-0.96851595826808,0.186352424325096,-0.135051100993477,0.35910247022338,0.135812009090147,-0.314256632716923,-0.922594995887671,0.299214601295497,0.0469401063815898,0.215282795195329,-0.345705952101334,-0.164134516173629,-0.894409352403572,0.0218727884559844,0.0584088843482748,1.15847542719252,0.0236447340047654,-0.430823682845768
4.71,-0.606419168509659,0.178621071207918,0.812059227002213,0.000353361857746188,0.0322021225548374,0.00871980461506916,-0.974016123825349,0.189340091225844,-0.1318528251884,0.33616289424615,0.157069721578339,-0.320468701618722,-0.929927259402305,0.295218497065696,0.0406267662365533,0.191119332017727,-0.337474565729027,-0.152553654891154,-0.90603367349622,0.00473358467828566,0.0499786147705394,1.18302548992191,0.0345941307755154,-0.45851504305569
4.715,-0.606351741000424,0.178677373917591,0.818440339448621,-0.0253844024950281,0.0200328330014258,-0.013002322351545,-0.97929716691483,0.191693116928938,-0.129760969791778,0.309086226936743,0.177258199465311,-0.327688293081549,-0.937823138802559,0.289743341342689,0.0335918788619705,0.162724902407115,-0.329296370770097,-0.141067027398429,-0.919329605470946,-0.0139320136864207,0.0404436977231017,1.20399409298076,0.0443360038039001,-0.481492947898357
4.72,-0.605726971388418,0.178461271511494,0.824346201208763,-0.0547334952066334,0.00732004409442251,-0.0363124880977938,-0.984285620823173,0.193159219976656,-0.129117222624158,0.278562241779552,0.196069441363512,-0.33584787909544,-0.946254984531269,0.282586869037917,0.0260753114819992,0.130770850940948,-0.321397826120043,-0.129983927379015,-0.934194530266119,-0.0338481124417355,0.0300463911180075,1.22083150648263,0.0525388573527536,-0.499220535366671
4.725,-0.604687651942501,0.17789810284333,0.829550530300899,-0.0869512515571633,-0.00567752293322623,-0.0607099386415606,-0.988908805116973,0.193469888289189,-0.130269706885781,0.245463687926889,0.213203654706366,-0.344844401606612,-0.955147374868674,0.273624114783067,0.0183531114435213,0.0961121615530761,-0.314025026652331,-0.119615543824232,-0.950454027371875,-0.0546920131011143,0.0190475789929276,1.23305446764145,0.0589299965450466,-0.511206198148428
4.73,-0.603398592403671,0.176952823047791,0.833785107890644,-0.121110289948947,-0.0186468842233246,-0.0855825993994153,-0.993084913417719,0.19235523357627,-0.133547088236464,0.210864856737216,0.228388422497431,-0.354538659999051,-0.964364073486128,0.262833721512351,0.0107405723334078,0.0598049089231926,-0.307444516886605,-0.110260895825889,-0.96783250184321,-0.076041755000388,0.00774021544780818,1.24025778225918,0.0632980681029613,-0.517023236779639
4.735,-0.602041469494809,0.175609037806194,0.836764425048775,-0.156105243561322,-0.0312166180165741,-0.110201070297132,-0.996710079005824,0.189583648054108,-0.139204450487985,0.176028977330392,0.241398956592727,-0.364757190910379,-0.973701936771251,0.250319037354598,0.00357612599429149,0.0230928999363734,-0.301937154275193,-0.102197975640115,-0.985931030760803,-0.0973297900303629,-0.00354625594358498,1.24212612517117,0.0654969962775291,-0.516352270418601
4.74,-0.600819299195354,0.173825121792805,0.838244424044395,-0.190708263211236,-0.0429791005981342,-0.13375728361649,-0.999647946511284,0.185017568207326,-0.147355873319053,0.142342896163912,0.252076953515583,-0.37530007602897,-0.982896002821163,0.236318764122316,-0.00280825649464565,-0.0126579991887472,-0.297782177509916,-0.0956827466975397,-1.00421541929629,-0.117809691489365,-0.0144342754210721,1.23843970824138,0.065448634401102,-0.509041143747383
4.745,-0.599956297957888,0.171530004961562,0.838080428778634,-0.223685330620361,-0.0535489016299312,-0.155464765373866,-1.00174758170963,0.178659176736252,-0.157924626330021,0.111186862497539,0.260346620746834,-0.385955442170431,-0.991647531337697,0.221200556883571,-0.00809882013220012,-0.046089350572,-0.295228330411446,-0.0909557145530237,-1.02201391993621,-0.136521938035963,-0.0244579350859427,1.22907260939186,0.0631548159687031,-0.495182522965919
4.75,-0.599649076960128,0.168697934055496,0.836242345082027,-0.253919521802851,-0.0626173790443714,-0.174655210605522,-1.00287455294688,0.170662479984093,-0.17062460417699,0.083789992392743,0.26622612731625,-0.396512354538172,-0.999652257301324,0.205441565599706,-0.0120041222204335,-0.0759912662545503,-0.294459036493999,-0.0882406787260749,-1.03853981447052,-0.152309182888333,-0.0330642684378615,1.21400263943878,0.058729958946745,-0.475197124694034
4.755,-0.599986191754296,0.165402594773421,0.832801028254034,-0.280492044430631,-0.0699758369922498,-0.190815686679476,-1.00290673885789,0.161325427977121,-0.184960057242663,0.0611250456541635,0.269828724008011,-0.406768904359488,-1.0066032463965,0.189595138805242,-0.0143047188765771,-0.101403004871934,-0.295566452358841,-0.0877342177707479,-1.05296316967022,-0.16395382692994,-0.0397269099333626,1.19332920507957,0.052420092176799,-0.449888948529436
4.76,-0.600911829233063,0.161797143904055,0.827920668660074,-0.302744506607385,-0.0755332096121064,-0.203606512994999,-1.00173073060325,0.151077911736455,-0.200254260562757,0.0438307692661027,0.271349451108009,-0.416543220580258,-1.0122104630901,0.174236325612676,-0.0149134285368714,-0.121688048375649,-0.298540013241842,-0.0896015039524211,-1.0645247033634,-0.170391381041928,-0.0440684250081943,1.16727228691571,0.0445733647073373,-0.420439293829295
4.765,-0.602263232885251,0.158080010001835,0.821874853840492,-0.320331511289332,-0.0793243961544534,-0.212889906670005,-0.999296238660526,0.14045541494026,-0.215724809686129,0.0321566613145286,0.271041983000197,-0.425684117551099,-1.01627380669865,0.15989756213576,-0.0138652975506618,-0.13658744784624,-0.303263803047505,-0.0939744280172325,-1.0726542458651,-0.17087766392493,-0.0458944954214069,1.13615492100638,0.0355975965306735,-0.388342178175917
4.77,-0.603831461865743,0.154477961310144,0.81507112633325,-0.333240127916848,-0.0815026905894708,-0.218757080338152,-0.995674411832879,0.130050235025917,-0.230578753019573,0.0259493393928002,0.269192716728975,-0.43407214093036,-1.0187490412686,0.147013448855569,-0.0112868847446949,-0.146229941262731,-0.309518146559028,-0.100943148245599,-1.07707140442594,-0.165120673340835,-0.0452256382004385,1.10037907939173,0.0259382036195484,-0.355308240169781
4.775,-0.605390550839586,0.151238055111035,0.808014549605313,-0.34177064144738,-0.0823334019537157,-0.221524831441414,-0.991059903753034,0.120440894846841,-0.24409281684448,0.0246838027320153,0.266093845276742,-0.441618651174221,-1.01975273572497,0.135870071081641,-0.00742040016528189,-0.15109882050145,-0.316993383688942,-0.110543947460356,-1.07785672518647,-0.153436527233056,-0.0423525381282981,1.06039396078894,0.016046968590877,-0.323123946731502
4.78,-0.606716492494561,0.148593494881909,0.801212100585136,-0.346494853267365,-0.08216793222778,-0.221677671553102,-0.985744686796032,0.112118013174582,-0.255673955260604,0.0275221766341072,0.262015192972448,-0.448274382058688,-1.01953630265758,0.126566451451346,-0.00264033249288571,-0.151976256557103,-0.325321441732278,-0.122745888131429,-1.07545542156874,-0.136811317600041,-0.0378097322657725,1.01667090762534,0.00633239171056713,-0.293453452348161
4.785,-0.607633334253414,0.146682091931427,0.795110430056931,-0.348212170527558,-0.0813945323527674,-0.219803360681984,-0.980090539595468,0.105433417049172,-0.264908750959887,0.0333804150558844,0.257181516971955,-0.45404145106978,-1.01845101090054,0.119022500931075,0.00260482490206168,-0.14988221795166,-0.334112035037756,-0.137439831615435,-1.07058983370386,-0.116752698129007,-0.0322706288681828,0.969692286092911,-0.00287364539858323,-0.267646710860884
4.79,-0.608059728923177,0.145490156797758,0.790081940370793,-0.347895011055749,-0.0803989597807072,-0.216568685020485,-0.974490071196755,0.100570558787572,-0.27159615246113,0.041013021907617,0.251763675093757,-0.45897634742343,-1.01689556597028,0.113028990245737,0.00787648203205155,-0.145994921536534,-0.342982852726601,-0.15443305362092,-1.06412732188315,-0.0950243029031992,-0.0264635927186592,0.919944644442926,-0.0113241448268468,-0.24661838612449
4.795,-0.608021079402812,0.144886667833435,0.786411864676862,-0.346615123793818,-0.0795462278525891,-0.212693308687389,-0.969315754788043,0.0975303473998,-0.27574453879998,0.0491122205129829,0.245881727096589,-0.463185893578974,-1.01525905437255,0.108301757607811,0.0127938162860841,-0.141557162596485,-0.351585323676761,-0.173454717402501,-1.05696534257364,-0.07339174353921,-0.0211438480176056,0.867912751218285,-0.0188637348139117,-0.230802984597127
4.8,-0.60762382002573,0.144694348264462,0.784260067479389,-0.345467879909855,-0.0791755004880054,-0.208883185088959,-0.964870930661448,0.0961477486929361,-0.277541538866963,0.0563908753632978,0.239613085105493,-0.466823415537946,-1.01387656516044,0.104518953449802,0.017059831504708,-0.137799951004209,-0.359625372434563,-0.1941776967105,-1.04993972752941,-0.0534215791930606,-0.0170711070961346,0.81407765280793,-0.0254498954786369,-0.220174886696612
4.805,-0.607005859851986,0.144726984633223,0.783606397509299,-0.34550032490424,-0.0795822455920716,-0.20576100355257,-0.961357186792807,0.0961392558681598,-0.277321804241305,0.0616529274474677,0.233001287464229,-0.470078466210648,-1.01300273371672,0.101337890018357,0.0204973478451066,-0.135876567828432,-0.366875394760065,-0.216249194554411,-1.04374342698075,-0.0363503222895495,-0.0149305972704565,0.758921950662469,-0.031171945975012,-0.214319049298223
4.81,-0.606304564812047,0.144800604430447,0.784261164727781,-0.347640869504925,-0.0809739098547336,-0.203834342777367,-0.958866583432782,0.0971554938745238,-0.275525506735517,0.0638662747835958,0.226063282628481,-0.473153460336137,-1.0127979319103,0.0984180030303718,0.0230691653744598,-0.13678939107436,-0.373176268316443,-0.239318185857943,-1.03887111448557,-0.023029827491094,-0.0152390919161242,0.702940590957322,-0.0362402272392012,-0.21253110126661
4.815,-0.605664944292495,0.144748123536484,0.785981574100542,-0.352642021254309,-0.0834519788172946,-0.20348550805982,-0.957391210048527,0.0988215308618273,-0.272635912052459,0.0622199369689107,0.218799053312647,-0.47623982259944,-1.01331176264486,0.0954726026953012,0.0248452213690889,-0.141330577451984,-0.378433334958922,-0.263054379727434,-1.03560109754926,-0.0139430992237287,-0.0183230934407752,0.64665018591522,-0.0409585333132605,-0.213923775233655
4.82,-0.605232481748853,0.144441011583408,0.78855537353228,-0.361043881016959,-0.0870605279469204,-0.204956916062919,-0.956844135384475,0.100761867491178,-0.269119598154025,0.056151610963713,0.211207548066976,-0.479506894570948,-1.01447722415045,0.0923078527110527,0.025964997281368,-0.150054038180211,-0.382612045653442,-0.287154112830592,-1.03399971130552,-0.00925226457142662,-0.0243229547227463,0.590594143751975,-0.0457046053976091,-0.217514789653027
4.825,-0.605088617076588,0.14380756528007,0.791747279927863,-0.373146992604828,-0.0918212228304294,-0.208331689306447,-0.957094431069468,0.102613264017271,-0.2653905726791,0.0453656702762974,0.20330058923458,-0.483093779333461,-1.01614415284645,0.0888101046348813,0.0266478588304613,-0.163256198405748,-0.385733224179133,-0.311334731660112,-1.0339439245727,-0.00882396382101775,-0.0331573198315705,0.535344840934057,-0.0509001106571036,-0.222298748304016
4.83,-0.605205115254122,0.142825622475884,0.795250039410526,-0.38899098831065,-0.0976866410099977,-0.213522852713069,-0.957996910129576,0.104038936373124,-0.261794960992129,0.0298532491771842,0.195104865849946,-0.48709422148012,-1.01812464993075,0.0849188662355641,0.0271902028206549,-0.180951580724047,-0.387866114328492,-0.335327857153243,-1.03517018272964,-0.012258283505246,-0.0445243196002867,0.481504128542988,-0.056959454708361,-0.227319420573556
4.835,-0.605483675630817,0.141499735826169,0.798761638338957,-0.408351691490068,-0.104495673828479,-0.220285024813986,-0.959403574926684,0.104744227973794,-0.258615721165349,0.00989889859063549,0.186658324266076,-0.49154542569302,-1.02021485955424,0.0806260109659271,0.0279268276670789,-0.202862316663171,-0.389121983378621,-0.358876573999062,-1.0373276819165,-0.0189483190146216,-0.0579733939912808,0.429700410377274,-0.0642519032192369,-0.231727542684103
4.84,-0.605812222638785,0.139871302377496,0.802077971033659,-0.430745036956529,-0.111997363453628,-0.228235872121296,-0.961177681600857,0.104477615490714,-0.256086372813606,-0.0139238384898358,0.178010551888491,-0.496422906793184,-1.02221302427586,0.0759811739801645,0.0292330841916254,-0.228420506693445,-0.389647538320837,-0.381735747266235,-1.04000761381373,-0.0281219113922178,-0.0729517627675413,0.380571743037373,-0.0730835850252939,-0.234824267444085
4.845,-0.606070100543489,0.138047659354258,0.805094406293026,-0.455422954420356,-0.119889079154067,-0.236858620468839,-0.963210032919065,0.103023657643443,-0.254387232127628,-0.0407593174551578,0.169223847931502,-0.501632203785348,-1.02394260276283,0.0710790670731819,0.0315413816827219,-0.256771935697969,-0.389613687653328,-0.403674704209669,-1.04276422561373,-0.0388765904053148,-0.0888170399660728,0.334732639594263,-0.0836699434861742,-0.236110640021611
4.85,-0.606107181450364,0.136177638365008,0.8077445126772,-0.481384930465721,-0.127830435830648,-0.245492933247239,-0.965412310062546,0.100207900060438,-0.253628187006959,-0.0694969485888567,0.160370044197255,-0.507004930163748,-1.0252623218958,0.0660341564688477,0.0352868226853776,-0.286800193588375,-0.389202443769305,-0.424481356401654,-1.04515874689046,-0.0502488958278033,-0.104909893182853,0.292743870090567,-0.0961083321562928,-0.235327429803235
4.855,-0.605740627860582,0.134360364524987,0.809947101334707,-0.507432442580648,-0.135439287870914,-0.253358142042015,-0.967695773756781,0.0959206154094329,-0.253839315174072,-0.0988312936430693,0.151521457487256,-0.512308686728901,-1.0260748065419,0.0609429993353707,0.0408025949242602,-0.317186917456259,-0.388597477076379,-0.443973715414232,-1.04682535364271,-0.061300648651296,-0.120669074478107,0.255101325856253,-0.110388906955096,-0.232467316513151
4.86,-0.604807242834635,0.132565998025405,0.811644413741412,-0.532277081479544,-0.142292033788204,-0.259643388993764,-0.969981860178399,0.0901543214478576,-0.25497151251361,-0.127361594732222,0.142735264674115,-0.517270033203037,-1.02635211048238,0.0558510290770364,0.0482327732042513,-0.346513995653962,-0.387976384548769,-0.462019466029908,-1.04752750331233,-0.0712238819771154,-0.135642236383753,0.222237726009186,-0.126436225977269,-0.227757003594246
4.865,-0.603244888917488,0.13066042362255,0.812897932136353,-0.55468216329431,-0.147967653123267,-0.263636535348662,-0.972252752595691,0.083020683931723,-0.256915188937484,-0.153723940780571,0.134042924705435,-0.52160758163345,-1.02615505904359,0.0507621693106481,0.0575194533044356,-0.373398580564388,-0.387500330608114,-0.478537464463886,-1.0471680430327,-0.0794454377523224,-0.149367331748129,0.194520419179327,-0.144118658490123,-0.221596077993005
4.87,-0.601101604848602,0.128503106326764,0.81388055836013,-0.57356158800142,-0.152109012765266,-0.26480091664768,-0.974570767496809,0.0747165252722445,-0.259544615640056,-0.176690684031593,0.125455034152415,-0.525061207634822,-1.0256115651123,0.0456718076472458,0.0684700260825254,-0.396594015483592,-0.387305429213712,-0.493467983237316,-1.04575508943194,-0.0856590577595665,-0.161305076960518,0.172239549013275,-0.163206110771493,-0.214466888885017
4.875,-0.598474579424666,0.126000165252654,0.814768590856013,-0.587996439620071,-0.154435585861321,-0.262775815825031,-0.977035213167741,0.0654717567326243,-0.262764585923568,-0.195188529679208,0.116970708404694,-0.52740336701519,-1.02486784771796,0.0405748965513933,0.080833934339417,-0.415008327623009,-0.387502581837028,-0.506741713925183,-1.0433615273316,-0.0897923253634075,-0.1708923277639,0.155594042182183,-0.183335016263577,-0.206855969611118
