Header,foot_Accel_X,foot_Accel_Y,foot_Accel_Z,foot_Gyro_X,foot_Gyro_Y,foot_Gyro_Z,shank_Accel_X,shank_Accel_Y,shank_Accel_Z,shank_Gyro_X,shank_Gyro_Y,shank_Gyro_Z,thigh_Accel_X,thigh_Accel_Y,thigh_Accel_Z,thigh_Gyro_X,thigh_Gyro_Y,thigh_Gyro_Z,trunk_Accel_X,trunk_Accel_Y,trunk_Accel_Z,trunk_Gyro_X,trunk_Gyro_Y,trunk_Gyro_Z
53.74,-0.639350802260079,0.268221159821076,0.796523290542855,-0.120347505713307,3.56356296368852,-0.683136367262332,-1.20809724186165,-0.126669352842882,-0.25224429813377,0.130303512753422,1.72877727237703,-1.1107394704854,-1.12741210398892,-0.157389617948559,0.369927849038066,-0.418772077297658,0.435328772677917,0.373916373350632,-1.30560454389469,0.134454999008917,0.0645248363154668,0.681153789475861,-0.2405635281875,-0.520180178264894
53.745,-0.677581940518749,0.252488927890042,0.784147630480311,-0.160770843385684,3.7648665275784,-0.741192664540006,-1.16915253486942,-0.127034742465104,-0.298129700513852,0.204996615639209,1.75719372496918,-1.10401804590687,-1.12987939859136,-0.10322560628818,0.343271382998089,-0.396095035403546,0.467897545881851,0.457948108431168,-1.213152169269,0.152677965233499,0.0772069995590966,0.68117584782461,-0.337527954255739,-0.460058275522529
53.75,-0.684447168589055,0.261650797181051,0.776388025819763,-0.196576490942593,3.95003226042742,-0.778836845115996,-1.16241207387712,-0.117509946227074,-0.315579450792736,0.25044569440941,1.79995509388005,-1.11986039082569,-1.14828298759725,-0.010744331041863,0.29898393707318,-0.330919602995991,0.521657541843822,0.6175629322206,-1.13713641411396,0.177770914034863,0.0880349284284101,0.540279453187608,-0.358055345805188,-0.377984703131012
53.755,-0.678223932135768,0.307641917380824,0.778323357929898,-0.278482994304882,4.21941758908782,-0.840169159698388,-1.20820911034806,-0.0826513343765965,-0.268599121317319,0.289662514386642,1.8425159365721,-1.14028319144913,-1.17240656275198,0.0882345127798806,0.262610348819237,-0.202397059323311,0.567184641925114,0.790442938584868,-1.11066913311902,0.175599585358829,0.0874345685984335,0.346375516020863,-0.324895435978594,-0.311793080229081
53.76,-0.675221888223281,0.34370261403426,0.772542745948235,-0.349696082480768,4.42776340071976,-0.901410983548673,-1.25805873948478,-0.0506734803671094,-0.22520819211773,0.315757471956013,1.86456941354666,-1.15405031182623,-1.21336235629056,0.17647716583664,0.217601258397273,-0.0266266832425845,0.608976498039155,1.03220982207352,-1.11642309040883,0.190309261768674,0.0901049924971223,0.138607430861306,-0.285470346559602,-0.212992940662818
53.765,-0.696959787812831,0.380233302137741,0.759765705324738,-0.448369705795565,4.69377402843524,-1.00868107440942,-1.31294853022932,-0.00991021437540872,-0.196546457871019,0.350750157683552,1.88730716344336,-1.16995077554154,-1.2491873402612,0.241297966977193,0.172502148241451,0.162032033978177,0.654879315360546,1.3205313014231,-1.15253657252455,0.203134498348115,0.0946561613549068,-0.0632418010958791,-0.232544411633334,-0.129272414517905
53.77,-0.731882201073507,0.413079907327978,0.738903015087406,-0.539793976721613,4.92548052384747,-1.13906001723239,-1.372767853172,0.0348807540692802,-0.18442988945245,0.406332307805487,1.91576992473813,-1.18478373252092,-1.27281781061059,0.253806010533761,0.126911833798519,0.322905326817911,0.685377960333738,1.53973116262637,-1.21498023898241,0.215029918929869,0.101190185788219,-0.215434584015113,-0.140188493415609,-0.0701090632554636
53.775,-0.757318264143871,0.448275633497227,0.713465964234569,-0.64460926228424,5.17030511707008,-1.27595027169051,-1.40761647571637,0.0602090077285233,-0.175295187557742,0.449745633088195,1.95379015348349,-1.19609898866817,-1.30782113840329,0.224567960098126,0.0247184663852888,0.585753428538361,0.716792541269759,1.79874157494472,-1.2600469522566,0.225319131548094,0.0948996138883773,-0.316195818962186,0.00161631924559216,-0.00292964017106144
53.78,-0.779775823823367,0.467333775394051,0.679753347699229,-0.786641161126149,5.43691272491751,-1.47744183689891,-1.413978465399,0.11336070545927,-0.14953264844079,0.479067561327967,2.01032998647438,-1.19071273749411,-1.27451250315725,0.206659598226197,-0.0639304666960695,0.874521924568261,0.759276325749984,1.97733759788391,-1.27138949890295,0.209763232228622,0.0786263061226846,-0.353743979607499,0.129993679024277,0.0671998259512181
53.785,-0.793664344537246,0.499148022438531,0.641166250124486,-0.881176315408161,5.61861004474173,-1.66107165792435,-1.4065980163988,0.180566668531785,-0.0723518691740495,0.511766616565027,2.07202495831261,-1.18414550983312,-1.22300499731548,0.162517383765537,-0.166034985683418,1.1073827559911,0.816851997122966,2.14016483825396,-1.25389925077185,0.190342926736214,0.0716559637512162,-0.344340214295557,0.193887300457982,0.1108831560172
53.79,-0.763193898756761,0.598976699831726,0.642527258853681,-0.984698242976715,5.79123605858206,-1.84267752552868,-1.39048207223674,0.224094932121914,-0.012111524807127,0.486974832909904,2.13902567066177,-1.14951687154665,-1.18838005765297,0.100539235585179,-0.272215833082999,1.24825423953631,0.891178012477435,2.23081163284468,-1.19272481778391,0.165117384040979,0.0630305546237364,-0.253466441803874,0.204779054182256,0.118795115815449
53.795,-0.739271479717676,0.621016167689885,0.660889965975066,-1.22366804131695,5.98872609770642,-2.07721277937316,-1.35895381483597,0.275093301446376,-0.00910624692024566,0.413467415346404,2.17877477209316,-1.08643712341683,-1.13323979962313,0.0670559362087423,-0.318701266401847,1.27964080834693,0.966545548997833,2.24255225505952,-1.12393300378074,0.147481812973459,0.0487504456293809,-0.153078663382788,0.201402004840687,0.117866040228276
53.8,-0.783180421508457,0.533413783840099,0.62097681779531,-1.43040720807661,6.13631262979311,-2.31245368822408,-1.32975499848483,0.291115873689759,-0.0674072729047425,0.350228530273387,2.19931592665726,-1.03170188916989,-1.15515683820531,0.0565205490586321,-0.3696895157252,1.24497812625556,1.0560639648667,2.24045058589492,-1.07821641938148,0.127848834811579,0.0418994370284497,-0.0955205712488894,0.173377110818442,0.0975212950586844
53.805,-0.851335611304919,0.505806447091861,0.579397462884857,-1.58256449912102,6.32053982860009,-2.53498095568989,-1.30248772307888,0.29784956293143,-0.150820930179838,0.297636900921782,2.19719005271692,-0.993536809732983,-1.1694053619435,0.0756997375327865,-0.407113515149097,1.19471380546853,1.09717390788079,2.2825969432768,-1.03806458419433,0.100216154200991,0.0280665609914536,-0.0854882051978016,0.184925509895468,0.0747762707537507
53.81,-0.92022719642807,0.546106293392191,0.651398926092436,-1.75328014678927,6.49909694195954,-2.74566811906373,-1.27191328433663,0.271384388617357,-0.217776510365941,0.234912003706384,2.19401030075229,-0.928802116399855,-1.17686461824688,0.107940772474408,-0.410734810634236,1.18064860390007,1.1199484507934,2.35751078438639,-1.00478870982618,0.0659390009737878,0.015040283064045,-0.13647038358441,0.202017632797361,0.0575337170579294
53.815,-0.908030466813124,0.3752687945303,0.602367319441333,-1.82254053788008,6.65504670956047,-2.90435965435415,-1.25611629924753,0.236081155215652,-0.218687573198155,0.190632153016496,2.17166255001171,-0.881744535064262,-1.18387396651247,0.141155126035369,-0.402926920152328,1.1973110658929,1.12270360438959,2.46642660218843,-0.975729083550151,0.0420722412238318,-0.0102979305437157,-0.193628937303943,0.216375620840119,0.0149741339410309
53.82,-1.181380169789,-0.0363163422545117,0.515746997594835,-2.26868347805733,6.88477163083125,-3.26455454928388,-1.22849123312535,0.187235050485386,-0.237781121236477,0.141232957879626,2.15223161474663,-0.853745318066612,-1.15726155940131,0.166295059440133,-0.338524977351212,1.16022568386884,1.07164257967039,2.61229154718482,-0.913802648732792,0.0338820943195795,-0.0244963004344056,-0.280940316755245,0.262249456450376,-0.00701295986354674
53.825,-1.37492407850883,-0.447013741849067,0.620447830085152,-2.4085302573873,7.04957185002099,-3.60243290890479,-1.1771235678944,0.100334342932894,-0.358435788489802,0.0376503338953867,2.10876080683743,-0.850310063640333,-1.12226434301889,0.162130446492735,-0.258358908273274,1.01395436118185,0.961570358909085,2.68551142083454,-0.901615978242816,0.0231564480380964,-0.0193578062236671,-0.419779690074297,0.290957392813158,-0.0189729006570959
53.83,-1.57425693083374,-0.519733158890911,0.901418575848398,-2.25169749272523,7.09453754404987,-3.76701699407124,-1.12063135325759,0.0146131094911654,-0.546250562441097,-0.102198045504109,2.0572720132195,-0.865216152607945,-1.10611921914565,0.122907648191607,-0.197899640975765,0.770552292197533,0.831008572627188,2.66117448576836,-0.872901545996519,0.0168456417433411,-0.0116223588927445,-0.569492077210197,0.285064684384575,0.00123575314384458
53.835,-1.72379996853414,-0.0568616628984356,1.04343808757614,-1.41250137555929,6.67183612619669,-3.62746788621734,-1.04301950476339,-0.108577226903033,-0.758902677085645,-0.102356962543383,2.01702176886226,-0.939136968988062,-1.09171916088768,0.0767889781882049,-0.128992152034413,0.455297709626341,0.72019569698482,2.60554891629846,-0.840849985084783,-0.0052746687112436,-0.0152980208282681,-0.643726102184732,0.233417975926217,-0.0448396780475074
53.84,-1.85851878208747,0.590606400443807,0.992010739811193,-0.651865439298935,6.16370119805897,-3.35125487194059,-1.04646617216887,-0.150529685005072,-0.802912354532828,0.0816832649967511,2.08080993332469,-1.00709829994315,-1.09346626349184,0.000964993725616245,-0.0346515257803608,0.148410408628163,0.487363593676531,2.57225815409887,-0.841336568426792,-0.00521737195807016,-0.0156360028005103,-0.695595044448221,0.194977942159943,-0.0892422387811111
53.845,-1.86730136457715,1.14003089242015,0.843051360605073,-0.304441663769682,5.65301185508441,-3.06529625071931,-1.10191658291078,-0.128668264352699,-0.798698374346348,0.465163124085999,2.07518519898804,-1.06389969121424,-1.07052965353116,-0.124622521763467,0.0302720443435594,-0.174125249786735,0.33217253766049,2.45850089545878,-0.838390151603836,-0.00966313643119743,-0.0103181685287443,-0.719160455691354,0.122737718310477,-0.0815747827758156
53.85,-1.6967317759087,1.13403436091579,0.812368950209066,-0.183297968965448,5.32926278871769,-2.96401865527628,-1.1678719451877,-0.0111113318260625,-0.784601180879871,0.95156591535454,2.0265890612831,-1.0934103879546,-1.09710411430986,-0.18068960292158,0.147535583737334,-0.50898984868984,0.214278880133553,2.32751721811418,-0.845446583551286,-0.030710884307039,-0.00745028751395655,-0.706468595270571,0.0058301547640928,-0.104376136282555
53.855,-1.54281630174475,0.982385562902006,0.772990173267589,-0.360315110823213,5.10545737594426,-2.98414572387139,-1.18276912218009,0.152645311100496,-0.729927402817591,1.39994328869365,2.00673175918612,-1.10317760914552,-1.16367294583445,-0.279403725593751,0.224821202645759,-0.788844444480282,-0.203574748767693,2.20695676415855,-0.814401376972925,-0.0469490007896639,-0.0175305488260158,-0.597939368100459,-0.117527100332503,-0.148775435405097
53.86,-1.49854006023169,0.712306740461526,0.965642160879841,-0.662617201089576,4.90983503729163,-3.00918901141488,-1.17660315949882,0.284159043881772,-0.598791892889875,1.92677108383678,2.07071745274154,-1.06935190728425,-1.22842889202981,-0.351205173347443,0.21688074297762,-0.905940943535318,-0.284075083479971,2.19906892346889,-0.809430104518434,-0.0583926857224808,-0.0107504160936209,-0.485668563370788,-0.206560562962832,-0.137524465366068
53.865,-1.39943333259111,0.529397118100414,0.980721742081252,-0.855582643476658,4.56775122996337,-2.94030502855105,-1.14401223118226,0.374236129719512,-0.497304845871486,2.13528599250063,2.18031988475605,-1.04158273701924,-1.23369134204497,-0.415528658615664,0.197003971851341,-0.843358130414116,-0.379941721316435,2.16928743977516,-0.812064607502682,-0.0731374957759223,-0.00618069073416481,-0.358023730509961,-0.327855827814853,-0.115377057786092
53.87,-1.44222495850118,0.515470212106599,0.987414764718619,-1.0139765097921,4.11715720594936,-2.87544131644573,-1.09023088049007,0.39201287251419,-0.593194019900658,1.96016259104399,2.29816264676137,-1.04087652282555,-1.25382027525105,-0.452072950985893,0.15532957216201,-0.709413628456802,-0.46806227142286,2.03042619897344,-0.806911120666805,-0.0858257439072397,-0.00966541625448193,-0.24068203695215,-0.422710086505542,-0.0920777778249477
53.875,-1.68033291151624,0.820035040921517,1.01357810396079,-0.908095606024773,3.54253519529013,-2.49158698141217,-0.973722368176632,0.315549550994018,-0.849129730289067,1.30359017699911,2.28047248021432,-1.06556516111904,-1.2603430531143,-0.469368924239606,0.129063238166625,-0.581751000381234,-0.500737486735916,1.95692209951158,-0.76481184972436,-0.0782970965528163,-0.0131989932449164,-0.124805772205043,-0.458219780560148,-0.0450706943917075
53.88,-1.72994113057065,0.649055916782953,1.3673523222187,-0.674801636200019,3.03150231512281,-2.17538862975747,-0.865558831771523,0.231787670054097,-0.975520069464248,0.609240730963467,2.13535007455939,-1.11229361406754,-1.27130999834648,-0.467865266549998,0.0975546221892824,-0.439064080344081,-0.525811927519795,2.02739197362407,-0.743525957965712,-0.0673970737716335,-0.0164945479335136,-0.0750247511066014,-0.388824506932288,0.0638843421462071
53.885,-1.43666681411172,0.31556161499394,1.44467957435174,-0.794780575863775,2.15144530473299,-2.2908620947256,-0.739501626134897,0.199545754485519,-1.02609439050874,-0.112905633396119,1.86337546606908,-1.22045973733281,-1.27562072793388,-0.458138195651426,0.0925700234649885,-0.28757010612293,-0.493939713934829,2.1564212271233,-0.748924891069602,-0.0709417074267885,-0.020580180890493,-0.0426874077623122,-0.247009699764001,0.124400317668915
53.89,-1.4827689449643,0.440538677832191,1.32546616560333,-0.495237435218432,1.32886441196215,-2.50321267270837,-0.627111790178046,0.223449912327249,-0.987454382424136,-0.739685832222049,1.71417662834098,-1.26508474560521,-1.2642354917532,-0.435721298589856,0.121307313511366,-0.0500772042627198,-0.495083538003336,2.35369683531112,-0.751499349239331,-0.072960740103578,-0.0293263480820428,0.0216635244642879,-0.0693993029575641,0.103709711847957
53.895,-1.47680564805055,0.491013566348783,1.68137688889896,-0.258295877587223,0.708376337990681,-2.37733335935208,-0.576004625816061,0.268141476856188,-0.858347913374652,-1.15630780951132,1.64595295698615,-1.23551488765155,-1.2518183025979,-0.414911551789377,0.155041427863155,0.15747073680917,-0.548673698234294,2.4924887362424,-0.79365582341487,-0.070905803523133,-0.0296593533682894,0.0562446836632375,0.193387142160319,0.119647465573209
53.9,-1.07686029622735,0.209266944086102,1.94885805993824,-0.0106029883443918,-0.150006457738804,-2.46940065204291,-0.565458495400317,0.274357488308905,-0.773411881590014,-1.43685866640755,1.53653421459245,-1.13865525123174,-1.22328300725334,-0.399275455302591,0.198152624251117,0.411299708699351,-0.596811896314151,2.58376928395408,-0.845071995810512,-0.0587227726551359,-0.023646698953659,0.0474379673544216,0.349302400920139,0.143166324173232
53.905,-1.10245970581055,0.716076390222046,2.20357820094333,0.616353547355575,-0.898766613163954,-2.0759035322151,-0.576446098011153,0.286307204017394,-0.736345521881281,-1.4434966838887,1.38134226281887,-1.01902928809976,-1.18882814209609,-0.391429538413388,0.243193096182677,0.662533525235358,-0.634100919158524,2.59077003827637,-0.889139983729281,-0.0569454816826126,-0.0193651844754989,0.0320605941462866,0.447764255719745,0.122715149707701
53.91,-1.17548128806985,1.12593153128437,1.80830604632575,0.373767275448821,-1.56703062988558,-0.784961481064089,-0.586858039339047,0.230335233265709,-0.682458804835713,-1.15598762392443,1.42352251407587,-0.919795275375123,-1.17815328372976,-0.393947942388178,0.268256392225909,0.907713692734145,-0.630584363422477,2.49876949203156,-0.936674780430678,-0.0383486046872741,-0.00935676633558012,-0.00152658998426867,0.490494627772677,0.0919105870928794
53.915,-0.355079741003925,0.793261058183622,1.47508898106426,-0.171512759423674,-2.10307663654861,-0.462067312074476,-0.741949287175652,0.0709489259270749,-0.456060054633788,-1.24905806920042,1.18543876748165,-0.866989287080915,-1.20789451694334,-0.406598146074682,0.248449654866605,1.11703491683978,-0.551543902416087,2.38306905739048,-0.980123579346502,-0.0199862841206858,0.00453859336472889,-0.0802223258897073,0.478467750017442,0.0739434251691295
53.92,0.0873503255210444,0.583493639459296,1.28022714740863,-0.141415354713951,-2.5669690952983,-1.15392494252283,-0.776492266100142,0.103890090195158,-0.217183163276165,-0.994361372622807,0.671646752508822,-0.853226753044496,-1.23273987257584,-0.408626684255152,0.217919567772351,1.31886934193484,-0.482035012308551,2.31299894270389,-1.02940077301299,-0.00778625762897028,0.0121979813402747,-0.197931963099663,0.429800206215302,0.0549049486935255
53.925,-0.0184703243734606,0.677710640098103,1.18908990406356,-0.296957195661071,-2.89059809864849,-1.50427418050662,-0.747977788258589,0.163925070020836,-0.072469355853572,-0.433692368396055,0.356368914601773,-0.785713835034613,-1.24373996866112,-0.399821748420889,0.178469817265209,1.43966707227658,-0.418150077477028,2.30626014952538,-1.07107211270315,0.00294640863598479,0.0176058218045729,-0.332433169539801,0.375990602817753,0.0513373012704546
53.93,-0.0950678417530167,0.671302869123769,1.07067043656652,-0.412421392783078,-3.06125982582095,-1.43116164360306,-0.732683344380609,0.100343622073986,-0.0447360958966037,-0.102961498371079,0.311758249845727,-0.653499101909415,-1.25923253441523,-0.373838833110185,0.114443578645654,1.59425819162128,-0.32368475137925,2.35747407937039,-1.10376405853868,0.012104217048236,0.0256767077892286,-0.44868151451557,0.344644979901069,0.05683249577691
53.935,-0.0581719663788034,0.561226680239529,0.893182448215278,-0.415393153159794,-3.21797352726906,-1.18312816382607,-0.707371693561351,0.00167981473826916,-0.0311062539410085,-0.0706136217097781,0.199136149031331,-0.55480164854542,-1.25023009448556,-0.358481378698673,0.0586996342271091,1.72858608163515,-0.237046197406173,2.41840034566976,-1.13680813162209,0.0180739752526216,0.0385404186975586,-0.550403111184494,0.318190253632185,0.0725727201337565
53.94,-0.0567741460651096,0.566583141335036,0.801145397777666,-0.314326500478467,-3.3584089323695,-1.0563779965154,-0.630459669975132,-0.0292249271328665,-0.0829822478199983,-0.195858654528681,-0.0568471357131736,-0.451284836138669,-1.23284537430569,-0.336869137249234,0.011550206086687,1.81663508599078,-0.182734848785007,2.48075172096841,-1.16897143333652,0.0246647947750121,0.0351280186130512,-0.630912552889488,0.316195878751268,0.0659973983313954
53.945,-0.0864137399808778,0.633420893729913,0.760645273434803,-0.281764282143195,-3.47367531464012,-0.968699936896946,-0.558004928948093,-0.0160919363310954,-0.165687644922764,-0.298935051684734,-0.309582396639169,-0.345448229490958,-1.20962018334897,-0.31977477759604,-0.0294881223193209,1.79878826011936,-0.155368038181777,2.52855792330725,-1.19060152128339,0.0307600634812842,0.0301356830389704,-0.668034540375375,0.305583120031653,0.0598876777927573
53.95,-0.116350837762147,0.723003754643847,0.75452515947884,-0.301018077568176,-3.57989970573916,-0.823751964569575,-0.531748968546627,-0.00811869539854562,-0.207841489695727,-0.327070869842602,-0.460643754303803,-0.269603901459828,-1.18328430889533,-0.309374669290309,-0.0550433592119497,1.71783820029454,-0.136040685244299,2.55666535732233,-1.19766000485156,0.0375445543393048,0.0306989178072224,-0.690635759481097,0.299045898603292,0.0699173075899996
53.955,-0.140917638831799,0.804904802329502,0.75645632102675,-0.368555160339002,-3.67514387072366,-0.628369460855595,-0.52298903766953,-0.0200600697746504,-0.230671083721132,-0.313622313809836,-0.619776211239494,-0.208636535869715,-1.15399328729894,-0.315886970824172,-0.0667566341331386,1.65624972429774,-0.132560518869087,2.55434045351417,-1.1978394781482,0.0366575310911571,0.0237187531649718,-0.684905612692199,0.295257151208782,0.0879789692555848
53.96,-0.166465506821199,0.876134965724194,0.745793887854275,-0.500483163850844,-3.81163582671584,-0.340914776453497,-0.526366857587736,-0.0422709997684031,-0.280622879929674,-0.272538357383805,-0.808828310777227,-0.168209461919759,-1.12929530048244,-0.326334858507891,-0.0921272456389389,1.59838447441576,-0.133091343043159,2.5175439138095,-1.17756254850191,0.041453360344897,0.0230476860738089,-0.672503445092527,0.275859487983313,0.124632532391415
53.965,-0.189995532859501,0.894062921860371,0.714908335390595,-0.58573178690394,-3.92180366073308,-0.0927654648397423,-0.513359796888329,-0.0694140972864944,-0.309545242524741,-0.283716890475346,-1.07669954741442,-0.124737015593396,-1.10484122091264,-0.320127235401508,-0.0949304779304023,1.51939648628117,-0.132439501881453,2.47743130747369,-1.14192860683921,0.0317512616601007,0.0230670713803273,-0.682962690509669,0.237513978026899,0.156268502499834
53.97,-0.206428081753816,0.895683432365286,0.663945470551514,-0.67902893719491,-4.01106162835507,0.215759450474614,-0.511407014253372,-0.0774983593769477,-0.285421681463283,-0.2985814042999,-1.29165507843305,-0.0790278830936657,-1.09577340820208,-0.295150423776439,-0.0989757809023332,1.40181875708881,-0.133206500853199,2.3951466203515,-1.10341248648748,0.0297032814142882,0.0283369308722402,-0.701779066600184,0.20637937351132,0.155472670849421
53.975,-0.214152238715721,0.863372152097706,0.628780983161827,-0.719999469072706,-4.08350751289157,0.492602976311706,-0.501260179561047,-0.0503735877771513,-0.266548938716641,-0.238774979066662,-1.50244890143178,-0.0420149622849937,-1.09459581043322,-0.262767043694031,-0.0924041609016302,1.23699981167624,-0.128475724948197,2.34681978823633,-1.06918689179169,0.0331706205657579,0.0366854635914254,-0.753906259367302,0.19628863489452,0.17164202350971
53.98,-0.216209569497544,0.795239959422083,0.585547148869279,-0.697229388467842,-4.13046323511431,0.727228453583439,-0.512536111519007,-0.0161113694662492,-0.294569694660505,-0.133418624021382,-1.69930259354322,-0.00562367911668183,-1.06501678592101,-0.25811763817263,-0.0697580069388394,1.14755392651502,-0.154017977758646,2.31579628438128,-1.0372494790757,0.0399011543491852,0.0481817865757415,-0.849070934129717,0.213695693312931,0.219224342030762
53.985,-0.221185118431174,0.693873575268747,0.551964341379165,-0.60283425867333,-4.16215160821726,0.985138854250287,-0.516091740294777,-0.00151508955246149,-0.289321521565528,-0.0585708136702059,-1.91238599066921,0.0307662212970663,-1.06225257274228,-0.25397896244965,-0.0526161116519545,1.12625793048233,-0.212625800068801,2.22061442636838,-1.02318617315447,0.0409024995894563,0.0675334195293059,-0.918879015491718,0.236351634840343,0.228631715343859
53.99,-0.222502772578022,0.597425016500836,0.526701288672422,-0.46589496351928,-4.18036507756579,1.20638770888001,-0.521852457797771,-0.00533585538917752,-0.288235996636424,-0.00350764794431921,-2.0914986620933,0.054062748070323,-1.07101023949457,-0.233785372287907,-0.0281635878625188,1.06846888810285,-0.296995312563018,2.12259636886171,-1.00777466716891,0.0422771708310798,0.08291647287914,-0.97371807023841,0.265096107785098,0.211065351042043
53.995,-0.208641236223664,0.525918041869569,0.499734383832568,-0.321925533891367,-4.19431739821726,1.37896198373004,-0.508130177612727,-0.00633888053922187,-0.304236207561809,-0.0441963481140334,-2.2890769149953,0.0637942912164337,-1.05984588330926,-0.212537219626958,-0.00563621589288156,1.01431486413645,-0.429298881889537,2.04885901666563,-0.98647426030857,0.0392754025444933,0.103267851761375,-1.02278122217311,0.291326834125154,0.190954312465764
54,-0.20344802997356,0.46995821899904,0.481330834124748,-0.127436224726648,-4.18326501891047,1.56334373382162,-0.504532752536062,0.0178975314076372,-0.300443425221567,-0.0390721828151114,-2.44635107939976,0.0751993391914369,-1.04013090174307,-0.215380029692879,0.0194500887470592,1.01902212992057,-0.506846336235123,1.9687755421566,-0.972405090527154,0.0419896603508243,0.115900114150461,-1.03770593833151,0.305611795602548,0.160781694115192
54.005,-0.232011064478799,0.441446696059029,0.488326286368938,0.0451679903331553,-4.16354449478456,1.68775307827314,-0.508780514556725,0.0580146002027043,-0.288532989641364,0.0505060728416268,-2.56757545948034,0.123656250655688,-1.03932561431507,-0.215758055053627,0.0486516292088882,1.05073686049367,-0.58287078930899,1.89336582112235,-0.948717497013242,0.0401856094508315,0.136479805016838,-1.02878493951499,0.30876914723734,0.132176456343736
54.01,-0.267177696298466,0.437667159840435,0.509478496219005,0.246754079020699,-4.15175277245296,1.82308639296406,-0.537905324254888,0.0808818680821651,-0.321650696499757,0.00474665720187032,-2.6961339559394,0.182068621972268,-1.03430846440601,-0.235971846358028,0.0774984330229311,1.10082064945239,-0.642007895378165,1.91093925533494,-0.92779697307762,0.0337911950003155,0.153243440916889,-1.00054856692661,0.285348300477012,0.107390504405598
54.015,-0.308039090259997,0.452664703560551,0.543894502837521,0.32563544411264,-4.13997732420968,1.90118357344789,-0.566315962468712,0.081608921509306,-0.354296711408637,-0.195884193029671,-2.87889446782139,0.223982767821301,-1.01585561851123,-0.238835627362486,0.093921448104003,1.1454708829047,-0.707468801276198,1.90964941415049,-0.900149056906026,0.0262289824981677,0.156304801252941,-0.964980297372698,0.264471732533431,0.0781724191020882
54.02,-0.393557320143708,0.494445372840852,0.592891886375517,0.378383335296746,-4.17014966181009,2.01846725632979,-0.575275443988831,0.0999742801049049,-0.379666431157311,-0.348730047914968,-3.01826778238069,0.263032944463478,-0.994413918732488,-0.247064376909084,0.110147990586717,1.16201094449146,-0.766608954294673,1.88158771899253,-0.88552216233199,0.0202308869648117,0.15976633762224,-0.918115522291917,0.237565797911604,0.0625883869878237
54.025,-0.447046924834115,0.522733393813826,0.617815211052254,0.386595803918208,-4.22177341694547,2.10580015945466,-0.587648601482477,0.106365925720685,-0.414453293225434,-0.480244709804246,-3.13907494663106,0.323739045891413,-0.966779967375126,-0.264360153745061,0.115330677545888,1.2149208735204,-0.792476118573153,1.84055469977229,-0.867594083060752,0.00631091889378356,0.154362731860007,-0.867216809249173,0.227404125471436,0.0456904015620518
54.03,-0.500043486719443,0.545882983373054,0.664072535096679,0.374656340442763,-4.29063703013647,2.20496560765047,-0.596584689260144,0.101430154777154,-0.424518113272933,-0.600317728177753,-3.28955653333191,0.376591989316267,-0.939794444268329,-0.279586417919851,0.110570561793128,1.2757805450293,-0.803964597240844,1.79982756926241,-0.844954656610227,0.00344241601358584,0.150582921535331,-0.80133211613466,0.230652128296988,0.031834421135861
54.035,-0.548688413642435,0.545238617361551,0.704098994530992,0.362446444994226,-4.36612689499441,2.29333861032015,-0.58981232082215,0.0959362482342751,-0.440216908440331,-0.707658630792608,-3.41541782360489,0.433110575151512,-0.923955410460707,-0.288682342364563,0.0982219016346644,1.33425048828321,-0.803887173867199,1.73510036876822,-0.826114651947121,0.00338384022216917,0.150397802638453,-0.767517204318016,0.252938265222993,0.0278864558786154
54.04,-0.610072591214216,0.534421895238279,0.72887652259424,0.330451634366301,-4.45115557763472,2.37397084019951,-0.599577771960409,0.0817781129937665,-0.463059068477221,-0.865061208542118,-3.52729009080182,0.489055730555117,-0.900674158694833,-0.299959837292466,0.0789676740625828,1.37996681389287,-0.791532568616407,1.65901799063748,-0.824479133108638,0.000268927596087192,0.150728609714857,-0.759497096035155,0.269821544273095,0.0327498860820746
54.045,-0.64648272338403,0.494939897647788,0.731566321757937,0.307443527955912,-4.52810262018424,2.45834291827947,-0.622882862467208,0.0536270727386855,-0.498625473775459,-1.05708115504054,-3.70846389893239,0.541985924818841,-0.869461910575205,-0.309428744990815,0.0690757684523335,1.41770190897193,-0.766632185559731,1.60866311872655,-0.829714566442325,-0.00294464872077848,0.159325090714587,-0.760832146335362,0.290466394630589,0.0479377876951494
54.05,-0.67084338974723,0.457138520109311,0.732165402769463,0.294898926582339,-4.58216107851511,2.52099483056603,-0.643191222487536,0.0351515811924614,-0.535604346928727,-1.20684749400181,-3.87231449060263,0.579367304316215,-0.841619865301351,-0.325064677483726,0.0621957404269955,1.4648246461692,-0.743335410509107,1.53766132294288,-0.840987461509857,0.000269347857582332,0.156659076630507,-0.783191669656146,0.296946277212383,0.0638557297048255
54.055,-0.684011745663368,0.397469090839593,0.717936757338797,0.320423700234449,-4.62066672032927,2.56697471535436,-0.687772932144447,0.0217356897301452,-0.553912016483564,-1.28326710718462,-4.01989151511347,0.60693836013185,-0.820972239491784,-0.34032053137573,0.0524557635622106,1.53887858461252,-0.711192693685799,1.46508400409424,-0.853614850417014,0.00119993303195303,0.156461367764702,-0.830435556395888,0.259432086237252,0.0890798589485773
54.06,-0.703088398391839,0.311560355981666,0.704855192060078,0.383619512156948,-4.62477502604648,2.56934137222952,-0.733488454877682,0.0113762688041241,-0.543555579707421,-1.32846415503826,-4.16922810815907,0.648187558962352,-0.80902322991428,-0.352621391673324,0.0343049116981714,1.63364965528342,-0.677759285111194,1.37123234874743,-0.867849714144676,0.00499340527432731,0.155077016040323,-0.863999380669611,0.24309435511767,0.109183435714857
54.065,-0.729260165300889,0.276094752283694,0.700525007460912,0.451074298508409,-4.61997266802484,2.5533387877808,-0.763942024056007,0.0231323068100976,-0.539405510181254,-1.32075892538095,-4.27107269612761,0.673927787163821,-0.784309255011137,-0.35866954541281,0.0335326106606512,1.7069672893084,-0.660270347071235,1.28622656173285,-0.88143234471984,0.0145526784062511,0.153108191559765,-0.897418391890682,0.21982696104651,0.130514034059346
54.07,-0.783143021674342,0.305023072299636,0.700530800770676,0.525434179879098,-4.60486744057909,2.52360921767313,-0.801239277754318,0.0373512410886871,-0.555987415597426,-1.30753782439774,-4.37488102817525,0.710326376449474,-0.780796953623255,-0.364511244211824,0.0456053608787798,1.82611146400008,-0.647882383662615,1.10915960854963,-0.900632060224836,0.0231158557207932,0.149268056337864,-0.940017124338403,0.214529914310584,0.146334740912259
54.075,-0.846167301314673,0.365118192740433,0.712465525174819,0.557166874381997,-4.57417036535493,2.49390792386948,-0.82269133856609,0.0350336965960615,-0.588721342514244,-1.33366344555933,-4.45149561635275,0.743808436387976,-0.802360875501127,-0.355192541979447,0.0508044308638476,1.9444223311471,-0.6673902969163,0.928417260977454,-0.928908029067211,0.0303898329703679,0.144287776536946,-0.978072012610546,0.199839428319229,0.166759602577983
54.08,-0.940495479398358,0.450526627243096,0.748902115679985,0.5535180855863,-4.54973440292066,2.4919390350461,-0.851146260724698,0.0275198641735472,-0.619571194690558,-1.39475851558476,-4.52577335434048,0.776724966960884,-0.80368055759779,-0.336077200168429,0.0412530717905085,2.0253682380691,-0.691063084086125,0.843423325331082,-0.955691092429959,0.0316134100839501,0.134033031415353,-1.01455926409645,0.187017826058996,0.176704842622884
54.085,-1.04362719213891,0.525605070633978,0.788735887573221,0.518173551661451,-4.52510979746153,2.524420822557,-0.879235510405689,0.0185666072698182,-0.664395834779602,-1.51139705554744,-4.59811345238232,0.791044247675778,-0.804475465829658,-0.33225157376615,0.0346250014587629,2.12991291572769,-0.695834381205614,0.79104378870059,-0.986534718010725,0.0292548066196991,0.126086587505254,-1.04913164328209,0.175618624393781,0.185721147906592
54.09,-1.11732158521619,0.565213939428311,0.821211518517025,0.481009005943385,-4.50033484391826,2.60487232412756,-0.906996364517249,0.00295359369285245,-0.708074330345299,-1.59931432806053,-4.65166043059186,0.791550614213227,-0.799272338150708,-0.321913685036648,0.0157967439233773,2.2218665821728,-0.651891135159278,0.76244173429121,-1.01024125159507,0.0279453390569996,0.114483213233447,-1.04880048532885,0.154898682420292,0.195425704785719
54.095,-1.19831270277135,0.604593365406204,0.856884630480485,0.465187555310741,-4.46637637890955,2.75618609993272,-0.922303744930972,-0.0346422090951819,-0.745406877894536,-1.63913036272904,-4.6879122321885,0.809326532735484,-0.812626120801139,-0.310823833343371,-0.00624469234390377,2.27809197979656,-0.60419288737178,0.775980814690773,-1.0243926978256,0.0231294863535325,0.0986158080311022,-1.05447658222169,0.143100408977579,0.198923692107201
54.1,-1.2567864009589,0.633990348856134,0.843522419513623,0.445718909141079,-4.44832530080043,2.90172703591206,-0.954421000905849,-0.0682386421335827,-0.77752264802424,-1.67670314395683,-4.72347355197527,0.828302713902124,-0.810500669310885,-0.292372973200968,-0.0419463836200987,2.31136567539735,-0.535182076780715,0.830782790802471,-1.03698589338355,0.0179966320791285,0.0891347696245885,-1.04614896061961,0.148449449188457,0.198037332824904
54.105,-1.29449390728947,0.67537811733276,0.798983455897896,0.402338435505836,-4.4117676230842,3.06363362574822,-0.976518501559425,-0.0813398915481373,-0.764633358903662,-1.70253362066373,-4.75640069268272,0.820094252653152,-0.793476554577487,-0.280844158146636,-0.0636514707246716,2.3471524190727,-0.498577062866263,0.853807445964613,-1.04818301931094,0.00964800846996281,0.0748543765330976,-1.0288716252206,0.172120356039434,0.19424398605995
54.11,-1.31803678843908,0.724663853540491,0.725780737358076,0.319857750384136,-4.34091268808382,3.2706342059997,-1.0005775518131,-0.0806397739605297,-0.762562293739426,-1.74066903797922,-4.76896330492959,0.810825228691101,-0.778029895991826,-0.263038785624666,-0.0718897445057685,2.37944214321456,-0.454344885908496,0.83774732915706,-1.05416800201729,0.0038259329322084,0.0734861744188554,-1.00091523572535,0.195594637658629,0.191764791667287
54.115,-1.32530588969947,0.72525744344479,0.668596838861946,0.206252614282374,-4.18658691591598,3.45332170727793,-1.03485751946731,-0.063201848278876,-0.761462185307417,-1.81053073423065,-4.77276190358904,0.805329617349931,-0.77132571813186,-0.25400847452719,-0.0934709859842873,2.39952512861012,-0.425904664601738,0.78404634354357,-1.06157957941945,-0.0108864900117244,0.0662294873066593,-0.970242063620578,0.201005105283114,0.180023427226921
54.12,-1.32228112038691,0.720718460996487,0.639602578066984,0.11082060844543,-4.07459736414917,3.59118429357973,-1.06395662930328,-0.0396153100650225,-0.768027228319931,-1.89815950045529,-4.77843361622517,0.796822422787854,-0.756349317410588,-0.239299719098773,-0.10733451715677,2.42410501450522,-0.418553514801423,0.718973334525011,-1.06114429232923,-0.0223842732106408,0.0637912427714256,-0.953525786753015,0.206289467995995,0.163915922415776
54.125,-1.32074513324543,0.700742822512263,0.602742056249418,0.0193484316647938,-3.84581978171775,3.79113666652633,-1.0976024376633,-0.00276192137842595,-0.768652634268818,-2.03741967286591,-4.77743887502151,0.788360340953718,-0.750438303548909,-0.216966337129255,-0.120712856203605,2.4384736064746,-0.429996367966377,0.64975819154024,-1.06477213150918,-0.0425158595055617,0.0646967518718613,-0.979157472081015,0.199008395590983,0.143623486413924
54.13,-1.33283035829756,0.671560504164524,0.603725348544496,-0.028927329489479,-3.62487265493096,3.95845836661263,-1.12070782290942,0.0305164241751063,-0.776331545806262,-2.14375521612886,-4.78035949070856,0.772262628534041,-0.738633947968068,-0.204940985384823,-0.137161404397834,2.42807088651803,-0.431220899835445,0.5844383134947,-1.06478731557549,-0.0584534264269401,0.0691058324723467,-0.99724567636795,0.170774084249964,0.133413798038704
54.135,-1.34937823972536,0.648560230655545,0.637166133799081,-0.0630346492723362,-3.3715552786452,4.14163146924222,-1.14134827381575,0.0503078729907402,-0.789743158921929,-2.25790674696745,-4.7751964118264,0.754596764783334,-0.730055726211371,-0.195663026121302,-0.163796251409535,2.38080353770178,-0.411704101279471,0.534075398473451,-1.05288960358018,-0.0740587192743967,0.0788258920048761,-1.00967429747884,0.145236430431008,0.127031111093561
54.14,-1.3781317363444,0.633125845423337,0.674935379583623,-0.0795764169877044,-3.22119471679051,4.24483376509129,-1.17079999646475,0.0726672042263768,-0.804461589478707,-2.44065810189493,-4.76750772140724,0.727840858254536,-0.709757957964312,-0.181344468673402,-0.178397178403703,2.30326440881476,-0.403099817720992,0.511549615899391,-1.0300783217446,-0.0782209226377537,0.0824200648612619,-1.03867387428645,0.101414512719287,0.131730496883392
54.145,-1.41148914111738,0.612869723987154,0.705614579995207,-0.0953286452741822,-3.03263675816784,4.3605331649408,-1.18305420473526,0.0870383374932603,-0.812019181399095,-2.56304516770571,-4.76730259329491,0.705097104747076,-0.72352921981731,-0.164569386214812,-0.200837221402041,2.2061730455095,-0.357002868496664,0.482055156138806,-1.01174230936564,-0.0726277807128077,0.090079131548863,-1.05341791386583,0.0706723175539031,0.139057210717535
54.15,-1.44731504325538,0.584903038224392,0.741338838840952,-0.0985866500899925,-2.85567391804137,4.44334678570968,-1.1961629599232,0.10162180096034,-0.831909807844018,-2.71366571485097,-4.74405201537454,0.677116331467797,-0.732843435527997,-0.145919182225713,-0.203770017013921,2.14975203765952,-0.322793801982732,0.489937204641137,-0.995058317519893,-0.0678365025668638,0.0982504125665187,-1.06468114496442,0.0598637868982606,0.148032333948011
54.155,-1.4682150059997,0.538149176540131,0.766922736650168,-0.114146846673107,-2.67831075473905,4.48632605478741,-1.20916684075572,0.108329102782141,-0.842565490673798,-2.85219367695529,-4.71687446064224,0.653514877091788,-0.733761904425635,-0.129949909324927,-0.200059670967095,2.14881035506334,-0.291427902142373,0.511973361217746,-0.978474494273494,-0.0618016386455388,0.102401596623177,-1.05836119566645,0.0429940664117173,0.158015832940608
54.16,-1.48718546688714,0.480934217195422,0.766653010506338,-0.125108451116038,-2.51414450205618,4.49635334464004,-1.21927914753428,0.0991469441769896,-0.852239584403085,-3.03011985648212,-4.69342288395654,0.624802435651485,-0.735794125959385,-0.105811934847619,-0.185709792482822,2.12757677472059,-0.274203588591443,0.533998409959528,-0.965874557232142,-0.0619426419354921,0.112183547239446,-1.02717138458079,0.0243369358162835,0.161369055917883
54.165,-1.48561662230124,0.427467643624616,0.747905019405031,-0.155773444427222,-2.34591046613769,4.47604839085688,-1.23729817977148,0.0986539252133226,-0.839000973885934,-3.18747693982482,-4.66286304399875,0.583384056502807,-0.73321061634563,-0.0835109771627188,-0.166879096157124,2.10262523361656,-0.272747369404212,0.529397313066067,-0.950106133712998,-0.0618658717564859,0.116385401004518,-0.992520240419465,-0.000625641378606609,0.159073500017536
54.17,-1.47709782313159,0.408402859605504,0.709730776358994,-0.216894941624962,-2.17137980873093,4.42805243664522,-1.24223381621537,0.100542338946965,-0.807282605848457,-3.29664569664975,-4.63323516382357,0.537879538113562,-0.726321200346684,-0.0596009234279568,-0.154927633150485,2.08210895816689,-0.273984208386791,0.518520760360198,-0.936062074290839,-0.0606507420154523,0.132756107008538,-0.962606911222502,-0.026879391107668,0.156790866502222
54.175,-1.465915853884,0.405295336251589,0.667206002099218,-0.30777223248725,-1.99437178846045,4.32144556903206,-1.26282653428619,0.096019540508609,-0.792600472162064,-3.40091423867299,-4.57892666407334,0.493868036599736,-0.726505460684679,-0.0303856688989383,-0.141874004905272,2.05080903922418,-0.286398246373633,0.493422910451733,-0.925522053482998,-0.0502069482047261,0.137869005014943,-0.947105479222599,-0.0560421887763426,0.143628796926172
54.18,-1.46202488056631,0.396139753276644,0.663286723125472,-0.413688899873871,-1.80560335483002,4.24317220859073,-1.27115236848764,0.0936039156554825,-0.777272073519243,-3.4560946946395,-4.55698595368235,0.474452831694956,-0.734172118016578,0.000460879307607382,-0.144792790271546,1.98845135714804,-0.29535890679297,0.454198098695508,-0.910862747050346,-0.0416885782746559,0.150296711870964,-0.938615457695941,-0.102706397403079,0.140581871996829
54.185,-1.47909263425416,0.393642109381513,0.663536570491691,-0.53046389371205,-1.58827544076345,4.11243546332824,-1.2885090925287,0.0862853514565253,-0.765652112637185,-3.5043698721007,-4.51086212804336,0.448394374634802,-0.747341498443196,0.0306220210463041,-0.154335827668516,1.91428869474101,-0.298965841531754,0.39398613966892,-0.906420325682496,-0.036086816080464,0.153952778838695,-0.930528375779056,-0.125690677796817,0.140227014300198
54.19,-1.49286964116301,0.395134036362661,0.674866189862775,-0.597183305575426,-1.43730692820422,4.01758875841314,-1.30059259255087,0.0854649401042921,-0.781353294790641,-3.54130119043931,-4.46243471473457,0.425625157633662,-0.764205324565944,0.0599137595830729,-0.168653408501775,1.85762599573085,-0.302775618494458,0.325106221684,-0.897607464547295,-0.0244362849878146,0.160489501339184,-0.942035066817838,-0.143516573470779,0.125221272231555
54.195,-1.52254989509414,0.414890319543153,0.724135313523489,-0.660084939094531,-1.24301095034199,3.91550763186286,-1.32163792464004,0.0809073468021577,-0.791280413766142,-3.52076266084115,-4.41886101544386,0.401241951630233,-0.780874844306769,0.0897049634594069,-0.170105922703874,1.7775711739049,-0.298118772038654,0.252749618590939,-0.898927917260837,-0.00665415915164023,0.166324016578143,-0.962067890163251,-0.152956920778872,0.115182797827803
54.2,-1.60413714925412,0.445984297701846,0.852267269060539,-0.606783207991227,-1.10381114599905,3.88404896281692,-1.31150667270634,0.0660403735299517,-0.762794047012724,-3.41161237350356,-4.34097416817647,0.379248330896194,-0.823209589498805,0.110266093714651,-0.202350541664014,1.75291158162281,-0.287498801375748,0.13530256959771,-0.904529160008955,-0.00713798903197897,0.173332935579991,-0.965656262081207,-0.163160091534154,0.115768894380106
54.205,-1.73913020937521,0.475041784233965,0.980161233654668,-0.443283122771728,-1.04976021459737,3.88914297335259,-1.30189384621552,0.0298155984355102,-0.799116385368985,-3.33515711900184,-4.22448548543572,0.369917021650354,-0.835148087172373,0.137353458185755,-0.235106523683347,1.71761629290606,-0.271662953464678,0.0569002788765206,-0.906735011628205,0.00954446217405923,0.178319186588816,-0.960219752059206,-0.156977559323996,0.130167405429289
54.21,-1.84339658515817,0.507933711705063,1.06252718534684,-0.202081677660824,-1.12278049131937,3.949399647319,-1.29196416307929,-0.0240027973976975,-0.861448551936028,-3.28848184605933,-4.12319874314583,0.350591208375086,-0.848769288638423,0.156935431275002,-0.259255841539315,1.65447415580458,-0.270170530087523,-0.0920087128441991,-0.905207494973052,0.0192529233168373,0.186664967647575,-0.96484649181366,-0.16480152517118,0.14963257067212
54.215,-1.91719982101684,0.567153770287987,1.07147087725123,-0.0474698932236303,-1.23588617380161,4.03627448638235,-1.27343488378139,-0.0584333887646626,-0.863333733684844,-3.24122989553919,-4.07234002507344,0.31422627346805,-0.870916619606376,0.166098909759848,-0.278685305487823,1.58843288042013,-0.258403267014098,-0.234542228571644,-0.902183136253329,0.0240487325077086,0.191505208074115,-0.950444875140753,-0.176921941884487,0.164685285520916
54.22,-1.90369926640204,0.616676578221834,0.991030732606771,-0.0198701733652412,-1.35560467349709,4.13765101373733,-1.23764538963356,-0.0612390317937324,-0.822628737631641,-3.11171266152865,-3.97193353923487,0.267099949433236,-0.888277243755907,0.180313486711821,-0.288275183521092,1.51852468580736,-0.236806106015865,-0.397443816445548,-0.900532815088187,0.022963513954919,0.196133111213063,-0.91971965004146,-0.187185838363292,0.187050762738739
54.225,-1.84994670295729,0.620027991756651,0.874274557488289,-0.0763957851514672,-1.43379295517201,4.21136826292166,-1.22541925495584,-0.0370030258833255,-0.762723299619969,-2.93233779212294,-3.89312049656671,0.25617590546608,-0.913820908062308,0.17975505042562,-0.298701861486379,1.43714488213305,-0.211685502066375,-0.547176337025463,-0.898217330210295,0.0235475825987099,0.192516502035271,-0.895133268073487,-0.178796023641726,0.21294023870108
54.23,-1.78055135182329,0.580599179856578,0.776101989736269,-0.179261325457683,-1.45072686945743,4.24352558482637,-1.218921153339,0.00339185393891691,-0.692306759592424,-2.69831792912178,-3.81783469939957,0.262232317673773,-0.934288601698764,0.187465412064311,-0.295510971418788,1.39173860198225,-0.183591339589727,-0.656215502888348,-0.899894269700149,0.0200872622866333,0.191250437677142,-0.885531578742383,-0.161192098228378,0.249679726227876
54.235,-1.72140072934497,0.504999893042303,0.698456099138328,-0.292064834033152,-1.43341319075782,4.24776728538037,-1.21860593592113,0.0359486692021668,-0.632395560407571,-2.4697274900364,-3.72662306272264,0.283943654917887,-0.951516040813564,0.191789929790378,-0.292127210999456,1.36340934499016,-0.157226750010154,-0.718977387111278,-0.909935252045725,0.012137143637222,0.192771917608344,-0.886186950289857,-0.150502652566515,0.288123158615226
54.24,-1.65828114414977,0.401306745689206,0.634624802764069,-0.391655447595293,-1.3951764805878,4.19461143652061,-1.21511725294383,0.0407485071652362,-0.589325086223485,-2.26983099624324,-3.56756673152509,0.337152326555902,-0.969681497241991,0.215543342719383,-0.292387974332339,1.35607275903161,-0.126510372557976,-0.744016049101499,-0.925946066375961,0.0106840450492369,0.194785084639021,-0.877176807353025,-0.139334162693177,0.310270270661823
54.245,-1.58446478191801,0.286891677716292,0.561670151508199,-0.4589748709065,-1.33215581607822,4.1023654915838,-1.20733946459564,0.0540774252071825,-0.561151540353965,-2.20858286018479,-3.46157609529746,0.367813150396892,-0.986647590155223,0.273699994644785,-0.30526332550465,1.3760279441658,-0.0926382184919648,-0.707047173208963,-0.942191472639609,0.00824637902294318,0.201417864935333,-0.856198026894051,-0.12187238837241,0.335252491817208
54.25,-1.47025838086547,0.196375653860186,0.510874309517537,-0.511707478928344,-1.24766487231245,3.97399459035764,-1.20196177182539,0.0436440253568787,-0.553554895934799,-2.21130611951793,-3.34775122964094,0.383598204551926,-1.0322751974011,0.364128741641061,-0.310075531203146,1.38743711597199,-0.0785538226294456,-0.587800377862857,-0.949193612891267,0.00679431375157451,0.193666263852549,-0.844923701015118,-0.103512720291476,0.360098115081925
54.255,-1.30132312687136,0.113790730412526,0.464093840005469,-0.526814581397599,-1.16475131980301,3.80002808970151,-1.21316161754164,-0.00439670204675595,-0.659181823853828,-2.37346618277316,-3.2299438257967,0.392861826111768,-1.04979921706827,0.417159620161491,-0.312595789798626,1.44022503017216,-0.0830467390247222,-0.385227700048253,-0.961734887518709,0.00952403310887002,0.194893257303154,-0.827228847493496,-0.0890616121557727,0.362766103528965
54.26,-1.15296198895185,-0.0898691935807742,0.436054780391672,-0.448259465939892,-0.997756649145057,3.60226169728969,-1.17412266410613,0.0738052339935468,-0.759863772843584,-2.50866058298941,-3.24277035363125,0.397774371751359,-1.04947091462075,0.438944015622819,-0.260870201668445,1.39658302648559,-0.0447888537969564,-0.225345271359173,-0.973864087988343,0.00517411374131262,0.186504916382192,-0.79139038531092,-0.0843844125672521,0.352651612958181
54.265,-1.2680428972314,-0.246139314808517,0.460649975715607,-0.291018007997852,-0.830977042527122,3.36447931296575,-1.07125369980957,0.114483724674472,-0.590073546073524,-2.14134449190447,-3.20643697342401,0.339059767744663,-1.07293091197623,0.46933636371207,-0.210996145545713,1.440444294952,-0.0960092860837666,-0.0711215993341308,-0.97649106636538,0.00426410022734071,0.181208038618225,-0.769849081504813,-0.0866115408559908,0.363141411663487
54.27,-1.34524853257015,-0.249137904319338,0.416815135244541,-0.0949412944826938,-0.801668717588397,3.13681649524686,-1.05125500812557,0.0358337898123299,-0.44369900413465,-1.75402489209502,-3.03582038148221,0.306493493785555,-1.06179867938071,0.478466970224762,-0.201592600594831,1.50892918323585,-0.136343395105085,-0.0271157329218533,-0.97100634249504,-0.00283322656938009,0.179209690532377,-0.735551191953278,-0.0934785439653325,0.37118262052536
54.275,-1.29799752851442,-0.18773300018246,0.328656690691851,-0.0138603085941085,-0.768196007177997,2.82917989879825,-1.01169326971797,-0.0883584627046134,-0.499956003717784,-1.62105445405599,-2.90373108749687,0.348794871611624,-1.08635425075961,0.485954235555685,-0.195775386933763,1.65222172521741,-0.195671663404456,0.0480785353352921,-0.974422414114951,-0.00721346188042478,0.167834911015522,-0.708704716750466,-0.111915137341972,0.369887497143414
54.28,-1.28543084653353,-0.189141170045496,0.240857470063786,0.00896953490448483,-0.681187932744203,2.32817366058387,-0.940397246889812,-0.143814778242633,-0.55628566352034,-1.61420421680634,-2.73882258285249,0.423820366850519,-1.10395099833621,0.508135692192339,-0.201249362604324,1.81478987255771,-0.267300782791422,0.186039358348492,-0.982154401297701,-0.0156981945185691,0.160907755789984,-0.689405329570225,-0.119378531505481,0.369717461898607
54.285,-1.28995661288067,-0.234447574222968,0.209214251785912,0.0109830696958665,-0.606698223492622,1.99759202225935,-0.918323482269105,-0.104773386849055,-0.480216391983106,-1.50243166133809,-2.57626972859353,0.489843738425215,-1.09992347873528,0.52696608859016,-0.205665580606756,1.95829737491036,-0.316009936736199,0.308271228351787,-0.996658712435664,-0.0239190803962042,0.15449741687618,-0.657673961191582,-0.12366928683085,0.357278169209076
54.29,-1.28338502915919,-0.300863520337951,0.226891221195199,0.0805756455418115,-0.533075257605851,1.63386379060893,-0.913331278667462,-0.0329040281058597,-0.457719575471214,-1.32819952687611,-2.45264315569618,0.565893160749127,-1.09068402235762,0.55632685937318,-0.220593295899324,2.01309796965885,-0.356657803972535,0.461754569812467,-1.00040560094572,-0.0346317101694893,0.143985214621034,-0.609152458551358,-0.131348666685765,0.351459956839989
54.295,-1.29400117573715,-0.36348538318482,0.283642598129754,0.250730041724961,-0.442763801006735,1.27410374318862,-0.897564934768957,0.0103401360296235,-0.494725836993474,-1.09220981889639,-2.29129423749051,0.62268176200722,-1.08096606892443,0.575148648764929,-0.225322284240646,2.01196846761865,-0.396798491652497,0.624551841639317,-1.0000980899343,-0.0502387387588163,0.145097378163501,-0.555078581161373,-0.125899749300487,0.345037309437668
54.3,-1.34567868917124,-0.406978498921296,0.367130533124146,0.51462730142702,-0.377753736948791,1.02580424260498,-0.861046510846913,-0.0222123945110055,-0.490776822292034,-0.7240083610428,-2.10711410315156,0.688870415741552,-1.05636947311705,0.564219190098011,-0.217564623768231,1.88749497332107,-0.431032587835351,0.689135768242151,-0.99168370847426,-0.0574591260383842,0.140100313711248,-0.505810802784763,-0.109990889107026,0.336378731863333
54.305,-1.42847366830659,-0.465170748681288,0.454377304029137,0.785980717113778,-0.393303399263826,0.781460825842676,-0.833571617101438,-0.0926933617973293,-0.509048462134942,-0.360902261674948,-1.87125445995101,0.760692870694664,-1.0356423928544,0.541467309783859,-0.210592872226348,1.72278354287733,-0.464772289216936,0.65109104619711,-0.986153604901922,-0.0618028546952871,0.149438054588677,-0.462022059954081,-0.0812502484914993,0.329610732959049
54.31,-1.5092351695942,-0.494168120825868,0.482580703456382,1.50877673832429,-0.497473729421683,0.667164872293444,-0.792043527702757,-0.17184742118666,-0.600195781732844,-0.094009833898671,-1.63792882205578,0.801113146718019,-1.01622510228459,0.518842293428248,-0.193975879629982,1.463937069497,-0.491028300780116,0.511733087431376,-0.974916938293873,-0.070969362658037,0.15511171169001,-0.39768116617548,-0.0511727605555052,0.315125744390536
54.315,-1.5374727684769,-0.44366493731512,0.461125318762266,1.94427400314373,-0.640206070361005,0.568185110914027,-0.755386693509798,-0.211692723719206,-0.614233077374429,0.141779780602363,-1.4443865782361,0.815922882098676,-1.02965435177418,0.505507887551094,-0.172351517343336,1.10419091724258,-0.525674162677797,0.310508022061296,-0.974104228521534,-0.0645003349519951,0.163656916946418,-0.334979617668255,-0.0315612915379069,0.297649550462121
54.32,-1.52272292741819,-0.308456898865589,0.3641602692562,2.24593111488422,-0.830647405300085,0.453159317681266,-0.740566698620303,-0.186528681134938,-0.574253586687016,0.405856450660021,-1.25916471012567,0.801198903470543,-1.06700965065662,0.510674891013396,-0.169780412104634,0.832854673168147,-0.549603778460734,0.199007498323469,-0.969812415767284,-0.0655724745166296,0.167357578454423,-0.282190609782148,-0.0149503997201679,0.284314541335131
54.325,-1.48066884446495,-0.238047529559229,0.274954840169435,2.24296111045635,-0.94983432279446,0.357851269302853,-0.748078323644453,-0.128840015629725,-0.558062265077181,0.740295543589942,-1.00865323372157,0.766604620393046,-1.1299202968449,0.550245338813838,-0.166742604406201,0.55078124757528,-0.569950106153289,0.17746131717773,-0.969261902357633,-0.061794820743631,0.176086389402884,-0.24261868414989,-0.00623499620705301,0.277434375057916
54.33,-1.42711636434833,-0.143445983669182,0.171855188918418,2.11315520398903,-1.00504859855391,0.283137737933876,-0.766748584491506,-0.0896435507130101,-0.550006253868408,0.998038356523404,-0.801703185399154,0.738647595907319,-1.19921511010367,0.605756641419877,-0.18889486178651,0.353808612363522,-0.59549367373704,0.30993332666266,-0.972099370810465,-0.0519262523553529,0.181419258426965,-0.220774668510289,0.00308978490608936,0.268168466656083
54.335,-1.3232833673018,-0.0541187700412172,0.0672477115098382,1.68438513375644,-0.969814602567165,0.149892966773829,-0.802060900817444,-0.0524631618559484,-0.503945877177292,1.20665852075731,-0.636580185420174,0.702638700958675,-1.22415364961478,0.637199036813184,-0.203884923619951,0.265040969698128,-0.609138250222974,0.478581934830018,-0.989086453167482,-0.0429793636022773,0.186760848134492,-0.213900882411969,0.0196173366622068,0.271252622601176
54.34,-1.24435770376641,-0.0300916920786265,0.0240121865305585,1.24433878212332,-0.87554200459544,0.0285841314568914,-0.839295440153347,-0.00640088396227683,-0.458395216120859,1.37307852428328,-0.448330902247092,0.643474812694688,-1.19956550798227,0.643738612367006,-0.213606917141296,0.198780747540382,-0.608966226179068,0.633008834167533,-0.99689410766428,-0.0447380830545786,0.185185379805414,-0.232954854625943,0.0347008306920593,0.271269711206688
54.345,-1.17886249621654,-0.0489431998454837,0.00797688793710656,0.743171714763929,-0.717213291291181,-0.112967508176448,-0.871576650182675,0.0210734475060966,-0.436259196049393,1.40728089104974,-0.288020871113096,0.586316974715448,-1.14476475857962,0.620670990374087,-0.219705582347983,0.129763238273361,-0.607483659518958,0.670708532810441,-1.01488159686017,-0.0348558290188769,0.187701968796106,-0.251272207931817,0.0540167316519448,0.261388497859888
54.35,-1.13063018912335,-0.0791797877119171,0.0172894505377381,0.36734185758342,-0.554792280571136,-0.2346109876232,-0.903231805613232,0.0403380440867562,-0.435861206069047,1.32905849196328,-0.100920920336923,0.509951332461454,-1.09472211551757,0.588916831998661,-0.212417187414619,0.0465597810110411,-0.57475487356412,0.63436252512539,-1.03255152316999,-0.02231791316467,0.194501493340304,-0.272239928213402,0.0715409016016503,0.253349426897524
54.355,-1.1041528349139,-0.099941054544198,0.054431128699092,0.15711133670695,-0.422018431451335,-0.331140572705002,-0.906610942907002,0.0303979015127558,-0.43573254915964,1.15450210735583,0.0554550956432384,0.451397200972214,-1.02707674034786,0.543410117233727,-0.198310179451334,-0.153433660547084,-0.544540864623464,0.537802112746894,-1.0464089245271,-0.00800996166100001,0.189026395686079,-0.299517418949217,0.071758867734904,0.243741119750987
54.36,-1.07255186234746,-0.113166052102351,0.108007768988499,0.0312599357637832,-0.270821021576905,-0.433809348350273,-0.903836402716178,0.00896601342976246,-0.439676907200966,0.897468792815969,0.168437362592797,0.391107876571353,-0.969504156017351,0.494029289426819,-0.191626205055047,-0.283286825069437,-0.508115959844927,0.48360329822753,-1.05851190406531,0.00805914292033593,0.194848411263328,-0.3095728211606,0.0669128680160603,0.225545444529493
54.365,-1.04599343152529,-0.0872891137197117,0.143811864169449,0.027527154148704,-0.163847455487996,-0.50372910283567,-0.889792140834148,-0.00410980397602713,-0.441571227126577,0.625166857336705,0.287141438684962,0.345256802436939,-0.91123681829192,0.438994687165753,-0.18840004909217,-0.437547752967907,-0.467148898917671,0.433537589057512,-1.06924733672816,0.0242672902182149,0.197161376154272,-0.326390540230977,0.0766559388547492,0.208939220375738
54.37,-1.01327486464366,-0.0424066005696613,0.17044047531919,0.101087827371337,-0.0485787731402469,-0.578380360371294,-0.88481275166374,-0.00760517019271347,-0.434695644127974,0.433540833429948,0.380481691054604,0.320275509786454,-0.866357387036445,0.373105459866348,-0.184283730820965,-0.613259824287271,-0.430407412260869,0.403354766146954,-1.06963131137293,0.0365347191443385,0.204255198188594,-0.327642863672677,0.0684757670607525,0.192108238338306
54.375,-0.97831520160436,0.0284791189576012,0.212617921181181,0.175072906363328,0.0476417656147062,-0.642100177667192,-0.872661162078413,-0.0158040868642029,-0.43694617538529,0.276094370092446,0.479452546082792,0.302673442023141,-0.814280779650447,0.287871032169087,-0.183706696553623,-0.835729213270207,-0.41077680681098,0.333620396039991,-1.07765869801115,0.0466839427515434,0.208177037115746,-0.32802832433406,0.0583261952461565,0.182621255495092
54.38,-0.968022186943696,0.105144956406539,0.255203470238471,0.244840690809175,0.131848251882048,-0.670351613347913,-0.865970854294221,-0.0150885457197732,-0.426885948952686,0.251880522193978,0.558928872407738,0.312373846769333,-0.78516871475807,0.204630261259268,-0.182551206642247,-1.05632556070774,-0.407070514175853,0.23274808397719,-1.07540436061046,0.0607284438661907,0.214353106063239,-0.325994521458286,0.049194062862396,0.177716223575932
54.385,-0.978312658352666,0.19406619665029,0.337817198085505,0.328870961810358,0.223154273822274,-0.678444525225953,-0.855020961203524,-0.0112890280603598,-0.405295163957757,0.323926135697145,0.660479101003245,0.317025037188077,-0.754583678910426,0.137176036344284,-0.181305363736108,-1.31555968456513,-0.40488542551801,0.0730042646927404,-1.07787962925202,0.069726652258331,0.220522566200381,-0.334959418736589,0.0461098711054181,0.181343713187781
54.39,-1.0121379247684,0.258660509721134,0.414090977536264,0.426400745095831,0.280864245839863,-0.643745051213928,-0.852546744006759,-0.0160910651462925,-0.380970093727755,0.396563647262915,0.750016476618077,0.324039982913834,-0.733075375882537,0.0917971381027759,-0.178392688040167,-1.57747580698703,-0.394178666657681,-0.0834954844085496,-1.08135159531321,0.0746179601052173,0.22152795060473,-0.335143222004888,0.030938494829559,0.202094854095318
54.395,-1.00893213995533,0.305019188922924,0.45900689145972,0.513139104506265,0.28823836596253,-0.563365998511889,-0.860537125729578,-0.0493917647373731,-0.42566756557547,0.419295294883992,0.874915894872211,0.318870042346263,-0.720291927583172,0.071116081827319,-0.183242566796273,-1.77025723484596,-0.367038932945249,-0.197872014641686,-1.08715901830801,0.0852735764607073,0.234890005682094,-0.330172852500716,0.014221090546754,0.223978341165095
54.4,-0.959310596266255,0.367005540962906,0.469867828161998,0.545253721737881,0.295441292594509,-0.431829075162571,-0.866392518221214,-0.0809000760306126,-0.446633799772803,0.376619404420132,0.929424274236214,0.29934549549643,-0.719198763133628,0.0699981672961466,-0.18486825916659,-1.9066491812143,-0.336509704467514,-0.284468557522709,-1.08427032659167,0.093156652836216,0.233749803186879,-0.32072598707335,-0.00225441945429507,0.251879799417605
54.405,-0.898362552968423,0.414776212799402,0.447574440920858,0.524223093948623,0.31249658941648,-0.314254602617078,-0.878463568763413,-0.0939537652282423,-0.426024694402936,0.377545475128518,0.958342132458766,0.270382829780019,-0.715924997155586,0.0882445811606877,-0.180076830028583,-1.94097979238098,-0.301866011939627,-0.303690656259025,-1.07623282271109,0.0994704296871011,0.241795701625694,-0.311485943330152,-0.0259618148428551,0.284677032884546
54.41,-0.827187630263069,0.434102833472574,0.413426276098679,0.451026386955226,0.376470334694458,-0.154087817460143,-0.906283001338587,-0.0785052343374959,-0.386302428973518,0.398547177154052,0.972459896588671,0.239064360441758,-0.696510974696545,0.0974757008450449,-0.159429051007613,-1.92493015588988,-0.256143925989563,-0.306770756109151,-1.0809060338422,0.112533633465214,0.255278558454559,-0.299511377507316,-0.0460530460857428,0.30770370835845
54.415,-0.781553570401692,0.440942680868072,0.386441448115229,0.362544098434542,0.451149166155016,-0.0791424464280211,-0.929793519405529,-0.0733803308834489,-0.330681808698213,0.418889780102961,0.993072818682739,0.21050067447728,-0.672148699089558,0.0713583170054418,-0.122774522462055,-1.87919107039375,-0.22185665559224,-0.31566231861317,-1.0858785058322,0.116870736617224,0.264317831701755,-0.283904793695286,-0.0625725867812711,0.355910170731247
54.42,-0.74388760382126,0.410582966083539,0.351234324367907,0.209719634686162,0.598427698374208,0.0490990820366533,-0.955182424171512,-0.0694265273790527,-0.290625578910796,0.396526984426509,1.02015478116984,0.175448323659004,-0.643172074205919,0.0157646440187848,-0.0739841898689061,-1.85392752254565,-0.206725554821376,-0.385180777284049,-1.08870427980038,0.118216020602146,0.270449508900385,-0.277388324295227,-0.0721385456270973,0.376131018257237
54.425,-0.723602237816549,0.400737306907383,0.30902266664985,0.0731194757019262,0.743200116917019,0.146212824729811,-0.972746686136225,-0.0721155458142504,-0.245335221664271,0.320659460573184,1.02707794437277,0.154001319985154,-0.621983357555181,-0.061458712076901,-0.0149469115236851,-1.83873497271751,-0.206180065920392,-0.530039269553892,-1.09596998250547,0.124295625159326,0.277861337745751,-0.275526467063052,-0.0756087942937782,0.38959252309719
54.43,-0.685429688178881,0.340581496013811,0.197080004561533,-0.225374148236323,0.973866689907356,0.280417788523597,-1.00548869478662,-0.0621192659129846,-0.175228236474167,0.206605659959314,1.04075786511195,0.104898422137292,-0.623310530687908,-0.126819711661265,0.0430807241439121,-1.86096428407744,-0.226952270080712,-0.692820269063665,-1.10374780256325,0.125435748594678,0.286778529141718,-0.286486753452328,-0.0804056600248841,0.413474633785982
54.435,-0.323815135140781,0.145793867067595,-0.00627723629555767,-0.468454594909523,1.38162616147351,0.330027446563951,-1.09440887791917,0.0186705463164886,0.0737862770616942,0.349023273438557,1.00871549094795,0.0668132454156876,-0.645220558630164,-0.188132109308789,0.103796756520381,-1.87305115044521,-0.274883780522346,-0.935303741812742,-1.11037311544662,0.127062357572119,0.294497725782198,-0.306869604316957,-0.0850963184348848,0.436769788975261
54.44,0.878310812336184,-0.0420724566678197,-0.37206917110437,-0.742064498056722,2.36544225839873,0.17480673529855,-1.34106312745185,0.207569440780138,0.826658183254971,1.1150582560107,0.787142264520211,0.0768545493561577,-0.697447046400638,-0.270320936288598,0.180434529869938,-1.8499898115486,-0.321740167713958,-1.14561576898544,-1.10465703223509,0.132773472740631,0.309249589079059,-0.336444318156677,-0.0656599227281028,0.459137013118506
54.445,1.81467580259624,0.157516405521376,0.000500599555642356,-1.4318301962843,4.10362317218919,-0.362549042273045,-1.65539939360526,0.260616201964479,1.6542528021529,1.95913512831914,0.567285970788227,0.104081529412178,-0.775173510832465,-0.320636411019262,0.228129563573661,-1.8092560693537,-0.365067074173506,-1.33964880241455,-1.10057540801312,0.135805602084611,0.310938032229115,-0.342748684399603,-0.064301899223441,0.471388907582647
54.45,0.10469419322052,0.55531481818075,1.34969558171154,-1.54510919419298,4.96250559475003,-0.91402208736648,-1.94933566609061,-0.222813156687635,1.34759027122988,0.829119441095293,0.761919279891015,0.00865009864543041,-0.936179728449522,-0.334777208202289,0.230021406622697,-1.7090921896835,-0.389732813491144,-1.59403230344249,-1.11093600472154,0.144701409156456,0.308994111135459,-0.345931648945941,-0.0411389580197975,0.478991665742689
54.455,-1.09588433993875,0.630033880131323,1.75428671010966,-0.915776068699504,4.48331630162479,-0.759317074024093,-1.92290114587325,-0.441699789042011,-0.237197850501237,-2.24058864474483,1.0904689894666,-0.121447767226513,-1.10826992499317,-0.293307743296457,0.17683664434473,-1.5290578314403,-0.378272438014522,-1.80703305625798,-1.13964088587411,0.147496367347148,0.308262728190783,-0.348512870935563,-0.0230404796367806,0.4652079367809
54.46,-1.69856110802376,1.32160537082545,2.14445947326515,-1.64913212506532,3.85453919598296,-0.491301984082244,-1.67879013802689,-0.126764592045806,-0.291219921228438,-2.66652197849076,1.0135133490015,-0.16574948407333,-1.3689682753748,-0.190986200127015,0.124967965574771,-1.17266833046162,-0.319651922090724,-2.02794271586755,-1.22058171541705,0.144625424040042,0.289626783669454,-0.347797601449756,-0.0314366210605211,0.42067102626606
54.465,-1.32570748757855,0.989096755102018,2.33416776002862,-3.71146870884848,3.36756104339544,-0.748684276569672,-1.33829994137455,0.218772016419154,0.0168862216622829,-2.25909787838103,0.682710006049551,-0.278014578303551,-1.65066881045067,-0.0608318881156001,0.101152802077727,-0.676618703182367,-0.217771489235593,-2.13766842903316,-1.32246856366368,0.130850334010131,0.25546340826579,-0.325157652901708,-0.0614127106934337,0.331804008990859
54.47,-0.6832730037684,-0.523904969782526,2.1329687020554,-4.98211409760681,2.43807675275102,-0.954886293598972,-1.09789117202838,0.383625591904031,0.0170205280659196,-1.94073412036656,0.480659413485622,-0.332273535290437,-1.84471060786514,0.0643420356019813,0.103356548089631,-0.170881313924173,-0.0894786122433082,-2.02040787766292,-1.37074724513159,0.106453652514358,0.220577189442855,-0.290365379928621,-0.112501691315576,0.209851155367944
54.475,-0.454342703364779,-1.23540322699483,1.58367917240196,-4.07613200119588,1.9331550374917,-0.729553010492065,-0.898633786403527,0.436137008853046,-0.0471337612494912,-1.99368567263531,0.503218243385753,-0.279672067929161,-1.98875299426098,0.183591491844407,0.153480567489053,0.508453094099913,0.0718590922971777,-1.56479834344596,-1.37158555211066,0.0784324812293061,0.19246663443933,-0.280753190453306,-0.186220454886532,0.149799277109663
54.48,-0.658441966875144,-1.19542551609857,1.15521686671153,-2.2505705344304,1.65046959972343,-0.870836299460791,-0.840727728093214,0.234762590622572,-0.0196708819272974,-2.22819164262246,0.708274857449461,-0.164487543691512,-1.96040334586082,0.349150165903348,0.165050988216334,1.07278114047375,0.146755126635799,-1.15943763209131,-1.31638071869582,0.038848518855178,0.161656167664723,-0.27290836631759,-0.280413834943412,0.195821349479796
54.485,-1.19242986515556,-0.581703852069252,1.12527892032234,-1.78638656926837,1.4500542090637,-1.2946486238371,-0.867621790396562,-0.122011612415985,-0.192058628758513,-2.6523635307902,0.803280602035498,-0.0723954643067461,-1.84838884706391,0.468313841237578,0.207591160446906,1.87294395345319,0.16941003930905,-0.620756955200388,-1.2311424839676,0.0250538690515291,0.136071332519268,-0.290039704221447,-0.371906299766533,0.184288099533287
54.49,-1.4663880819745,0.0756212638480084,1.0759528067794,-2.4474982344104,1.07217550608359,-1.74751952858069,-0.919804689418426,-0.272029527122812,-0.402900802008345,-2.86608111273281,0.803730724570811,-0.0237342261106647,-1.68575723959225,0.513843683825889,0.221772687150753,2.49432894274051,0.171069665199905,-0.133201022132117,-1.16837199048752,0.0374559300239677,0.116319252697136,-0.333976681890869,-0.401139312959271,0.195378526882911
54.495,-1.4581725453342,0.598183824279717,0.946744765703711,-2.71327323124072,0.841448769282992,-1.75300566319934,-0.990845168918677,-0.199034847659926,-0.484412027029344,-2.45565783018284,0.873883979039011,-0.00129338305396533,-1.52271148409257,0.524822519734604,0.219029142462399,2.8298230703301,0.172588146921,0.165648411621511,-1.12024935590359,0.0408364704730559,0.0806727704963281,-0.407035697303185,-0.404931036019247,0.190119177465761
54.5,-1.43813655308315,1.38064668221133,1.2061306978975,-2.98261205245572,0.552671479583815,-1.37937179829608,-1.07610333846991,-0.150292411207131,-0.475655126392873,-1.72318266882951,0.946333812920953,0.0407066648696417,-1.37805986813554,0.521787373020681,0.222119296128704,3.11782786089342,0.150621727340277,0.263984177405834,-1.10615794986939,0.0572921483765561,0.0626448022355717,-0.450533625271152,-0.343301289530944,0.182739694706318
54.505,-1.1815248860274,1.36492252286855,1.31616660509243,-2.70080416984516,0.162362886176827,-1.06334262816071,-1.16361476561205,-0.209550576430541,-0.396093710452545,-1.20888041388675,1.00285817185491,0.0502832506268043,-1.28666092564892,0.491653017688253,0.220248232426108,3.26185523770351,0.0961845430607872,0.19783261980189,-1.09426901176122,0.0684720498317707,0.0472993969210188,-0.472063239255371,-0.216832683547814,0.174005510780725
54.51,-0.947516252562238,0.599799160906055,1.3114847053263,-1.49702147023478,-0.121568964820795,-0.561871070216489,-1.31192623083672,-0.192110828856463,-0.192562284112585,-0.764516931800677,1.00342174038982,0.0441500300721103,-1.22796041735289,0.463855804514254,0.162054827249899,3.24598116675028,0.00700672599730115,-0.0498814733674283,-1.08512522281062,0.0849497481060391,0.0411646264232513,-0.481590362696785,-0.0567011730476551,0.18393983358254
54.515,-0.756122407309522,0.0124268067474609,1.20221278423315,-0.621260801591289,-0.21522189724407,-0.299849157130632,-1.40354212866485,-0.126211724881903,-0.0486181537454248,-0.579900444285155,0.987018319447035,0.0581927701095375,-1.28072161206919,0.445136059491515,0.231360934765098,3.20668893564097,-0.231352645271054,-0.273585223569469,-1.09823052627575,0.0894561672832302,0.0430027244734097,-0.468073430757102,0.0956246697108231,0.210043104740929
54.52,-0.645550140214082,-0.237056533649273,1.09938934433561,-0.362081161080516,-0.186635131885319,-0.208993290083755,-1.44312127029982,-0.124149961763551,0.0320463633731782,-0.496116514012358,1.01544645094,0.041619937797626,-1.11198056479252,0.373594795548191,0.121225674963905,2.91042117877521,-0.115479563952888,-0.608084839723032,-1.11633560578496,0.0889278303695924,0.0457614247192941,-0.429370116972341,0.198850483692584,0.200128677917612
54.525,-0.586973009095837,-0.316899074289394,1.06069878847445,-0.262197431880046,-0.193224847453754,-0.195086285471916,-1.41473074692136,-0.213624307978325,0.0282021917242492,-0.641091772239555,1.05554896254949,0.00338238773399946,-1.13138701397874,0.326516438400677,0.122099089364836,2.83317229033868,-0.173139278528352,-0.935825075146757,-1.15281604446458,0.0888924810159673,0.0403633252401895,-0.368191850572031,0.218999192523391,0.166538339582589
54.53,-0.53288335346256,-0.289235745759348,1.02202764165884,-0.278363576619053,-0.199961289211511,-0.184047592470337,-1.31603513696491,-0.281202999298796,0.00607716534805932,-0.87825680771907,1.07867568995324,-0.046286608639401,-1.14396368369991,0.275009915390723,0.0890462898585239,2.80498450796209,-0.20242348303791,-1.15997579137775,-1.17678331430804,0.0792190213777299,0.0325353366754195,-0.316900621767723,0.148461563076065,0.142613235165857
54.535,-0.530381273806616,-0.168327440575037,0.996763532077449,-0.221858205621161,-0.19207914187973,-0.134071778185379,-1.18871622468883,-0.256055343072506,-0.0168665479124617,-1.10582636643202,1.07531265963794,-0.10793633884743,-1.14465554219668,0.195526025926275,0.0574316010314604,2.6954629457732,-0.220919360667949,-1.30265712555548,-1.20935986555972,0.0648303972176821,0.0337849911923829,-0.230196975905149,0.0178305703764455,0.132782416148825
54.54,-0.493663766277784,0.0510063875373288,0.952378786241571,-0.122156008468328,-0.168983459845815,-0.0409472292428802,-1.03390599057669,-0.156289281987132,-0.0406228223634303,-1.24136250738926,1.03938834652541,-0.135918853568366,-1.10842506488926,0.137236904258828,0.0170153720771648,2.58252456143929,-0.214687296258641,-1.34061835923073,-1.20233540972036,0.0478934707135846,0.0343600260315051,-0.187939937959215,-0.0864915279307417,0.149519436813843
54.545,-0.499954571618465,0.180808020991212,0.918505631761437,-0.112440737518103,-0.152255983148106,-0.0067682780546651,-0.925766678284054,-0.088807482774225,-0.0808096245201119,-1.37343973652187,1.02337977662971,-0.130073632154653,-1.03282363239913,0.0599191095286793,-0.0434844256332891,2.36236674195905,-0.187357501067528,-1.37180164129635,-1.18478020513608,0.0313782534912067,0.0419465109362342,-0.174677031787526,-0.165760226886696,0.17763623477621
54.55,-0.490832881011202,0.252185698368979,0.864907335508522,-0.186116696714969,-0.118832958166504,0.03548959721236,-0.83788325441032,-0.0441026568600609,-0.10218725857524,-1.38706684335458,0.961355544572899,-0.0789240107026796,-0.951729832655786,-0.0105898794868066,-0.0979355031641803,2.17131826733985,-0.168451151360733,-1.39143309820524,-1.14118139635924,0.0154945751226085,0.0454378837166499,-0.214592530091547,-0.221416119781223,0.219349495943501
54.555,-0.457559946731778,0.271230967134007,0.842852729096699,-0.191797207294198,-0.0976396770010832,0.0552437751354503,-0.798991559242612,-0.0424594216941878,-0.0993103745809976,-1.23159092771971,0.942494117399886,0.00238321825164477,-0.858374543799415,-0.0915019875218136,-0.178470499511545,1.84308534818683,-0.117856730619575,-1.42465365386242,-1.10262196144456,0.00413679064368878,0.0601914995987297,-0.275578139741347,-0.214636433219029,0.263557194927894
54.56,-0.441317211140652,0.278048334828829,0.844225042859284,-0.169540033757286,-0.099667578348538,0.0332824452681017,-0.813206193164053,-0.0352339644741561,-0.0886408251521248,-0.928160358795354,0.934390823893317,0.0893209910340209,-0.802997319296056,-0.13992755962857,-0.247838555171979,1.51991853343079,-0.0816828112612699,-1.46462327197275,-1.05526393575106,-0.00720094529164868,0.0711619719681572,-0.357619985137545,-0.201705344860164,0.295221849589006
54.565,-0.434126730297919,0.298841526092329,0.841044489394914,-0.147373830638978,-0.110551540329748,0.0184463084308674,-0.861198650718547,-0.00980359998219554,-0.0736678439093504,-0.561584139748318,0.898701347740785,0.166705362167918,-0.743947618841995,-0.17493599572332,-0.320016807978364,1.15043749369613,-0.0311948446253678,-1.49788119909863,-1.01814546369506,-0.0139478731062745,0.0835599105503337,-0.412740518065026,-0.187416071050328,0.294674533719922
54.57,-0.411252868339144,0.349480096421019,0.833018431592246,-0.138147812346333,-0.134512496353527,0.0250811349540746,-0.920276525453,0.00879224060012396,-0.0579983830906469,-0.250047394970014,0.867629732732365,0.223129828222048,-0.698245446905388,-0.210370950852488,-0.400194200965082,0.80770616318171,0.0160854840101561,-1.53368658756339,-0.989497319773652,-0.0116560802180424,0.0895162017906651,-0.428724268634098,-0.16583651495776,0.267583521430831
54.575,-0.399419331933892,0.329930686083098,0.840493078281384,-0.123666115935648,-0.147295301151263,0.0208300627749843,-0.983443554518409,0.0231139661630644,-0.0321772086672536,0.0135761900745536,0.82924772538317,0.277352963200677,-0.669189911756529,-0.221501502545098,-0.447497680661635,0.461289200825806,0.0479474346276166,-1.55807204020643,-0.961428304521289,0.00601106276013596,0.100415668514459,-0.399490573310221,-0.152395160918746,0.262463344868311
54.58,-0.412240187649153,0.289441280759258,0.838377730162828,-0.114402770380192,-0.162748171486303,0.0189690256168411,-0.998725694533787,0.0209026338029409,-0.0141768659746941,0.151451566023824,0.803573345579383,0.300113988411565,-0.624069094646789,-0.229958046709574,-0.49988978835225,-0.0186084773086691,0.0952789970511849,-1.56875787195468,-0.919378700581594,0.0159790987317641,0.115461270208421,-0.33191512490757,-0.123605041211233,0.268019858437594
54.585,-0.421421769848107,0.262589100050552,0.843637475380909,-0.104077071527214,-0.176313681757076,0.0227408613824923,-1.00335967756051,0.0312041839356135,-0.00335363130125648,0.249780561374032,0.792018648326155,0.302260459988232,-0.60374001089327,-0.232104069219825,-0.524756027638485,-0.359462727087572,0.12124056704266,-1.57421997791847,-0.881019183915766,0.0258109017889164,0.128517702998816,-0.263457872465023,-0.103762775957089,0.260008342072511
54.59,-0.424448792009292,0.240291071570266,0.849219955925103,-0.109753495680642,-0.191286733349929,0.0181532020057848,-0.986142032785629,0.0454277417709587,-0.00402905148570119,0.286216765383728,0.789319100288855,0.301378577947617,-0.592208652347726,-0.226513902453697,-0.528765476794303,-0.759001871559401,0.150168406430516,-1.55439915419837,-0.855706372202798,0.0306854019529402,0.1335391548847,-0.173823396026383,-0.0800512503884161,0.205242953276119
54.595,-0.424720292989593,0.222523913271511,0.850521843975554,-0.108647276293485,-0.209747575600555,0.0124593007620694,-0.969759040976265,0.0626854488927574,-0.0162517391086853,0.283156638249243,0.784838177082261,0.309764005858675,-0.617831372446514,-0.22801551175068,-0.508212434973469,-1.0517313819069,0.146057505672703,-1.51341682401709,-0.839198514042415,0.0509115384652513,0.128668761232304,-0.110842333690355,-0.0791042432448649,0.168570991750984
54.6,-0.433421830387595,0.221507078626024,0.846310686294336,-0.114732321136716,-0.224277821800686,0.0236428630027531,-0.958362953506261,0.0912370102123792,-0.024950343885826,0.203389580907817,0.769584439714652,0.30534774719828,-0.646173964129607,-0.227313605722304,-0.461511614857952,-1.29350983952446,0.118481027934931,-1.46263986766153,-0.812583720641765,0.0550704344551274,0.124943753748028,-0.0912838752365978,-0.0806454592178611,0.151660765393268
54.605,-0.433955226368649,0.21201905054657,0.852673892112373,-0.124638257623487,-0.232060789025411,0.0317179684264713,-0.95138293322229,0.101681368914031,-0.0419225774853645,0.0522138155024532,0.776615557521854,0.298602370201755,-0.691698042370085,-0.226886891419493,-0.407975810581602,-1.47409477436652,0.0745125406195526,-1.41320870383867,-0.791613400485711,0.0653043027079827,0.114390437036218,-0.0904767695873839,-0.0792128762613404,0.127220176547721
54.61,-0.432475245298856,0.206526393502438,0.863908570874739,-0.126552007144353,-0.244330479179797,0.0387655634246599,-0.949372197357116,0.104864041374502,-0.0687169492368928,-0.0841299951513884,0.747308038922805,0.278115691859836,-0.769955517717987,-0.223622388384857,-0.323915595837675,-1.56512364320318,0.0185926832632575,-1.37605752352323,-0.779851305542295,0.0757984038881215,0.108405659659061,-0.12358499992102,-0.0777678862214088,0.0987469351889615
54.615,-0.420113743678822,0.215805295637445,0.868522656571325,-0.132372753363267,-0.246854466863841,0.0431374760101643,-0.957963127640745,0.0901097119268632,-0.0684494108302757,-0.206524961808657,0.71402473104542,0.271473871851927,-0.866421408140106,-0.205022190261944,-0.246394997025696,-1.55655194948286,-0.0638492621349305,-1.29477276891003,-0.768588261465561,0.0866985208714298,0.100741439369639,-0.17960452692593,-0.0787468473502026,0.0710259853152178
54.62,-0.420288604017291,0.228087414196798,0.869839758632893,-0.140122888570013,-0.245510238892823,0.0358139835298061,-0.978956017002803,0.0824957132783417,-0.0476236719159907,-0.251421387044384,0.684432334636768,0.280987868375047,-0.941676488515359,-0.179502322221697,-0.201298010896903,-1.46387228467582,-0.142846555262513,-1.20150953399467,-0.765417203500743,0.102726071053558,0.0858500603344139,-0.28702557985318,-0.0700945550413906,0.0462988250292889
54.625,-0.428214863205472,0.222412834430537,0.868702472251302,-0.140746473247297,-0.237257746804728,0.0350296604009902,-0.993414856385088,0.049360850027879,-0.0354038419657361,-0.28232288317941,0.663988279798455,0.29301312268969,-1.04863454971665,-0.123399034543653,-0.156742286461729,-1.29028278862157,-0.241043630184657,-1.05415833908367,-0.771934478845208,0.117776038963916,0.073666748394447,-0.383593817653071,-0.0480055079910195,0.0322979780420532
54.63,-0.425049987698124,0.176386370023705,0.882321994457304,-0.127771082760813,-0.23000795119801,0.0257918192643624,-1.01458797886217,0.025744133289955,-0.0577132613685892,-0.330827860208888,0.648977640462782,0.306133965003065,-1.11104988247325,-0.0837001486335251,-0.144232529382973,-1.11484149917233,-0.317491701054996,-0.944727930534599,-0.773839185347572,0.138629686120827,0.0643442282356824,-0.481266739494962,-0.0211571473642783,0.0229761994989458
54.635,-0.436873427820639,0.137839830812701,0.887032356519976,-0.111434448957628,-0.219097863628122,0.0307538742836185,-1.04119372112466,-0.0114446500297506,-0.0989536644834456,-0.378311062889666,0.617997617369851,0.314658260155311,-1.16603879259803,-0.0410301816375465,-0.145729553450182,-0.877264308835268,-0.407781860645603,-0.827197392708219,-0.790055082305264,0.167779282901341,0.0493111265912769,-0.589052436360232,0.0250981862221471,0.0221444346930229
54.64,-0.443085941112642,0.16116818442848,0.87787801561918,-0.0946673229697323,-0.21889219018111,0.0350822175773174,-1.04670401039534,-0.017139041449952,-0.100082570741015,-0.34682557872996,0.596379952874386,0.313120295245334,-1.1797913693879,-0.0324235795545554,-0.143480574055315,-0.71115586215843,-0.440945194687427,-0.785676948047522,-0.794830617004117,0.184094399241691,0.0368958806410928,-0.652828455966848,0.0752398132357954,0.0280823990189178
54.645,-0.446576363437844,0.199805835205122,0.869681131244548,-0.0757941051417443,-0.198112652959633,0.0470839889983124,-1.05430791262417,-0.00912357062232438,-0.0886842112507799,-0.269449097337643,0.587184333566855,0.306190520965486,-1.15077024814946,-0.0153232629193691,-0.117855295088026,-0.706196242334189,-0.448562350085814,-0.798442655565085,-0.805291916110424,0.207310661574303,0.0221731047868196,-0.702337880239858,0.114370717938546,0.0416317086704185
54.65,-0.442460574309487,0.205881644119423,0.872369181172568,-0.0604721508569858,-0.184813200496341,0.0558434338352138,-1.0503701166042,0.00366011607013094,-0.0832707905897028,-0.165316787160229,0.573387374907913,0.303684501702888,-1.09943400256085,-0.0145692258848458,-0.0833728944160956,-0.769409366349488,-0.428222887585023,-0.848951186845179,-0.816473045158933,0.228267367949622,0.000871902527804577,-0.727317768010248,0.132017750453588,0.0547662440677542
54.655,-0.438630808728909,0.182946791086513,0.877346783614779,-0.0482574818972087,-0.161158792939517,0.0557089277877688,-1.03375052951772,0.0110435586182588,-0.0892964159657852,-0.0644736383646362,0.565827103623759,0.312109623983894,-0.967681179971281,0.0114221749911802,-0.0375837219361368,-0.943578184110305,-0.435081143091528,-0.902250282059867,-0.846430913526979,0.240266345561849,-0.0142430126932835,-0.736500137446895,0.147686939182873,0.0692030627717591
54.66,-0.429190434764432,0.192079895653535,0.868014835830916,-0.024287451585816,-0.149423134736924,0.0587878261850841,-1.02745295673156,0.0161720350112791,-0.0824682051230171,0.0220079821565707,0.554836210072868,0.317527766479927,-0.993814319659582,-0.00686088136203114,0.0227764661006511,-0.989745329333625,-0.327118506227669,-1.16745668919051,-0.851271395671854,0.249871008101473,-0.0304996392552597,-0.735402868678761,0.170254766159926,0.0713975406223145
54.665,-0.42186494185772,0.210526214284828,0.868119865892898,-0.0166779857432732,-0.140602830673601,0.06415568422461,-1.01384390158467,0.0322843279247367,-0.0773994817225322,0.0824714743247027,0.541086704869016,0.317574427803658,-1.0145306994137,-0.0213931837316098,0.0448915928645063,-1.01994649384017,-0.246849277941665,-1.1938768668553,-0.867074346351567,0.251876405712517,-0.0445907743961314,-0.735847067277161,0.204127384623906,0.0972985824675085
54.67,-0.418067795823925,0.220051558618701,0.874076192174973,-0.0118413622546277,-0.136443333646639,0.0597688638672543,-1.00211639130182,0.0656685064293039,-0.084878246393472,0.144622470228269,0.524520841946246,0.318482309579849,-1.01603444262277,-0.0323390908952195,0.0999379665591275,-0.955720295045907,-0.201870452361448,-1.20114281138518,-0.894120036698572,0.250149743965842,-0.0642260181916079,-0.730571966774708,0.229793891632019,0.106642091461477
54.675,-0.423232491312184,0.222697209099765,0.874338484715129,0.00114303514113663,-0.124745591259902,0.065969326961928,-1.00479247953197,0.0932855682185731,-0.0668181613732982,0.225707787539955,0.522692315439381,0.331372805416577,-1.01345413088295,-0.0425093302276248,0.16995583899862,-0.851336223572358,-0.21045329524202,-1.24080252612603,-0.910661676226248,0.248969905698809,-0.0796342552182404,-0.718779782863076,0.276048379350542,0.123516045380095
54.68,-0.434859442965303,0.221694512712212,0.869713753360452,0.0238527369674539,-0.095708126288214,0.0644225103809948,-1.01250388335424,0.115028793646629,-0.0039134215312073,0.354681554944493,0.529441928875062,0.365496400262719,-1.01012816887611,-0.0814674663947526,0.245928749975835,-0.732129981392045,-0.232430289296915,-1.23342305294622,-0.921248076756795,0.239083993008485,-0.0955988717259778,-0.704751999497714,0.349571865379825,0.132278113901465
54.685,-0.430395437122038,0.229823767845146,0.863377493456314,0.0282912957637172,-0.0789836068990726,0.0703814803001604,-1.02837915227986,0.123431163524125,-0.0224282697654952,0.404820735642947,0.510955680263829,0.377456692300533,-1.00636811416798,-0.121064654624817,0.326845510762647,-0.632290114281739,-0.265922441516379,-1.19004711982675,-0.93047877673919,0.235963187062476,-0.103834130279539,-0.683646867669355,0.433267712711496,0.138369611252465
54.69,-0.42368915835393,0.254126082835868,0.865718599502193,0.0331276664164863,-0.0500140462037358,0.0668375742064298,-1.02209523670769,0.149373701583263,-0.0776737382450139,0.364647658654577,0.492719701716886,0.363110486342159,-0.99823300698811,-0.148575464972681,0.387530703755908,-0.543169687735087,-0.289585704256687,-1.15672282982046,-0.947077788679044,0.239761627010076,-0.106929294327262,-0.643919371343227,0.487448913291326,0.115319196122423
54.695,-0.412398941468284,0.263275946136575,0.858437400031025,0.0283597608748738,-0.0531320321974787,0.0620037865748758,-1.00898453387997,0.167128163514165,-0.093952900389173,0.316988784801741,0.505197840922689,0.351817160826346,-0.998780792116887,-0.181815596300671,0.442803424884555,-0.457468383459346,-0.287092168540673,-1.11458190691438,-0.960857848626232,0.246905076650328,-0.109904958291294,-0.60002304864019,0.511712789296323,0.0994882158639138
54.7,-0.412945081042617,0.244168064015247,0.860575822624363,0.0321333915487555,-0.0520160481005491,0.058788152751285,-0.998193984479326,0.186077534688144,-0.0735797356853521,0.230524623305447,0.510374715469141,0.311789400657213,-0.991721538172226,-0.205506324790138,0.478267787282873,-0.389316709487661,-0.258791592948318,-1.0951660397425,-1.00025891507264,0.25059633179085,-0.0999719668871464,-0.546151511581031,0.501556411290986,0.0933903168069802
54.705,-0.41914227226356,0.236469705975583,0.865219062189667,0.0236753255057948,-0.0487744038164671,0.0602478720247746,-0.993556101907005,0.190676388721674,-0.0593069017696136,0.159837968992555,0.481062041714753,0.270423098792026,-0.996799791960265,-0.221028947417339,0.505346156686217,-0.30775873933797,-0.209468766371662,-1.1062020929876,-1.02824589612517,0.258178246769204,-0.0937668297139933,-0.492240284437941,0.467895471191601,0.0845087617584481
54.71,-0.423110846224097,0.234468423667941,0.858713516901644,0.0322756567136614,-0.0703564102085071,0.0635493472520665,-0.984658996616064,0.180159591485873,-0.0691075886392052,0.0777306678556392,0.46259380708493,0.235112625301764,-0.99614353811193,-0.235431053453256,0.524065663814547,-0.221314786141382,-0.156074367804391,-1.11962686467803,-1.05040940366736,0.259818378764655,-0.085849077511537,-0.410334195563373,0.398513883381586,0.0783176737124634
54.715,-0.41034654318195,0.246380230636278,0.86494295317821,0.0250396428098232,-0.0463226141625784,0.0569368142308691,-0.98536522962026,0.173414897187733,-0.0784758356403792,0.0121522198662073,0.465126994197428,0.222380112364828,-0.995930772220352,-0.248059138847749,0.532829176092523,-0.113238778387659,-0.102656898671116,-1.1136709192119,-1.06430107452994,0.25641957952265,-0.0857714592469327,-0.330328103654373,0.35075436209982,0.0928428058632062
54.72,-0.403116237244916,0.259076502151491,0.859715118519375,0.0172341768094603,-0.045396530786635,0.057055419096829,-0.993853315652374,0.173518302354467,-0.0782947104592968,-0.0309255810266687,0.458234164565435,0.20700976010254,-0.992664235690927,-0.26656224346663,0.534457659880565,0.0373201975939145,-0.055878318030784,-1.08168628452747,-1.0583677531092,0.25368719778248,-0.0804468279383472,-0.292609861191017,0.329558688926765,0.125239650133685
54.725,-0.406358995337137,0.256952982505026,0.859330474729823,0.0117812385310453,-0.0472044449978438,0.0517774359914975,-0.99224318209122,0.185631762283763,-0.0781806765290768,-0.0706969144357469,0.434141039074763,0.181369452257507,-0.987724006809372,-0.290243886194128,0.534851002663813,0.181882837996079,-0.0187854816991954,-1.03622655488922,-1.06186433484826,0.248342190009654,-0.07090477661525,-0.273139781089359,0.322265143463316,0.152583017157386
54.73,-0.409336016923817,0.260165995935309,0.864978882558042,0.00257067651204004,-0.0608179016046393,0.0504743196070194,-0.996070982047548,0.20477191517804,-0.0868927607759874,-0.0997917963305935,0.406390466126887,0.158156343658752,-0.982568347696788,-0.306078463397014,0.527125659682508,0.362460575560123,0.0227594600494962,-0.926349320899245,-1.06018331557315,0.243483999368432,-0.0522679422428959,-0.277703330097247,0.333879626708627,0.186819738455993
54.735,-0.418245869723567,0.244133641382014,0.864082337215776,-0.00131157345611225,-0.045076068456134,0.0340836184950929,-0.986963038892038,0.208025147999301,-0.0900262685370772,-0.124147272293964,0.388143467232332,0.144014620445542,-0.983349683346376,-0.318301180543083,0.504606478431793,0.499094522859652,0.0565177786761265,-0.827416582438696,-1.05113601885245,0.225561734418286,-0.0352312466046972,-0.292536749486172,0.363478244609662,0.198923692107201
54.74,-0.416494234176589,0.227666907659755,0.868436101519469,-0.00203341869793886,-0.0363497860433274,0.0343123306158427,-0.990228851219583,0.185036504107286,-0.081508032847587,-0.15074525018799,0.371619552179948,0.134313509498228,-0.99646860479648,-0.326027938206844,0.472307508002794,0.631423566100353,0.100093634625853,-0.726720183655894,-1.05275933918131,0.209573523186837,-0.0222832854235473,-0.287514099111295,0.355579640154969,0.200225172315337
54.745,-0.418882653804751,0.219950133481819,0.86875484121384,-9.50464701134086e-05,-0.030335773935107,0.0300646060882355,-0.997481766490519,0.161657610674723,-0.0929107151072704,-0.200182085655496,0.365683734416962,0.127568582617677,-1.01023733174215,-0.331628478915564,0.426069827554592,0.753854045672753,0.144189010870896,-0.634675507829837,-1.0428247556156,0.198039927551578,-0.0132792655951633,-0.278438031536469,0.36456110187328,0.201107621158691
54.75,-0.41961398812264,0.221739578460265,0.867143019264866,0.000385087487490437,-0.0202205444465103,0.0265165404675991,-1.00330547860665,0.135929501068358,-0.106497002467401,-0.206447054136033,0.373303279175478,0.120145243651727,-1.01612167409126,-0.338726545505028,0.372357326601206,0.846052216859129,0.182035549188974,-0.580678733529281,-1.03241985139467,0.193763137905767,0.00992852024448598,-0.286148948904808,0.392492082589736,0.196992677547475
54.755,-0.416887313733382,0.218313707445562,0.869575898747961,0.00553362094117174,-0.0192446253958976,0.0269062945725171,-0.995423050242645,0.131115918294731,-0.0747518488499476,-0.136192839156137,0.381327377823357,0.114384840995534,-1.00929862561307,-0.34610090752217,0.318147899423793,0.895185376973332,0.21623830387342,-0.538874804039577,-1.01914690045148,0.195312753131846,0.0273665620638884,-0.294136196374893,0.429872316555927,0.199890588684674
54.76,-0.421888025250877,0.217254167493221,0.868196801033079,0.0148172378461133,-0.00600670577607507,0.0243244461756329,-0.997398510561029,0.114644392054572,-0.0743137328088758,-0.0307358310407645,0.378520295872982,0.121307718132472,-0.989536579187838,-0.345114088348825,0.255845772081061,0.921480473841157,0.256424351196993,-0.491898526125714,-1.01477519148646,0.194007046648752,0.0441748096916459,-0.302154508051365,0.443807613665739,0.199038379506052
54.765,-0.41470373056699,0.227413766756799,0.867151468886964,0.0192974312659999,0.000366336069292449,0.0220264733474409,-0.995395355799732,0.109737107618095,-0.111677181864816,0.0158783607184887,0.358289511088831,0.11670998237462,-0.97164168884069,-0.327978074079606,0.18945725422132,0.93421067764409,0.299500966524065,-0.441310371652028,-1.01234334429024,0.186661240740705,0.0593872521397955,-0.32127360971848,0.480614310134311,0.199161248232939
54.77,-0.401919731070274,0.236129161511385,0.871079506910518,0.0190676794512324,0.0056725514024061,0.0200510720893813,-0.989830989485238,0.107947036546796,-0.14341012734465,-0.00154506249444445,0.360133303391848,0.113370372229334,-0.959773550352759,-0.296236187640309,0.133651718889348,0.978096605110667,0.340593629592263,-0.387313754597975,-1.00994048040481,0.172387566292682,0.0784472726061064,-0.31941281203195,0.516269801170193,0.196648837257609
54.775,-0.404055234210956,0.227360168425514,0.868544800107803,0.0246307741987543,-0.00439486113130236,0.0120689646987901,-0.992152342974239,0.118789519258209,-0.129525390382227,-0.00331746441812498,0.334883354770676,0.0744947029824378,-0.953866310966817,-0.252123388340665,0.0764202845756343,1.06959920247527,0.382400250577825,-0.321078468510277,-1.0094723812541,0.158743293206767,0.0827854536336029,-0.307893020583094,0.546926478474302,0.184616916733464
54.78,-0.415139028030402,0.239583191849561,0.862870688987626,0.0216518651360296,0.00277409620074531,0.005999444622496,-1.00238827836231,0.131635135653409,-0.12777796655154,-0.0137021404441167,0.298280753653211,0.0549723453492594,-0.950780145551668,-0.210895085799362,0.032733248431906,1.17977744435019,0.412794049027211,-0.248367999362474,-1.01470813624897,0.147428148742524,0.0749463417354753,-0.29590072841254,0.541068789322485,0.171697175046382
54.785,-0.422375961474637,0.235281000299469,0.86351287023168,0.0246296087237946,0.0100523456931114,0.00288880899391327,-1.00320802984851,0.151894219612163,-0.107576418664019,0.0244407455570828,0.257572734928937,0.0415993283192093,-0.954547967727829,-0.189293060850148,-0.000107201731763333,1.2595435587967,0.436355993695468,-0.183072908137508,-1.02487023016997,0.136431753946229,0.0712371240694093,-0.284512462348975,0.529028183705573,0.163971408649164
54.79,-0.415525119695311,0.234294202993935,0.86779473623519,0.0217407084315991,0.0122632285416143,0.00160653656348586,-0.998344905038506,0.149740352273291,-0.0810318311826605,0.104197928954431,0.263826187966139,0.0520833867824208,-0.959338782938999,-0.180489245541381,-0.0248426770964335,1.30796804062546,0.445959573747007,-0.147523988139162,-1.02584123981703,0.130113025341179,0.0621508869630583,-0.279640225594153,0.506388882755115,0.16772377988724
54.795,-0.408280764670668,0.233359229194204,0.866986205528868,0.0289027236749212,0.0153003352537972,-0.00187794024541196,-1.00273478594876,0.13322445440865,-0.110466469503527,0.136095846793612,0.246015535629468,0.0592589492394649,-0.963195437525523,-0.175943978932479,-0.0407943746889746,1.30786309374936,0.433397348333055,-0.142349589802543,-1.02705811945684,0.123381388331347,0.0501067337937956,-0.26661373704429,0.465869636076735,0.170119158288644
54.8,-0.414749823298378,0.223575161695493,0.870146188801304,0.0338958579321739,0.023310578700088,-0.00380088625421978,-1.00298262219246,0.119503539097574,-0.107876952473006,0.207197244822948,0.242954811425084,0.0675148028498617,-0.970516498869154,-0.165573142217604,-0.0573773521023492,1.25415664068036,0.405065061076005,-0.15907632974619,-1.02361680484423,0.121920900830316,0.0400979153158392,-0.254712487739882,0.414047867612396,0.173202206626242
54.805,-0.418305946744953,0.217040710866736,0.86762482134115,0.0389248802519976,0.0360052935645291,-0.00737453058432923,-1.00645974590265,0.103298381333684,-0.0614681839865292,0.300190831918535,0.261279960211242,0.069701188805023,-0.975395540684708,-0.151406609858892,-0.072551319952433,1.20272568091303,0.383879448802408,-0.185566006921997,-1.01606230617897,0.129139302885026,0.0279691383639311,-0.239887241078906,0.372260142645048,0.171559154858579
54.81,-0.420349059302663,0.221994724839915,0.860865849801176,0.0505941041094027,0.0370514601762896,-0.00364575306957319,-1.00790437918157,0.0861692018901814,-0.098923580970745,0.287924813557724,0.258180534105027,0.0681713491400522,-0.980146254807614,-0.141024504503457,-0.0928047480471154,1.10204103956361,0.341485348312931,-0.229842334055652,-1.00177137057286,0.146196072253029,0.0199688797801557,-0.228489427440368,0.331958540149334,0.172046408057213
54.815,-0.405771035751859,0.231833349943332,0.871068508364531,0.0549091562664756,0.04301973225951,-0.00134994059632909,-0.991508843599833,0.0573444427543819,-0.129330247881686,0.237079865110069,0.244246401709444,0.0658340788364021,-0.984584230302589,-0.133114481316333,-0.109518175073148,1.01143162433149,0.308827870298132,-0.254475675195249,-0.990594110988504,0.160215880644358,0.0280948092654077,-0.225721299648285,0.307410755545316,0.168506581275732
54.82,-0.400659902879735,0.229476804694845,0.867489279189436,0.0545844253911057,0.0386722399257297,0.00233417944764946,-0.991426362678286,0.0504729677369588,-0.0996627267384134,0.19405972251472,0.242033482470721,0.058520489148321,-0.988246342759637,-0.125536382799465,-0.123194947400272,0.927231956658546,0.271771330407837,-0.281554673763009,-0.979933790936388,0.172790076927515,0.0313907218874794,-0.23007377224362,0.297994735887861,0.16786203091464
54.825,-0.404778881034585,0.227128312030294,0.864966103714786,0.0510757026923171,0.0374913729847933,-0.0023554093659128,-0.991492230556206,0.0922672543671739,-0.0774453442905879,0.152809675927309,0.224839335593425,0.0406991210051698,-0.989871346222505,-0.110713307924639,-0.137366622382929,0.851270682611607,0.236776871489557,-0.296849924826169,-0.9758648219099,0.188395667642284,0.0359526712004852,-0.246844498517218,0.29188019895239,0.169911551305891
54.83,-0.403867664403296,0.236823708326895,0.862542975278632,0.0563488697039413,0.0267607658963053,0.00322353563116201,-0.988093530565778,0.119669602526625,-0.0882237594229233,0.107345397184158,0.205470429826265,0.0270225225202469,-0.9905404150838,-0.0899999056671264,-0.145390379337913,0.807324675769244,0.211756116412178,-0.285596869526586,-0.971156148254002,0.19048378658584,0.0328880301039053,-0.275792810912367,0.298396441625814,0.172213817448772
54.835,-0.390914060490705,0.247363485941357,0.858550893782712,0.0692699180861056,0.0161106352043874,0.00300992762016893,-0.987963388715428,0.118595396811938,-0.100734785282506,0.0350555674981767,0.173927636888051,0.0307145385940173,-0.987088004889588,-0.0651898862424163,-0.14519232201095,0.741346849745744,0.178748293570816,-0.266295683540376,-0.967898037541722,0.19684271168874,0.0366270825818582,-0.313458079062197,0.306413496320833,0.17313761436812
54.84,-0.386913294133727,0.244709832918407,0.861345463775735,0.0741319270261494,0.00586667798713613,0.00306193428211531,-0.994891695623286,0.113730486019244,-0.120181739904088,-0.0341111286503722,0.156453447969599,0.0207292873528508,-0.98014992343708,-0.0499549576366485,-0.14701489030221,0.694789988476915,0.146776518497332,-0.242445977631644,-0.963926033484119,0.196822976316679,0.0331454955842645,-0.347541284696269,0.300957411527634,0.173377767854648
54.845,-0.402927660147157,0.2413750277088,0.861339941082595,0.0682460253565313,-0.000875556379638267,-0.000769503219237295,-0.998029284518921,0.128544364047685,-0.138348534760835,-0.0768569483727355,0.133119243640975,0.00717337613670918,-0.966862440189047,-0.0403487894636409,-0.146295964750188,0.602965522540815,0.0989446257346772,-0.211994896671971,-0.965872313784785,0.202003994797927,0.0364616454570099,-0.391060011335314,0.304660148617382,0.176452031987744
54.85,-0.420846999677565,0.221170756237662,0.861368567478611,0.0611976744676981,-0.0032677065003829,-0.00647099246445921,-0.994621118759191,0.139785908476919,-0.137251789592686,-0.0787247681385074,0.122143801251901,0.00886095282340811,-0.955777104829032,-0.0437752902673501,-0.147261034754054,0.532622503716996,0.0706776865839676,-0.207656728037299,-0.95963704822029,0.210906074247248,0.0356820398386649,-0.430061279981036,0.322852560997822,0.180090520772276
54.855,-0.427516590032358,0.211347002611499,0.859471282769657,0.0669520949669284,-0.0105377422128374,-0.00292279178583666,-0.986593123433706,0.132765917649312,-0.131633201684355,-0.0665663396712313,0.117912599151992,0.0174510519702196,-0.944091157625211,-0.0520683240373369,-0.146268675500406,0.390626402072638,0.0278201142794757,-0.219793383155951,-0.955684075942221,0.21391002384468,0.0300399098529718,-0.45430724244167,0.327258451990675,0.178025796221244
54.86,-0.42307444999782,0.219764114880256,0.860823266575451,0.0685431032030318,-0.0134542329990887,-0.000341918982862906,-0.984942421965531,0.114594825899129,-0.152935009441187,-0.0892871596530032,0.108194513323807,0.0171747431260565,-0.941199676858878,-0.0596807491788664,-0.140121166631544,0.254121047990743,-0.00148482014452771,-0.269377175206166,-0.948101871632518,0.214684124849787,0.0283966391821666,-0.456737853920491,0.331383469816105,0.176041177512533
54.865,-0.415844189567223,0.225199388904234,0.860571603273586,0.0678163468837738,-0.023973278398903,0.00352148283328003,-0.988111041225644,0.0966695528567825,-0.142778016255311,-0.114744132155715,0.0930294459851403,0.0146944252381253,-0.942227232529678,-0.0713862920232838,-0.133556601691011,0.0880871327913248,-0.0255255767936207,-0.339248041901663,-0.947292055770039,0.2193786666696,0.026817690859214,-0.454664220840923,0.330523309296397,0.174489796161652
54.87,-0.409658028368468,0.227744542191516,0.859653876442754,0.0557173408990963,-0.0353977665018753,-0.00682737999816791,-0.99065782212147,0.093093586613959,-0.127461569810366,-0.117557689255877,0.0893094170029926,0.0149593785444556,-0.948942374862976,-0.0784290327420829,-0.127857970846779,-0.0935162661218815,-0.0488764141116667,-0.417896607579983,-0.93502574995313,0.220153115956179,0.0295219485688123,-0.443326778375756,0.324142798680482,0.173438792595677
54.875,-0.412563702008001,0.234348307184533,0.863296730611944,0.0455543772711719,-0.0481636404063249,-0.0124565357037865,-0.993063256953667,0.0836648139443207,-0.117987682185881,-0.102727455725991,0.0836323321118308,0.00881205459173139,-0.9605667034818,-0.0821208617928321,-0.118142392314749,-0.299020027560673,-0.0673878373637292,-0.514107082927544,-0.93249372688799,0.225288752633799,0.0357250807513375,-0.435830758527756,0.317948083395004,0.173324625230789
54.88,-0.428389213418918,0.225809776613748,0.856528890821226,0.0360795568851529,-0.0600838321484797,-0.0121000791698513,-0.99223406777724,0.0751656291445908,-0.11679026176047,-0.0743441145697271,0.0840080138908769,0.021760811498278,-0.968305709251967,-0.0839165334076717,-0.117234841458378,-0.464353574273824,-0.0797889026279389,-0.584351712572113,-0.924327870812502,0.221337092722947,0.0413464704946577,-0.394455710026071,0.312119659757479,0.177550635919189
54.885,-0.40334125046933,0.24240638978642,0.860394712643063,0.0415478448834024,-0.0621140072696441,-0.0247483382542359,-0.983029390833994,0.0815933410120445,-0.102536736224653,-0.0403148026166345,0.0748541193361931,0.0300345710902949,-0.976123943581698,-0.0832372461891468,-0.114413686472056,-0.605399852121144,-0.0896545731054734,-0.639081560147758,-0.917117302484124,0.218745638520461,0.0401489792356493,-0.351779975716356,0.303678774363997,0.186650701873285
54.89,-0.401765708491845,0.233682677026467,0.862708728470066,0.313651461106705,-0.0718121722710674,-0.034196797852726,-0.986672592416174,0.0832189817968077,-0.0902756057945829,-0.00459038538659791,0.0745166281223721,0.0335582967837934,-0.981360094199244,-0.0809414480343147,-0.105817839652723,-0.750534233939618,-0.102060726407648,-0.691076954783345,-0.909848903273691,0.213873363064465,0.0453090755257597,-0.313791789659843,0.316692720662042,0.195370230539373
54.895,-0.393610115710034,0.216906833632779,0.868641500957174,0.0352077164373953,-0.0777538425504682,-0.0439732872567732,-0.97980824886594,0.0868629122723504,-0.0898855894500411,0.0538839906002831,0.0719123560273376,0.0383857710617916,-0.984965945562037,-0.0801706291749536,-0.101075201680921,-0.8422685855356,-0.103355905599817,-0.715165919929449,-0.904078882830387,0.203395926285105,0.0513727623369424,-0.270561973200859,0.319973216315498,0.20026043910305
54.9,-0.395124480738468,0.21212228070356,0.877463994207608,0.0431316039971501,-0.0874540581079193,-0.0563147992931414,-0.982198831252841,0.104905577134878,-0.0858494619659073,0.102644367138175,0.0818604948337488,0.0372239478422755,-0.992703727247374,-0.0746935856872338,-0.0888343140620598,-0.911591582276095,-0.100014441586577,-0.725363593443114,-0.900163759517827,0.203777947278429,0.0560612715771847,-0.223882886267616,0.327054499933916,0.201367080211639
54.905,-0.416248715085513,0.23589654541491,0.860000833412425,0.0362269449566693,-0.0870725190939493,-0.0638412965647605,-0.988635731797841,0.120452898057672,-0.0816062371084272,0.114517598096724,0.0946517553087877,0.0356348430001656,-1.00077330010578,-0.0720989039478399,-0.0735443650200188,-0.955703452205906,-0.0954194320683155,-0.702289635367961,-0.908955335246058,0.194492773524965,0.0604101444016382,-0.201755306235468,0.330774316959991,0.202836890902824
54.91,-0.42574868925609,0.257268821982333,0.85188904698934,0.0303079411321442,-0.0829178149527858,-0.0534831603077742,-0.991563663026298,0.12990204817449,-0.0933538668535801,0.107094179891777,0.108863800732701,0.0294810023380198,-1.00689193442351,-0.0686214418342846,-0.0553451553060795,-0.966188013553619,-0.0917672303689532,-0.671161185385536,-0.918855538691204,0.18326159279104,0.0654815126692344,-0.187106709968111,0.314133636735005,0.203810468316078
54.915,-0.417447797453242,0.227484948370439,0.862506956422506,0.0289057133233008,-0.100807552727292,-0.0509263277053833,-0.983746629108537,0.145715122570076,-0.0917558482774716,0.11178949021304,0.126231595873833,0.017744554716757,-1.01679044131245,-0.0643070695837373,-0.0318407708562044,-0.95494160804731,-0.08680928206327,-0.624498266462649,-0.927725101603645,0.173744184417604,0.0655316092567573,-0.179669090687397,0.299363543488206,0.202092525905012
54.92,-0.404475894701232,0.226869725843664,0.867176824392883,0.0231025758445755,-0.0805994117740755,-0.0523931214393662,-0.984787614538565,0.134252425357402,-0.0873566533689691,0.0730901135975102,0.129083442577322,0.00484476310956469,-1.01990291015393,-0.0601708634720054,-0.0103292777822397,-0.93350953464581,-0.0771270826194163,-0.591472990983975,-0.954242889881568,0.170337717118144,0.0659429091621441,-0.182522840911851,0.280261334852233,0.19814114051775
54.925,-0.399055358117416,0.230789474905623,0.867554862035755,0.0214609952554674,-0.0840871756645721,-0.0561743054598192,-0.988720673905013,0.127193150977291,-0.0810862778445959,0.0418613161387009,0.132784037651901,-0.00893501299232592,-1.02909525820109,-0.0601530004635524,0.016098031292036,-0.918073695126377,-0.0672100820056601,-0.556378037068381,-0.976582679029273,0.169362290863029,0.0566687910713253,-0.183206617891169,0.241092252288062,0.198190528124008
54.93,-0.398739051551024,0.239902360981646,0.865809197646487,0.0190720798218172,-0.0838946078305093,-0.0592311513137974,-0.989768031021985,0.126832235386296,-0.0801296164768061,0.0167182132078611,0.145351165649401,-0.0138185899704695,-1.03190961283355,-0.0621227353344058,0.0425196742772957,-0.893108073355973,-0.063340748493962,-0.531708040853047,-0.996292831813549,0.175375886249351,0.046423758970826,-0.185230075751626,0.205511555463771,0.192470008415539
54.935,-0.4002441658081,0.243928725729999,0.862593734680606,0.00760684512831656,-0.0761592052009738,-0.0626235776605543,-0.993189288851684,0.125449298121514,-0.0817813900740795,-0.000906431859706758,0.155392804074727,-0.0142969847485875,-1.03027530096118,-0.0656224526366202,0.0667167845557981,-0.859145491904644,-0.0569359986067127,-0.5032860119399,-1.01130334807932,0.175453077568422,0.0387635129024488,-0.175392147787084,0.166343035908169,0.188297665548408
54.94,-0.403172229767531,0.24350064147352,0.865017108385015,0.00453216304463575,-0.0808419271293814,-0.0594781897962093,-0.986727356742198,0.123373971784808,-0.0891871711622938,0.000742803628577234,0.15433058142662,-0.0155827785563318,-1.02570303208656,-0.0763721151869615,0.0893982620441153,-0.800852425457559,-0.0544960827308733,-0.460560698688791,-1.03077015801958,0.176166263185496,0.0406067844535275,-0.151575253282627,0.108679269895807,0.175501665529275
54.945,-0.400087672522698,0.237249903996879,0.868594840146069,0.00464133209790663,-0.0839369425037991,-0.0610529895802923,-0.979823088764519,0.126353164963994,-0.0959864723559822,0.0200765935045568,0.152785946601646,-0.0125968959182501,-1.0167254229728,-0.0917838914995807,0.108831989283159,-0.756085908043237,-0.055922726216064,-0.424204452073556,-1.04110427101804,0.179237330281103,0.0346950498935163,-0.111896244068558,0.063748048358635,0.15935307901359
54.95,-0.411565236789619,0.241625238560544,0.864271264029158,0.00332426035317027,-0.0852398276329041,-0.0630144112655417,-0.972783484609779,0.133196410307481,-0.0917730875228843,0.0770479008533457,0.158356835260127,-0.0136751695745744,-1.00633008821997,-0.110828636116298,0.136207853735021,-0.70240308261542,-0.0572381543199372,-0.380374150100622,-1.05485096215518,0.177459676946165,0.0293223052135757,-0.0663532784133915,0.0188818148011755,0.15285806068506
54.955,-0.409206870302464,0.243401716750001,0.864208536437099,0.00603676684327885,-0.0812235072541547,-0.0662815116775501,-0.977441154945795,0.138600247589096,-0.0864570195103227,0.132900484441388,0.183170665764891,-0.00771011598408222,-1.00389874939019,-0.135601858955769,0.160150696692122,-0.665681388413955,-0.0588282879767634,-0.347423357981468,-1.05531754552777,0.176221896551887,0.0371821378286516,-0.0123384419044441,-0.0343463800981408,0.144299357728323
54.96,-0.400275246379554,0.241108621134637,0.86360699529773,0.00966957376072975,-0.0791313499212265,-0.0601758612472534,-0.986497282103969,0.123973334896421,-0.0932280381080203,0.141196871867463,0.182877220318743,-0.0096374883499798,-1.00826410552337,-0.153803576334019,0.181932255333666,-0.640617652298348,-0.0654648169659171,-0.333062689771835,-1.06243101794947,0.176490734348996,0.0362714239274177,0.0414182826044334,-0.0823460205311787,0.135281444552934
54.965,-0.400149902276382,0.237937718353509,0.86629221796467,0.00961138033122506,-0.0759900746257233,-0.0581690627805472,-0.994156605315916,0.11767480199618,-0.100394325646949,0.141841708824923,0.19040242570044,-0.0187690930974757,-1.01376583923757,-0.177542935835149,0.200616095416038,-0.632937469042493,-0.0692872777581215,-0.322430290187731,-1.06278836626346,0.168411062157196,0.0425377780505861,0.0854211007757174,-0.11792701249292,0.12779441713054
54.97,-0.404475436468673,0.235821036241945,0.86741772706585,0.011382518380424,-0.0676220369322706,-0.0583744336661963,-1.00167145320783,0.11825297850477,-0.10248348435227,0.132858534647378,0.196564625168292,-0.0310934983931917,-1.02187462632547,-0.21301481091193,0.213365419451338,-0.631755920914794,-0.077812094650719,-0.333318232158895,-1.07081286210492,0.16366432087294,0.0452005345141131,0.117021876653424,-0.152294099384938,0.112792802779815
54.975,-0.396907490372796,0.242578116958071,0.866088910060253,0.0099491939492381,-0.0646947743256184,-0.0571466748231356,-0.999890028024323,0.124373228924754,-0.111002134582375,0.131198864651257,0.206956006460102,-0.0461379986460997,-1.02372731222163,-0.24059451141164,0.214516246936337,-0.627192802634612,-0.0803611138238816,-0.342835847049677,-1.07556240267648,0.166530547158243,0.0451459557815418,0.132100644363114,-0.171693095341138,0.0952142152655636
54.98,-0.399275601128742,0.249222104256795,0.86503273363841,0.00798244694154982,-0.0654308913740206,-0.0552894642176222,-0.999218416335129,0.117412840007527,-0.107051358697886,0.113991944833549,0.208565951467942,-0.0524319950444837,-1.01541811683871,-0.268672991050365,0.207906063802112,-0.582679029006427,-0.0815042182803154,-0.351052732130157,-1.08168909468579,0.160690642409468,0.049033783974508,0.133354005474325,-0.192835412582705,0.0917344799602334
54.985,-0.398659896719123,0.245177693024323,0.865917994487452,0.00131779554530785,-0.0569104926981795,-0.0548880946388922,-0.993710014056807,0.111873102689955,-0.110336227034134,0.0803764181331603,0.206971214683336,-0.0540267363473951,-1.00030230587349,-0.278571744682257,0.200222374863449,-0.484296508077877,-0.0694620650799227,-0.37148187335801,-1.08261886967631,0.15888026902393,0.0506704702005671,0.139565363526344,-0.203433908964997,0.0697610748520457
54.99,-0.402778777448953,0.23599247940186,0.865879681234218,-0.00647128209783929,-0.0623063528662641,-0.0537233284068957,-0.983987826359476,0.108040456422971,-0.121672892048947,0.0618683925308001,0.211094112387621,-0.0520847823296347,-0.993499203643261,-0.278842811241315,0.183636754100858,-0.352590338844288,-0.0523688104130787,-0.37826329237896,-1.07943149381786,0.157314496592577,0.0548339606848435,0.150113781110744,-0.214651391751668,0.0494357980614838
54.995,-0.404570612597137,0.234760143078499,0.863301431473445,-0.00852299192196333,-0.0539710796462787,-0.0524617314865814,-0.984637937428982,0.102601155846911,-0.11730538604506,0.0538402052193147,0.208589579996078,-0.0539663613169932,-0.982854032660558,-0.267717769993298,0.153354499326348,-0.185474321601628,-0.0352978602174991,-0.357761272489767,-1.07244158475242,0.16764127756177,0.0626238911384337,0.14620650951113,-0.200869484085157,0.0361951753211299
55,-0.414369217155447,0.236629604442996,0.860226774550839,-0.022375479037897,-0.0483314624348337,-0.0472612418234348,-0.987316588907458,0.0977853540337782,-0.12730070430832,0.0314195681107078,0.211270784613737,-0.0529128089547157,-0.985668252112894,-0.259633894341706,0.129319207938435,-0.0944082277367181,-0.0200213308242722,-0.342379349949928,-1.05864653531753,0.173470855000287,0.0709222244494399,0.149229343894802,-0.203607850470265,0.0171212579753439
55.005,-0.413806049428371,0.237290046426057,0.859602350429649,-0.0290614236660978,-0.0382176355678933,-0.0425044613277374,-0.985060961210931,0.100074520334541,-0.131039316225812,0.0063057333784106,0.219094102248348,-0.0451259228005418,-0.987495161333803,-0.249639860661757,0.111622086902291,-0.00319322749357417,0.00733777801127308,-0.332541975229556,-1.04527235822388,0.174890789893495,0.0773073528675439,0.152029407931634,-0.193583724926228,-0.013661014968176
55.01,-0.405693997132677,0.234788671183257,0.867423076569503,-0.0221941268489829,-0.0460680851872277,-0.0311023982329914,-0.983264908028915,0.103989337648096,-0.129947516549814,0.00204454121230409,0.213067492090547,-0.0515955410968424,-0.98814753577719,-0.237634492426621,0.10043271524284,0.068427506907231,0.0279462392571806,-0.309756329236823,-1.01897066573471,0.17485205757241,0.0813593382304071,0.154396511817436,-0.170538761136753,-0.0363768598867645
55.015,-0.40811905379762,0.224079024158353,0.870217115447734,-0.0351643278140606,-0.02957937088198,-0.0364126889587212,-0.989760851715463,0.101201268735094,-0.1235549839511,-0.0244018604914008,0.210791583673259,-0.0600780086573774,-0.980271582515628,-0.22679183495264,0.0877369810216202,0.132010368749363,0.0456096652484013,-0.260413690743148,-0.998715724561634,0.175350497802932,0.084627729988956,0.150688184428296,-0.153277402634345,-0.0693192327533824
55.02,-0.406892136153806,0.224284004623285,0.869014605732955,-0.036261886065555,-0.0277694562400118,-0.0281825179432017,-0.98982228907504,0.0952447601013752,-0.129428044616713,-0.0529342329998324,0.222704119930773,-0.0604625082626497,-0.968317244739481,-0.210982614476916,0.0741965806921623,0.203797718228287,0.0696533778881316,-0.206233854901044,-0.991378098813314,0.176258781018376,0.0890721206143006,0.151782304048538,-0.123709026096976,-0.0927622905064758
55.025,-0.40670937695353,0.220659246642656,0.871230925112552,-0.0340129774341508,-0.0165249304437808,-0.0244777243862077,-0.989760200589321,0.0856757036838911,-0.132751686816427,-0.0696524115719259,0.226410567760468,-0.0681361972983963,-0.960757085090817,-0.20287712131509,0.06080365769569,0.266755810190974,0.087107178695821,-0.174194729087184,-0.978144332725092,0.174620936442333,0.0938529971747981,0.155467296547405,-0.0979723607728152,-0.12075520766773
55.03,-0.409128430335426,0.215939073743983,0.866326851125923,-0.0390998337059889,-0.00224737766449641,-0.0185335208306853,-0.988790553845875,0.0871164609840036,-0.138204926928007,-0.0712567541547931,0.226410567760468,-0.0679679486700213,-0.95911742824339,-0.192804187008877,0.0439995115448965,0.305689121302628,0.107043300124865,-0.1722359122411,-0.960119621602684,0.174488019872401,0.0989312849091821,0.168427052581627,-0.0950849005848763,-0.145684615252462
55.035,-0.404889391474915,0.231634338046881,0.864187697640817,-0.0350137210188994,-0.0103591110412789,-0.0186262384504568,-0.989691481885273,0.0873986578836264,-0.139759834874009,-0.0657422874553338,0.23575779277021,-0.068397151031704,-0.964868026188804,-0.185419018554775,0.0299995925314984,0.327338153707397,0.125131067890926,-0.183452941854811,-0.950567560806362,0.182433871957792,0.100585637490746,0.175766609528434,-0.0785399956889687,-0.168485467733842
55.04,-0.408710788203983,0.231128599787685,0.863161536943511,-0.0443433601657544,-0.00925857096910425,-0.0150044362867875,-0.981432442788699,0.0951055025557831,-0.145589764164083,-0.0591315908846159,0.229026495158958,-0.0732019098177195,-0.971792671673047,-0.18273998468794,0.0172257192775445,0.334916591644287,0.140041662266194,-0.188762335986121,-0.937618643380165,0.185558290777276,0.101651923884068,0.187639597608758,-0.0890842472147656,-0.183223105459985
55.045,-0.401616604925612,0.237980084643124,0.865596305568922,-0.0481797911857593,-0.00992361566576155,-0.0182397319561016,-0.979998438827784,0.105668768306533,-0.14002912300993,-0.0336469502988797,0.238855946563335,-0.0709025098239621,-0.97454035135312,-0.185936053696746,0.00785689163272402,0.325123635856445,0.15373237766541,-0.182662989488492,-0.930870721125623,0.187093683188,0.0954751122724254,0.19921449130163,-0.0998091254866286,-0.202372133768556
55.05,-0.399768159828996,0.248878268166217,0.865925042175889,-0.0505675678602716,-0.0138997158018193,-0.0214852025262376,-0.977900168186439,0.111491367308125,-0.13839484028921,-0.006643517894997,0.239984399080277,-0.0721894879942941,-0.97246122588153,-0.195380094655266,0.00138086586403638,0.296760436633198,0.162190586758514,-0.150498313556393,-0.920032835324776,0.194604682684533,0.0943982939186884,0.206951512515958,-0.115854847450558,-0.207729127182077
55.055,-0.402355678679242,0.235828245785118,0.868816004197638,-0.0540256095613981,-0.0203715424653998,-0.02246967502606,-0.978435077590262,0.113170806635313,-0.148650412627703,-0.00261185767532369,0.238133088592614,-0.0679027475544859,-0.967466409783914,-0.201269602692829,-0.00238060621957642,0.255568274410342,0.166637186546967,-0.119333428390446,-0.914581134211475,0.188516734767578,0.0889176925488589,0.235368301475663,-0.140329689715839,-0.217546447647345
55.06,-0.406251237557958,0.233199047608091,0.869721621140378,-0.0612101590522196,-0.0270327215971628,-0.0198913984430659,-0.979760124337143,0.114864521668812,-0.147668941065147,-0.00079353966952025,0.237358420961318,-0.0680997264005851,-0.964512012937289,-0.206213464411641,-0.00161584165643971,0.191509760618931,0.164996352920466,-0.105340286982115,-0.907517833963172,0.191043921392271,0.0816568479783586,0.247719854260516,-0.141188429364688,-0.214237029223463
