Header,foot_Accel_X,foot_Accel_Y,foot_Accel_Z,foot_Gyro_X,foot_Gyro_Y,foot_Gyro_Z,shank_Accel_X,shank_Accel_Y,shank_Accel_Z,shank_Gyro_X,shank_Gyro_Y,shank_Gyro_Z,thigh_Accel_X,thigh_Accel_Y,thigh_Accel_Z,thigh_Gyro_X,thigh_Gyro_Y,thigh_Gyro_Z,trunk_Accel_X,trunk_Accel_Y,trunk_Accel_Z,trunk_Gyro_X,trunk_Gyro_Y,trunk_Gyro_Z
81.935,0.271942428607845,0.586189180807049,1.20064307915396,-1.59090060082084,-1.22741703867588,-1.78915074662733,-0.88735961622713,-0.153194756819772,-0.0755664178777082,-1.38864737113943,0.425260171662467,-0.99978509714148,-1.45820650198103,-0.634155498704343,0.485410376569214,-0.313110391132481,-0.73400765341998,2.10695957771801,-1.04423938658184,-0.284091963206494,0.016804748219118,0.755927142426038,0.754150065765478,0.0696033816975277
81.94,0.248497891987824,0.330740488663823,1.29777491512034,-1.63381058034713,-1.54790764645614,-1.85206198502036,-0.755151684905277,-0.397074922849434,-0.0235804102317678,-1.12260102652431,0.209507282249039,-0.871977023170528,-1.44880709875271,-0.541445206085885,0.542831870295783,0.263149982356091,-0.65954136276269,2.22988106703097,-1.15012165102279,-0.249213016721715,0.0268147037083385,0.796261426337587,0.746169624709511,0.0488593462160785
81.945,0.154720330983757,0.277527223490719,1.22577256607715,-1.37142757819822,-1.93272426014364,-1.72227606092633,-0.576481823580137,-0.572640674638041,-0.09665364996607,-0.92907169004717,0.0976106864808336,-0.740218743673955,-1.40157887302517,-0.470364063635268,0.567811805565655,0.783349350259033,-0.55349985685625,2.37956963278326,-1.23213551582384,-0.216780918108504,0.0300951063267485,0.779923237979253,0.714380759049318,0.0309959983796286
81.95,0.105018196316944,0.400000408800372,1.00087299629021,-1.13352249169808,-2.21810451178586,-1.54234939876772,-0.412398222355668,-0.627630475420499,-0.213913488776764,-0.474153188617969,-0.133835390330547,-0.620245202607745,-1.32194206337575,-0.411674298019242,0.531506697278449,1.22698087437532,-0.451339911733307,2.54467891614279,-1.31644645898362,-0.179118488497424,0.0300826474368383,0.733950298655629,0.641640404976903,0.0118844468286056
81.955,0.161540495867561,0.558489764370832,0.831225018170926,-0.991185322764715,-2.39956366230839,-1.32672417355795,-0.363823017753271,-0.552793624144574,-0.238864982643301,0.0819904231833803,-0.352471100828549,-0.552961824026817,-1.22832847741114,-0.377817455120834,0.455943558298937,1.58024353768475,-0.346866311482976,2.65605128488099,-1.38280342354826,-0.128211693413223,0.0352509531421978,0.579748184396127,0.52824194718334,-0.034155889644492
81.96,0.223700557925649,0.657668599052638,0.706467224029101,-0.959851169429589,-2.46561305927225,-1.10128408122086,-0.386471015960652,-0.441065872231568,-0.2025627277279,0.601326692525362,-0.579936214894698,-0.491786981170238,-1.15110328819946,-0.364924945388855,0.367028135528273,1.71815834461607,-0.266265063100641,2.64504839562177,-1.42419654553747,-0.0817954894847979,0.0474195647795107,0.416554375649027,0.395749180686974,-0.0611987885106119
81.965,0.255337294245521,0.68609863794909,0.617880176496604,-0.972942807210703,-2.49016551719618,-0.851485737534754,-0.457021343024488,-0.304401831556162,-0.11662673541803,1.03876142680729,-0.835498990653085,-0.419967276595393,-1.07221295389808,-0.352561000528336,0.26432692768091,1.70312833287286,-0.176746931100603,2.4939905928807,-1.42462844095094,-0.042626243817264,0.0517018941467542,0.297713080862466,0.241999637535157,-0.0668187637461754
81.97,0.278501384428671,0.672901660810401,0.548788445141239,-0.986452182325041,-2.4775275191841,-0.542913819200341,-0.507449766985477,-0.218258190315477,-0.0894233158725207,1.22822673430793,-1.03492974342091,-0.373654967498243,-1.02708156871948,-0.352842882225072,0.179435644688244,1.64790175478533,-0.0810753783283387,2.29482376837045,-1.3935584463509,0.0066277498080056,0.0623873543603847,0.14514112858319,0.0370586771581279,-0.101353171035496
81.975,0.262731178154323,0.656573656482394,0.538847592574745,-0.97457235247088,-2.47095572977691,-0.306963231392458,-0.523244420711116,-0.136850263986183,-0.133869637838538,1.39387029265892,-1.24609645243551,-0.322462728213377,-0.996036986143224,-0.352317299445709,0.110359978610831,1.57438084886365,0.0210161032195821,2.10818832956839,-1.35706169356299,0.0415231395886422,0.0628902349319984,0.0414685776305288,-0.107193525972135,-0.134937441592319
81.98,0.204183999619294,0.630473744737377,0.564693332845577,-0.922350303401898,-2.48909635966651,-0.00571048074540308,-0.499479758142792,-0.0839352979181739,-0.197359375696015,1.55937892227618,-1.42517628594945,-0.284188216882918,-0.97424254023681,-0.358162857911431,0.032706948486607,1.47233815133118,0.154846666088583,1.94262606992526,-1.31380681302783,0.0843410210699127,0.0617305818004424,-0.138081484097479,-0.2336050811922,-0.154792741637992
81.985,0.138322234600104,0.607045654003166,0.602157665941036,-0.82907765890072,-2.55356424873919,0.253708937299588,-0.459666301339288,-0.055637638857694,-0.226528362629714,1.65137267996546,-1.59238604365196,-0.262596594089645,-0.967627689689063,-0.367638778423054,-0.016365775130329,1.36265843022788,0.245195339087569,1.82112805009129,-1.2775610213722,0.118155499482533,0.0549874687662546,-0.326803266221673,-0.303200683977336,-0.159052613659808
81.99,0.0948934587769494,0.586697041764612,0.633567762826356,-0.695536836684577,-2.65020151862837,0.531996467029507,-0.413320893376405,-0.0304161492362592,-0.213580010495753,1.58209837049188,-1.81666155735887,-0.262229061623364,-0.96964727663867,-0.372759576776634,-0.0473714051732887,1.25128283603039,0.285995026650812,1.71742165686668,-1.24651469003502,0.135337188722559,0.0486693250961874,-0.498302402175984,-0.305271739959746,-0.129664400525384
81.995,0.0652731137868687,0.56740012097051,0.647593013582581,-0.565997587855843,-2.75977457839629,0.782712602910537,-0.380413896574208,0.0164883550511608,-0.233387261554024,1.39402120408127,-1.97812238115402,-0.278887489902908,-0.965123392128182,-0.385640975180191,-0.0791443127406577,1.11943597967525,0.296298325418607,1.62913417394933,-1.19878512151139,0.1508851143692,0.0383742081209893,-0.647287352380081,-0.236445650936828,-0.0631196200658792
82,0.0490975355380493,0.559654548435329,0.635031463187504,-0.475981447020458,-2.86998006772973,1.02782325655562,-0.367967895964677,0.0770048678310187,-0.255093695499723,1.1896652334326,-2.13645188016028,-0.294002637445076,-0.939270094596153,-0.404747214509499,-0.094020589909609,1.01420158585739,0.276052643454298,1.57103588490374,-1.15549514679023,0.143467113300158,0.0412230374636998,-0.735924481048186,-0.10241239523333,0.00230459764181064
82.005,0.0268679154787888,0.563204066507929,0.631953068071341,-0.431745787688032,-2.96121387651385,1.22339925515829,-0.35773673107532,0.15938477344061,-0.248372742881015,0.894007556609605,-2.38167930427475,-0.287546209098,-0.917730651094495,-0.418556693510571,-0.0943892118830467,0.987753738125434,0.263905315480172,1.52978009326088,-1.10784371740512,0.124907961863983,0.0348713283729752,-0.7657768735978,0.0561526137934148,0.0494456211275439
82.01,-0.00125852042903134,0.562493056879542,0.633103589966416,-0.437244713042574,-3.04424647415569,1.38239543431018,-0.365685800572852,0.21174292889405,-0.229855991295246,0.624532642702867,-2.55173148151742,-0.270840278062293,-0.875404645670694,-0.429986892333877,-0.0838297307770907,0.963416953805965,0.201772725253479,1.48825821583402,-1.07658610409775,0.0997994084501378,0.0396783025171274,-0.729855857719067,0.245211888484223,0.0689153815620448
82.015,-0.0294513939094435,0.547350966379008,0.631003327058441,-0.470307205335323,-3.1455900288916,1.52650445783088,-0.388785270003755,0.24809553473461,-0.235636032257736,0.245918260618608,-2.75835507190734,-0.248769035556582,-0.839539353532341,-0.434099090087839,-0.0709911632660292,1.00020576675489,0.144500920458269,1.4472554431893,-1.04265239584646,0.0756445596041252,0.0480096191313156,-0.661185712320628,0.381446201477063,0.0872219963397565
82.02,-0.0520728158927164,0.528127445216867,0.640419766992773,-0.509330398696004,-3.21800407665754,1.61782727955614,-0.414410020428394,0.260901462400705,-0.252205764402654,-0.178574528842723,-2.94937329558313,-0.207638186069955,-0.791670076548169,-0.435884699689428,-0.0533187155694535,1.06348971752444,0.0717409953066778,1.39440742310797,-1.00796923960318,0.0520913213818767,0.0586099861568463,-0.557025021697004,0.49019364810177,0.10970839153103
82.025,-0.0969361960872407,0.5174900004089,0.684908602363072,-0.540727030045993,-3.31023416756152,1.71060850488825,-0.439530414503416,0.25459827347094,-0.261355681363611,-0.527991049254501,-3.12430231642537,-0.172986719441722,-0.757980307747751,-0.428901543233757,-0.0458875015835712,1.11273357077792,0.00336238308803261,1.33645599432604,-0.960594211264813,0.0205245622536165,0.0811766367904268,-0.399005792178231,0.571636253972092,0.115359854728491
82.03,-0.136672489184255,0.51806929617696,0.650958539167307,-0.522775270993434,-3.37232434602298,1.76406182937275,-0.476354121283859,0.231326514055975,-0.294939252668864,-0.89198148838068,-3.30312686706752,-0.113565651511359,-0.710039536575061,-0.417839175011787,-0.0300233633835043,1.16211097415492,-0.0544951209082897,1.24542235238352,-0.923332353258739,0.00526937590971417,0.0953575302676176,-0.269130366554781,0.60599271212037,0.127968320633013
82.035,-0.175596007924012,0.585602998965583,0.721333168837249,-0.526189829724808,-3.46230353404225,1.86298130406923,-0.519341820284667,0.205385699599795,-0.329681489762233,-1.14925350277491,-3.43782111364658,-0.0726717479860017,-0.686424129098636,-0.397675121592543,-0.0180064582410504,1.15651143907938,-0.10944383490617,1.13902571152309,-0.88371390564658,-0.0206886593773896,0.111867846151626,-0.114927135812886,0.623480689142303,0.127178757696211
82.04,-0.292836638354644,0.751044260827888,0.760875401987921,-0.543459273510524,-3.59849455462982,1.97653634787288,-0.543001058978686,0.183263941851981,-0.382280132996739,-1.38780097180534,-3.63292656454678,-0.0388103003754803,-0.668827978580055,-0.381678769246656,-0.0153232696105894,1.12857548814894,-0.146629136807871,1.04398331711955,-0.845826300994631,-0.0386677966232933,0.128717433895,0.0047128470431876,0.640510392068367,0.128370184170756
82.045,-0.406638448793081,0.818786955511777,0.763962634495951,-0.587802714387283,-3.72075231163857,2.09372424240088,-0.551040820869641,0.155473983039992,-0.442519696388721,-1.62158772035621,-3.78911193979317,-0.0164497915745398,-0.664777139446594,-0.366065937256995,-0.0155201287987145,1.0926456637683,-0.20515802324528,0.900506897963207,-0.805133127735377,-0.0560725784115741,0.153366586437216,0.151928114563099,0.664356468759824,0.118847608186447
82.05,-0.494835499034877,0.849316606889939,0.760979730228898,-0.60533732175827,-3.82588892023426,2.2716642383687,-0.562151827952732,0.144117198300118,-0.458579905283604,-1.77760957654656,-3.92080845264753,0.0102540820295381,-0.655387189912802,-0.357482685852052,-0.00615417435251188,1.0608475563386,-0.248387465634746,0.780053771916637,-0.765709406769101,-0.0597900275372945,0.171896391047525,0.218815224239561,0.685916293516752,0.130611413677698
82.055,-0.587991808664744,0.902113675558718,0.752969581736579,-0.596611179162015,-3.93151119687675,2.52038891982982,-0.566370926014374,0.151408026972392,-0.498466183795097,-1.95343791592532,-4.0637074302045,0.0262974309357749,-0.648068870429226,-0.358128043005106,0.000491207124365011,1.04394566526125,-0.300089308391474,0.606186366440249,-0.740896618043917,-0.0649723008106759,0.195297982971011,0.247206704443651,0.732580522468855,0.134321962042877
82.06,-0.665891748430993,0.913012760350884,0.733026393468706,-0.559585635518578,-4.01556828858937,2.74187403518093,-0.561185635920575,0.164762012550475,-0.531594548786899,-2.08345999941416,-4.19992948310796,0.0180963800660033,-0.644446985492968,-0.367645542415904,0.00276082446173992,1.03362579838226,-0.348558369388873,0.435242342509054,-0.723807378306498,-0.0641591298282597,0.213341212064923,0.232504121771889,0.773290320264608,0.124586780201024
82.065,-0.76533923216223,0.912753043668984,0.68705695627235,-0.475521232014997,-4.10138403128031,3.03401568895121,-0.564773263190756,0.15519288449596,-0.543183675155115,-2.25173415586961,-4.28409550400021,0.0114722476793416,-0.649134594694474,-0.373869782482258,0.00175125209307046,1.05742985803286,-0.393666661374741,0.264190446403757,-0.717556562489098,-0.067415157873741,0.225618099802582,0.181769778550599,0.811810685706163,0.112101169920179
82.07,-0.828580980313478,0.906811407559647,0.636117622372851,-0.422880300945252,-4.12791176548197,3.28044160054382,-0.601638866699658,0.120697230673416,-0.581810997164459,-2.55100819822716,-4.40589537366577,0.0277190245687962,-0.644188488233516,-0.388330246773409,-0.00490664045471358,1.02897934888593,-0.425076972699928,0.180161393539367,-0.727089284007187,-0.0515931877096481,0.241904719051235,0.12378093204767,0.82118109306525,0.100817109341745
82.075,-0.890203414781581,0.908086646779978,0.596704035736381,-0.389427270880008,-4.12109057823155,3.52246820897384,-0.632891970016267,0.107648508639849,-0.613083222169962,-2.76171533049011,-4.49791197941225,0.0262924666261121,-0.634693003822838,-0.400731483989049,-0.016217228165931,1.02877661345362,-0.459509636097991,0.0883905034260473,-0.73628967823228,-0.0317205318294212,0.246364313749803,0.0184641900129558,0.814339231618905,0.0805531610735205
82.08,-0.969764376831629,0.876055462134419,0.567978039363211,-0.368414688682047,-4.06527973970037,3.81308645974628,-0.669424388568305,0.0886073369220651,-0.655419711396068,-2.96869067558622,-4.56959014410834,0.017054065876631,-0.615753731029472,-0.40548807549212,-0.0300622089627904,1.05153585991421,-0.489254876594027,-0.0121427199704852,-0.754929314352802,0.00212469865194558,0.248408623650328,-0.11796986650149,0.790799017087619,0.0866717221965661
82.085,-1.03163109658124,0.829359326706276,0.542608994321494,-0.347215367567173,-3.99651340415082,4.0436968032143,-0.712429683858501,0.0527469612699448,-0.680995989094624,-3.1651907645701,-4.63714906197721,0.0109203394954894,-0.612106555231858,-0.409290071127536,-0.0351811918968432,1.10891784197686,-0.516348660517245,-0.170772911716058,-0.763251325938416,0.0264462152466057,0.244291049457484,-0.198140631077809,0.744886686891759,0.0943361804013167
82.09,-1.11128563511403,0.760582367325983,0.546316983267012,-0.339633117454227,-3.88689839158293,4.26531838869356,-0.745718480859609,0.0102060576804891,-0.715619650685168,-3.37731554471487,-4.70866627720814,0.0109768533590217,-0.605924170569891,-0.413604248777805,-0.0278162627778581,1.2037293925621,-0.514816092689496,-0.300287217685797,-0.795716248706418,0.0615231220789444,0.223034062444987,-0.33433215429576,0.675861685684837,0.100130393470364
82.095,-1.1885205709387,0.680791077827823,0.574349806480205,-0.311947746357353,-3.77881002329421,4.486185402705,-0.787603302340999,-0.0188544293585548,-0.768844074696499,-3.54672304893165,-4.77283667027338,0.000205237046209749,-0.602283736270879,-0.421464795733981,-0.0195662931043813,1.38962172279008,-0.509139014739706,-0.447978661165701,-0.821696328340462,0.0863859140609256,0.211979561494098,-0.424322197608815,0.591924983616589,0.0957610812485035
82.1,-1.24915298854474,0.610958178059822,0.621096134310641,-0.269201617561132,-3.67466233394108,4.63518411479344,-0.837451251583286,-0.0200535661348532,-0.83422771430209,-3.67253428973655,-4.81761123924123,-0.0198795136160201,-0.60075552611979,-0.43058424837879,-0.00882809775476315,1.63538549341149,-0.500534697467104,-0.601240489776277,-0.859132373680517,0.104753942359401,0.1918523322182,-0.513063138310356,0.465122651415152,0.0895151140368606
82.105,-1.34499812037822,0.530703121276662,0.686877099865787,-0.233944235146835,-3.55816152957698,4.78745987317856,-0.881024633327823,-0.0179379312522641,-0.884429799790519,-3.71295386679205,-4.85547660047595,-0.045376941337631,-0.612288599487115,-0.450846561819573,-0.0107109989645568,1.92787441952842,-0.476485190411546,-0.745553223482628,-0.899293401181955,0.119333013557371,0.170119922435957,-0.589190325952482,0.342558916310931,0.0773913334827345
82.11,-1.4221593921327,0.485990128919896,0.727357777849839,-0.222946971654892,-3.48149654680684,4.87329792269806,-0.926229710487712,-0.0165445158706501,-0.935070936920753,-3.73800169965092,-4.89247230560113,-0.0789042602443189,-0.617788023387667,-0.465133032360456,-0.00311442353304338,2.27334622389561,-0.431632181107988,-0.87625592822761,-0.935232410582333,0.129273771916668,0.137408581992575,-0.656738184857544,0.23741994211975,0.0648609788910522
82.115,-1.50373403484135,0.425617286973747,0.772088189022025,-0.233037398002218,-3.40864257207924,4.91673920317231,-0.957105912943567,-0.0176753439420761,-0.98413878278247,-3.72804705532126,-4.89808161044687,-0.116270929318302,-0.623526652487784,-0.491836059338735,-0.0112815965253084,2.65548891856451,-0.370386497205399,-0.994868646312695,-0.978141050319206,0.13247853010229,0.103718832956703,-0.729679706745631,0.139513215625755,0.051864013094002
82.12,-1.60154090474908,0.321706122016902,0.835921784519626,-0.250463126298335,-3.33261354396468,4.92105107217957,-0.992283226740055,-0.0228184297729443,-1.0424456415771,-3.66631244977838,-4.90785644358766,-0.159519913660367,-0.647087182085092,-0.516396647837084,-0.0207369008630108,3.01923127572698,-0.31002727374064,-1.06116916188832,-1.02155418167908,0.129872495780737,0.0704420457378077,-0.793292752756449,0.0881685487298377,0.041463659373741
82.125,-1.70078835560185,0.245751525975852,0.900800318618503,-0.262291183701173,-3.28999439475796,4.88802144208694,-1.04168471139317,-0.0291435935412559,-1.08243283668379,-3.52378119347298,-4.91200893353702,-0.190106984351865,-0.689371093414159,-0.530917238703808,-0.0307624338828525,3.42521791875051,-0.222282513059389,-1.13091744348598,-1.05235140444451,0.123845513367679,0.0400979672131551,-0.854935867448342,0.0688061766809011,0.0374215315221545
82.13,-1.80445644367857,0.200119082408254,0.944239767090272,-0.279607049019583,-3.29344809611689,4.80415427354872,-1.08311934109924,-0.0334185146834067,-1.12010595565597,-3.34787447730723,-4.88108982370963,-0.227610880311512,-0.723858229324543,-0.535067886625439,-0.0492386761451593,3.69289232243283,-0.144244146351302,-1.16010800796268,-1.08042143793687,0.119618631546671,0.0126669354565316,-0.940330375050782,0.0945365162321321,0.0343687249641528
82.135,-1.9038645023676,0.187896982495778,0.961536634950929,-0.341782570802155,-3.30744148909658,4.66754683087075,-1.14429228745761,-0.0281897679946544,-1.18492247731288,-3.1731437789437,-4.85882506967478,-0.259942646640074,-0.770707645126124,-0.515654021446249,-0.0815643608387599,3.95584364952163,-0.0601874429770836,-1.18963451350987,-1.09737529543935,0.11420966669086,-0.000863364430028683,-0.991570724947072,0.130864393226679,0.0331974738978726
82.14,-1.99702207447453,0.185489365453715,0.929784328108602,-0.425022265278554,-3.33621344844588,4.50776296025943,-1.19568689950028,-0.00958423526826871,-1.22789772744226,-2.98681103777795,-4.81927404646298,-0.28560250179383,-0.812633682630095,-0.489003597904663,-0.129037830901082,4.13705797713689,0.0172743369594072,-1.19569693471505,-1.11624240380586,0.106534061788455,-0.00960339335797969,-1.0262691947007,0.182362186224116,0.0414940852607757
82.145,-2.05736430760262,0.1756894462941,0.838770445943067,-0.568654837419756,-3.35633270584566,4.25523708310015,-1.24712625409651,0.0145131153112696,-1.23789249257168,-2.77654109737752,-4.73560462234292,-0.290248133423931,-0.844878781096826,-0.45517772082986,-0.166348158711148,4.16217825368766,0.0751062789219405,-1.18122115857667,-1.12538778570092,0.097414324913686,-0.00934223973600395,-1.03585774930036,0.217502080117285,0.0536209704596396
82.15,-2.11803326430433,0.200882568822823,0.686061396113328,-0.695785907021251,-3.3245193167537,4.03839157518906,-1.27617023246912,0.0384513454751727,-1.23035206688511,-2.53953961216498,-4.62006921475332,-0.287410196880255,-0.878142197041704,-0.411296997456867,-0.212733341617481,4.06854794128477,0.111462692925526,-1.17482162648706,-1.13444822708084,0.076214655869132,-8.33661216857041e-05,-1.0370185572645,0.230852207130651,0.0787371808124868
82.155,-2.17772484202008,0.282403724552747,0.493132344123446,-0.837648648256543,-3.2447646532665,3.82546443278456,-1.28836428156489,0.0626310383354265,-1.23107771059241,-2.42162185136873,-4.46513717185572,-0.260928841712644,-0.900705960987561,-0.36801800761734,-0.24685200573601,3.88851757314783,0.111889483996295,-1.19062507171593,-1.1413246066827,0.0541129532650239,0.00722010555358273,-1.01199091910218,0.213458271772147,0.101638276587685
82.16,-2.23225039966103,0.346229056249518,0.318381430086827,-0.963880814967473,-3.10644194452205,3.6189187979938,-1.28445264986391,0.0900453747788997,-1.25249594649743,-2.36116388025393,-4.29735086076002,-0.233393041165666,-0.923096731666814,-0.298895340889909,-0.288920750246749,3.61566870858919,0.0812274389704563,-1.22421258443403,-1.15213414514485,0.0261074673397544,0.0158486575057188,-0.970333628441859,0.155633338716855,0.132580452364232
82.165,-2.27623140321585,0.4454494126535,0.107128817639017,-1.10231483580496,-2.8713053977486,3.41438501047349,-1.25817114757694,0.118446723650664,-1.2199625464231,-2.34953739993657,-4.0664113633513,-0.184575750240755,-0.946289490782044,-0.229956010534219,-0.333942721067289,3.36166496589742,0.0341216742948945,-1.26187583620499,-1.1617716435954,-0.00414096841930441,0.0157600371513024,-0.928889388203887,0.0691417750741254,0.144349709765723
82.17,-2.31065804579569,0.511006147555794,-0.067393294947578,-1.15276932406394,-2.58965200848183,3.29672204631597,-1.22665359530679,0.134948796476208,-1.21226349446241,-2.40440164578279,-3.82961627514319,-0.12525109700673,-0.98320719738281,-0.158001615426814,-0.368057251565751,3.10657174481344,-0.0457699030564456,-1.29667354340301,-1.16323169990051,-0.0385133817338342,0.0248499849434006,-0.901933945639707,-0.0519398821679888,0.169709068172724
82.175,-2.35386312886618,0.558283005683252,-0.215775491734127,-1.09499120139118,-2.23354864673566,3.2290276717255,-1.15178264546804,0.158524538483305,-1.20129416841026,-2.42466573023036,-3.55213016226138,-0.0706961502325525,-1.01444212557762,-0.0777217501176617,-0.401632598103477,2.88031233045527,-0.143858071375858,-1.34083917226895,-1.15423259574781,-0.0648064120520892,0.0200544134871524,-0.890858824418887,-0.130607880574011,0.196493394869486
82.18,-2.38425958469925,0.587825203606895,-0.344553670546595,-0.959098988712591,-1.87137130185371,3.19354421498731,-1.06797819504066,0.187704281152825,-1.17793082409383,-2.44408553735706,-3.23254355552417,-0.00995662173265972,-1.06309556441338,0.0199948996948526,-0.429828968031194,2.71607599842584,-0.22712260679709,-1.38741348170805,-1.14819116171282,-0.0871650156741517,0.0237070738329591,-0.901281040762974,-0.184906236891095,0.2290305967094
82.185,-2.36471008931323,0.562379015796469,-0.48606191727787,-0.757608136407593,-1.50327802449701,3.19461889934243,-0.994271469886354,0.198263274776073,-1.18199573594092,-2.53942321807896,-2.924627500758,0.047137564746291,-1.11933947438994,0.184993048164163,-0.457658622723394,2.5967426595045,-0.321500724739585,-1.43037399853916,-1.13223599960857,-0.108033233008771,0.0302965747711913,-0.931284319357108,-0.213151923637453,0.276311666750014
82.19,-2.28562937262846,0.477120175332415,-0.633096847166841,-0.465218208029336,-0.987994837833115,3.20378024958511,-0.919809979647124,0.219122374054116,-1.16663057437759,-2.65706935682198,-2.56731021439447,0.127330575997283,-1.15977101769855,0.286003997142088,-0.463502089440266,2.51178245119969,-0.355232576992897,-1.47276705874081,-1.11341110727856,-0.121264059503906,0.0350407254189866,-0.973000692128262,-0.203573959546702,0.309600751692267
82.195,-2.14571053223376,0.354024147058273,-0.765648792084325,-0.219289017395173,-0.541320429719905,3.21293524918272,-0.864835397417197,0.241048010319288,-1.13130283859596,-2.70826075310451,-2.27427348009162,0.180748400296596,-1.22135248063119,0.488107140518142,-0.456481659215287,2.46040414717717,-0.368934550473852,-1.55367139388375,-1.09026336184726,-0.122458001293356,0.0431424599684771,-1.04627764129009,-0.172940563118374,0.339602319017597
82.2,-2.0085959601641,0.216201774231891,-0.859582202735432,0.0547249237333921,-0.0216057583096458,3.19151064146616,-0.820309151137214,0.224762841847529,-1.10134669904088,-2.74390026808714,-1.91824056642051,0.237978825842025,-1.30099463081178,0.635631893367104,-0.476856336805624,2.55614858866158,-0.336273174297541,-1.56538303587103,-1.06275571782483,-0.121701752591095,0.0547002104477714,-1.14977342401258,-0.129553203217375,0.357921584906767
82.205,-1.83610985520043,0.0243655856040638,-0.907785853846029,0.458428657627431,0.688890457038259,3.14245200061339,-0.819766516297723,0.160708864919623,-1.09146184805122,-2.80970236010321,-1.63669245285865,0.274904450815328,-1.44923648622421,0.770045616394795,-0.492081613287076,2.37374569179727,-0.311470609698839,-1.3018982466496,-1.0482076462457,-0.126826562119034,0.0722251065704428,-1.24872301543635,-0.0878282265689801,0.370111051075323
82.21,-1.70134140380782,-0.100844463881882,-0.911225895585681,0.767816740897165,1.24147051771632,3.06036972968699,-0.818823902513824,0.0852603451800793,-1.07525057985928,-2.86074369439367,-1.36984292206024,0.289171327671328,-1.47085525285326,0.945993045692103,-0.529615357742241,2.29175921589882,-0.257194858851492,-1.04871576123705,-1.02205419782552,-0.114659655892759,0.0944100411325777,-1.36617550822578,-0.0163702192212604,0.370933193042245
82.215,-1.55930694588771,-0.228545577818578,-0.905513688206346,1.07311637177495,1.88783901125693,2.92968917316764,-0.821679998905337,0.00949048545870626,-1.06790796112393,-2.89954618270832,-1.12085897002479,0.277899985937923,-1.47384330330556,1.14311500667092,-0.602595529957685,2.12758155484901,-0.213961939382584,-0.734824227615614,-0.99035975941833,-0.0975961705016483,0.120201876687029,-1.48975702817347,0.0550098225216472,0.373502189428721
82.22,-1.49609194649509,-0.331871688951486,-0.890737458656519,1.29980715696919,2.5294094675013,2.75406192433808,-0.822731743853045,-0.0481518855344066,-1.01924406332399,-2.84655074661402,-0.956380579013845,0.24858800164526,-1.44077719105391,1.28243710975168,-0.625456010490173,1.83894992093783,-0.169967035078008,-0.326187109867582,-0.959489845051262,-0.0832804435790574,0.131678777591973,-1.58495901278544,0.121019107918372,0.385489982526965
82.225,-1.49659675717079,-0.358350869133818,-0.857445500917304,1.38552099418774,3.0566985670754,2.56028917787719,-0.798212763904567,-0.0782895748367611,-0.88500754214113,-2.6399083408402,-0.78854081969381,0.206876286419322,-1.3537024652062,1.28106490560717,-0.633361595458794,1.68907865191957,-0.260231617216723,0.00799193942690468,-0.93301839405772,-0.0712228790485801,0.146631867068476,-1.66614605080111,0.161432687472646,0.396987439798256
82.23,-1.59848968426895,-0.180744722473513,-0.778236169000451,1.2284767991291,3.58993253238527,2.31584661656681,-0.79655375261185,-0.132953914556293,-0.849367080277055,-2.45097034982654,-0.559376695955909,0.149824878550515,-1.20693884170727,1.20634800333768,-0.593385875125895,1.26926006059655,-0.272075299939795,0.224299168750065,-0.923705293432456,-0.0635055887996327,0.148868244512673,-1.69128797419896,0.179353482235246,0.401162156844155
82.235,-1.98025195314605,0.352215499428149,-0.436943172808054,0.270647968041413,4.12692490581065,1.95094307879072,-0.775595360373219,-0.129130994716492,-0.897934561016981,-2.27944579571854,-0.389384444551247,0.111715096307667,-1.0844371139329,1.07995131657401,-0.5283358312273,1.05114802790773,-0.349662448734414,0.212437342815179,-0.905296723310239,-0.0521211512985689,0.148517730484497,-1.7032957450935,0.173951927877756,0.40876954932042
82.24,-2.36094483059708,0.684269622753987,0.134408353464713,-1.83850218223569,4.33709916116671,1.30583806875007,-0.736058910144588,-0.0344860052353489,-0.903518295819242,-2.04690645345472,-0.205707105819696,0.114336913001727,-0.963856579942912,0.919100452928385,-0.426951976229517,0.871700992061984,-0.451511405092349,0.0782754499597665,-0.898396830841308,-0.0529190927774829,0.148434773117527,-1.68682287348235,0.137250643481786,0.42244840005754
82.245,-2.3287152143252,-0.0343320269863989,0.811095008429692,-4.57839970802034,4.05939061290934,0.317701698669235,-0.676623683902259,0.148261747128183,-0.84902876313708,-1.64844013233608,0.034668691114898,0.136020966301786,-0.88895893123279,0.776758482339232,-0.354849089012799,0.798717707467098,-0.540225764987818,-0.0466786773532044,-0.892268765553158,-0.0548043023510074,0.137237550864698,-1.62191286074768,0.0648083562901423,0.446535965985126
82.25,-2.16886916796159,-0.982868413618677,1.85144111847974,-6.00058801746775,3.31114908441555,-0.236880273770405,-0.630487972158297,0.252053638642469,-0.873631324323187,-1.48550544205337,0.205157392435733,0.176844526958001,-0.825975028619952,0.61175211812021,-0.292257507646793,0.749166160395189,-0.618306547552602,-0.143241316094142,-0.891049551510312,-0.0556063707209344,0.123404818875657,-1.52075668454205,-0.0333424416593977,0.448001225206993
82.255,-2.24831297921002,-1.17349333244312,4.08483642053419,-7.54167994158813,1.80276981374528,-0.607830749310391,-0.57867264202059,0.243637898532379,-1.03659049748142,-1.64226008177228,0.393068224397623,0.187433187935567,-0.794117865795486,0.449589241318383,-0.244650616691524,0.58733809475303,-0.698137483029127,-0.287164909305654,-0.895667728088326,-0.073309109531718,0.114694680418816,-1.41255374080915,-0.109324921089729,0.4817189805633
82.26,-2.55921348289777,-3.78826166452406,3.99673613907727,-2.23250887648693,-1.90517831523404,-1.27494456632073,-0.577266005161851,0.116040713214957,-0.965044377031272,-2.00271277773635,0.613325803476596,0.156158334432749,-0.783958172821097,0.317606372793998,-0.204607362441861,0.400805336019559,-0.762597531605317,-0.460061847866521,-0.897926456108253,-0.10104438992926,0.101584876540554,-1.25493121787813,-0.183168365625932,0.495795458555222
82.265,-1.58673305683139,-4.04668255678759,1.28201103147369,2.9154682478912,-3.33961503206414,-1.44328980330805,-0.693838020707775,-0.0311836548222137,-0.551658627219116,-2.12905337249111,0.762839272762321,0.146710604574022,-0.797651501978145,0.164080725567792,-0.185620323616684,0.125305686998077,-0.832605729066892,-0.757242005896652,-0.908211518872368,-0.122666167435103,0.0976599876694201,-1.10031505054806,-0.235840399461406,0.45829153706903
82.27,-0.397369300522944,-1.5175250432102,0.149915130759729,0.134644544088908,-2.35784911697212,-1.0201466948691,-0.903125402994158,-0.486063318988284,-0.0512753421287891,-1.79877161217452,0.678891110043122,0.142531405757094,-0.84056540631598,0.095464573258299,-0.193440464981427,-0.0641331663528143,-0.860167858851773,-0.977302779092256,-0.924303946399572,-0.14705658414316,0.0904779897670614,-0.926559908182526,-0.259800344705582,0.404559623908607
82.275,0.422338004929755,0.508725762256568,1.10018877200859,-0.650267066669794,-1.51706829323417,-0.738895718445215,-1.1351995190354,-0.860166687230284,0.125150193996942,-1.65236443755588,0.582011665241039,0.0516076571058696,-0.91329475432186,0.0908511917216659,-0.235783472532678,-0.181282726565253,-0.883741095473713,-1.03126263947986,-0.932359130983776,-0.161714663818908,0.0910849930526587,-0.784147087195483,-0.256394983583123,0.372783296280651
82.28,0.623974836542493,0.877162036076022,1.61110574442984,0.969261022144959,-2.0051548950999,-1.01627931819949,-1.34426701046487,-0.862546223538222,0.234293335383593,-1.38031795967661,0.408327792216051,0.14788881092735,-0.970543004697469,0.111952042121761,-0.288050854134668,-0.127080178093616,-0.893006687765055,-0.88346384322744,-0.953910788818741,-0.167806413780578,0.0934031175175795,-0.685725945207528,-0.253691881895065,0.353572557428987
82.285,0.271115005281199,1.04670892998296,1.2431511618146,0.0815171956178563,-1.91966867164022,-1.00830296935148,-1.43112310663822,-0.913354695844968,0.335039436264232,-0.462115555141811,0.276371241483536,0.310059248533401,-0.953061823692371,0.0161323114952731,-0.325420006304746,-0.0738254416055849,-0.921931953179788,-0.657431365922727,-0.974011208746119,-0.173581813096787,0.0896876189616835,-0.580776432082253,-0.247736171017388,0.338960492920752
82.29,0.0108023130004793,1.57250856064449,1.11577926924147,-0.488870732595054,-1.35267566410277,-0.0854178547320085,-1.52552823607815,-1.1551776718041,0.384191920296153,0.423058552775053,0.104667245400603,0.417122233959716,-0.856416644007225,-0.250700025003674,-0.357040596654652,-0.220133803084926,-0.912631524415455,-0.60174915194574,-1.01498360939864,-0.173699748102185,0.0858412178375236,-0.52514757187874,-0.225270165891343,0.304683606860868
82.295,0.184386822176039,0.983461098840453,1.24435768132728,-0.224181226704566,-0.733495013420778,0.559917464755667,-1.65209806375908,-1.44472445088267,0.368133057113995,1.11788965041867,-0.0911820131251516,0.385869543995263,-0.836804144566758,-0.496891307686737,-0.445684671565888,-0.549723545915894,-0.755779246922512,-0.74533610238576,-1.03655946756574,-0.162733466249576,0.0879124288636026,-0.485982703477625,-0.178462010322449,0.295942289949184
82.3,0.116961919058435,0.00181944547814719,1.34082247132277,-0.0574634445944517,-0.351275422361201,0.294054395740595,-1.74137544266412,-1.5635077888848,0.316972598536148,1.52462884485993,-0.0997199492910352,0.28541647939129,-0.888094705843439,-0.700348266438239,-0.574343482382286,-1.14475958634882,-0.526354059363994,-0.962735293585776,-1.07391562297549,-0.13651456957355,0.100012261952948,-0.476911330400951,-0.138180453988418,0.305953783210283
82.305,-0.473341433549524,-0.939775937636542,1.2795010489121,0.057949675563475,-0.168481454805694,0.0619980752074574,-1.75155037035295,-1.33365525893948,0.263920688626246,1.53624158773899,0.0694383147222995,0.279945307908191,-1.0403151716266,-0.762661965319417,-0.753917170640918,-1.83010990772733,-0.300298245506882,-1.21002889425654,-1.12984325918968,-0.0924236475849815,0.116234366247734,-0.504848458375137,-0.111737081152958,0.32088444532727
82.31,-0.82955090161318,-1.03137015666993,1.07615309461325,0.295932859183264,0.0137151759812876,0.260828922483205,-1.72633940873393,-0.911379457585358,0.109460464189112,1.57360439714753,0.290943890666684,0.381638883959662,-1.3074195205284,-0.756547207277361,-0.947712745440783,-2.4645514373625,-0.0810348953286685,-1.42804892471431,-1.19719057633488,-0.0400375565174579,0.127954373255668,-0.560577788236699,-0.0907718592634292,0.325147998158148
82.315,-0.687682722216685,-6.29087608320505e-06,0.830545717420923,0.556518321694198,0.134433376667509,0.401361089353847,-1.61572595818519,-0.266769349652767,-0.411122728262804,2.19391332251362,0.495337924560253,0.513384076214033,-1.80362373750972,-0.663153667079907,-1.13393608681869,-2.98606256097606,0.282010972890437,-1.65319693293325,-1.30923775240754,0.0275941770900671,0.121919326956115,-0.622545658109085,-0.069437939299624,0.301832966194167
82.32,-0.623011947626421,0.294832438701539,0.77536029541634,0.552795561100247,0.106740226251736,0.286659614011198,-1.3831799367428,0.101375645034693,-0.621430989833957,2.51284927796735,0.54579096613052,0.47748795363825,-1.97899825926254,-0.463218657352968,-1.05229864673497,-2.73483015776512,0.492408749193275,-1.62415896124933,-1.43944173962185,0.0951209731630683,0.0925116775269742,-0.688538365331826,-0.0317600551695304,0.291281322999764
82.325,-0.610821209329443,0.235278289617423,0.769029489415633,0.512120917992478,0.0828713668901896,0.330227413707529,-1.0761305778638,0.296755181713809,-0.490006156839399,2.289872159007,0.596536241945677,0.403803626821444,-1.91963880128085,-0.20733663525168,-0.879209039733998,-2.11595416798385,0.564153237011911,-1.30393113470303,-1.56223305023094,0.165429700514068,0.0502420248843643,-0.712427743061659,-0.0443509928992042,0.253522174221457
82.33,-0.628597872169322,0.0572384448948504,0.806443916794523,0.412678440482585,0.0863322643257319,0.445323473903829,-0.809770945069464,0.379800935467451,-0.241736204327728,1.67122694938598,0.642679437204938,0.28227777800574,-1.70990014203001,0.0425121230646421,-0.61601666085342,-1.31945602710164,0.575862862115161,-0.587228891494974,-1.57090528081259,0.213504974483655,0.0121039727615914,-0.7640053110017,-0.171255652196863,0.267217148390328
82.335,-0.608361792266048,-0.00757781235373296,0.828184420550809,0.3092860860311,0.116815642597264,0.502512410480246,-0.630128121783647,0.464183311023783,-0.063443091542154,1.00339315642714,0.620325384051266,0.148841314234867,-1.45329746388072,0.20585052322834,-0.321369123270471,-0.69425043617316,0.590467136069273,0.363996012105068,-1.48907667212889,0.241238284093531,-0.00111824553498894,-0.8225451354596,-0.373278870939084,0.296044915171868
82.34,-0.53476662493227,0.155708937820704,0.830597536478531,0.204168113934212,0.15117550498049,0.568692808777632,-0.597936246485289,0.524950494381943,-0.0836042912081183,0.44563542813666,0.583389864470424,0.0841239391202689,-1.25251995697847,0.23567538302087,-0.0481619276310082,-0.531540972680119,0.575264205009878,1.05764474007216,-1.32292329852526,0.26590133082521,-0.0109948711652944,-0.934348888923958,-0.711970498366941,0.329346281134004
82.345,-0.496931031901232,0.44874515825799,0.810545575948628,0.110691150154032,0.172897293265512,0.627040443038544,-0.697031196276071,0.601193743018734,-0.215431300777309,-0.459356209301301,0.523901566840353,0.0504459057091008,-0.983919007401344,0.167313607303418,0.26532001369574,-0.57987832103023,0.367118564874456,1.52342751597597,-1.22726030846075,0.300974636647264,-0.00698485530923108,-1.02905098017247,-0.913223458028376,0.373096452217217
82.35,-0.453836227180933,0.601733968796708,0.786159907525617,0.0341194214680554,0.178308680541699,0.585791358497416,-0.811243255641482,0.670843728907517,-0.352078248593572,-1.13489166834641,0.476036700001609,0.032605804502964,-0.762378501402394,0.0745281669588248,0.458849554345851,-0.710535765825877,0.0247193451103621,1.35371100391531,-1.08295476233717,0.319597465499815,-0.0211007302699927,-1.25085238703002,-1.04525975030836,0.47733806352203
82.355,-0.442697190211707,0.614061965082736,0.776630380857326,-0.050916275462364,0.175788596892509,0.494114464367678,-0.877527704496406,0.647894470578336,-0.348820056278249,-1.69324461992136,0.459573854159723,0.0318948112372707,-0.606476639145403,-0.0634611647658205,0.616393292869843,-0.965215439610223,-0.379422577575723,0.856984316165752,-0.998615127594581,0.331874937245659,-0.0183146407962422,-1.40975699484824,-1.01124206018249,0.524141972949502
82.36,-0.448004203086629,0.530080005133866,0.794645591939379,-0.114318128692184,0.156840133596959,0.393849671776083,-0.925445921675779,0.557955199021506,-0.33416746206149,-2.20122742646469,0.407503913767853,0.0324050220576811,-0.511074377654395,-0.158391917507532,0.753955713202947,-1.29788229402537,-0.717681635266476,0.256088075972761,-0.933313554747047,0.331106181300242,-0.0132633325547674,-1.54601448996996,-0.828659390222297,0.509485418350655
82.365,-0.433724111630825,0.467072988486425,0.816075996803426,-0.145893565387626,0.115285968761638,0.306472021706997,-0.942534174164223,0.444873890796925,-0.348383739926068,-2.59916610210615,0.34259568322341,0.0236605022318916,-0.540260796262247,-0.291739349364091,0.849979711311807,-1.67081420235608,-0.922994171714374,-0.344524919947691,-0.9038719331778,0.329256474622168,-7.71100650069983e-05,-1.56842284272799,-0.605836364560177,0.459919201490951
82.37,-0.417323295470343,0.381213447940123,0.829358471429273,-0.185681470898234,0.0770582208261948,0.211176015205998,-0.971548421200902,0.311793967937238,-0.377189854850458,-2.92638437180993,0.262649582313469,0.00939169260113586,-0.584460489881911,-0.264288918097753,0.928122721744396,-1.95105353517235,-1.01576769491807,-1.26055406603264,-0.888905987493816,0.314107825091483,0.0232888112703823,-1.49708104887191,-0.361761653827534,0.427990661108341
82.375,-0.431228387135978,0.362386252738718,0.826397188524173,-0.208646047771932,0.0505529129297364,0.153373620507084,-1.00461232094795,0.171926692194745,-0.396262588124481,-3.04273390860628,0.203463411636648,-0.0173511492423727,-0.670414479993324,-0.262355685624666,0.917733205270528,-1.79959602093015,-0.965969660215608,-1.89814010934783,-0.872648897847915,0.267848514367516,0.0514864725084451,-1.31184744703822,-0.082454114031531,0.35449214974475
82.38,-0.438926778993001,0.344653376130406,0.832700818568289,-0.221816994724755,0.0199274003614918,0.10020180181153,-1.05713282686962,0.0156280776247248,-0.400571055682744,-2.8992305362311,0.167709849305927,-0.0433989421490312,-0.77839744052661,-0.320003353503739,0.892896818367158,-1.63113251016821,-0.813548167564116,-2.30201027494263,-0.874851615834607,0.204600087851486,0.075960640788261,-1.03961294270533,0.136648095077806,0.25123286495888
82.385,-0.434589681612186,0.321365879783688,0.830558478079179,-0.224591569959254,0.000444724680197105,0.0460436546883927,-1.08656971812029,-0.174096900320234,-0.374976876309809,-2.54330455042339,0.148691191977096,-0.0595684012522083,-0.871952055591561,-0.301058405543962,0.734103664206564,-0.972351402335162,-0.586242990883649,-2.60390303318644,-0.879972610763521,0.143170505435991,0.0829877253187528,-0.742214273095412,0.264264389962182,0.140784131148357
82.39,-0.42796990720954,0.295791270949645,0.844248915751374,-0.193608145502647,-0.0686201564303446,0.00909457608641654,-1.1011340528329,-0.383703657918115,-0.33125527347027,-1.86507264732356,0.139663953624907,-0.00842814443906015,-0.987199068605808,-0.403750550914534,0.624416647895977,-0.149115700802792,-0.369397718154543,-2.67720628199049,-0.90463556287027,0.0787529298343647,0.0767158228045095,-0.391204296876624,0.297962403690888,0.0237095282343152
82.395,-0.415828310391494,0.265821376130546,0.852224768173386,-0.161724523172322,-0.0950133800506592,-0.0124673762922694,-1.1012733966067,-0.48037433480054,-0.298259625564323,-1.21204262548126,0.125151047055177,0.0665888111702244,-1.10573854739107,-0.524258652346614,0.504601817794983,0.81446276271268,-0.259474378273701,-2.55588016896123,-0.912645492207887,0.0306122137782468,0.0586014650609906,-0.146423934796485,0.275076832256917,0.00362534706843631
82.4,-0.416487535393895,0.240704179514556,0.858978661449199,-0.117502866443847,-0.117158640270032,-0.0229735880154333,-1.08007855730231,-0.507724543796708,-0.246877309970816,-0.356064455884675,0.0946180570558873,0.182043207500006,-1.2342378601121,-0.578509295087505,0.399546225174405,1.53925361337788,-0.163019817034304,-2.30880189848939,-0.916934844329308,-0.0109360056442984,0.0325264409735869,0.0480800224480421,0.207447007632652,0.0441961870725503
82.405,-0.411974548552897,0.198019817994556,0.874590832429906,-0.0805488217865438,-0.128410668365919,-0.0314949543952469,-1.04522455152802,-0.457517085894535,-0.199795300571103,0.301826971295017,0.0657799467457515,0.29146840538195,-1.1479667291449,-0.617825765170797,0.245295477654854,1.87395619987034,-0.0165013211634578,-1.98318253311391,-0.91529865321421,-0.0509559581204245,0.0208331961181122,0.257260457131424,0.0886497617292755,0.141578205945669
82.41,-0.404637477614946,0.131252350806311,0.888486792862125,-0.0387654171012931,-0.109568604876844,-0.0309564124028104,-1.00354595446908,-0.351862656569691,-0.171126632458872,0.779099756841209,0.017821676694106,0.360468945358097,-1.06943776915675,-0.595126277661012,0.114448551677713,2.09527094377778,-0.0371009451747462,-1.80323825641915,-0.892789108954626,-0.0812097011917612,0.00571100014064029,0.343381100594676,0.0129645371599947,0.258491926305181
82.415,-0.406877240504206,0.0755369349187124,0.902119978430678,0.00543833886815078,-0.0726955721521945,-0.0141538822579183,-0.971815074859344,-0.259762623077731,-0.135238333657359,1.14319623026194,-0.0159966191211559,0.412326593768341,-1.01865638885767,-0.525212924299508,0.0066559557867117,2.02750603207487,0.0672563261248397,-1.65769006033484,-0.877102409731528,-0.125208603812785,0.00810543366101348,0.437493720860352,-0.0559754849127795,0.316701654979433
82.42,-0.405797718673054,0.0570136227616305,0.902420181434163,0.042882755529087,-0.0537685449219594,0.00685431506490643,-0.975419078585882,-0.194246964881492,-0.119626534306832,1.32905161160166,-0.0385037355364215,0.443307891113685,-0.948097603380118,-0.458566080812039,-0.104421425123177,1.84158776708932,0.207547171244533,-1.43590486900023,-0.878021010260934,-0.138608647631184,0.0219015342175278,0.488003278068442,-0.103489883176394,0.279005751193901
82.425,-0.401351120878377,0.0479852833414461,0.911773724858236,0.090413445848241,-0.0322301662617851,0.0421566165170373,-0.966939534115925,-0.126240595371279,-0.122101716571241,1.36530826131369,-0.0837070326389335,0.453736764492065,-0.912670761418992,-0.412205004055805,-0.19925667081861,1.76009915623969,0.328179126760345,-1.21378842212618,-0.873219532478357,-0.148889427267154,0.0520666709279778,0.442046256253796,-0.127915446299216,0.251695219983016
82.43,-0.400603013269081,0.0634455976178517,0.910919802792015,0.101715010557463,-0.0126822930333939,0.061160790101167,-0.969881268261589,-0.0283122265940432,-0.143482384916976,1.33571632365245,-0.127337650604764,0.459438792391834,-0.884034053197293,-0.361322434605888,-0.222287909323,1.79071101308388,0.452644745695036,-0.99699145672138,-0.873147181389492,-0.140044529616392,0.0806435977638779,0.341592807625334,-0.102580684938839,0.198965027648299
82.435,-0.40259117113768,0.0946225479957844,0.902708746737545,0.107971376259731,0.00981391099513475,0.0825601454786674,-0.979230730636855,0.0666987149738692,-0.137797999679525,1.20300580167508,-0.142348737361721,0.446505033108451,-0.891080817797124,-0.29655543321947,-0.248794145838355,1.91320909580513,0.593172995063816,-0.773672633702587,-0.88098482799475,-0.118020324060212,0.103628651359264,0.238845808481071,-0.0667587012816414,0.161219711727437
82.44,-0.418927107916456,0.147503638554861,0.880234615938461,0.106531912204182,0.0280848209721073,0.108151106423838,-0.996068314492007,0.179361449698461,-0.106906123215012,0.877208316396245,-0.119909803682428,0.416385725328959,-0.920805630102918,-0.263279614000572,-0.263507490116707,2.03660910439278,0.737264357105825,-0.52825728610279,-0.890353175333896,-0.0866296734104593,0.124692704482248,0.107675485827275,0.012228522931219,0.16106513451072
82.445,-0.417804855476487,0.184288600705605,0.878865776177206,0.085110198883142,0.0349447084584189,0.119881662424311,-1.00784008600562,0.224402378437389,-0.115404460673421,0.47200114902215,-0.0920521633272842,0.378863514791774,-0.948496305762428,-0.200966220657817,-0.298253076953841,2.10383864319575,0.967264412403786,-0.170799315938033,-0.909433097390758,-0.0414995339606864,0.134165560966199,-0.0880804750031375,0.0988735283087868,0.144744580080592
82.45,-0.407744791209712,0.194901091003105,0.87481188073245,0.0654708214261345,0.04273847337444,0.117667511105537,-1.0095168625026,0.236950940168027,-0.118884670937647,0.0188776495500225,-0.0631133331275208,0.346155686413651,-0.955391149676722,-0.153472950634794,-0.305936504750981,2.14045030002063,1.07099730386318,0.0311568471540015,-0.932673047267801,-0.0138172823674716,0.139365026175843,-0.232554761379636,0.16186549689179,0.0989477822929761
82.455,-0.401263786603716,0.210170799257485,0.871266605801638,0.0325493057621817,0.0542209482844174,0.114767866523181,-0.998587551319047,0.220672757751578,-0.131910801740402,-0.502377114342375,-0.0283353429447313,0.307718276479814,-0.951215522085102,-0.111870583931393,-0.305644534459472,2.15441115534962,1.03774655147886,0.101107785921808,-0.954145286762521,0.00975470320252068,0.141051773396744,-0.35858695169821,0.17810957371218,0.00388670071034677
82.46,-0.404648216064278,0.224354328822597,0.86977837193649,0.00707209177164089,0.0576984286308289,0.118997353500472,-0.988242140243639,0.169434927898296,-0.128790790101396,-0.859067692704685,-0.0304032381475268,0.2596631902734,-0.943153949749399,-0.0844020395757175,-0.286300041271274,2.12736811727574,0.885978785238026,0.0312133668873766,-0.966573528868147,0.0594648414240062,0.128695422843866,-0.459486616379036,0.17461121425695,-0.0584955165778971
82.465,-0.404529246345882,0.249380832526515,0.875962565845916,-0.0207380152377224,0.0840203477076867,0.126219376921654,-0.976279004192297,0.122620564854285,-0.131736530402116,-1.15102351757356,-0.0122810233428895,0.217669574326517,-0.94987255064476,-0.0667448803305807,-0.248432235033439,2.02782226446293,0.700351854121512,-0.116726129469081,-0.980017392542784,0.111736781101274,0.11349847491189,-0.598658062941817,0.151682308415355,-0.0522124869119604
82.47,-0.397071497881107,0.251654299878618,0.869028116598915,-0.030390019208032,0.060476404944636,0.124970437310635,-0.967215141649981,0.0954598249338559,-0.140235433741696,-1.25937505706612,0.0108696947284942,0.200857622338718,-0.970398722080408,-0.0494888846909532,-0.189454976822475,1.85303505844643,0.476310875728533,-0.316728565800931,-1.00121632486947,0.14162305404493,0.0951078529029285,-0.718217170016989,0.130607324296606,-0.020383222377501
82.475,-0.401141890718983,0.242946959800042,0.868244966115622,-0.0403631111016222,0.0612590427440957,0.114606026264796,-0.976750221632035,0.0655075477763045,-0.164107236938654,-1.27930261767001,0.0325488297932547,0.182418876024946,-0.992778378443612,-0.0436629593708747,-0.150438178963807,1.70480957095798,0.363441566282225,-0.424726652231566,-1.01311593126586,0.176571826753902,0.0798487509735806,-0.811213608310302,0.105298374743653,-0.00870803757347176
82.48,-0.407291319022994,0.240308336570729,0.86546549383818,-0.0371505381172373,0.0476283215984701,0.0998046631611176,-0.988916981075027,0.0391236483787085,-0.188759400024769,-1.20312383734929,0.0151893509415134,0.158372439111707,-1.01030380259643,-0.04478361098972,-0.113837921392054,1.57036048822069,0.269155389051418,-0.484931290482938,-1.03776548174716,0.204832985560989,0.0615936709407904,-0.89547374827513,0.0802296830454358,0.0154832191177393
82.485,-0.410836636556152,0.233763571708358,0.861507946522115,-0.0287403254000491,0.0385905939096474,0.0935122026528332,-0.993904809444535,0.00859247620110768,-0.183749013835866,-1.09437632165918,0.0310456629426537,0.163539582083785,-1.02712403230341,-0.048171026176142,-0.0783826098751944,1.40817384866823,0.183945022571941,-0.489214140805393,-1.06444833423647,0.224073476303504,0.041442836496733,-0.922531677302138,0.0602836012840271,0.0133002023079083
82.49,-0.409273671552293,0.238190475956716,0.861900673085063,-0.0118546638029717,0.0152313541272669,0.0817579578606324,-1.00274435128784,-0.00653222186901517,-0.162477174634254,-0.917505535740572,0.0281175308062574,0.164557421013895,-1.04526028352903,-0.0637192071416626,-0.046834550606717,1.23229128135236,0.148637781372907,-0.438668019229409,-1.08361015179242,0.232445359581519,0.0311378623394505,-0.913420103706222,0.052470979711665,0.00514707639741049
82.495,-0.406332988472538,0.238596632105198,0.866495683630421,0.00517814446793803,0.00349891693152855,0.0746857251264546,-1.0111377656724,-0.0256804634223283,-0.149201404371783,-0.716821686269306,0.0114438122851921,0.159271956792691,-1.05662208365352,-0.0734511541436298,-0.033103594752471,0.994047237195611,0.131436204971726,-0.346937901066674,-1.09402800026698,0.240658235221336,0.02339962169593,-0.84071653957639,0.031948906329899,-0.0221225407882169
82.5,-0.40927990667303,0.231489596048597,0.873313449824547,0.0182309675595098,-0.00453681835214525,0.0716740750979045,-1.0113459043906,-0.0388979320321313,-0.151170816700803,-0.541111596328709,-0.00365182667465753,0.168140012797431,-1.06030487944588,-0.0859352965259891,-0.0291489592666203,0.764302054946553,0.121105499206321,-0.268482865188261,-1.09030752033343,0.24284717229158,0.0136636224440201,-0.759254519109959,0.0211314928353197,-0.0184800555265242
82.505,-0.410488631449655,0.207779524328612,0.877491944682046,0.0270935295825125,-0.00757567937952755,0.0706024141211478,-1.01547626504809,-0.0205816967690933,-0.141442096633098,-0.300397851163039,-0.017708294118903,0.181332303432385,-1.06252235749122,-0.103361138119017,-0.034575323644126,0.583196923427495,0.10524066265259,-0.222621037176829,-1.06978831227049,0.245886458624764,0.00836230178361868,-0.623241824009505,0.00517953453272217,0.0165567153156308
82.51,-0.403059960335045,0.195872489906099,0.873089166799717,0.0331900593655345,-0.0241550952196121,0.052097442970526,-1.02314578105222,-0.0152679086525534,-0.113588800206956,-0.160742796019135,-0.032103995167547,0.196991766950836,-1.05805459483999,-0.116279875787854,-0.0433218166554157,0.430338167805435,0.0692145734500926,-0.200804933905602,-1.06138989168512,0.233543319923313,0.0146294510066576,-0.539944082847959,0.00141205652677453,0.0718235889081496
82.515,-0.395072427950637,0.190422927597496,0.876606713361115,0.0335045769356265,-0.0284280210623595,0.0454892474195168,-1.01331391856784,-0.0148792964933567,-0.101783538255742,-0.0476638733840982,-0.0477702202794631,0.209925663669464,-1.05556861474525,-0.123618098211507,-0.0538503456661607,0.310859944707111,0.0168516649271008,-0.208192704103091,-1.0465520093057,0.216827023509637,0.021353570282001,-0.461339878663218,-0.00400430645269434,0.127374763826643
82.52,-0.396649459745588,0.198877299815592,0.879515672078809,0.0391545197444743,-0.0387238134082397,0.0419224575161934,-1.00066096931034,-0.00922106309318507,-0.104839334428305,0.0325246980415701,-0.0484471046552736,0.216083263126816,-1.05224350852635,-0.130313869560204,-0.068207277650678,0.254189620831186,-0.0356200494476738,-0.235225700109246,-1.04202788927419,0.183089443941942,0.0222158359725675,-0.407052577761497,-0.00766604604886132,0.175888856655096
82.525,-0.395915163952389,0.214576430062298,0.878569195388945,0.0389069505725534,-0.0463253245535775,0.0413435872660332,-0.99155776254597,0.0272595067901703,-0.104411969871823,0.105906320564927,-0.0598769231168261,0.206189151698264,-1.04222939467711,-0.125073721620741,-0.0875224452102771,0.17746933476878,-0.109132898193301,-0.279586930719388,-1.04042201058235,0.150746827845616,0.0230539032642311,-0.374948549297575,-0.0355571404714267,0.215572580192813
82.53,-0.396042145663378,0.220436706723616,0.878621010703968,0.032812239661252,-0.0339019461658461,0.0366373500150618,-0.987344524822576,0.0489790683350304,-0.0866475908053513,0.146887227103889,-0.065148794958575,0.206910085332117,-1.03581399087633,-0.110081093273668,-0.111710341009447,0.0767467229462322,-0.144133446315146,-0.3107886909246,-1.04199987049377,0.133160213295026,0.0276536497607614,-0.32897353607779,-0.0487431095019802,0.278900543052308
82.535,-0.395687504803832,0.199666021727515,0.883274238047558,0.0339102110948836,-0.0254717561084535,0.0382573716342449,-0.978673048338121,0.0628701284531568,-0.0744250446625194,0.165989294767455,-0.0618994123537898,0.204687349478391,-1.02525201663514,-0.0871303406204442,-0.148506262827502,-0.0970977846507537,-0.155065757180223,-0.323795837546784,-1.03368061102655,0.119090645775844,0.0286495571381298,-0.300792294430575,-0.0549257989366086,0.392589399977596
82.54,-0.395840154324427,0.188299301294401,0.877263709834595,0.0292783870919033,-0.0218971316078373,0.0403299161748707,-0.98102496042874,0.0751358320076797,-0.087471304183148,0.175328125615986,-0.0520985237439406,0.199545861917158,-1.01554859264214,-0.0676890191704771,-0.180777984112278,-0.313377090285712,-0.144351718116048,-0.320411030871069,-1.02209911646312,0.121227023150817,0.0259334753529139,-0.305800441302977,-0.0422000261809899,0.529707377476041
82.545,-0.392442109483175,0.196820573004265,0.884379065913173,0.0314610607273719,-0.0300320380156446,0.0400579033285847,-0.987637580622526,0.0798837046119287,-0.093742913555894,0.163395934198134,-0.0360406428451917,0.185719408321393,-1.00527282737319,-0.0559319642596401,-0.19911251381527,-0.508074993502492,-0.127697476000967,-0.328103348829994,-1.01223792855445,0.107240562877995,0.0341845183832783,-0.337920112735689,-0.022200416713746,0.656954142855476
82.55,-0.4028706142028,0.229481846132014,0.890498150883603,0.0155328729386057,-0.0294862481494768,0.0443379921808821,-0.997066321521194,0.0821324223904313,-0.0847864378209595,0.160440935307815,-0.0123192273639436,0.17515525264601,-0.987982601120247,-0.0565348766460833,-0.210842937775462,-0.703759985912677,-0.126898846526291,-0.361522369585061,-1.00833395630749,0.064966582587,0.0188569520189672,-0.320528882154666,-0.00336917060144822,0.661583824685367
82.555,-0.413995918235498,0.22519742097634,0.885961500490351,-0.0212583104084623,-0.0298190688279075,0.0419224575161934,-0.995273328489515,0.0877655756778944,-0.0760783856577942,0.16409366781734,-0.00585566194804124,0.164086412024906,-0.972518390081285,-0.0634492087508241,-0.211607374548837,-0.813839017561861,-0.141691448157749,-0.407524629741258,-1.00794302348737,0.0440912202115417,0.0130609371680142,-0.262464742005815,0.0176480158174796,0.57539081947287
82.56,-0.411351129918257,0.200222081818285,0.871684379779377,-0.0506518764925822,-0.0453465195576264,0.053263026123257,-0.992191443741446,0.0738632084932698,-0.0787833116540047,0.138667340671277,-0.0201658731707464,0.153351547835785,-0.966185087626432,-0.0718749838798915,-0.197617164191862,-0.882212184528278,-0.189906316799548,-0.463357123700341,-0.997016358150725,0.0470886635531434,0.01120878480579,-0.174090831110626,0.0412501501099651,0.473983027509853
82.565,-0.405256607238779,0.182786082293547,0.869782408785213,-0.0689132728009525,-0.0487893374803166,0.0742875492699446,-0.983524825029059,0.0690873255872825,-0.0891239103678007,0.107515583537559,-0.00488249006679158,0.142605319572828,-0.969898345027359,-0.0832500501674287,-0.166601534466864,-0.886787122150217,-0.237615669269737,-0.504605794680974,-0.993089567798621,0.052088106802938,0.0201230615602274,-0.0988405657395358,0.0729257710125911,0.42154883246812
82.57,-0.409828827165906,0.187850906700016,0.883440873965517,-0.0761645950634349,-0.0560560862039349,0.0818539591268503,-0.981748152136233,0.0561623063322508,-0.110207781546659,0.0818228333790229,0.0435485900381831,0.118967417301209,-0.995001350903988,-0.104374925712886,-0.0969373860030836,-0.876473625497679,-0.303903382685047,-0.532598420151188,-0.9835304158343,0.0682277547473571,0.0313879775569094,-0.029692578276632,0.0867806779873513,0.389665200023913
82.575,-0.424580371993141,0.202640672573659,0.89049109859684,-0.147263533031523,-0.0729345411397706,0.0856326144818842,-0.979413514039166,0.0413872088620157,-0.095999650858329,0.0858466633242893,0.046021018185877,0.102753182729674,-0.995936921513471,-0.108086495767693,-0.0926498512782407,-0.816914732201987,-0.304158528487563,-0.563038328966855,-0.957216535560591,0.0911966548093506,0.0465936318899972,0.0287332037957329,0.102617050330669,0.367252237226953
82.58,-0.424870058997884,0.19749038182002,0.876301329858651,-0.24413658185414,-0.0872352709836165,0.0902336861310822,-0.976204358415205,0.0211693061020433,-0.0713204444473633,0.0505458899380767,0.0357927041127729,0.0991714010495565,-1.01127247748145,-0.128729173518564,-0.0574905583488274,-0.854159709428058,-0.303293348161123,-0.557304388589872,-0.958754448262812,0.116770283198871,0.07023246264189,0.0654590609890895,0.110141077147692,0.384868008815776
82.585,-0.405570785129879,0.180767244344344,0.878904099579579,-0.281671902586328,-0.086817506495367,0.105450570583344,-0.972836506457623,0.0171629388687306,-0.0613129839827249,0.0284749669288781,0.0615260560170257,0.109890503720241,-1.00659963076018,-0.165250943861477,-0.0287638517712369,-0.931846755719496,-0.293594638819925,-0.514478742940053,-0.936440407422495,0.129743416588753,0.0862110328805074,0.0708653761262415,0.102197693812929,0.406326649915647
82.59,-0.384538880491986,0.19599494987233,0.88188402150869,-0.286208360120935,-0.0922368498368008,0.10671671663602,-0.970846156662653,0.0341788164263418,-0.101408880482531,-0.00365476873922654,0.104262070935709,0.114466326788875,-1.0013774317921,-0.188415131076307,-0.0133336690977175,-1.04058591082461,-0.277488583676158,-0.462953241572767,-0.940205693167523,0.124156189994326,0.11047250403728,0.065887938286154,0.0624476292214383,0.392331101765121
82.595,-0.356639157420589,0.22124718136089,0.886090088325413,-0.260211457792789,-0.0962350815534592,0.0938863442090569,-0.97763889598614,0.0337568993074165,-0.121637505428218,0.00548909545840553,0.108012040828997,0.116902723908424,-1.00088199481804,-0.208547582712635,0.0102584705730928,-1.11249630248034,-0.242301679808542,-0.405804734562364,-0.925448046797327,0.127208889988002,0.11706020723176,0.0670711844532367,0.0331859621998109,0.331275302982088
82.6,-0.364106914323767,0.2422467812336,0.874462400086142,-0.228064281900727,-0.0972435481951985,0.0663160191284002,-0.994015357631925,0.0298921426443688,-0.125363870054958,0.00257800646113551,0.104467764667757,0.128843095140746,-1.00112110227831,-0.215992774709606,0.0366704396835311,-1.14686365809171,-0.203374281833172,-0.311013333277349,-0.919282023873257,0.132519168184922,0.127417921176645,0.0754213223618975,0.00776089522824712,0.25210295192372
82.605,-0.395847082922898,0.253365275215878,0.855839112854605,-0.196265936395446,-0.10045122967643,0.0723465466042872,-0.996139920390887,0.0501652116123776,-0.140160201908718,0.00251949348677597,0.111387691824069,0.13309618675831,-1.00346180687626,-0.226324332986991,0.0768923070024946,-1.10252530779802,-0.176594144164305,-0.222346887025419,-0.90821783580868,0.142983806423577,0.135982371569929,0.0535274963946808,0.0101941227912903,0.209399681602593
82.61,-0.412056181910424,0.212867253948397,0.858606572888603,-0.164583565617877,-0.0782621965177529,0.0629990460755314,-0.990323878704352,0.0430811144041744,-0.150029786021675,-0.0165673690312299,0.123365361437758,0.13804750928394,-1.00377858864281,-0.226328390127718,0.105603584108223,-0.997316889783476,-0.152635632026096,-0.147480170373437,-0.907561190129699,0.156009977146207,0.134752903806516,0.0173805305304578,0.00799045813052875,0.169212666406465
82.615,-0.401156513975177,0.15939583400001,0.874469176359458,-0.127824159806567,-0.0722146422852896,0.0439523889432527,-0.980231807606934,0.0222985549599524,-0.165956655737965,-0.0410476633920725,0.125009909272194,0.137135953206835,-1.01149623790294,-0.232663710712494,0.126320959170602,-0.868749838830172,-0.13557231589131,-0.0871657318415477,-0.904658065195769,0.162191052006943,0.135486360437672,-0.0163507348066855,0.00352967531182954,0.124751377328768
82.62,-0.385977438776452,0.183425440493933,0.882749253119803,-0.0866298106513992,-0.0649250030438217,0.0481355035760269,-0.983086404485534,-0.00459906337819152,-0.184303220743929,-0.0591022393855055,0.112732961434233,0.124798736000339,-0.985300492642874,-0.236735623475693,0.158936465496692,-0.718691516169117,-0.120928145036107,-0.0604181356882183,-0.897894137117553,0.174167443504938,0.138328369764139,-0.0559942148778357,0.00606596276949912,0.0889467254910459
82.625,-0.390216206762501,0.193124748374754,0.88309060562025,-0.0778639387356451,-0.0501615232045555,0.052163806625291,-0.998950001698185,-0.0172743684178797,-0.189391122364064,-0.0774662831197608,0.0878406215828393,0.11588841034485,-0.977148185429243,-0.251581367342065,0.168571451696995,-0.522540906739511,-0.0936184823059378,-0.0934549420493821,-0.893942023345219,0.186961059665991,0.127096730490605,-0.105253102450658,0.0133212316614744,0.0417982357724016
82.63,-0.399654791888412,0.193535968281866,0.88517430269734,-0.0942992845503215,-0.0501579417598261,0.0574122462716695,-1.02064232927561,0.00326516042383396,-0.171549297541979,-0.0704428627564889,0.0790401749279506,0.11772311481464,-0.971130248338457,-0.272497644902151,0.166708943955781,-0.345765458585912,-0.0529136417285985,-0.0919603954819598,-0.888097159353852,0.195279011971745,0.126050876105026,-0.144768398985961,0.0544570784272434,0.0243231686035783
82.635,-0.410267743106147,0.19352551165024,0.873156346269682,-0.0889959632427437,-0.0472938071526468,0.0626177767399939,-1.01521378444784,0.0267868344654449,-0.164507987297198,-0.075606273909091,0.0626136762259431,0.119016301512527,-0.975786750376175,-0.281420906717878,0.159701963720782,-0.225631450470679,-0.0334338228706564,-0.0699251035476647,-0.879661128987277,0.209354404080461,0.118682678299183,-0.182889690942987,0.0996716699309833,-0.00615507650358752
82.64,-0.414296220392237,0.21658484617704,0.862486128545243,-0.0834818655674664,-0.0508404673002299,0.0599857325526931,-1.00489374019916,0.0352109232016517,-0.192512663696104,-0.0924352919253193,0.0451996249999312,0.122602550968263,-0.980937245704198,-0.278742174533129,0.154760495943663,-0.105968344923651,-0.0113978956762784,-0.00742868112953274,-0.882347098399945,0.215604995780899,0.116245209233902,-0.207701098426357,0.156469674536182,-0.0330017599912188
82.645,-0.413232068869846,0.205896860976882,0.867317393740986,-0.0746509025151228,-0.0481179708354377,0.0601301169423437,-0.999367923815565,0.0359234368465148,-0.21180988380818,-0.154194210745533,0.058992625956764,0.13316145758237,-0.974833008747904,-0.27314347490882,0.140301697006671,0.0132602596749845,0.0161028215079545,0.0510719868723711,-0.876634026426697,0.233604588032634,0.109932200907248,-0.228314454470552,0.202378783633601,-0.0415019193826207
82.65,-0.404509489437674,0.183279590010162,0.871873205864091,-0.0706528071785938,-0.0407785121868768,0.0565201492106607,-0.986384212328702,0.0364470953056899,-0.210878050023082,-0.183995044953578,0.0447897185588104,0.121397726893455,-0.960876520585735,-0.269687791157795,0.121433312451911,0.139381659230231,0.0370025671728341,0.0662100186147123,-0.879080960296369,0.23582401097965,0.104979202584044,-0.229491384405279,0.276590162870076,-0.0605049935245184
82.655,-0.400738228453008,0.162529962638034,0.884690956365678,-0.0627935230249616,-0.0394820038639239,0.0524179561131983,-0.982535252773917,0.0332595438411506,-0.187612170100409,-0.225335618725882,0.040321464781698,0.117807211506647,-0.948172617155335,-0.264540473940847,0.0971063726949437,0.250204334331153,0.0607193599784352,0.0364114784908339,-0.880260075280813,0.246309152236077,0.101637716259968,-0.233027026752634,0.32219861447812,-0.0684970956047369
82.66,-0.370905021229287,0.159394634468954,0.890524744132572,-0.0340579644918248,-0.0228426899116697,0.0518841383831148,-0.986316191582421,0.0316591721612011,-0.177920783791426,-0.250909709955563,0.0413334807387332,0.120367405412395,-0.942097443511312,-0.263872572506149,0.0686077070317193,0.327306119208004,0.0747538611270181,0.00135453740792096,-0.887947784686196,0.253589838471282,0.0986578070036072,-0.245838799328252,0.348237400130398,-0.0723435710811225
82.665,-0.268154409765913,0.0365237147551917,0.873881514131619,0.0293923328013204,0.00595935995266689,0.00521928596965846,-0.989497189300768,0.0283977573852199,-0.155521735500406,-0.26806548793327,0.0257994406649975,0.110963060983665,-0.927981513390156,-0.256227888408417,0.0306813761104677,0.379807119355592,0.0798807284121707,-0.0415422474529456,-0.904691029166074,0.263763087399585,0.103395956008686,-0.258248038058954,0.361584551206806,-0.0830335194568646
82.67,-0.498657797961893,0.154366930740861,0.921669881706515,0.00696438319404087,-0.0325517823619489,0.0241639830196374,-0.996508687150849,0.00707813853712963,-0.172215330686848,-0.333622978645952,0.0203756689530537,0.112030503496642,-0.932816768828608,-0.244160853318572,-0.00633066462202444,0.407438498415557,0.0829595480513645,-0.0874242124929924,-0.908209302516504,0.270761930654001,0.105099925898063,-0.27286940638327,0.347002522912685,-0.0804883033820654
82.675,-0.439183766439894,0.372085823153823,0.82123167556461,0.0294504741726405,-0.0100347082436479,0.0882749295926764,-0.995497611592238,0.0195995365916716,-0.20844454776667,-0.395356769491582,0.0205703136244609,0.116724593691205,-0.935181669820905,-0.226073328642692,-0.0401487277338862,0.450247933978107,0.0887922736162661,-0.119493202105863,-0.920249605008815,0.271211916610235,0.1091945691773,-0.261949446053579,0.331476628067192,-0.0943061633437526
82.68,-0.38791700552392,0.183798082143222,0.877416454628419,0.00606090705928694,0.00785265738173107,0.0316011044168935,-0.992160627815672,0.0273165849807319,-0.179872260840058,-0.358863739784581,0.0307888311437797,0.110507325611567,-0.954402789646752,-0.208084303958186,-0.0719233925236242,0.509822896134221,0.0980016252795115,-0.15326082525257,-0.937137581773248,0.281005359349408,0.121101776208795,-0.249756293506247,0.310700569976246,-0.0971807209686532
82.685,-0.363042076827027,0.122767004968139,0.892138915390942,0.0328688298899156,-0.00128846074887342,0.035398594791079,-0.991534539127194,0.0496301646505161,-0.137693899427231,-0.266933428311284,0.0263528300039308,0.108229824439874,-0.974990329812212,-0.193953445033216,-0.084474591290755,0.552716633689661,0.109831958129548,-0.179115172868785,-0.943927482561737,0.2811265714792,0.128459369895643,-0.233336001607597,0.285446627215931,-0.103575755709152
82.69,-0.388297349636143,0.179460594874677,0.899370183910043,0.0701873155479785,-0.00251148367068559,0.0448213548934391,-1.00120140165622,0.0641912910225356,-0.156425440293682,-0.27692016225473,0.0223896178045287,0.119753571198841,-0.998674154678493,-0.178804147118652,-0.0816742667828053,0.609915587476489,0.122463759124092,-0.179812252902866,-0.958307409365404,0.28333901008909,0.134421692518744,-0.179913385302177,0.267808752196048,-0.140497983163802
82.695,-0.405224752937443,0.27547291216961,0.867506278897787,0.0668288606277418,-0.00359518412021696,0.0582222662334104,-1.00753062918391,0.0520464224490721,-0.1777889332562,-0.277717329045264,-0.00299673222127793,0.108830313586926,-1.01313220370544,-0.166883710460286,-0.0748491153590962,0.65827941397757,0.122872468182326,-0.158249579054789,-0.973974367339961,0.283958008664585,0.136220246774249,-0.125455135882497,0.253738658078694,-0.148302345988425
82.7,-0.402034576475031,0.24210384842873,0.873573240764459,0.0688286867354658,-0.0141378068412489,0.0580482266931632,-1.01038971036031,0.0551018449065767,-0.168724933266285,-0.301639551344954,0.00638743480563428,0.104240701366156,-1.00982771007117,-0.160789232934685,-0.0655783132888006,0.695299437656844,0.10371694020873,-0.128738591653372,-0.996513811867571,0.282251457616256,0.128125230704025,-0.0767966668393313,0.215305799108979,-0.150480940937996
82.705,-0.398203301028441,0.207308505771944,0.869883388051679,0.061401535868337,0.00951717167888875,0.056239529849118,-1.00746051776694,0.0761972601957242,-0.160627133461437,-0.269475811095491,0.00937976147129536,0.100526406263553,-1.00274905757086,-0.165902563780756,-0.0563178828596093,0.720467057295374,0.0586251843485197,-0.110904541970234,-1.00498790937401,0.271050175511848,0.120311075322603,-0.0282520308907974,0.160421783534476,-0.156522012930387
82.71,-0.384388947556656,0.195027532978429,0.873019000362138,0.0779187104895263,0.0133390890436446,0.050095979571717,-0.997159422887781,0.0797697535127462,-0.156830386970427,-0.238895598226008,0.000397065654397011,0.0949122235178947,-0.997108507055333,-0.183377138487143,-0.041230027147622,0.701188754090054,0.0213789914793203,-0.130907472111241,-1.01623102258811,0.268313062518522,0.108554458279259,0.0452523617458209,0.075234959481669,-0.179264178982843
82.715,-0.394962150848919,0.211488797462339,0.881451603577359,0.10045616312384,0.00830738095796048,0.0464611157284957,-0.999773009458665,0.068382859655673,-0.156588377096266,-0.259165569878137,0.00175719510879701,0.0908318351546948,-0.992188948998871,-0.200992673237824,-0.0263410035042413,0.653199814361301,-0.0160375209342423,-0.170911600906178,-1.01954061805864,0.265879833466129,0.102197449589369,0.0906544219738749,0.0103298126197953,-0.177210140507096
82.72,-0.400835168866136,0.223239976389581,0.883274086685954,0.102584050038935,0.00986559371618601,0.0459610436267024,-0.998161977827817,0.0574592662797921,-0.143843474003294,-0.287380954055137,0.00897556180837283,0.0886045766931771,-0.989742004040002,-0.215209324861224,-0.0121287451275755,0.573331256150621,-0.0560323895834906,-0.218197477631264,-1.01725103040512,0.259748739098647,0.100704731471524,0.118956629660988,-0.0579466388990451,-0.150968507946723
82.725,-0.402122067903475,0.213446338033008,0.883338442013923,0.097017993756512,0.0236974269417762,0.0493716366611242,-1.00160592475808,0.0525494089475277,-0.145067039749729,-0.319927705965986,0.0019910297572322,0.0892822009433766,-0.988922205797174,-0.220539504398144,-0.0039582125624157,0.512436637590309,-0.0846057590226372,-0.241590357893077,-1.01427229584548,0.252187411778813,0.101616128413498,0.113074905471232,-0.101563567530622,-0.122897738279536
82.73,-0.384582708304792,0.176624262563867,0.891160946273272,0.0946712608815233,0.0385883636546942,0.0475715253844392,-0.996986231125234,0.048633935581601,-0.153897528241051,-0.330280191648952,-0.00572907584309743,0.0794668716108847,-0.992840425341822,-0.217546165773596,0.00355847247068252,0.459831745854486,-0.094000765275155,-0.22844042102009,-1.01646516857071,0.233955539510475,0.113366421865353,0.119653327343021,-0.143818626447141,-0.137264388564941
82.735,-0.387096642944138,0.161411810845802,0.894992510312162,0.091532173329154,0.0410983469738398,0.0404863373703547,-0.993005310171123,0.0513725835276559,-0.146561781228637,-0.334274656526218,0.0108199345919585,0.0810002945624564,-1.00723915284821,-0.201775121038258,0.00983901221773217,0.414553778358818,-0.0939829962121934,-0.199391478643485,-1.01959821303734,0.225280688885298,0.118705580020503,0.113445617839777,-0.166951566934586,-0.15327245884755
82.74,-0.391126265985375,0.173906470115817,0.895606634837042,0.0910285413265228,0.0395606825162152,0.03741100691938,-0.998691049945137,0.0679295083397868,-0.144762084256707,-0.317977505023715,0.00379566960873222,0.0728773499375193,-1.01730073120991,-0.188097548902157,0.0158394624598434,0.369137679213734,-0.0832845359712159,-0.136740924713831,-1.02763422139454,0.210362775460965,0.131316195325556,0.102107297034335,-0.167939542397213,-0.160541248198714
82.745,-0.400069549466669,0.192924083261982,0.885200194680538,0.0915052764058559,0.0387770982715217,0.0305696556480038,-0.992933518693928,0.0902222530240094,-0.151772381577255,-0.300595913869821,0.0113923158496618,0.0655409411339053,-1.03018484736667,-0.176253353210166,0.0265926740523138,0.339228134726419,-0.0688763968101154,-0.0869189184986315,-1.03105666314764,0.19659477313547,0.146086221873464,0.072008582851004,-0.155448627062162,-0.145590883012079
82.75,-0.402525405332429,0.20769083789751,0.881483688102562,0.102635644487113,0.0362046857387566,0.0243219771168449,-0.994765779619551,0.0943471858871565,-0.165737458646066,-0.287101360610631,0.0142441130305894,0.0509307185296327,-1.03493334555093,-0.171592027239936,0.0315864704078074,0.328558481747892,-0.0624093663484625,-0.0327719802804887,-1.04543412040202,0.174507394131935,0.155407186266126,0.0306240088296133,-0.111390537166252,-0.116316665681023
82.755,-0.39563151510081,0.218738478926568,0.886088756117247,0.128512030381375,0.038191512872926,0.0107355015378273,-0.991935087911738,0.102622317556239,-0.159498942146575,-0.263297952621423,0.0192321599741526,0.0378075586239361,-1.03508659252889,-0.170271355730886,0.0339143785903155,0.321322265324413,-0.0634901705351174,0.0300769594543053,-1.06669298960417,0.149219734099337,0.167021239615967,-0.0207300935008123,-0.0544436798333668,-0.0814028899234568
82.76,-0.393360983232487,0.220986637849837,0.886925547059922,0.137452930212021,0.0388114332265421,-0.0092113792305217,-0.99810690367243,0.100892220023794,-0.152548418751347,-0.230631848015228,0.0197445899664761,0.0311845218681327,-1.02864443800997,-0.175932331022992,0.0291290683314318,0.319257540414876,-0.0806027592033765,0.0978032595281996,-1.09597037485529,0.11669454213046,0.166912243864993,-0.0642909017528333,-0.00707631662324973,-0.0769953037291969
82.765,-0.390890119407509,0.211178051626225,0.878824084033189,0.148241452008563,0.0339694038780467,-0.012348933758427,-1.00224031561361,0.097974031696536,-0.154694094450814,-0.181296917103817,0.0165518927060881,0.0213377536601505,-1.01586449907198,-0.176282798899741,0.0246323228680551,0.297528510863198,-0.0991616243688615,0.138341661418396,-1.1228494244094,0.0914730503794241,0.159430346124188,-0.0856763477150156,0.0362546402629578,-0.0875377360186968
82.77,-0.395262720986807,0.227144225343234,0.874320067669647,0.144753732160724,0.0267096821614009,-0.0225278032465524,-0.99774452474622,0.0712239613502377,-0.161166505011735,-0.12961822886162,0.0207509780448749,0.0171386677063234,-1.0029365436433,-0.175549011710178,0.0188754153180071,0.298751666659811,-0.111423382783803,0.122669574887238,-1.16006020608793,0.0613273956968935,0.140159757637505,-0.0989246035614499,0.0479558829217321,-0.105056712776257
82.775,-0.38968285201476,0.213059435175391,0.880169098208502,0.140174070235844,0.0256566195007441,-0.037154235707537,-0.995010172849454,0.052356539881568,-0.158191061605418,-0.0845147995178533,0.0223875660449266,0.0126669614170563,-0.992637099004065,-0.171408821791973,0.0105801573475202,0.26644765241751,-0.122272921711777,0.0914278685015117,-1.17950142297677,0.0348012888982772,0.118456382858852,-0.100979204080004,0.0403779583055469,-0.11556880632441
82.78,-0.388726517877086,0.198715751071318,0.878393279199102,0.134545747543668,0.0271560698747635,-0.0483782959323449,-0.98378852180407,0.0362599801166236,-0.158595324764741,-0.0299202115793903,0.0244244936532958,0.0136706886941187,-0.987560029950526,-0.168375109840044,0.000548983478644383,0.225237695897458,-0.129460275779695,0.0662721253054296,-1.18499224256297,0.0131150536739876,0.0953469077094601,-0.0743069940977404,-0.0101203658917028,-0.136663811962857
82.785,-0.381611315209191,0.188785309901609,0.886549847056957,0.131179400561853,0.0195910973016407,-0.0527350409751297,-0.979495535584256,0.0186652270063351,-0.154811213687855,0.0652024894630694,0.0337241763574105,0.0202091975609961,-0.980175407394334,-0.167941918636866,-0.00905817811690105,0.15587139456485,-0.131277121343776,0.0505475557946321,-1.1814150483495,-0.00193222399058247,0.0774464006959105,-0.0274678291693954,-0.0604602128344571,-0.154960374220921
82.79,-0.385257858638814,0.193793915252032,0.881869847695065,0.140277406908064,0.0148606866523456,-0.0637204501893771,-0.983587546695543,0.0112499329654958,-0.153738568904515,0.15475844730432,0.0468187495959429,0.0338293055764418,-0.976699716206466,-0.163465493428944,-0.023271874328142,0.110795370060841,-0.124787909007064,0.0463611646622036,-1.16086649949493,-0.0138757306503336,0.0607119425065334,0.0299757811813736,-0.102518875519319,-0.173874599255012
82.795,-0.389732280761785,0.204892585096765,0.877077709059255,0.145026754795335,0.00722917516984351,-0.0790790780144318,-0.985100337355032,0.00341478939101379,-0.143959005311751,0.229037945291202,0.0471096135755177,0.0484103197745023,-0.972504735360161,-0.157675059740786,-0.0438947803965935,0.0287907876305307,-0.11524934006743,0.0599031861953282,-1.12888065771734,-0.0270968339276853,0.0507451766098117,0.0819619024126084,-0.131451001820009,-0.193051176761579
82.8,-0.391178690331212,0.204877765204057,0.876026068509267,0.155637179050034,0.0151110833439327,-0.0896522476660379,-0.989457039289291,-0.0005704356149172,-0.14517188161976,0.291767168866903,0.0548863168009306,0.0597307717697193,-0.968633885681543,-0.159297076149291,-0.0674720690851729,-0.05369050443055,-0.0994291436296405,0.0903538100111356,-1.09178345646362,-0.0319205677530423,0.0477377240070664,0.148693725282359,-0.150497897515366,-0.198412858421768
82.805,-0.388961004728344,0.200216546482002,0.881150704228689,0.161832079474132,0.017499205488364,-0.0865888610847793,-0.99301764577032,0.00644351571429389,-0.148665055448868,0.351506142348368,0.0585185785265144,0.0704783350229263,-0.965163430748875,-0.167033226329014,-0.0932933523066811,-0.134322436651497,-0.0890123753798178,0.132860831138808,-1.06018052030177,-0.0395932679831271,0.0552712805706521,0.205979473878026,-0.160636961693746,-0.201517264918511
82.81,-0.384567098545911,0.202977996151887,0.878251975005248,0.17492559657302,0.0214651470161182,-0.0883901524446381,-0.991251746356108,0.0192150208631795,-0.14529033715432,0.399127582285608,0.0545104753272149,0.0720588799612138,-0.962497396683803,-0.173634030647779,-0.11134244671602,-0.202102188090909,-0.0697108373095197,0.155612191442383,-1.02194329362004,-0.0384569084146075,0.0569280639313268,0.260189475532332,-0.148862345791105,-0.1907589803087
82.815,-0.386262033134968,0.20206565986315,0.878822524255658,0.180418879059805,0.0271560698747635,-0.0854346599163805,-0.994208821084833,0.0272149772180455,-0.13674991275729,0.435826164593433,0.0564164919051209,0.0739648965391198,-0.959213428304256,-0.17298448004565,-0.120381255039944,-0.256646448517,-0.0541189600783852,0.160562663761689,-1.00004460584229,-0.0308326203642479,0.065172666657907,0.275937426899794,-0.111208157972077,-0.165546375709917
82.82,-0.383552055966932,0.20626706580029,0.87531537247625,0.188695572118482,0.0344177046736582,-0.0890989640156785,-0.996431434102023,0.0316022159182744,-0.137939909748917,0.449814647915721,0.0615191319717527,0.0759946267431746,-0.955262795411138,-0.168581906749747,-0.122970642873082,-0.30671165787936,-0.0447397419359235,0.148372419386297,-0.984366257566762,-0.0151079174265803,0.0699520462040493,0.266732094547537,-0.0565123485325293,-0.135809420260166
82.825,-0.380453203839008,0.193235061498567,0.882179861520202,0.204889008808996,0.0375368314660545,-0.0896562272178155,-0.987270509212451,0.0332379631327702,-0.138199325290421,0.436560317276319,0.0566717404857183,0.071483625519733,-0.952124235320887,-0.160387588149885,-0.114047991220076,-0.342458284674465,-0.0340274499256688,0.123282738824256,-0.968897325712748,-0.0038670893549381,0.0731342127759543,0.221454867133775,0.00470623923215868,-0.101048042693123
82.83,-0.376154789214562,0.178497611545369,0.88555376913321,0.206252453944684,0.0426195702064045,-0.0871925297164903,-0.985564573138206,0.0362008232886275,-0.147771071473849,0.39140993601288,0.0671985116652155,0.0664214955952995,-0.955743327383198,-0.152759571217889,-0.100950579227873,-0.375504347191781,-0.0351554897295274,0.127066874982386,-0.960860287579696,0.00563752076210846,0.0812432018739525,0.17091466481462,0.0607553658848358,-0.112501279951671
82.835,-0.377854997512435,0.182635651176231,0.8854596168861,0.203201560457486,0.0374827066120614,-0.0866320107578313,-0.990376655194145,0.0465460522412252,-0.158138953607898,0.359239110448432,0.0628963420625408,0.0592902292970936,-0.961738641598568,-0.155379204600248,-0.0816583451404167,-0.416078801615824,-0.0339979118642343,0.115857213126492,-0.950933592992183,0.0291039038494271,0.0870148685726906,0.107806063646421,0.100069530106903,-0.115051805973053
82.84,-0.397242936235066,0.19561989436731,0.883051812129921,0.194979513336727,0.0448051229120112,-0.0810062230963299,-0.989916016799851,0.0610886905375654,-0.169095321262829,0.320449933308612,0.0598481657442207,0.0531651216135511,-0.967420916598123,-0.167228966571123,-0.0621167833210683,-0.453094202522354,-0.0469579139378443,0.0944260222576992,-0.951066326252662,0.0550682494961483,0.0923027430485423,0.0512827062914333,0.124563145752103,-0.0934920842989133
82.845,-0.408180864651003,0.210781662161211,0.87270577214761,0.18535897612874,0.040113845630001,-0.0795061713441994,-0.991012795096291,0.0689958837189939,-0.176005069922287,0.287713740758679,0.0570242358693568,0.0498168343519562,-0.967942516952427,-0.182177073420143,-0.0515004906766843,-0.48687795731814,-0.0642383187156409,0.0784732800115055,-0.9392287355632,0.079562152727033,0.10711035226046,-0.0421806177709365,0.155269113430691,-0.0389799183877689
82.85,-0.409012108197047,0.223977591641309,0.8783554139757,0.17570432574929,0.0348650992053867,-0.0830692529815555,-0.989219590039608,0.0762493081638851,-0.174068423960509,0.261412094035071,0.0586207222099611,0.0497050467431527,-0.973054205970465,-0.19277270631906,-0.0373491915189842,-0.523267912525067,-0.086551711954917,0.0545292273163795,-0.942378478272412,0.0912355162260126,0.11283066982758,-0.103731510104242,0.165057641368502,-0.0217887484705484
82.855,-0.409514589801456,0.22345316374759,0.87698199135807,0.173380959331524,0.0347101460162193,-0.0858055115531059,-0.991472342825068,0.0934961025212106,-0.203619226645426,0.232584270234024,0.0508007788820634,0.0451369816227327,-0.973702380361322,-0.200088344835718,-0.0262368399734384,-0.541190403450786,-0.10914170009878,0.0552160902566007,-0.93759504889802,0.107875190479667,0.126734647421202,-0.130221824977689,0.146460353150471,-0.0672165531196905
82.86,-0.414150916418858,0.214868372500916,0.877873456507457,0.171848842762048,0.0305417846596582,-0.0960314655394555,-0.991818261425616,0.119129788566886,-0.215332847937325,0.225402926770702,0.0502842463088544,0.0446204490495237,-0.972006484235135,-0.201201194237188,-0.0133244953514794,-0.542260050773621,-0.136401367600494,0.0587388358367127,-0.929689182188893,0.125466678061285,0.135078291622722,-0.141185452108619,0.124208260503109,-0.106103401455585
82.865,-0.419860382423516,0.217085078107525,0.866045775113017,0.163197557992207,0.0352960584233558,-0.10693225757731,-0.997428928085077,0.136893253531666,-0.140917347786317,0.282930077686569,0.0667220280458938,0.0636053845364652,-0.963476376501204,-0.209432649787744,-0.000163871914668846,-0.544853449608483,-0.155330979227687,0.0723830584815125,-0.921833439314644,0.149226745255008,0.151430626689656,-0.159749791026115,0.118614008861391,-0.119027824481956
82.87,-0.416271919611066,0.241292690932551,0.855534742739788,0.152992568410744,0.0291403530423457,-0.120640726300771,-1.00594831591712,0.125036300159279,-0.122587396993494,0.307863354682922,0.0594571970280689,0.0867660016701451,-0.959831747680654,-0.225351621415001,0.013818138222901,-0.554041622901672,-0.167571233184132,0.0830837989264366,-0.917055169553432,0.161167410383432,0.150480532174334,-0.157216852169226,0.110283529024314,-0.127358297247697
82.875,-0.407704935934984,0.250573747858928,0.851849215290456,0.153375245036413,0.0273842935954748,-0.123999773890786,-0.991661560584875,0.0981028579514949,-0.16379151436612,0.279397552780894,0.0365378512548261,0.0935836725467707,-0.954221641159299,-0.24451136207628,0.0356085782846845,-0.58287671424528,-0.174048519073612,0.0779716599888279,-0.908809315764374,0.178648785345926,0.156028026033498,-0.14646439800319,0.102235945780469,-0.136082099253081
82.88,-0.408839851570911,0.229416380770887,0.864768118531731,0.141582462626788,0.0190686543167562,-0.118868927343224,-0.976665639814792,0.0581436644074486,-0.183737223750964,0.219155994515146,0.0462416498285878,0.0818325328125523,-0.948194324224518,-0.258295514825096,0.0517805949967118,-0.612546650687024,-0.17390702581072,0.0543252182247174,-0.903983032336876,0.186985716795954,0.15960044736372,-0.120931612747793,0.0966514321602137,-0.149121231189427
82.885,-0.41575413492354,0.193604159385841,0.868776930929083,0.135993400557873,0.00665764425807772,-0.118119530379772,-0.973366531975821,0.0383292452828637,-0.15545023343818,0.185482060691966,0.0186239210513444,0.0614535292981208,-0.965541593853571,-0.274722422891438,0.0292591582782129,-0.654481730034258,-0.174168779785931,-0.00161660565903883,-0.908785833612291,0.187381437900864,0.157364429948053,-0.0791922329195545,0.0935562022000374,-0.166649824685586
82.89,-0.407446882595174,0.182624253055708,0.873394042806815,0.128751443724752,-0.00426309842010947,-0.115601329380191,-0.971275709600772,0.0285924257789326,-0.161844455313308,0.181622666859056,-0.0077478377132182,0.0395314637408303,-0.934592413991265,-0.267584240142008,0.0883287882078403,-0.623243934982904,-0.127368232976954,-0.0705123750828558,-0.911704182247073,0.181437941909119,0.153469434832806,-0.0511193360049848,0.0981561318039894,-0.171993843780953
82.895,-0.405756985597257,0.195364539752786,0.869833947882223,0.114055740772705,-0.014793912520424,-0.109340282391075,-0.970155946825548,0.0221733848770661,-0.172113059070823,0.174092900457047,-0.000526862584755035,0.0299604999182609,-0.965201659830841,-0.257305974052942,0.0967297500188641,-0.575890855076159,-0.0888794742182397,-0.108866981396234,-0.912447775088156,0.185011027968711,0.145654795079218,-0.0188616842642791,0.110356283676873,-0.149970628388138
82.9,-0.411518035602346,0.219958522245008,0.867182511489385,0.106514031953903,-0.0253607403229296,-0.110376777615501,-0.971135837220837,0.0320787042379555,-0.173663302824607,0.169026391239323,0.0251374418907128,0.0309478916716121,-0.97788424110363,-0.245676769188789,0.105494358809199,-0.475879355466781,-0.0599205542876934,-0.0625368083843086,-0.934853105961515,0.18076466198598,0.135735179259972,-0.0087855705284001,0.117270395361386,-0.115593925815646
82.905,-0.406948105951418,0.227457802943228,0.869381319153012,0.0952672425503468,-0.0349166289418307,-0.10526518885062,-0.982588075138211,0.0441424340914478,-0.168818172552943,0.160531825493959,-0.000616576202513367,0.0194792409295361,-0.980835385102335,-0.2330840117245,0.114229287680573,-0.380604656263518,-0.0624590014422796,-0.0243431087084373,-0.951582933317545,0.176564592298624,0.132008623269752,0.00192666630874545,0.11581022813493,-0.0851641247873394
82.91,-0.3964415962582,0.224492626919235,0.874232262763672,0.07472050935432,-0.0351664359905835,-0.111609186100705,-0.994475897236698,0.0602309118016052,-0.170542883824401,0.151914920692285,3.23144948278715e-05,0.0204525783772458,-0.987511758181891,-0.213982238678918,0.126483004070228,-0.271949451518248,-0.0484417679492205,0.01125166231577,-0.964499556412695,0.156255047907752,0.126176077071453,0.0157659637977184,0.126490652627786,-0.0482668590496479
82.915,-0.351107740166293,0.210321708881942,0.909220200039712,0.0740218401558094,-0.0450209320194416,-0.130320080781669,-1.00227108280614,0.0748133689668118,-0.163484373849106,0.155847672228103,-0.00466374769908325,0.0127106187263197,-1.00734128443506,-0.199272210816092,0.137018545310826,-0.152104952108943,-0.0386206792821009,0.0619006422198082,-0.979455558203286,0.134316239950966,0.119544818108409,0.0439814074037797,0.141182833502289,-0.0280015217307596
82.92,-0.266056015112362,0.113687442396573,0.941804819323908,0.0930973541346355,-0.0651302695952707,-0.193211102981588,-1.00949558789498,0.0938982167846828,-0.12776732347583,0.161060293387911,-0.000601505680446071,0.0177691624264943,-1.0180802560905,-0.189251088434711,0.142054757483911,-0.0389349939138471,-0.0355244208121546,0.13881681784452,-0.993986463162372,0.117722174676389,0.102522310100403,0.0748181341475395,0.171460374320255,-0.0226681787175296
82.925,-0.469119937134375,0.168112356352574,0.843173471125806,0.0789287807251042,-0.0981921727637649,-0.198464356680965,-1.00888287833212,0.0824556353160845,-0.0938691964313176,0.205946160045053,-0.014780847728627,0.0189601308737176,-1.00793331970386,-0.187475790344915,0.144454682370243,0.0869112101485949,-0.0372816094735628,0.202971248442889,-1.02575408065513,0.0996786357803646,0.0996809113560315,0.104960241335848,0.185514448475949,-0.00733668148065139
82.93,-0.52085810966731,0.339003724897312,0.820721860397164,0.0771134481951778,-0.0651569426523733,-0.122083073982943,-0.995577384914436,0.0758125724200092,-0.197186876217304,0.12429371732587,-0.0131076546408074,0.0171273345725295,-0.99553443969105,-0.192810615097321,0.132836367968215,0.211710374610309,-0.029977812962806,0.247499366568558,-1.04063375068395,0.0819504900887543,0.0916590273252661,0.126786446453613,0.194075797630896,-0.00242489507638288
82.935,-0.454472839253096,0.296112519578654,0.835113589611635,0.0549564215568413,-0.0496681179925763,-0.138379495447151,-0.964678683963245,0.0733932539248734,-0.235087533916248,0.108773338097801,0.0269883201811509,0.016536047981554,-0.984725048893971,-0.193440759743963,0.116089331372854,0.288064781494513,-0.0141476439961179,0.237738189485338,-1.05636004655603,0.0663544871372502,0.084621787327071,0.159589681713807,0.181168654152191,-0.00296677787107581
82.94,-0.432154949510573,0.205742623999704,0.861319842396209,0.0340439518265008,-0.0347318794633068,-0.158067282221458,-0.954291624658438,0.0525153120084972,-0.191048037239928,0.131877791596208,0.0589320017180311,0.00216984437985196,-0.975377696399781,-0.190242729141126,0.0969099876746421,0.34803383208996,0.00684363073336048,0.180865161327594,-1.07193038287681,0.0575686268500889,0.0757369171916765,0.181222248076304,0.135319155393212,-0.00137457545989501
82.945,-0.409137297539208,0.204120323057414,0.881090316782116,0.0400665478176443,-0.0506831995236919,-0.126845538948544,-0.965797879101842,0.0516334211704829,-0.179654878750774,0.116468718696535,0.0178664596349636,-0.0177953300709421,-0.978343084060052,-0.17983328210606,0.0852785861127338,0.355122344188385,0.030845189367249,0.107076715433867,-1.07962479533492,0.0523093596053943,0.0748174972439705,0.194541618227959,0.107488139318164,0.0046077300312186
82.95,-0.395977371632801,0.216922579139244,0.883709976072366,0.0417253630300513,-0.044467388349522,-0.119797737640392,-0.98671176664894,0.082458962247414,-0.138730915514585,0.21201033619876,-0.00689804879017685,-0.0167334733325372,-0.983185705955441,-0.16378662732935,0.0834459961204456,0.394678458054748,0.0548105329170898,0.0629247236507382,-1.08396074881476,0.0419769201393017,0.0677787059342998,0.196013195801027,0.069411655198964,0.00418835430753612
82.955,-0.413294307275256,0.230074320873869,0.873974292678345,0.0348943911122273,-0.0352141529340212,-0.124009179066696,-1.00582423877183,0.080198958801553,-0.117864999911179,0.305592192827491,0.00654424587827031,0.00288457071391352,-0.989811223313954,-0.14867132714038,0.0804367760916857,0.429167754527639,0.0747655422456167,0.0544588612725851,-1.0831921602061,0.0442745943007773,0.071626427692233,0.196064380481664,0.0447026434592074,0.00656875559584964
82.96,-0.411548396012594,0.23923738311981,0.866023137038999,0.0344609247708858,-0.0285595129798768,-0.115748272490909,-1.01205183954748,0.0570857026775888,-0.151907832776477,0.295949056965529,0.0567832894627609,0.019825077097579,-0.990352442301949,-0.139567601673965,0.0739798260356234,0.452058273150622,0.0795355701690456,0.0660745083284597,-1.07620819097632,0.0490344247500561,0.0719688774679441,0.180481063546655,0.0399829757954573,0.00415483679561252
82.965,-0.407061406247537,0.246203369013349,0.867553212240744,0.0284075829759276,-0.0217117071151733,-0.109567664563656,-1.00115968468907,0.04006289498871,-0.163681417728806,0.24574107996661,0.0557816903383121,0.0121549985994714,-0.994543321706073,-0.133494730360264,0.0551246583144949,0.44893430198233,0.0868895574162372,0.0837165044641549,-1.06217017414309,0.0427481752022543,0.0851793094703179,0.168812618122558,0.0376344919035365,0.000840250831808895
82.97,-0.39661120460029,0.232713047347136,0.873574120867679,0.0275910156758636,-0.0153767503302997,-0.107456013160568,-0.991092218381178,0.0465165327740731,-0.158600241095466,0.219911095039487,0.047644053512514,-0.00283797438904853,-0.994880025928486,-0.133107862343335,0.035082099937702,0.454319498644418,0.0822659073070779,0.081020288464912,-1.04623199687095,0.0531127599006908,0.0896405733879498,0.135226751531386,0.0545632350531129,-0.00717723737375912
82.975,-0.396343971563625,0.223433351245989,0.877268327482903,0.0367454861968477,-0.00629181104060072,-0.104185574842384,-0.976585074146251,0.0599179654675444,-0.13842865806678,0.247609523622087,0.0631189322348858,-0.0165720232093854,-0.992060815223332,-0.131054961887417,0.008541064640356,0.443391197135234,0.0763111096187414,0.0712191045013504,-1.03735056016662,0.0525728424016322,0.0956303023447886,0.100345666316317,0.0799593676382475,-0.0247782555301991
82.98,-0.393077124767611,0.218188481676732,0.876345562354711,0.0376456856075961,-0.013452279342253,-0.106752571528749,-0.978651821589307,0.0455557056908217,-0.150591760153204,0.240349736393738,0.121390045725739,-0.0170561285917302,-0.989633983860965,-0.12458287149193,-0.0112730582908156,0.426531716686554,0.0746516404147309,0.0482922961923992,-1.02661048584311,0.053975916874885,0.104761982678446,0.0687629129523665,0.108630442461137,-0.0436136669885976
82.985,-0.396114381943698,0.224889526795479,0.872109723997385,0.0312009118817481,-0.00779854969038783,-0.103613228705247,-0.976454435736785,0.0352964557263162,-0.165693253628538,0.199155667287014,0.116247586755468,-0.0248138401657343,-0.993080056262567,-0.122483998115426,-0.0259077513855129,0.430537546320394,0.0673781133428709,0.0409148561602345,-1.02682688956315,0.065221675933808,0.112856026722305,0.0521757069616467,0.140343082799546,-0.0692046129360066
82.99,-0.39197696276365,0.233631842665637,0.868792114344168,0.0168467475401693,-0.00255541195917257,-0.0936856418848038,-0.981705089705048,0.0305122112887268,-0.153066145370403,0.170282769146289,0.113216110304675,-0.0268102040006391,-0.989770277031128,-0.124941457870428,-0.0339348488555289,0.436959625635561,0.0628622001555297,0.0181880907548089,-1.01495297992201,0.0768611363535294,0.116893330852865,0.0443698805721945,0.153954803557719,-0.0823925177555911
82.995,-0.387116841028978,0.235224722870828,0.872321066629408,0.00534040485043747,-0.00166523279622671,-0.0879070165660282,-0.986890909126646,0.0347972230219635,-0.143466826743854,0.134636653925712,0.11440704620755,-0.0337580941933579,-0.985092033562409,-0.127064612708173,-0.0398074977819741,0.440518231666849,0.0529684681366795,0.00643351535038554,-1.00388658222784,0.0871103173757712,0.11941511576145,0.0456519459554982,0.164386941003264,-0.101974726146413
83,-0.376261166037851,0.232443694564239,0.875340606058393,-0.017513486311647,-0.0092966193758818,-0.0818743646214273,-0.996440962642079,0.035177511211138,-0.140589845642275,0.0904909118678367,0.12148478909683,-0.0448572233408763,-0.985022961139679,-0.124208034753799,-0.0463319929391146,0.429176075633834,0.0452875484832946,0.00518282626481617,-0.998827342323798,0.09312764364978,0.127850214236035,0.0340612701933312,0.163657816518255,-0.119875691896349
83.005,-0.358538970770913,0.231036341468593,0.873060357176708,-0.0313329703733403,0.0147034966715087,-0.084736770323149,-0.994327031805489,0.0418539673230885,-0.141826198376973,0.0465501424016949,0.107282250345711,-0.0554601946642401,-0.985681065357488,-0.124125283133265,-0.0538097185013653,0.409521402599777,0.0449004454597709,0.00126332439627614,-0.993992020538635,0.105451563033135,0.133384869131441,0.0277514499036487,0.168659012144009,-0.128916923926405
83.01,-0.368382207382369,0.220983324455995,0.884449371351206,-0.0474581973456454,0.0108507949424294,-0.0920527056682236,-0.993136578930353,0.0386890303754115,-0.150305366536394,0.00616576763545182,0.0962082324672335,-0.0581661825108314,-0.984421778954627,-0.118960724627633,-0.0590042546575394,0.37899196123647,0.033911025184778,0.0259555265792156,-0.984152232522831,0.109127968053065,0.134809399465981,0.0126637026956679,0.159993800758583,-0.138004710347009
83.015,-0.379344010047585,0.222681005478616,0.879420047982583,-0.0566986915376488,0.00903586737742381,-0.0933826153639622,-0.98928852535866,0.0434999913861469,-0.153775310450857,-0.00506806864995905,0.0864389239385371,-0.0565754868153984,-0.978593326559587,-0.117835192140463,-0.0617230528765804,0.322375958212396,0.0276526194428872,0.0256345831220816,-0.977787830465247,0.114667076305555,0.139714277734234,-0.00179700087729751,0.155118914726301,-0.141164249030063
83.02,-0.388980910999341,0.221780696309835,0.873906376279952,-0.0633812032727021,0.0110876731154362,-0.0824834005551146,-0.9836946408136,0.0424392633484355,-0.161239861867509,-0.0200065401357407,0.0940991353601641,-0.0529128089547157,-0.970442185959841,-0.119776030212629,-0.0671102474095455,0.235126396234033,0.0180018239629152,0.0239868611097336,-0.967468295389751,0.11370653107987,0.141092636693816,-0.00756557032988308,0.153826479082408,-0.144437335112815
83.025,-0.398650864129028,0.222737680630238,0.876161525626254,-0.0751219242811203,0.0210475996136665,-0.0771001457388838,-0.98616158044339,0.0364767991000998,-0.178431544061218,-0.0211909333469549,0.0804012189018658,-0.0522851200034472,-0.966061673131022,-0.123060849262864,-0.0701561804926756,0.163594191061717,0.0150096472352743,0.0169025988448971,-0.959656944911668,0.108468542222873,0.141287095563883,-0.00617579925018464,0.152844764503741,-0.137401831564757
83.03,-0.394672820989366,0.224220798394116,0.872537820915924,-0.0742968472057837,0.0214601356354571,-0.0692358319261025,-0.9916272171735,0.0377001736233538,-0.174077375454542,-0.0105099724401084,0.0657254324855259,-0.045183979550878,-0.962341029774339,-0.12647291513436,-0.0769415255572528,0.0474168317546595,0.0165043766710881,0.023311237824703,-0.952116258986342,0.111815794865436,0.131346720645664,-0.0115619642277615,0.151147927649771,-0.142425195423773
83.035,-0.408508008634859,0.208716508935116,0.870596023020767,-0.074807350922188,0.0229789021055774,-0.065389140955433,-0.987620726662677,0.0454816061446224,-0.160432189373608,0.0360555345604708,0.0527399367934519,-0.0429709151647069,-0.961752484439241,-0.127921761128874,-0.0790903871487162,-0.0525040588711351,0.0238981092085509,0.0347639664573883,-0.949658842037619,0.103736707854614,0.132497978131363,-0.0172617075233606,0.152116378991029,-0.139395659570751
83.04,-0.415419833862636,0.201300067921255,0.867693293411875,-0.0753123233736948,0.0152406310408802,-0.0581772006501053,-0.990240145074158,0.0402642728173802,-0.171967806968387,0.0547712807720159,0.0614837764880859,-0.0368255193315008,-0.963696628825497,-0.136421563548285,-0.0774629097914062,-0.159755023584826,0.0331974139038225,0.0535742479293164,-0.95385973658684,0.10266518766687,0.13143397514119,-0.0209524575473277,0.140137494078367,-0.135312673201966
83.045,-0.411024488094613,0.213005041907453,0.870076530335161,-0.0787869989871979,0.0331478819460665,-0.0570347979664803,-0.98618627923325,0.0281487800179678,-0.199104131089482,0.0458213650947048,0.0600526563099986,-0.0430355339318272,-0.969726835278445,-0.153664564937116,-0.0766030038200196,-0.292272603457449,0.053368239687305,0.0529024762497717,-0.955179364405025,0.103104176488226,0.126242802162056,-0.0253633931279182,0.132713524575679,-0.115923569664401
83.05,-0.411413969178762,0.212717515094968,0.878528182747804,-0.0804531722676623,0.0312097594434088,-0.0541189934555092,-0.989910398508082,0.023928784170671,-0.200212922418044,0.054546224456381,0.0545894649337204,-0.0419175624847412,-0.974751092811982,-0.164287601769876,-0.0717418085711009,-0.394537655533464,0.060592342370109,0.0449190677347074,-0.963949214696481,0.0924236810439127,0.128495016327766,-0.0228469947841191,0.137393592272777,-0.105851205911101
83.055,-0.407272756697941,0.211475223857723,0.875466585578542,-0.0822341739531541,0.032478660465045,-0.0506423399349117,-0.991617711565203,0.0300073583344389,-0.190479894730417,0.0706424163561624,0.0466308317239354,-0.0426237237127985,-0.979625481437478,-0.175858270714879,-0.0601581190504956,-0.482255796801865,0.0621159343675383,0.035777505483861,-0.975251455461276,0.0859464626892338,0.127089813127007,-0.0161394903013736,0.139511250069666,-0.0908004118890281
83.06,-0.410333767965023,0.21344106845919,0.876675296793493,-0.0864121187555635,0.0189410518367348,-0.0397118746124831,-0.994883671179227,0.0233445661294435,-0.190390392807468,0.083496573145802,0.0558250051627934,-0.0482518760805517,-0.984375536809567,-0.181404124198638,-0.0488141456413557,-0.521367617977844,0.0626557320356369,0.0375328731554158,-0.984385838620115,0.083850348218875,0.125890815971202,-0.00866415159178355,0.145337593030462,-0.0760696141250395
83.065,-0.411401917338407,0.214382688311065,0.869922285725457,-0.0877246697936889,0.0252592165011742,-0.0453643887439527,-0.996032543517262,0.0266816212765783,-0.196888669791658,0.0787478210640892,0.0553733184933662,-0.0454217767541481,-0.985471236753003,-0.188203358374474,-0.0379237773994874,-0.529525629154073,0.0564389201228768,0.0553417900342174,-0.992703926822539,0.0775795913154582,0.125632627999729,0.0040910473542632,0.153176970011311,-0.0536549422226734
83.07,-0.411685155515497,0.216985264556426,0.866812143607595,-0.0934848364119038,0.0203206291927471,-0.0395863416935269,-0.992757200014262,0.0243275086506509,-0.201261958357492,0.0903832228713387,0.0513215645199165,-0.0447599581263405,-0.983952250369308,-0.188426392773309,-0.0268572574661392,-0.543943200273527,0.0522033028209183,0.0762756707606292,-1.0110942304724,0.0747571212844305,0.128657174556687,0.0127827756706039,0.15177387032749,-0.0398861943638032
83.075,-0.407173347735067,0.217733624731089,0.872594153559583,-0.0980742432218356,0.0222951807539132,-0.0428683206530505,-0.991793520930994,0.0262308900855316,-0.197392480770198,0.0913029934494376,0.0460136659440718,-0.0444544227797138,-0.976353292474265,-0.191811498988273,-0.0130322904922961,-0.53466935835375,0.046615274071253,0.0879902683745072,-1.01544261367648,0.0705455211143852,0.129596823121988,0.0294727112981321,0.147158394644165,-0.0189527171355192
83.08,-0.404267297022445,0.21237943156326,0.876313639156535,-0.104737242403541,0.016717040786684,-0.0434107517661922,-0.986105616946622,0.0281631269479145,-0.202386072193464,0.0867366418242455,0.0439478234381294,-0.0398698971137809,-0.970431843313656,-0.196661079590813,-0.00136314162045381,-0.517807998137165,0.043549570671173,0.0891776266013107,-1.02307142372438,0.063559360586554,0.132149409970239,0.0441668599894007,0.142306195238495,-0.0114395603220005
83.085,-0.408365643802703,0.206865844773197,0.875528512973788,-0.101999193429947,0.00921617978261599,-0.0402894343289022,-0.990042816958841,0.02754068776922,-0.203498707511291,0.088276562581854,0.0425199239134853,-0.034799549308351,-0.967028605922549,-0.200197829702398,0.0130510791392957,-0.506201741789177,0.0360308436288819,0.0856202374936779,-1.03063232382029,0.0640126913189455,0.130344553839993,0.0718182902668938,0.121847994727148,-0.00961505999279698
83.09,-0.407554640871098,0.21121080514724,0.877457372604122,-0.100743282319555,0.00233776310323051,-0.0427588838911218,-0.983838580151394,0.0274478811281851,-0.204175791215674,0.0956208804221047,0.034626968221944,-0.035032055690842,-0.96619539879817,-0.199793293708088,0.020991800357042,-0.473679868139497,0.0398183113061039,0.0776440436815585,-1.02824353975019,0.0570087145555948,0.123948795825675,0.0854204277761963,0.108917653185806,-0.0031498892221259
83.095,-0.403892753577439,0.212604588219311,0.872961036352529,-0.0968862513797167,-0.000399726600443519,-0.0404288378902615,-0.985966055428383,0.0358309683257551,-0.206068436802898,0.11450011795388,0.0300291734443234,-0.0309223141521215,-0.972099830793992,-0.201052457971746,0.0286917300226724,-0.441610509241266,0.0447918624911582,0.0815603520807787,-1.03320132048993,0.0521175564241058,0.121699120280302,0.101873362602244,0.0974256299916664,-0.00210593252363408
83.1,-0.40641067146199,0.208804266873618,0.871061310230489,-0.097934614166687,0.00376730353409562,-0.0389091357364903,-0.990890191795341,0.039527692607296,-0.203986769774394,0.12317523617851,0.0224393253207613,-0.029912859135276,-0.978555076882361,-0.206110900912292,0.0329222260516669,-0.408136911470558,0.0470078000247791,0.0826281979680061,-1.03783439961387,0.0492167668620946,0.119575116621733,0.115834608713743,0.083041263036779,-0.00265590474009514
83.105,-0.407687096947638,0.209467150543553,0.873938490731669,-0.0927246714368724,-0.00266361927226501,-0.037969465787018,-0.991123919013965,0.0370507561893744,-0.21106721047055,0.139312831843081,0.02243088979324,-0.0263569078481136,-0.977892439064624,-0.210256136735482,0.0375084242342892,-0.369763830240493,0.0493001271658407,0.0904565405090254,-1.03533978235375,0.0417805351982969,0.122379169668116,0.119380729174547,0.0635105542281375,-0.00438875322846667
83.11,-0.413833770526244,0.205851857479679,0.872510647445838,-0.0861171633005142,-0.0010030412016852,-0.0411377377131766,-0.988039446309926,0.0373424609007174,-0.212691431041691,0.131435268318258,0.00778005397901089,-0.0300990453567828,-0.976217823463473,-0.211490250396181,0.0295032442624036,-0.30609922089552,0.050438791513443,0.099919330012582,-1.02892740373689,0.0437969899224531,0.118470377922743,0.126370370057462,0.0547853979938678,-0.0135293343825946
83.115,-0.413998581942021,0.207785574463664,0.870981735867017,-0.0861171633005142,-0.0114308602937609,-0.0422813662317756,-0.990170022550699,0.0391360812348545,-0.211721856710946,0.148188789574608,0.0021406727253242,-0.0323218772860598,-0.973491516553701,-0.208398895836129,0.0232008503190284,-0.271103740920249,0.0470618143555216,0.105840392410755,-1.02259779901091,0.0405512126227051,0.119494649124356,0.11462412960597,0.0472021335724397,-0.0174177099023897
83.12,-0.410297605569372,0.208686948381905,0.869261398806016,-0.0840450316138097,-0.0160824180708273,-0.0427457220322915,-0.982116342315322,0.0427525701274665,-0.20333260579583,0.162120756905645,0.00571422023865063,-0.0292702420261454,-0.970334239564709,-0.207387678199792,0.0143872864525193,-0.225215978583162,0.0453318232807407,0.102835857866059,-1.02046147916972,0.0413795057824189,0.117698757481085,0.0991610826073968,0.0473601441948491,-0.0214965079097825
83.125,-0.411641475362346,0.208254516102521,0.870232734956865,-0.0758653318975426,-0.0203704500380266,-0.0417506202938585,-0.983942133727267,0.0385915163762838,-0.204263800034985,0.178685979207184,-0.00575150736253268,-0.0341577270013471,-0.966361180833369,-0.207284583470233,0.0122654530256002,-0.204901449129427,0.049473526634385,0.0989376095314246,-1.01814028026661,0.0391138858394975,0.116028761981349,0.0754349789723921,0.0609030310704658,-0.020060760939858
83.13,-0.410931712136849,0.21859264404913,0.871500424977205,-0.0706244711917551,-0.0209330459749875,-0.0439317866258733,-0.98231990469539,0.0363774097482276,-0.198889779796848,0.181223098525467,0.00449125913459131,-0.0297006163746119,-0.965237123475116,-0.2024213668674,0.0113777595731386,-0.19846008141062,0.0532611724223539,0.102344734081122,-1.01479477131586,0.0384320398676684,0.11011537937431,0.0585150871499482,0.0535766445064827,-0.0235394619426558
83.135,-0.403531013036228,0.216444408777136,0.879482096903883,-0.0711710215243784,-0.0270318676742543,-0.0367684925667289,-0.987302335723498,0.0324727714501917,-0.198668099578095,0.17605983728319,-0.00594897898669929,-0.0282903847099454,-0.968637105037017,-0.199240989978803,0.0100355812276858,-0.189190372824669,0.0588572562813236,0.0959304172771467,-1.00555820047154,0.0333558794471093,0.107771679589087,0.0386026381009265,0.0565032270089417,-0.0196443405286103
83.14,-0.399598314997155,0.210239430173173,0.879433456743153,-0.063374034436133,-0.0197373877415489,-0.0352321594068551,-0.993692193733562,0.0336009124456502,-0.195436365767823,0.181646735835156,-0.0136618560357464,-0.0221511117070408,-0.97384891107492,-0.198284032514417,0.00888341867085492,-0.169204675063162,0.0796435708669774,0.0958444288630555,-1.00221801080307,0.0376388690482346,0.107954412671388,0.017402876293202,0.0524658001394965,-0.0185379348695278
83.145,-0.401924440801135,0.199016725274056,0.883102995152911,-0.0541619924630614,-0.0159564456756726,-0.0434784256371019,-0.994029111676404,0.0391705829871496,-0.182922820859955,0.215493899438905,-0.0176461042254302,-0.0138185899704695,-0.987419546599349,-0.192144265852992,0.00151376713525359,-0.157740373713235,0.0889714129068649,0.0946961000611339,-0.993061621821223,0.0408354260309426,0.0994199915487524,0.00962968672853845,0.0470491824774963,-0.0103494553617933
83.15,-0.41144135463296,0.188768414379644,0.879161621553548,-0.0396617361553803,-0.0163452708040256,-0.0432096229726543,-0.999871374251392,0.0483190220627012,-0.158878243765819,0.256895351455441,-0.0187991941959112,-0.00815322606863221,-0.986651867825033,-0.182935997060705,-0.00408401632495237,-0.138709933864154,0.0992318310888131,0.111034757534864,-0.991975529947006,0.0342595087744843,0.106506817303682,0.0016298895163958,0.0258030410996891,-0.0138831644237377
83.155,-0.408949904947153,0.196805877617299,0.87479539189744,-0.0336374084102586,-0.0143284409102374,-0.0433730628309826,-0.996939546885296,0.0468918892593062,-0.170604897136049,0.270941543870082,-0.00436877166447962,0.000449820246282052,-0.986079386957716,-0.178045066025585,-0.00843248257283288,-0.117586043386071,0.105862665238925,0.119190409239253,-0.990671848666538,0.0400428246191582,0.105984281120543,0.00310664280890411,0.00713229763763192,-0.00607361513272949
83.16,-0.410140950303679,0.20258926297108,0.872656170085447,-0.0249344560843605,-0.0116528903481839,-0.0444432843611671,-0.987248307393311,0.0369329556105716,-0.196597480688153,0.245906270738606,-0.00591212788685435,-0.00262261835769541,-0.977900980169182,-0.180238525873727,-0.0191049931459946,-0.110239844227744,0.108088239295552,0.125919770321254,-0.984903258653694,0.0422406248097997,0.109356339917566,0.0142509480486572,-0.00718930504956718,0.00299139430085948
83.165,-0.410758441028999,0.211655649556064,0.872064365650829,-0.027273991492902,-0.0135635335494782,-0.0478774198517642,-0.971844312376225,0.0299242633252453,-0.193357753258755,0.227314901305709,-0.00415611923341012,0.00236775292417663,-0.971156626491732,-0.178891891768332,-0.0308079636852721,-0.102332453126334,0.10681314701545,0.111125636240225,-0.98127586901965,0.0428469067639049,0.112887638164434,0.0339185727845242,-0.0202496771218633,0.00853646314099319
83.17,-0.402162491854513,0.205044463850767,0.870641160867209,-0.0234138893255253,-0.0156188051535267,-0.0419620473141942,-0.973580341119581,0.0362383620303048,-0.176569732188291,0.221803191766233,0.000788242706391538,-0.012500568859538,-0.969816833779676,-0.176650736912629,-0.0372265582440948,-0.102588748514423,0.108826340113787,0.0874677641923635,-0.987624349371353,0.0369488254301053,0.118864396967634,0.0556082563454217,-0.0143224672389163,0.0150173130671263
83.175,-0.39548645478059,0.204193879688503,0.876732029261931,-0.0186986789623677,-0.0128869384333554,-0.0428726680834979,-0.978379876121911,0.0316786857808816,-0.178345035113019,0.182918912546329,0.0094021959859279,-0.0104078207679693,-0.970483725887885,-0.162980565931213,-0.0407513001478346,-0.114706231990862,0.100633488758643,0.0635804633915947,-0.993040277978045,0.0454600907476626,0.120432582894326,0.0758313317576595,0.00367382053866644,0.0179972058081019
83.18,-0.396166038459984,0.202802488782893,0.883479938595615,-0.0187341212994717,-0.00509491103420313,-0.0382470733682229,-0.989965158784252,0.0280012359859897,-0.181693634070071,0.157799693024174,0.00386036245290875,-0.00628463992050797,-0.977053810990006,-0.150242897023533,-0.0399891967086219,-0.105623047713483,0.104823601828346,0.0542140943419492,-1.00060677078169,0.048435617700485,0.121934346045097,0.0836206110109071,0.022191089142185,0.0237481958616808
83.185,-0.400887779858505,0.199539426132319,0.877275165095259,-0.0130454438461639,-0.0104865206628837,-0.038479437076759,-0.997594015216918,0.0286145035782988,-0.17334622689976,0.138168795339927,0.000297001561609204,-0.0105537624748792,-0.990194244894098,-0.143787209515242,-0.0320998494464499,-0.0867387628201198,0.101749956607819,0.0544541588931244,-1.00179867352326,0.0473046999261093,0.130724511597753,0.0841344800761201,0.0471696939945939,0.0231945186286249
83.19,-0.402982277302293,0.20375265274056,0.87790163466384,-0.0156767407391014,-0.00910877982491635,-0.0341767175329016,-0.998293858349257,0.0260992193889719,-0.175823219517899,0.120157048814714,0.000796460211072494,-0.0142297397182414,-0.989330093119602,-0.139055870912455,-0.0291076663398067,-0.0660890991095477,0.100217658277329,0.0510090783178455,-1.00509569669802,0.0500447789630616,0.131180233692784,0.0712319084166026,0.0570194876733814,0.0270344030355615
83.195,-0.404146562000884,0.199624360323095,0.875540691252687,-0.0172029756647486,-0.00854927661275786,-0.031602312752036,-0.997930858043534,0.0239081134710474,-0.180190504888954,0.0966821860874707,0.0068962562789197,-0.0147224756487752,-0.993673930237527,-0.135268943667738,-0.0262333213705494,-0.0546550108545208,0.0913805926057436,0.0391241225792767,-1.00914155515573,0.0567595656542964,0.13093805802794,0.0473141927645213,0.0636886974043125,0.0312656745850487
83.2,-0.407112534338965,0.197837869350232,0.874265740459792,-0.0177022740244865,-0.00806582528281304,-0.0346298154334715,-0.989371068934958,0.0263443690708309,-0.182842692190619,0.0829526716572348,0.00694666205753102,-0.0152608452310622,-0.994679136005815,-0.132460302530491,-0.0287793852714627,-0.0535822696983814,0.0831753957878578,0.0181035026575485,-1.0064053038155,0.0577555891289891,0.127833100827681,0.0186013586232795,0.0634359963061957,0.030133526062459
83.205,-0.404886915647468,0.203698856166656,0.875590406397606,-0.0202615367847346,0.00895655228248067,-0.0269559330483613,-0.979205489124033,0.0311891909096011,-0.179311015972845,0.0686168680050249,0.014851753591669,-0.0147318172439455,-0.990397193173487,-0.126808557804722,-0.0215302836146851,-0.0618931943422754,0.0717064693669004,0.00413548473070676,-1.00486128521352,0.0614568372095571,0.120692853958853,0.0148536735273988,0.0570395826337362,0.0275355665902314
83.21,-0.400544733480958,0.209362408410657,0.87341645242265,-0.0197114135013294,-0.0123318836288459,-0.0301372565622341,-0.976886071770064,0.0312902289929592,-0.178983480998973,0.0724510138985684,0.0122149099594265,-0.0133707003241432,-0.987920011643498,-0.120769999745208,-0.0244985868982404,-0.058469045907259,0.0584320172956807,-0.0198022693711918,-1.00668391401527,0.06270803814522,0.119971062834069,0.0376390902288084,0.0675829756632048,0.0221414127554857
83.215,-0.401435421851916,0.210498041262438,0.87636975446991,-0.0157625831913411,-0.0107164680957794,-0.0291501268244863,-0.978600391877011,0.0358342060501462,-0.176132085998787,0.0806627039400322,0.012095359933342,-0.0181867162108078,-0.987621796245495,-0.114384490057436,-0.0241798523446008,-0.0679623582609051,0.0428452685761823,-0.0255590166272518,-1.00430658664178,0.0603700657827885,0.124445018712156,0.0625580103448895,0.0907853636497228,0.0236642109063456
83.22,-0.403233337436891,0.207235494124444,0.87428790873833,-0.013183699064655,-0.0107164680957794,-0.0280823345116803,-0.985352812076872,0.0339504383754201,-0.172481600900394,0.0740451831829708,0.0208124694562761,-0.0166557520719799,-0.992440563058983,-0.111188965745536,-0.0246457656604756,-0.0785801239303684,0.0337735594344479,-0.0311148573874578,-1.00490265530967,0.0536550234701618,0.131561914743776,0.103464568763768,0.107982391863219,0.0202697847790306
83.225,-0.401495153213034,0.21480706692191,0.876173460181512,-0.0145379613706167,-0.00496845174285843,-0.0299172133060572,-0.985622460939016,0.0349244198201962,-0.178008038318307,0.0697402885319669,0.0263080076473288,-0.0132411215818953,-0.990702019656408,-0.109096578544911,-0.0223899860679725,-0.0940348281114361,0.0295850844206347,-0.036810017150686,-1.00037057008709,0.050137831330346,0.134261430415923,0.144463618055743,0.129219227417265,0.0152975622656003
83.23,-0.397912094548678,0.211441148375646,0.878367304532594,-0.00585343300606837,-0.00827306509017944,-0.0277141332626343,-0.988188337134405,0.033482257711845,-0.181911858917117,0.074879820559713,0.0182916989888806,-0.0167068969876765,-0.994567592778269,-0.108159721917368,-0.0239131824512258,-0.121711283617996,0.0265507501734333,-0.0550074167531624,-1.00483411595586,0.0397033200845993,0.135850869529913,0.188952568579654,0.137986791654892,0.00992925566704959
83.235,-0.403652566966139,0.203956092438398,0.881836597473007,0.00179162484639715,-0.00321645112599831,-0.0277141332626343,-0.991496215882508,0.0401142139354064,-0.163655757367017,0.107164233809216,0.0266392150583745,-0.00590185801809101,-1.00143480110157,-0.114886135597751,-0.0196840153925454,-0.160527372732754,0.0189241585942615,-0.079936584861325,-1.00914852219299,0.031151105071522,0.129105638790308,0.210343494761589,0.139023926870404,0.012122362048671
83.24,-0.407328117146011,0.204538403934803,0.883429556842647,0.00325360485149181,0.00131341364903354,-0.0287487547771856,-0.993831656039812,0.0441288474056544,-0.148398106352112,0.161379725559724,0.0256321184438311,0.00024087351184651,-1.0010574576255,-0.120726082210319,-0.0229994416997508,-0.191508389624747,0.0232224313716879,-0.0876332770104978,-1.01192990632392,0.027058035047693,0.125883319618985,0.22022776619151,0.126670431951024,0.0260112078480495
83.245,-0.406559420423443,0.198693123603869,0.877321399620575,0.0114982703695591,0.00394387543201447,-0.0356653714527168,-0.990837340698112,0.0346601119607715,-0.159035359767191,0.174698635935783,0.0408203824875374,0.00249300987459109,-0.99895137194436,-0.123306752274675,-0.0307004691694533,-0.22310806173436,0.0237309559504017,-0.0961136616419631,-1.01154211924712,0.0242794994470716,0.115896191707217,0.216462546353065,0.0957170737630156,0.0278842908468829
