Header,foot_Accel_X,foot_Accel_Y,foot_Accel_Z,foot_Gyro_X,foot_Gyro_Y,foot_Gyro_Z,shank_Accel_X,shank_Accel_Y,shank_Accel_Z,shank_Gyro_X,shank_Gyro_Y,shank_Gyro_Z,thigh_Accel_X,thigh_Accel_Y,thigh_Accel_Z,thigh_Gyro_X,thigh_Gyro_Y,thigh_Gyro_Z,trunk_Accel_X,trunk_Accel_Y,trunk_Accel_Z,trunk_Gyro_X,trunk_Gyro_Y,trunk_Gyro_Z
81.53,-0.370958700851379,0.22380443988445,0.872368130337887,-0.0509147167288622,-0.0258742976892312,-0.0822149453622579,-1.04675003727018,0.146224937869651,-0.124997713173424,-0.399980465033272,0.41555269960548,-0.180833181942643,-0.840911977094561,-0.139149980318619,0.211453702421362,-1.53079992990094,-0.225178800364752,-0.972892404093227,-0.635400258691055,0.0132473765784762,0.278651577841881,1.49919484655362,0.159192450075348,-0.564526058318232
81.535,-0.393235859400317,0.230942583754597,0.866800796829718,-0.0832407216681701,-0.0214758106533189,-0.0912422463297844,-0.969453277957837,0.104509663125692,-0.191328318583771,-0.396540216307554,0.462918690587257,-0.223990150363454,-0.787150864179754,-0.108116178952186,0.177201563111467,-1.3801012355517,-0.146646163194274,-0.943742233204425,-0.601887375739639,0.0305926141691212,0.303733926948069,1.53384530529305,0.288099585953737,-0.513683804270224
81.54,-0.394817102346502,0.237163471586711,0.864836243119585,-0.0941818813480226,-0.0251321268943221,-0.0931973951915137,-0.976140609489948,0.0431366850099027,-0.20774701660409,-0.350098572939881,0.501394322149922,-0.245147739196829,-0.774868365300432,-0.0825203420769796,0.12501937905483,-1.24472877629821,-0.0835948888171513,-0.926316552497007,-0.582881873859741,0.0496582519226469,0.305052827074164,1.55375002666161,0.38901707328039,-0.469734227704879
81.545,-0.40397728508298,0.249333512968559,0.861097471167514,-0.105237686239467,-0.0324745444522518,-0.104079976517808,-0.944884653702385,-0.020304042594214,-0.214640359718313,-0.19949668059006,0.507012503061324,-0.25815749168396,-0.795970342740655,-0.0607502654537965,0.0624604003714175,-1.20916756658051,-0.0239192091585551,-0.914513339800471,-0.58597575128969,0.080848890632494,0.301787218296617,1.54629751346569,0.419370461058055,-0.436915758525041
81.55,-0.406154987035084,0.255918840289976,0.854838103290285,-0.111176235611569,-0.0431056898189892,-0.122677036448045,-0.9525162571156,-0.0481312779226726,-0.218333810951219,-0.0263671276185518,0.513958134446343,-0.247043872832308,-0.859512345622996,-0.0505265230612089,-0.00176626871262746,-1.36846424106274,0.0460393988747996,-0.876598223095521,-0.59057927281006,0.113805903389162,0.289102583170704,1.53066930375264,0.41050383287293,-0.408371397274256
81.555,-0.420577543662052,0.251586683886759,0.854076308555414,-0.0990658338212589,-0.0547917203901521,-0.134956327613794,-0.90219678819811,-0.0320926191072246,-0.221404876414142,0.290329526581867,0.539871566730072,-0.260111207423373,-0.899221085699426,-0.0571475859824958,-0.0342304022109005,-1.5169377856918,0.0946007682593101,-0.860289600337907,-0.600435784343098,0.145214861021788,0.260548010512495,1.49540692658144,0.331018801797109,-0.381628919261609
81.56,-0.426536833205115,0.250178116470441,0.845882309907539,-0.0729767702730654,-0.0783232750485405,-0.152846401262569,-0.909076462370421,-0.0102167910021439,-0.220760890922118,0.551446822031346,0.509356377848486,-0.23152735497256,-0.955165873240928,-0.0793183076825986,-0.0646911672338288,-1.77162506346227,0.120195533427949,-0.864705764291068,-0.617169794235827,0.15520602343931,0.237899255297506,1.47210723287568,0.266493069437653,-0.368496612294022
81.565,-0.425405868329692,0.243358830807849,0.847569317877791,-0.0543087490715771,-0.0930097525201081,-0.168639899633168,-0.909741981457893,0.0412474253636557,-0.223850697338254,0.764617897212866,0.485539879384708,-0.220284968614578,-0.988398379860465,-0.0960718961448075,-0.0753100265017571,-1.92700432967575,0.126662988384332,-0.878318554721248,-0.632440395439429,0.155501141799931,0.222429322825087,1.46790527698711,0.168565882665618,-0.362254629228146
81.57,-0.424123311923237,0.231873242956585,0.847909758466,-0.0338952710588068,-0.102975759008005,-0.186223456476203,-0.897104767607196,0.0946745170511296,-0.228096571727664,0.925801467074292,0.476857930421829,-0.234752125082088,-1.01432979310379,-0.117231360192102,-0.0533939291695633,-2.04045906681494,0.11264940448306,-0.889234357070953,-0.635871781504644,0.140057088639028,0.207735201326531,1.48591728196405,0.0745449263790571,-0.341020721337571
81.575,-0.418357583396855,0.233117185240134,0.850077715330358,0.00404989759684122,-0.115959259505161,-0.197718988897396,-0.917504577332893,0.114212293102514,-0.216679444731269,1.01679333191485,0.489165571248722,-0.230480869100523,-1.03449755413197,-0.12304973502512,-0.0288835536917274,-2.07868808790197,0.102563793746004,-0.879541853482477,-0.634667861777484,0.108153477782905,0.195517436185009,1.53013807602062,0.00283166421394992,-0.324194285771622
81.58,-0.414291638790442,0.226462862464691,0.859100651828438,0.025460122607346,-0.131254928569637,-0.205876880516928,-0.941648929356021,0.134599230408615,-0.1956419273367,1.02769221380042,0.49506605800008,-0.23302072508963,-1.04838395791855,-0.120364327693727,-0.00527137680291735,-2.09801817734539,0.0869855439306288,-0.853085722908659,-0.648575070801734,0.0674277197235333,0.178146844957302,1.59526755461516,-0.0149277466859102,-0.314856194539463
81.585,-0.408178198619401,0.211449041965507,0.863782104935029,0.0407941377724634,-0.139724304880894,-0.212919930924608,-0.955584338651228,0.143206512941248,-0.193335609568926,0.99291101626762,0.496370145847086,-0.228854279135821,-1.04792151363758,-0.116317143179364,0.00954710182569849,-2.0819840120814,0.0685726807252407,-0.819629487377439,-0.674449340215953,0.02330125159901,0.16082257635257,1.68157438116484,0.0202975279502922,-0.315038241482255
81.59,-0.404223976980389,0.200116919874606,0.865407214859926,0.0491389439755522,-0.144868203384814,-0.218063826187134,-0.964845689718943,0.138544511609855,-0.190384505768657,0.924179026321277,0.521352254486307,-0.220821090470305,-1.03724967399849,-0.111971300863254,0.0259135156330651,-2.04502018356732,0.0605481451144242,-0.758010292720629,-0.704137733444189,-0.0157974570188457,0.143905723684987,1.74118115147717,0.100102494317926,-0.32116546231682
81.595,-0.392705247897353,0.189302700986794,0.880622048848293,0.0545836784982485,-0.13655099272728,-0.216061067290742,-0.968909381635639,0.117179046124117,-0.183274141607935,0.788749126833523,0.544636944393264,-0.214892317611166,-1.01112277397474,-0.0767739998898434,0.0496376071279376,-2.01195859909058,0.0560380577825279,-0.671125075155983,-0.748796435171967,-0.0645800929036563,0.123896983955386,1.78232424990891,0.242907733090463,-0.33473354253949
81.6,-0.389253672562424,0.188180226554997,0.878645031910938,0.0511468212975391,-0.134077343190918,-0.217571511939713,-0.980225607558662,0.102499876101684,-0.181003184278906,0.668984406769014,0.585393678708274,-0.204829793024792,-0.990785056029657,-0.0383504764074506,0.0747877786794321,-2.00456079813538,0.0626895374663574,-0.630046698662901,-0.782469080347373,-0.0900312534266088,0.115327880007599,1.8009332456825,0.344525489512603,-0.340793483977447
81.605,-0.379759191118899,0.210704097552636,0.877690432040176,0.0333180631981823,-0.120768738851209,-0.216686183042522,-0.992737485289692,0.0891415329408418,-0.167411232165755,0.537239831522845,0.613739481777712,-0.206046254317069,-0.969826880023561,0.0192978932486313,0.0930101797832915,-1.97047811862782,0.0801511982559153,-0.628789737628497,-0.820773263762882,-0.107882233677401,0.101619699237609,1.81010789931575,0.429789077937006,-0.340946935640051
81.61,-0.38437708054262,0.213739500587157,0.877750731218376,0.0110498422671009,-0.109201956902565,-0.216951790036301,-0.991799921141962,0.0686540945443552,-0.174235126691821,0.436164956119011,0.628759806862182,-0.208068028092384,-0.957041663665606,0.0779695127279112,0.109297588729683,-1.90974165303137,0.100547334917348,-0.662736101949084,-0.888105101047006,-0.120322792813516,0.0895283104048519,1.81198653725034,0.492063274458932,-0.351274658875176
81.615,-0.388492683385774,0.219879326295563,0.870088648433603,-0.0198534738899121,-0.108681695279446,-0.217504858243451,-0.97833955393331,0.0673080882507953,-0.180853770314596,0.359969528534692,0.638800705884382,-0.196212775823318,-0.961921636440767,0.12493917183398,0.119598083143265,-1.84553905038142,0.133966214668319,-0.685292333217003,-0.951453910613941,-0.127527858403495,0.0708693768307174,1.82257338468831,0.514266976749464,-0.369413068614675
81.62,-0.380266148367535,0.220917084308315,0.874671615286754,-0.0412402405399536,-0.103565245866776,-0.215407128957831,-0.964164270990394,0.0693696032649482,-0.19236275331345,0.307257952511068,0.663150010889003,-0.183536851335984,-0.966417271207677,0.148855054729991,0.124396860799168,-1.79252715378976,0.166821402628936,-0.68454176200682,-1.01323473109308,-0.10655047207109,0.0494096696009622,1.82548528579531,0.525354308104134,-0.404103885718173
81.625,-0.36778049452856,0.235220597511032,0.869155502571162,-0.0632782780693617,-0.0986886474125728,-0.214234642912787,-0.950970238181933,0.0712456387857322,-0.186860854234343,0.300510798293259,0.694898399539019,-0.175037492203151,-0.962000439274082,0.149582910010922,0.124195587407752,-1.76997484914154,0.196815880156543,-0.669582690862407,-1.06927608280509,-0.0824844909695795,0.035932177157395,1.8108277214876,0.538838653332671,-0.435405288041752
81.63,-0.372913130499104,0.246401443850936,0.875205855924573,-0.0626546002360774,-0.106137584811423,-0.207788886661616,-0.950572337653265,0.0742839963125188,-0.166507702823855,0.317059369412085,0.718513222833177,-0.162655703875533,-1.07080853372105,0.0789145435420668,0.119234447466645,-1.799393994874,0.217951210342427,-0.649206762491905,-1.10969195658469,-0.0437893776714268,0.0097764139683385,1.80374132797533,0.566912233187973,-0.461866489458435
81.635,-0.378162920583738,0.232648903110367,0.875984124291125,-0.0692597866147571,-0.10298003602955,-0.209890413151622,-0.968627175968358,0.0909279478513171,-0.185957318595108,0.360095807071274,0.72187556388117,-0.160315296024307,-0.883312573601502,0.149821556243242,0.0302528875138237,-1.80116840474247,0.239699229439862,-0.654718788536453,-1.12898714920107,0.00842658734078535,-0.00210914091735757,1.81087323910896,0.59152992712015,-0.488479007758349
81.64,-0.369798157271684,0.249012740041439,0.872997656787084,-0.0564893906928373,-0.102955066263571,-0.21147611317623,-0.964863942019571,0.10603763720183,-0.210649016705452,0.431840792371261,0.725470932382487,-0.167385950722231,-1.01783811295681,0.158673562346684,0.153444138712517,-1.86414153416367,0.290549233143171,-0.574460728282177,-1.13140465759703,0.0425341684965062,-0.0094236916987085,1.83132712650436,0.598044453894457,-0.513361988477838
81.645,-0.383268494199055,0.245383573181068,0.872365202312067,-0.0401138163776567,-0.103167874082345,-0.206888112444459,-0.961336136296564,0.110845539257412,-0.218794366109508,0.513464662324231,0.731174155937141,-0.1726643573327,-0.95328556499571,0.137710591566765,0.183626377754077,-1.83572361222961,0.223799985089364,-0.533033679568434,-1.11956143226632,0.0882020579543984,-0.0108793644810185,1.87831897113561,0.588505469876734,-0.546905450010824
81.65,-0.384298250468843,0.245802721583363,0.878422428752956,-0.018561590449605,-0.0989232942881954,-0.212922054445193,-0.967089766693531,0.130060337795888,-0.231837551368673,0.576759154864676,0.748501818446539,-0.204892207706654,-0.963755409477421,0.134470563760545,0.171100497237395,-1.86854591001231,0.185443269572611,-0.598510920043575,-1.10990015331103,0.108797377576414,-0.00763658445144676,1.9131088533117,0.567328056791468,-0.580002605934616
81.655,-0.384667993351791,0.264056289247058,0.876716250010795,0.00409762794777159,-0.0992971255919803,-0.211793191856979,-0.981395662094835,0.131454333931426,-0.228519007233565,0.684298760742425,0.749368894892708,-0.212812135399965,-0.980089038793337,0.145748191484487,0.193970033204419,-1.9686462834799,0.201456052339532,-0.606880366624128,-1.09811747811233,0.136232250585944,0.00171256237562025,1.94116710898562,0.522431185151036,-0.622130911861795
81.66,-0.388022499267493,0.267373655775041,0.872742341924254,0.0091750044375658,-0.0982312123529908,-0.218425302452007,-0.982717995626496,0.134659538899752,-0.218371085325409,0.744445244826168,0.77995336239977,-0.224779379100744,-0.987076239170102,0.17782845455127,0.252257655035068,-2.02616717666986,0.19130172450135,-0.610487656237589,-1.07311196807027,0.150602352991242,0.00995253669876761,1.96872437852593,0.480681699461214,-0.651799172217106
81.665,-0.376134523202103,0.256702237806822,0.87689440533225,0.0116146754865942,-0.0958228850250932,-0.221963569521904,-0.981417084425761,0.145644779167476,-0.219697289908489,0.772290663859944,0.824048391160494,-0.26110524519193,-0.989652630524588,0.208507663713632,0.282207980560262,-2.08380542897364,0.177762653242529,-0.60741981693904,-1.04520233129745,0.154644172744659,0.0250495314213924,2.0229307398899,0.434974084651458,-0.685229513868666
81.67,-0.373791230203396,0.260194859006909,0.891041647487573,0.0150247562132744,-0.067963746781957,-0.217594220685755,-0.98182655848095,0.153365673547046,-0.22642459208221,0.769278943568544,0.835438382530956,-0.283958908758022,-0.989572978065823,0.235496187524104,0.326458167953001,-2.17207548557629,0.167242341923114,-0.592768210311738,-1.01838526038263,0.156443941287751,0.039207875269254,2.0943091012518,0.392228037120221,-0.704280057159231
81.675,-0.375340930249105,0.232696652908018,0.884953426360336,0.0176885937196521,-0.0460631769118516,-0.223382494150198,-0.986935133735989,0.175934487873976,-0.237778982911053,0.750272013923509,0.882356432847441,-0.299299261854353,-0.986451988876609,0.238694987645003,0.340411107992997,-2.23757368559868,0.148614241417179,-0.563306323503335,-0.990343291562785,0.154527095717518,0.0457378897525666,2.1714167967569,0.357665556056281,-0.719046340081357
81.68,-0.379712254594085,0.240024255593804,0.892622907869766,0.0278956588575835,-0.0210155482648169,-0.225422037290797,-0.993254048755612,0.169347435747413,-0.231796394559864,0.724745758351124,0.926673584720703,-0.315761107241456,-0.976423236756826,0.234965186276746,0.336728822149504,-2.30147667892326,0.125584724187163,-0.517785547911133,-0.965142585140251,0.156455150252435,0.0523033634056195,2.26397127895844,0.325235185708078,-0.731889138021169
81.685,-0.367994631217572,0.249321385906866,0.889913269500861,0.0263279671523639,0.0119189008736368,-0.232513282600626,-0.99515241969906,0.167237007177358,-0.219185446548342,0.67991656742835,0.961570145229424,-0.353956056626934,-0.958830179637501,0.231476411016094,0.310318771965616,-2.31711891774645,0.107217192933418,-0.473296724203816,-0.946326601203995,0.154609978649108,0.0440033848816548,2.35212029069107,0.287445440390487,-0.733229219913483
81.69,-0.37762433701717,0.240457595509196,0.894126093917294,0.0116166245184327,0.0445073185876523,-0.237601599991373,-1.00324097437799,0.168687856258966,-0.21677412882943,0.634544505165149,0.993935295583658,-0.38218764917527,-0.931658941218844,0.205662345853154,0.284562135857467,-2.29108141830275,0.097402690676109,-0.439701952945542,-0.936575803376378,0.155495773278354,0.0330694216092859,2.43055955511872,0.263921936495741,-0.724064429367304
81.695,-0.390248907451424,0.228631849489654,0.887795024150783,0.0128400884568691,0.0723761608488522,-0.249862539737777,-0.997799531261267,0.161005117440247,-0.227625110143893,0.605032452480471,1.02883240947524,-0.403456403048917,-0.908766275016955,0.168072037835666,0.251644920262725,-2.23130302527962,0.115587284651033,-0.404741054232855,-0.932751404392005,0.157071339185388,0.0222505195224999,2.50128249563523,0.232406453285744,-0.712415076477199
81.7,-0.377095313952864,0.230547706764624,0.893419576702996,0.0148314462597884,0.109736480060526,-0.25694067066956,-0.990155595087394,0.135039112356248,-0.230021312517627,0.586318864323863,1.06019764681569,-0.418093141680046,-0.880568049348933,0.119851252181895,0.248895163719481,-2.17942691981511,0.139095276076452,-0.374494764653734,-0.931741608209963,0.162345911545176,0.0160744714526774,2.54401017062122,0.186327058279635,-0.696691915339388
81.705,-0.377464438354237,0.231231256984574,0.894830368231025,0.0193132113058399,0.139661118438895,-0.262215608333036,-1.00755461475877,0.0902018539784546,-0.220430912810019,0.571740534080326,1.10366670703033,-0.431260343457292,-0.881078737029548,0.0861447868441304,0.240014586241674,-2.10728465797673,0.173453291364231,-0.346232115009844,-0.928519918669029,0.168948949155768,0.0100085333528408,2.54196007079219,0.142443091977465,-0.671432247039699
81.71,-0.364837314059447,0.23734782774548,0.892484884746611,0.036612269368738,0.165390850988736,-0.271174110203469,-0.941282421554588,0.14533127165197,-0.218937682320531,0.547273299941372,1.19209685141391,-0.521676433917704,-0.843413258464321,0.0641536145033903,0.295879685437131,-2.06764107854095,0.216278462934125,-0.29592062190283,-0.920408009598914,0.179962381874175,0.00794005626994199,2.5046322969202,0.081996461756243,-0.63840907365442
81.715,-0.369211391770322,0.241305279464251,0.897707045225913,0.0486634617617687,0.236046337808774,-0.280989396273913,-0.995897484838104,0.116623428404356,-0.20562236517906,0.600975298612625,1.21567684176751,-0.436572266560296,-0.877617401567281,0.0499729682551343,0.273568635830115,-1.97666996680923,0.257572492845736,-0.250120159993661,-0.930374876203126,0.183909979563607,0.0112074881052956,2.43574143096583,0.04780084332398,-0.607336151472326
81.72,-0.376993194134973,0.252620750226014,0.893984202798229,0.0676768125898586,0.260618819902775,-0.299706211563913,-0.985188826725324,0.130267527019608,-0.207114346603593,0.597401590673294,1.21813294424011,-0.451181890098419,-0.891474822823833,0.0373006845648531,0.293401922427112,-1.91267471604347,0.304123454949579,-0.199236841800489,-0.944422398571447,0.19219979832363,0.015133271910403,2.34714395169089,0.0311224094046294,-0.564012764274129
81.725,-0.38344123551106,0.275442061393917,0.89157988870504,0.0999459359865408,0.303196486151968,-0.325757570141434,-0.964225090881231,0.159156425068597,-0.239655707127209,0.632635920570653,1.31274681484602,-0.491347785273808,-0.947382027025188,0.0134307834246055,0.317656803663898,-1.71376829895151,0.409710932065885,-0.172875502170956,-0.983041754795926,0.216420240516834,0.0231652571445861,2.2439733049952,0.0150549134426314,-0.520576391230943
81.73,-0.407211625897761,0.295781936884838,0.8635224124687,0.125833738679584,0.335390134519632,-0.366558721104853,-0.985126782609714,0.168408592516885,-0.254694708773599,0.646060390452034,1.38696966785004,-0.520557216632807,-0.947854490418898,-0.00255620650694803,0.341485075613974,-1.98672271472784,0.285752302085527,-0.0513960460377793,-0.980813473095004,0.220322467447793,0.0324962706972528,2.11268283486489,0.0206330509158825,-0.464725151764256
81.735,-0.486208010126263,0.341971051021582,0.827644615313744,0.187895285265229,0.375313280187201,-0.442380742425324,-1.0119537031184,0.259381323616092,-0.34494941047312,0.627835846690387,1.40454801978382,-0.554544108270833,-0.864647027607487,-0.0033815997263461,0.343683998702454,-1.68450469874311,0.422942960604904,-0.0807231766244128,-0.994056665099313,0.234713333034827,0.0462139411363869,2.01323246402645,0.036255917372674,-0.447220184108159
81.74,-0.633318279445367,0.355792578895555,0.76805064968849,0.291540596531043,0.412137090825188,-0.599099065593329,-1.01752863399914,0.367658870873923,-0.507328027302334,0.646217527327061,1.40656745433807,-0.567091367420448,-0.892585087748359,0.0182086389998325,0.321290642212036,-1.7084439558272,0.392854603587862,-0.118511226802337,-0.973490944432309,0.25214955418573,0.07025271772273,1.81443187146157,-0.0186307021299536,-0.386809842311346
81.745,-0.681177361001757,0.464132952081954,0.776176430113124,0.478103788939997,0.442089620197552,-0.825588731249884,-0.984105391831738,0.614167294793466,-0.636533010986441,0.705480719984419,1.43210860088485,-0.527329174669783,-0.880575845428483,0.0305096317486914,0.300867826294005,-1.60860552751022,0.402751949958798,-0.157196896165433,-1.01954851171726,0.26617927412701,0.058934994510145,1.6143975533998,-0.0769854748127844,-0.305824481744536
81.75,-0.430629988994886,0.577068071754286,0.835041048326987,0.643933613673316,0.427214386155041,-1.03899804988276,-0.916952699398368,0.750305106518639,-0.588870448162795,0.847197757405125,1.52893609760682,-0.456460606246495,-0.947148675771104,0.0281573109635987,0.260157404179426,-1.55000509926395,0.405775702440624,-0.171572353140972,-0.936562620987326,0.222613266067249,0.0879977558442406,1.51801676063214,-0.132289817666306,-0.284570144543263
81.755,-0.388533373762663,0.653511716142533,0.872593841120229,0.729405831314187,0.411905139831956,-1.30651347384402,-0.937868613414825,0.693732747587523,-0.377565643976443,1.0321132653793,1.62460266503539,-0.333847988756791,-0.980618508071303,0.0182414880018529,0.24233271585871,-1.5550330587954,0.441449582192516,-0.13972020149231,-0.88722930618779,0.224388720107069,0.0898304845233845,1.5912374263762,-0.171313928855466,-0.340368021288143
81.76,-0.36842156191142,0.63575425118153,0.87983933362274,0.775271615037731,0.392383033286714,-1.47849014129983,-1.01052222891996,0.534494344291918,-0.294976306432832,1.31568275090658,1.54355916903773,-0.201440869560325,-1.04263676217675,0.0229751341806839,0.210762099454546,-1.54520184260459,0.48501541890024,-0.153687304991284,-0.857670185344678,0.244049129839288,0.0922264551844615,1.61108668539498,-0.115632480607508,-0.34923704466726
81.765,-0.40573741805552,0.581241504890119,0.897741207916187,0.782948296492562,0.433439428542859,-1.67248492540381,-1.04648320446526,0.406071890722728,-0.363968253708904,1.59487591494777,1.43791226455877,-0.150515999991187,-1.11146729918619,0.0292412653114112,0.191088111506011,-1.65748899286232,0.481225349600103,-0.180789191969711,-0.865133288502695,0.242281689858805,0.101386373081963,1.62070434788089,-0.00784104835096471,-0.339843600988388
81.77,-0.430788095895314,0.503727797884585,0.928854226998163,0.779947399361427,0.499581263661928,-1.81216576484599,-1.06409978684945,0.315790069349275,-0.447682026815389,1.8729429047242,1.40062714541278,-0.163384277225151,-1.12583826236624,0.0361686481552716,0.214645527536882,-1.79291329228033,0.465353991037614,-0.176962740600643,-0.908282082480572,0.254358831922973,0.102897176909794,1.62413652849271,0.12916132144528,-0.324881922149357
81.775,-0.446743985583398,0.414397615860764,0.937279012641808,0.735647233171382,0.575358046177958,-1.96214109528951,-1.12074395766417,0.233706415029791,-0.449876486216282,2.14082818459133,1.47762414670847,-0.226539500370923,-1.19708694381854,0.0403032815654436,0.236826824012169,-1.99807241682279,0.420006845908179,-0.166135186075757,-0.971052280656031,0.261839427990364,0.100496751017765,1.54242242198646,0.216484602185788,-0.258836264249992
81.78,-0.452850671626746,0.379032664292983,0.936408440800116,0.705108120693167,0.679807431853669,-2.06117963756271,-1.2690591911408,0.133337263551786,-0.41382789811908,2.3810665943348,1.58026424067699,-0.275130166200946,-1.17300715008864,0.0487506589514994,0.299160140539723,-2.19378207547793,0.374563512080344,-0.107493318201987,-1.03115177742036,0.256838717294419,0.102790105524219,1.46326800039039,0.253043512197551,-0.189313775531571
81.785,-0.429353573362959,0.349586698439134,0.950514735412585,0.689363657185372,0.804451808974382,-2.1068626297629,-1.37017127710366,0.0952531597564975,-0.370049736365044,2.5162420033435,1.62739670661276,-0.317350857751338,-1.17460393188202,0.0419794437244392,0.346392565109689,-2.29341098607458,0.314117169778947,-0.0795117192845319,-1.08793804268899,0.261518966022452,0.107942163564483,1.38151229695691,0.260610915437181,-0.130710728731014
81.79,-0.42050631942833,0.398883378921015,1.02334968014288,0.671062909244584,0.991498129651233,-2.16139907557271,-1.45783446946828,0.133986869887339,-0.312348839311202,2.57602986846574,1.68517119456033,-0.390172300044666,-1.18917928942921,0.0354168908745567,0.384897802407685,-2.36328148167493,0.238930628441462,-0.0655460564702121,-1.16505786161844,0.243219885785303,0.108229824541021,1.25464645432245,0.229425215776714,-0.0326194137399619
81.795,-0.384537117135317,0.436929052346014,1.01419567554701,0.618281396511362,1.14785364305383,-2.20228956719254,-1.52000543157121,0.172964330509258,-0.293291022140182,2.56906677195081,1.71188311381533,-0.447568808343204,-1.25896710776318,0.0147987341005825,0.413956114770133,-2.37531371427764,0.16376613405877,-0.0303672879567365,-1.21666067709103,0.190824369358622,0.123601071048141,1.22815751239355,0.224253692701751,0.0240362336103307
81.8,-0.411907251480864,0.500585283961197,1.06346268308172,0.510328479050457,1.41703348104442,-2.2444587901768,-1.58418569433336,0.182930091036741,-0.28951531208022,2.48861520091031,1.73516307625735,-0.506268001256921,-1.39010781773062,0.00104428827075312,0.439637670308195,-2.31441840620223,0.1058252535607,0.067103289512659,-1.28307804273129,0.122177155294847,0.131147735562523,1.25794796867878,0.250168120357521,0.0647853854515641
81.805,-0.402390771472168,0.516526063555899,1.0593882963365,0.417950883119996,1.67383082631042,-2.26930123837696,-1.65927114286244,0.204963223756953,-0.28817749172764,2.36204174615625,1.77914577422183,-0.581044261460143,-1.54657580996311,-0.00637472216226548,0.439209881188281,-2.19357421337261,0.0819417053727051,0.175952703282808,-1.39944797750514,0.0314515215595319,0.113173530384821,1.26660421576556,0.30080318061031,0.118137596405283
81.81,-0.38785527466706,0.555926714597944,1.05979200423964,0.233671074912427,2.03260823056761,-2.36958197492792,-1.75383523587558,0.226773332583242,-0.267919049616696,2.20271646478807,1.84375587252163,-0.624466653708857,-1.79875683466653,0.00201704395420323,0.397488527251192,-1.99043229926474,0.0546075095766577,0.335458155377204,-1.52770453331102,-0.0652762242406548,0.0697397700906355,1.27279147548829,0.322296802341186,0.154572756566154
81.815,-0.367372973233288,0.593458041972997,1.07612306476785,0.0325256297435139,2.34993357300731,-2.46060911844953,-1.86405958819797,0.231467273032371,-0.244296733545805,1.97550848405241,1.913336951284,-0.640436353301827,-1.91866458561367,0.0154815081231577,0.351143261822963,-1.68449277418009,0.0582000107719724,0.49431370563063,-1.71672531555995,-0.165291296670585,-0.0381203286316468,1.25304033242166,0.308063857716075,0.210376205640621
81.82,-0.383184534321254,0.466898977105336,1.05808447979376,-0.170323926630971,2.67589158394256,-2.58636842365052,-1.93799189281538,0.189230965473251,-0.184377153023596,1.71504775504715,1.95162136366155,-0.606797264899786,-1.96778470485945,0.0568654379160155,0.241474780503936,-1.28184956555682,0.100279867085176,0.665604614561468,-1.83751634777009,-0.217712066989481,-0.143097339515872,1.2214290928994,0.271979075352005,0.253471740429865
81.825,-0.355410719485466,0.461435417458068,1.06511728792003,-0.347438203717279,3.01779713006297,-2.74635994251845,-1.91778016176932,0.0949679297588331,-0.142583139558555,1.52935853539692,1.97603493283916,-0.547934631436587,-1.90091972126044,0.0776947125917504,0.134989899999928,-0.883829278688465,0.153342606465754,0.87700692091865,-1.87292585612526,-0.246639441408791,-0.226715462193179,1.19770926847307,0.224522796770058,0.284066622634622
81.83,-0.34556253135496,0.4671581604535,0.996534376544452,-0.538501244498812,3.30996150251444,-2.86916496292731,-1.83465556997913,-0.021113447605023,-0.128410024912908,1.37789883863073,1.99311329502477,-0.459866742066991,-1.73063675067447,0.0943712462709641,0.0135292613237316,-0.635082002255987,0.198148378031997,1.07512579480612,-1.72222775903599,-0.251506975925929,-0.287537667997705,1.1834840783902,0.153312905963199,0.282516609912013
81.835,-0.42632219662207,0.354906819855389,0.958218881259377,-0.711176484253602,3.70008560060028,-3.11472699298893,-1.73953120490147,-0.0889168402357248,-0.160898389919461,1.38723410951736,2.00540146216405,-0.386840672757378,-1.58174234165802,0.109036944555424,-0.0943206125713747,-0.522626774847756,0.211334385849538,1.25472655161673,-1.49224396349187,-0.231099057777546,-0.263636501689711,1.17019345493025,0.0441845285600425,0.198640391111171
81.84,-0.459657223402019,0.340972992575138,1.02202034667462,-0.825106810898885,3.96711291351249,-3.37125456095236,-1.64276306453002,-0.0966560473704674,-0.156997200624134,1.56739104838027,2.01464176092081,-0.319397497935515,-1.46602156539628,0.13446348503429,-0.199362154042369,-0.566269682962372,0.193093543900318,1.4101213156597,-1.2695710412252,-0.204358637804037,-0.201011508573628,1.14894915613699,-0.0869168221562559,0.0832958129872153
81.845,-0.411338915694455,0.284506600429596,1.0872659275157,-1.10609970759869,4.31440112755744,-3.64590065781376,-1.58178141809517,-0.0764945426278446,-0.103792096088977,1.83202748064161,2.0456951363728,-0.251354656815902,-1.38692892416045,0.182617431358307,-0.304212772310483,-0.67811427792267,0.16857305182516,1.56214875810933,-1.17682466369897,-0.204881715407695,-0.126842521070199,0.995750870937527,-0.222507519699846,-0.0793263908027209
81.85,-0.344592518428747,0.297770979301424,1.08602787268996,-1.3055634786606,4.5492486145333,-3.78036132407451,-1.57551959827315,-0.0623718275185353,-0.0370575142128632,2.04860826668899,2.05975350589435,-0.201554988476755,-1.35714247681428,0.234817400755977,-0.401140344252034,-0.74236642079831,0.158368979229284,1.63279126063102,-1.0960587322328,-0.216686561907816,-0.0953418118287467,0.86968215184614,-0.237588530665456,-0.157896469483489
81.855,-0.364520769610613,0.260477444789027,1.04437235462735,-1.50910526034484,4.89800657632137,-3.98416960599545,-1.59144200544214,-0.0991288181525956,-0.029062781959541,2.33508516579532,2.01648054338197,-0.117819606922826,-1.34539836793905,0.281408683700637,-0.507267473757241,-0.77236378027278,0.167000299312124,1.75468673554043,-1.18669828017324,-0.446841525277695,-0.0683729214562598,1.05962359797862,0.0491386915526998,-0.174829220627518
81.86,-0.434439228807546,0.228236677654959,1.01259884367979,-1.66199306305129,5.22173691217006,-4.1795018156293,-1.5843283324303,-0.119169836103672,-0.0615972901613724,2.58036526771984,1.96546940072628,-0.0534759394784636,-1.3458883898791,0.305586009423409,-0.583341466784115,-0.742678488223157,0.197918839713532,1.87890642268839,-1.27783024036224,-0.465833112884272,-0.11319949336882,1.48929545534896,0.1515270198431,-0.100775677133838
81.865,-0.426823715500847,0.148025498582884,1.0329097509105,-1.66951208845283,5.62490975848147,-4.40555675496731,-1.56172258811063,-0.113297623515834,-0.0870923884770521,2.85859863369351,1.92289901522394,-0.0214800263012074,-1.33819255856726,0.288162405459795,-0.651967820667426,-0.756007426758922,0.244548863463458,2.04752300971406,-1.36058048150221,-0.437890474957518,-0.176879441565353,1.29964501040099,0.107527585846927,-0.185995867972677
81.87,-0.490144143371062,0.0094604287665481,1.00524073432008,-1.58591739585781,5.88901524770899,-4.67281754544095,-1.52491400380932,-0.107436269092083,-0.0795297595686232,3.20779165985773,1.92312178810912,-0.00971043016923866,-1.311548494229,0.22015430335318,-0.696896787631075,-0.837630974915584,0.286480240807194,2.17179274324685,-1.33698516386404,-0.442601796717126,-0.223155929486844,1.00376814112722,-0.0370189047982153,-0.257845721669282
81.875,-0.513423958359498,-0.0314765835675254,0.902337654346435,-1.111901165518,5.98428697783226,-5.00486129474026,-1.4779861782211,-0.0786259024536895,-0.0504386075680451,3.4515328042337,1.96114812126524,-0.00392878029673049,-1.28137363407486,0.129697423228363,-0.732129520478029,-1.00105548229067,0.325992702885324,2.24708308292711,-1.27271357087695,-0.40929512207453,-0.208735871750958,1.08625668345009,-0.0735014752996832,-0.279628454772907
81.88,-0.581447182602593,0.126627751614943,0.909402248471006,-0.349763409956371,5.99800430197181,-5.30331433731907,-1.39630736133929,-0.00300895451743171,-0.0483978881218378,3.75938482376679,2.00803532547016,0.0210191564732495,-1.27451056140318,0.0260035613140369,-0.767873313094519,-1.35430039692359,0.430077322477167,2.30214047920007,-1.22295302786193,-0.364656219012542,-0.159451952095277,1.00827020091722,-0.106330773862651,-0.320550325831325
81.885,-0.711519302216088,0.116458258241577,0.979931381203563,0.268743715604287,6.00332264797606,-5.46699096301938,-1.31552690204848,0.0664658702461182,-0.104096718810209,4.1413071940358,1.96524987962993,0.0766155735226666,-1.24383007202155,-0.0822079743674661,-0.726578867412171,-1.4118071668363,0.482505250073414,2.39498832520446,-1.11283746930339,-0.327994150019784,-0.102781142420441,0.816903676857763,-0.133173344408653,-0.374056974449434
81.89,-0.948890763978045,-0.0507313127440621,1.07397977053674,1.43416891568618,5.84004808933855,-5.48418150676924,-1.16949861857028,0.108543125681818,-0.212089709380818,4.33860444599509,1.88521746419201,0.138004973395524,-1.13683181123324,-0.243501581950332,-0.819376762819582,-1.58988075973774,0.448794664192095,2.35346264078362,-0.996816725935805,-0.290436118538526,-0.0454181280527066,0.715407561837944,-0.112502091541239,-0.399147125464871
81.895,-1.30977867456966,0.0429938243265735,1.01135367175327,3.51564139628385,5.46576623918033,-5.2167291770171,-1.02354058069316,0.143081746574567,-0.320711001686783,4.48809302950181,1.85770707377244,0.30973661896608,-1.17310466470835,-0.316366458306655,-0.73592312721719,-1.82142866528229,0.509448801086742,2.38159296848209,-0.909887292683589,-0.246598711437475,0.00660214619140164,0.610522512808196,0.0295301418565732,-0.404352589009904
81.9,-1.40641296240219,1.39547346202907,1.42660251050261,6.04242319923146,4.96272354303777,-4.50088366985302,-0.875717541355064,0.142494355608058,-0.400050340383203,4.4052972731469,1.76117373214969,0.28357348308446,-1.19484713710421,-0.383272803861725,-0.70521736333386,-1.77425677535714,0.352327663390558,2.43830134062351,-0.841484087331871,-0.213121689377135,0.0565771877719351,0.590614538620897,0.132808238970903,-0.394161516440466
81.905,-1.31417758580977,2.77370819138044,1.88858403586915,7.30438062585699,3.80510459987107,-3.36905861313322,-0.828022741356041,0.309100889335644,-0.507026220517815,4.28977735536704,1.70850273852866,0.288858699290279,-1.20586254380195,-0.394058144478374,-0.730708037859557,-1.8917786494659,0.324912828049602,2.51231810093392,-0.783697792984965,-0.185575636446369,0.0967437454436895,0.667331923006976,0.225887759610215,-0.363939784922103
81.91,-1.33110446852825,2.92472494461387,2.09420058000655,6.60994626821269,2.64643774599017,-2.6488212440097,-0.764600737299932,0.610010988727829,-0.539671912647911,4.4550544060946,1.63524644258347,0.556939405648789,-1.19763495596803,-0.418560838149603,-0.721402580564097,-2.14635187898553,0.385888401041799,2.57731613458649,-0.746777010743596,-0.14959787117632,0.127034708233176,0.775575220627011,0.283569330414356,-0.356871560331933
81.915,-1.18647666811563,2.02466724211003,2.00629349519171,4.74665494425391,1.53668918346467,-2.82725037667312,-0.718670190117024,0.84548382843812,-0.466343061606216,4.46166624656325,1.55467754685866,0.735615928649528,-1.18726719178703,-0.459171460916099,-0.663377737245473,-2.57053848961761,0.354440244224246,2.52612435934269,-0.714567359235074,-0.111290385403117,0.154137219826379,0.841224187299197,0.360972019073923,-0.382054952567768
81.92,-0.668834680806278,0.690674962947144,1.79146791075607,3.22509289877657,0.601345033724379,-3.48787434690193,-0.672650969692066,1.04482420055826,-0.284086017536855,4.23569948667183,1.41773136969187,0.880542422491227,-1.23567885939151,-0.483632544204749,-0.621245776610644,-2.90606164755864,0.301657281125741,2.42461092709994,-0.713744507364755,-0.0869452804699066,0.171446263538527,0.89644740677208,0.406856419475435,-0.412018184540147
81.925,-0.381609247304172,-0.0899754496670708,2.08418558008769,3.41950879064512,-0.0471561764038205,-3.88979115433319,-0.624442313706024,1.06647439162946,-0.0209541058092232,3.82631245255028,1.29379083060676,1.13634185390763,-1.30271344859674,-0.493287494965831,-0.555419323874768,-3.29264869697668,0.204664238212945,2.26862518506639,-0.719504423474501,-0.0614199687110963,0.179044939324855,0.968757657646625,0.429266691591753,-0.437146887308685
81.93,0.112378005519061,-0.207087381193286,1.59543823582415,4.17112265234349,-1.37703757331291,-4.28384990193785,-0.624374677923302,0.879607722312526,0.264807125263411,3.36056503723258,1.22982767555558,1.45897414759216,-1.34323894172161,-0.505654257515779,-0.523234073384543,-3.51767885575251,0.088586639208406,2.19535303261014,-0.749445360280602,-0.0545378978276941,0.174790273531912,1.06617565627845,0.381487248967827,-0.447115168673214
81.935,0.369185547592074,0.485297093828566,0.925687764832199,3.81531491381171,-1.73075637104868,-4.40002286434398,-0.708195509386573,0.46693299513343,0.20346496056501,2.74135281564689,0.962961094819373,1.87457975059341,-1.3436628755982,-0.490280154706497,-0.483258495494285,-3.6594874273463,0.0635725633089623,2.14072747219727,-0.774051927219548,-0.0584831826307311,0.14473376598548,1.11517840288281,0.313030287519346,-0.44662506043147
81.94,0.052257410278599,1.43365451035566,0.980377132480784,3.25871418119918,-1.647683440219,-4.275318832283,-0.692283144877204,0.168136421472496,0.103359468862663,2.63170161480889,0.656238112974573,2.14814163877197,-1.33485238781799,-0.456272689597405,-0.43898456326243,-3.70741962274488,0.0602820031520207,2.08085572709259,-0.807090288789119,-0.0749923343943664,0.109642828072781,1.14109588444493,0.221156456051237,-0.435394710077303
81.945,-0.134934912558994,1.16349568273981,0.792772682295246,3.16826605973378,-1.90216217587437,-4.21488552796245,-0.609717911625589,-0.0281336664024331,0.177637692746079,2.8051627933647,0.462488813177477,2.35267714496053,-1.28344508400311,-0.412694190522427,-0.381077803333736,-3.66609105586242,0.0804755694067202,2.03839266083985,-0.835041425375058,-0.106423755610268,0.06431798530644,1.14684389725419,0.136070474940779,-0.410794981413493
81.95,0.121618270382904,0.928101453119522,0.410655834235943,3.14088324426345,-1.9905133095387,-4.24848426235929,-0.593006838882137,-0.122296302162888,0.257692611459684,3.21985750089842,0.319904380848107,2.46455605577821,-1.21711956888144,-0.378706780262177,-0.304138158249889,-3.41490654680618,0.0710080269175488,1.95920453556708,-0.854490374949338,-0.141277886169757,0.0227412373997751,1.1381189765642,0.0821201332596507,-0.38159041382393
81.955,0.263396166855418,1.13887876737843,0.302244834242994,3.25494721721247,-1.83691843503331,-4.00266137931924,-0.625267211594484,-0.141087123836817,0.228201675591725,3.54331299468076,0.199125630037288,2.51213822662069,-1.16836507171958,-0.347879640075309,-0.242592903292045,-3.20955030663969,0.0421567258140978,1.92041657293466,-0.885998366833428,-0.174571976614266,0.0041916340996388,1.10702503855898,0.0230543832923685,-0.345581339555121
81.96,0.168860728739151,1.24267805944777,0.307659258007984,3.32320544107863,-1.63634008321605,-3.58216006689659,-0.661569753495824,-0.143713928465011,0.130209238269796,3.82350953743906,0.0835120107505851,2.61208354540611,-1.11558824950609,-0.323389473566589,-0.186504570332867,-2.92432213193783,0.0131042148963122,1.86805157891009,-0.912122720980098,-0.210041868362492,-0.0127458609063184,1.07617145829102,0.0115739280002247,-0.304374528473658
81.965,0.0639269574602478,1.20270197386989,0.308790783087134,3.46276939703309,-1.49270522788424,-3.1058952540369,-0.694820096493345,-0.115258241123781,0.0742664855775304,4.07994040253846,-0.0245172623789219,2.732607826712,-1.08016541354043,-0.303517172217097,-0.142491768111744,-2.77023991876453,0.032398949756775,1.84402829104027,-0.934066488109276,-0.225958296222189,-0.00217153736647567,1.09220486113982,0.0708887169201965,-0.272932638626811
81.97,0.0826478793778544,1.17166870673396,0.260343582916289,3.7347697636398,-1.35816457994585,-2.63103731644896,-0.700481120792336,-0.037870048514546,0.083331570783911,4.25197682616615,-0.112847533139463,2.80238058783434,-1.03557861131867,-0.284294325013215,-0.10655996301525,-2.64475363695604,0.0553776694847904,1.80669479184354,-0.976985602132739,-0.233809156916607,0.0163187359612437,1.16164090684089,0.203024431708524,-0.243567480383255
81.975,0.110763915309707,1.22477453851805,0.263646449176855,3.93392567813672,-1.20160188397601,-2.25225053300305,-0.707861002775975,0.0985473174100601,0.0941451929422025,4.31988407599979,-0.225416546643537,2.86686673710124,-0.983047999042896,-0.264743412338203,-0.0899267695113851,-2.56495240236276,0.0669908031962326,1.76635965357129,-1.01715477105791,-0.22743257909956,0.0384565596215447,1.21839249762338,0.318664887969052,-0.239486507401237
81.98,0.107076704373955,1.3028986033787,0.356870833814617,3.93357818035296,-1.04679124321708,-1.75925937160965,-0.68672194048388,0.173622410767329,0.0864446566260043,4.27732457744673,-0.331378025361645,2.92156319400789,-0.923426650142652,-0.238889072745012,-0.0408808956081408,-2.45398481813282,0.0343237413129539,1.70544475139152,-1.06397282281379,-0.21372295431147,0.0540039148330977,1.24128111701284,0.424121409934532,-0.256976240021881
81.985,0.0631044752077616,1.23815286696992,0.469629631593724,4.02881628361257,-0.941849197026192,-1.29395637799191,-0.661235002629287,0.194744839735759,0.0654361374335219,4.12426292702725,-0.447155565493467,3.01157966658201,-0.851408208014616,-0.203077165870405,-0.0329070961669727,-2.30804888816981,-0.0209857028128141,1.63632530015249,-1.10237701956565,-0.191952907226179,0.0684566649401165,1.2736493650043,0.510342341157132,-0.277982008504987
81.99,0.00327869560606697,1.07562672973893,0.609076568400694,4.18813819549738,-0.861085388243146,-0.810525305878026,-0.654208852629521,0.198812190200873,0.0466921734759751,3.88411066705223,-0.529254748298165,3.10672118011621,-0.81399013652056,-0.185171432517991,-0.0178746564991007,-2.24513407141406,-0.0119566969702333,1.58610397649726,-1.11988281370678,-0.174367770308878,0.0761340285023816,1.33062072628365,0.543905542767776,-0.292607931355722
81.995,-0.0121648052362834,0.952176516034122,0.709660682831392,4.30787669874166,-0.851645960388526,-0.389026634133619,-0.654927553987411,0.210310017574219,0.033414075949418,3.59183008047026,-0.579564870451267,3.20853905861831,-0.780760173517775,-0.174043858858944,-0.0237011047451454,-2.21090074008198,-0.0137565477078379,1.51090550108459,-1.11754450452127,-0.146452926476223,0.0578453482714538,1.38151934735204,0.531169122426101,-0.301994854451438
82,0.000288598520976027,0.871292784447212,0.77878941635115,4.41240074192025,-0.858315087852707,-0.0397890524843787,-0.67139117108119,0.238061283414409,0.0427355395388186,3.24639192650593,-0.61847260468541,3.30311539551899,-0.763981948179357,-0.177060239348001,-0.0134440696023117,-2.2524683875859,0.0152535565078634,1.49559939701654,-1.10410355457985,-0.127333054127659,0.0410443768003315,1.43536797369528,0.476216561244894,-0.305230521748447
82.005,0.00847931465391105,0.774741212556146,0.851574155686693,4.45487437567993,-0.861720908126592,0.276024156599047,-0.705651943448119,0.259767710895927,0.0699164803448424,2.8443040600836,-0.656852350779269,3.40036737184835,-0.73381751894369,-0.195273456618835,0.0149971893161791,-2.28131493819563,0.0553488170586835,1.49407053930097,-1.08317026740869,-0.119551536694089,0.0234718713856311,1.45065539562545,0.403320901887217,-0.313390015373437
82.01,0.00940300230462508,0.684568838404916,0.910719180549577,4.41415568695139,-0.840372492717716,0.478482064828294,-0.742367921965919,0.278539666697735,0.105399312905792,2.44426970009016,-0.720225510181395,3.4694861499388,-0.729049799158678,-0.211046511108975,0.0392349312205733,-2.26506624014655,0.0859048113151137,1.48686296489095,-1.05074591373284,-0.125177710219866,0.00245816852597458,1.45518922716982,0.343461042375539,-0.325910961166977
82.015,-0.0208352635258066,0.552042866251426,1.03345367312138,4.32790176053959,-0.85969363857682,0.647876976069189,-0.802871829567133,0.282131365173034,0.111436072195106,1.93782683499719,-0.82775250273942,3.55837900363407,-0.730211578194371,-0.219238876127563,0.0675529735993953,-2.22752706636195,0.10197137574495,1.48627660436701,-1.00676811347977,-0.134078031293258,0.000565562114725442,1.4494967194033,0.305654062343247,-0.329313303597208
82.02,-0.0615395700101083,0.479409771163551,1.13283187414902,4.26045675167616,-0.909522325065636,0.753036885914672,-0.841686461975454,0.246371185851817,0.0962247517181175,1.50693398367255,-0.933825367667974,3.63146452376963,-0.732866884954321,-0.216706100826551,0.0865915111079839,-2.15349331379148,0.13053031183721,1.4960187439121,-0.957387510337611,-0.154504848168542,0.00581564004887485,1.42814398694288,0.294863661710371,-0.333455463300561
82.025,-0.0839673102965914,0.419018891065869,1.19435197696414,4.18123359961951,-1.03181745390046,0.849015878008073,-0.883582739741077,0.171969041827713,0.080963247567609,1.03719984503591,-1.05659777561074,3.7128993780191,-0.735161902446362,-0.216089327060179,0.102747254733069,-2.06291679856168,0.15832045694988,1.51398744673521,-0.917621122484671,-0.174914802945847,0.0164778658765241,1.38443646088457,0.318861234535194,-0.328364913656645
82.03,-0.0965933519337214,0.35687894956585,1.23203184145389,4.11280847032746,-1.16825044117135,0.906132785689155,-0.921937296607748,0.0899107451526455,0.0759588905853611,0.696108968655533,-1.18536280549204,3.77450164700517,-0.735018035055197,-0.207927728072107,0.115270582299943,-1.98248924927749,0.179954026710455,1.52161201573436,-0.88463675905107,-0.193797945930787,0.0298160126084655,1.32166930319441,0.374899426127672,-0.324177609758733
82.035,-0.0908632589472282,0.302626800360641,1.24817247451266,4.03167855643601,-1.27887318046046,0.944415513363645,-0.952963859466157,-0.00420137872464666,0.0721441057144803,0.473599545269025,-1.28783945688023,3.83034398322042,-0.747212479283829,-0.192992850146932,0.13581415961066,-1.85718390534618,0.192155346274376,1.49876421650279,-0.852509118298615,-0.22007642831272,0.0462211764537484,1.22676412098278,0.477619292638086,-0.319039373918163
82.04,-0.0894407055624115,0.232547410484683,1.24708918772678,3.94381675803739,-1.35972397497333,0.974173814316495,-0.97711546135577,-0.0958856810021268,0.0681323752628367,0.331794834454392,-1.4033632777686,3.85857727037185,-0.735030110745533,-0.174093927585403,0.152692199839778,-1.75739924342322,0.193237123632344,1.45935399278578,-0.840131734297809,-0.238477232437898,0.0579135853373418,1.15749377352834,0.551488724070769,-0.314919459099864
82.045,-0.0924290844910757,0.0891392318503172,1.24318204922904,3.86811829234818,-1.4332738951599,1.0142676329334,-0.993568126706282,-0.20910880111153,0.0709705809675924,0.294819552011131,-1.51251590129598,3.86707275709033,-0.720717333605061,-0.146067905638773,0.176997425117941,-1.61243400850755,0.185853543651126,1.3692308994538,-0.824313256941922,-0.257906693850111,0.0772220882210379,1.07601003876891,0.617677368594574,-0.324152797754912
82.05,-0.0951065258766145,-0.0339083992738389,1.25520216831192,3.87326519980286,-1.46696260009707,1.03173389682923,-1.00233803426513,-0.305539786377282,0.0793601322128732,0.337754666991973,-1.61849493919095,3.86429396586659,-0.721411094399289,-0.12252764757366,0.19143258856669,-1.47939520954243,0.174373264752943,1.28346657048235,-0.809773470561092,-0.276794600949509,0.0890826728303732,1.00653393061855,0.623946294539616,-0.338997511179453
82.055,-0.0925555754695897,-0.174799400963625,1.29114626638164,3.97703804995725,-1.50362761551241,1.02457167925152,-1.02209231077544,-0.420004089081665,0.0711430669280802,0.46446438754256,-1.70923815172034,3.83967672150144,-0.724322557193741,-0.0982555572038115,0.212126016965534,-1.34370983307317,0.149751867353629,1.18360597930916,-0.802048517873607,-0.287653002315352,0.100474961283389,0.970457838336883,0.590994050585246,-0.343294077803317
82.06,-0.103113696815232,-0.253763398814226,1.32827656241173,4.08511248411468,-1.5297638602686,1.00544287964272,-1.04433171208108,-0.536302437033478,0.0507020779677018,0.666919235102727,-1.83492335572789,3.79549003705592,-0.718271017745181,-0.0749594385131341,0.223260097461827,-1.16653716124729,0.117565365255441,1.06615010291821,-0.793849552203807,-0.288836193309154,0.112889323815214,0.960757110536765,0.528931848807863,-0.345511717278508
82.065,-0.16620198788519,-0.348293812143061,1.47319776869482,4.19727634831635,-1.60923617504514,0.961592338675623,-1.06985067607047,-0.62742328250574,0.0365758430606026,0.96948643631734,-1.96096082716648,3.71970444511079,-0.71858244461575,-0.0586879954912878,0.228558786178237,-1.01406905523199,0.0845011919830569,0.956868519178801,-0.791718925703604,-0.290434628669754,0.116291720675763,0.987712576981341,0.455548196062975,-0.334938783341613
82.07,-0.217777916071606,-0.355264744365353,1.54132681887825,4.2343128310079,-1.70329275534193,0.930514231317746,-1.07582547209128,-0.685499963593283,0.0228149927100019,1.28413860494316,-2.05947200602585,3.63942553658456,-0.718611966351331,-0.0427610593212004,0.237821311080732,-0.858685724250437,0.0340802005425698,0.843928544942722,-0.7919912905302,-0.279160512260709,0.125145700610679,1.03405222196008,0.388399958511668,-0.318622018983073
82.075,-0.287394498697245,-0.341373650332669,1.64410633995969,4.111734036933,-1.89545107655936,0.814232288706289,-1.08851076556713,-0.700808164134555,0.0179946362343605,1.61153603867847,-2.16073008068203,3.54702085273536,-0.724974635019162,-0.021231855760351,0.24413998604521,-0.681019878607982,0.0088477242488104,0.700138193732994,-0.798901173695757,-0.280791010933472,0.132694356779432,1.09804929011551,0.324211920311643,-0.304704749150661
82.08,-0.323723482931729,-0.36881168090179,1.69844770239849,3.95959294213114,-2.0818774973345,0.716733334162824,-1.09226941915303,-0.675591115285577,0.0220010939577787,1.88836339280257,-2.23803020605845,3.45786506145191,-0.720689860698453,-0.0078607947130693,0.246216077949754,-0.572957377309849,-0.0157713174026209,0.62419018546719,-0.806349453433191,-0.27801329605475,0.138212734247539,1.13386685965792,0.293486376148452,-0.290905394790366
82.085,-0.329105703763979,-0.443959324537587,1.73042031200336,3.74064416124854,-2.32780754439011,0.570209844143678,-1.10922763508448,-0.621241872244656,0.0206491011208147,2.17057150627532,-2.33698642685779,3.33089902846857,-0.715815775371302,0.0158710879564569,0.263704470118259,-0.355738500285016,-0.0673382326841874,0.523241918704115,-0.826534576846507,-0.281397769155733,0.136457170629581,1.20601966989266,0.258879961395421,-0.264354160229146
82.09,-0.314134755621495,-0.503212664488659,1.74167158702052,3.58071858540891,-2.54418417249994,0.426064884849957,-1.13094734309687,-0.560016557311198,0.0303515821888406,2.34538613936915,-2.43240964205545,3.22692382542807,-0.707227552542237,0.0362972121106265,0.267068227934895,-0.112174568366406,-0.117171623054741,0.446010517556999,-0.840843318238169,-0.280134478508559,0.134654793571973,1.27080556969529,0.264569839670888,-0.245390063704022
82.095,-0.306624694597757,-0.53683130947631,1.74002499126922,3.53012517184474,-2.73049884986668,0.310908774854148,-1.15791206211795,-0.532344410440101,0.0295925515746561,2.36534272746027,-2.48012100257564,3.17395758671751,-0.695600829719112,0.0376760317494492,0.270565448693185,0.0887113848475599,-0.162149273818214,0.384373546359545,-0.858906229370002,-0.27125935221377,0.138039533737921,1.31666361901885,0.275105694876179,-0.227171235650072
82.1,-0.319975521163167,-0.532835377823718,1.7281011347014,3.5517810607681,-2.90644153261646,0.19461005483775,-1.21236205157979,-0.504543757980717,0.00374215576405756,2.35117383956525,-2.55777819634252,3.11642218182036,-0.691710438947698,0.040955825636452,0.280110109290001,0.290254107312742,-0.203260340869632,0.344320659459329,-0.88184098962381,-0.266157544434243,0.13603976957474,1.35162173538182,0.287654448271619,-0.215366617659769
82.105,-0.348903150856735,-0.454644976212069,1.70430897493952,3.57272731438615,-3.03761182797866,0.118742780096899,-1.24959344488117,-0.499337003159172,-0.0140658971442218,2.31643571930247,-2.61185468188364,3.0576753752736,-0.692794790838569,0.0381740487182536,0.279306808208364,0.421649883279321,-0.232992591979384,0.320152635194952,-0.902723700262638,-0.257541277067248,0.134700309369408,1.37624363138053,0.304311184908842,-0.194294150801352
82.11,-0.384374149410086,-0.34789328544144,1.67149911204762,3.5413836700693,-3.16257470063056,0.0444367706643096,-1.29334026333591,-0.511886433194619,-0.0319360203735751,2.28650736629897,-2.68494023938449,3.02392024377554,-0.695862792802994,0.0346709119820761,0.284050399986859,0.521103953376928,-0.262945937443451,0.298915162884921,-0.931246000106676,-0.255678315321278,0.126794279676654,1.40249594733623,0.307218220399251,-0.172315968519086
82.115,-0.442258589636617,-0.298629000452145,1.58822427787763,3.40934505034561,-3.29041452049956,0.000861789938311066,-1.33268647645708,-0.520447762669153,-0.0537480989713806,2.24159513223658,-2.79437801920891,2.9941184869268,-0.710084718353198,0.0301773605370258,0.289279092253521,0.569654886959202,-0.275288772707962,0.260471227287356,-0.959479446726798,-0.243844388330321,0.129853425011103,1.44606024220059,0.296315842971795,-0.147783641800327
82.12,-0.495824689053413,-0.283616311108118,1.49447835292564,3.29124877588094,-3.37872319387075,-0.0365969066307411,-1.28776100856273,-0.513849487785529,-0.0936399688122566,2.24762476386611,-2.85699906403879,2.93305831930982,-0.720631242695542,0.0318728521326068,0.280263658482367,0.577171770037702,-0.273310273885727,0.257640767617746,-0.980224008465907,-0.230530401259943,0.122510031515781,1.48107151687085,0.293501832069752,-0.122963308109162
82.125,-0.560893391019082,-0.265298908887461,1.34509977623137,3.15793042198354,-3.46483071902295,-0.0635430364380934,-1.2347533981165,-0.514109789185175,-0.125478952914482,2.24697982487347,-2.87177893652333,2.88299551993537,-0.734823695431579,0.0413106917403917,0.266474416726072,0.572478762057358,-0.269921873601425,0.232211349124425,-1.00677436468531,-0.211973711557479,0.1138303055726,1.51796505838815,0.2861591711503,-0.0923717007635026
82.13,-0.601947533094078,-0.268606788591791,1.20632148443747,3.03348383179711,-3.4820205553363,-0.0859318427084979,-1.20960013807615,-0.514925680303566,-0.153688953817825,2.20283949743035,-2.87615160927982,2.86191237270211,-0.746935868605031,0.0458749281092821,0.240419624198907,0.541100956374921,-0.257071085027281,0.195963775368072,-1.02985211564646,-0.200649186692325,0.107878806666411,1.5398291638836,0.278182276010745,-0.0674223605332781
82.135,-0.609488014926761,-0.311372126403001,1.0415043931511,2.948014788296,-3.44791404959712,-0.105957486327385,-1.18587854398381,-0.518516527101356,-0.191298106124377,2.09397077450623,-2.88056802789688,2.83437037548065,-0.753164711342509,0.057698245005329,0.207638332531938,0.460470876889012,-0.253818516002263,0.160559911957668,-1.05557712859996,-0.187097077685665,0.10583711330829,1.58095241067274,0.275806453159806,-0.042197784701907
82.14,-0.588049611544175,-0.372757274977034,0.897058456985055,2.93584685021611,-3.30877739409439,-0.136969382124438,-1.16230084695195,-0.501759268563754,-0.228736232243187,2.00190289755801,-2.88675566868209,2.82863131794212,-0.767887078746851,0.0647205232146103,0.171310754547609,0.315172220475506,-0.254841874587422,0.0958222843402355,-1.07154218250412,-0.176412588456713,0.103809640730679,1.6023821793144,0.285410096720646,-0.0185345982611865
82.145,-0.623081278711447,-0.388311499593017,0.842124246109875,2.92016241852958,-3.09719275178054,-0.1692236583738,-1.13237006134728,-0.49764258946143,-0.269900987187495,1.89556428622522,-2.86330415858538,2.80735548000567,-0.780600901412197,0.0775385807261543,0.13367270239183,0.115503972915414,-0.275028668346544,0.0374550743618915,-1.0796766082095,-0.164257332744636,0.102652886111311,1.62634191189526,0.300792534845381,-1.65661555806928e-05
82.15,-0.697293100455909,-0.390065302413918,0.859522009165227,2.91330882050636,-2.81175959338248,-0.199596046350238,-1.10192573740932,-0.49725412235036,-0.316284384705793,1.80020516596708,-2.81208324197354,2.77211919419881,-0.782327751221778,0.107098688133266,0.0760913027494133,-0.222027326497758,-0.31010199756187,-0.0372025578432164,-1.08769744570382,-0.156709896535438,0.102098480673906,1.63821187055625,0.310432861445388,0.0149987806652543
82.155,-0.813161291346404,-0.409804098873337,0.989465491138309,2.90392380460458,-2.66823057199143,-0.207878154058052,-1.08129837304112,-0.49299277294776,-0.371833842992865,1.73996647730495,-2.77207891865347,2.70856802387808,-0.783244713367826,0.147709442082849,0.0290268479350181,-0.587555655368457,-0.36077568762445,-0.0930695939147481,-1.09320432821909,-0.146825298009594,0.101768210403985,1.65140194650561,0.322347482481898,0.0262922006637143
82.16,-0.979747142596372,-0.465109754158456,1.16333258794082,2.91851235635922,-2.56566703196635,-0.19915066716398,-1.07735331967686,-0.494684410615818,-0.460788081652252,1.68090465546335,-2.70484586524014,2.63833680630411,-0.893144529000896,0.215202622522096,-0.0246389856360205,-1.13646484852249,-0.467340579505537,-0.153739975077789,-1.0726595273874,-0.131155417614601,0.0968294329962601,1.6426737999236,0.325707114622575,0.0497016771976287
82.165,-1.09311779609213,-0.545878822925069,1.25583647851223,2.97670017262575,-2.57312472928546,-0.202264253412801,-1.02364544793107,-0.513737195824393,-0.523518570064928,1.62495130419784,-2.64310426123672,2.57971594039467,-0.666757445941652,0.243654512589212,0.000792083593972899,-1.40712544626701,-0.349434598479841,-0.275292989789948,-1.05731859967073,-0.138133624700381,0.0930734276448717,1.65657364394915,0.331647360653942,0.0798383670926973
82.17,-1.08730330481794,-0.636990359481356,1.22915975823846,2.98298831532564,-2.60359291497536,-0.250592123926637,-1.04460833516541,-0.53030714189943,-0.556579116786596,1.55615286831187,-2.52881001775037,2.50536929785479,-0.638665958519038,0.306347700643622,-0.107539801937704,-1.78500510016112,-0.346591477491366,-0.438150751846272,-1.03057295371854,-0.138840363527281,0.114193580278112,1.76755370885575,0.314687019672087,0.0470070478945027
82.175,-1.02510931200573,-0.777457555249421,1.15307383708458,2.93487777543157,-2.60692296832416,-0.35569049198779,-1.06731808077451,-0.556697294578241,-0.536227422871688,1.56254218968001,-2.45944397778076,2.44981732963923,-0.748583116556606,0.373276901535433,-0.120172355754963,-2.2253520659147,-0.382703378947274,-0.443988905281787,-1.01283902652097,-0.0975736021869536,0.115360976969937,1.692234973501,0.253313869830552,0.058103716472656
82.18,-0.967919920538266,-0.930430052604309,1.09771235444595,2.85701097114431,-2.56957388580191,-0.533612429160943,-1.09923004623072,-0.606720906104392,-0.50508754551921,1.63608416848644,-2.37572468108372,2.3738631286021,-0.70912313494033,0.4646757278019,-0.137431548003653,-2.61465505731306,-0.369824141263962,-0.424628497625868,-1.15246765298646,-0.000672295256736146,0.0527208019934027,1.18891110594123,0.252798018868638,0.314173611925037
82.185,-0.958974711261536,-1.05127054860753,1.07830901954848,2.77724122446474,-2.50306827059046,-0.753080020494137,-1.147897447909,-0.678766681038153,-0.503513352299046,1.74870853145735,-2.32596831821733,2.27892805413369,-0.698238262185648,0.520776480012279,-0.128700240537875,-2.93737541400716,-0.347009910019214,-0.424638988898489,-1.10454152256186,-0.048224471359033,0.0896700895003828,0.695488717518365,0.174919219427816,0.507917975126009
82.19,-0.989799952462401,-1.14726099370077,1.09532415420059,2.70912631033197,-2.42964635589045,-1.06908867594334,-1.19746325050429,-0.787780159470914,-0.539388470157866,1.94292002819078,-2.27883830123465,2.1488210558388,-0.715359310321922,0.561400086674127,-0.119694665809041,-3.24610653986305,-0.299748960630637,-0.448661782099529,-0.931305704263418,-0.115189867297669,0.186046530871537,0.636023360158628,-0.107390827554473,0.46218290873251
82.195,-1.05155074879015,-1.19800568103332,1.14474152943041,2.67212354369747,-2.42377390357827,-1.28498286586201,-1.19134241508884,-0.848933178104977,-0.582371585037795,1.99398988827701,-2.22919639921287,1.98935534831398,-0.73586064108931,0.583137975869218,-0.105942201652153,-3.43461111683329,-0.273864653944987,-0.463925280838419,-0.898348328153286,-0.128564629412644,0.216351325387992,0.782187054223089,-0.282979606222122,0.359305571629041
82.2,-1.11531206373386,-1.22785990403229,1.17578628072147,2.63413975722903,-2.46138242073666,-1.61563613047509,-1.16015321955818,-0.878180914468355,-0.622833018758091,2.53294495183188,-2.17397527148766,1.87275463609545,-0.756912172150185,0.60655360108663,-0.0747035732315402,-3.50874212602516,-0.233081946826023,-0.458611674059486,-0.939762305118724,-0.106904210160357,0.213944776967361,0.868947853890582,-0.216751317125604,0.337292168381633
82.205,-1.15128784721899,-1.24884329981182,1.17351688908039,2.60041847126248,-2.51970583069138,-1.89709792101232,-1.11850081278702,-0.887823690567472,-0.64732173607572,2.92388908145202,-2.10277612962188,1.70865667206222,-0.793543351750481,0.619207558824685,-0.0243798319433803,-3.38134339710027,-0.154353225641406,-0.419551018360618,-0.986020431578853,-0.108259584182652,0.211358500420829,0.889208641330169,-0.0403096197692415,0.358268294071339
82.21,-1.15803796706477,-1.29022603075399,1.10484391096779,2.54691051048828,-2.56449634074544,-2.26682634005802,-1.09059465057521,-0.871445843573667,-0.657582741433558,3.25613358765532,-2.03490744395456,1.57434182502431,-0.800057380972621,0.631181674932866,0.00767634489434746,-3.13726742569688,-0.0624400351272114,-0.366371287377564,-0.983514209630328,-0.101952043536782,0.220864897520994,0.899967002281014,0.13694839525969,0.375355378444113
82.215,-1.15532788135807,-1.30664558914337,1.00595339464862,2.48157975146124,-2.62141307797006,-2.61064786670843,-1.04968317013622,-0.827823576514461,-0.643112880361411,3.69047217953359,-1.93452405616773,1.41327014695067,-0.820036084517809,0.65887432227463,0.017269236944488,-2.82339230971806,0.0165242673303685,-0.410064776047954,-0.985308360648395,-0.0895162546025703,0.215653566327289,0.861295476672706,0.153606962261603,0.428182507833935
82.22,-1.16472936050022,-1.29706005420425,0.886090355773429,2.40225172227073,-2.63222991263944,-2.98267317948513,-1.03122142032921,-0.789147250763203,-0.629164325237942,3.99201781589965,-1.83471629211539,1.31338757933931,-0.847446544686037,0.672865641720842,0.0309176049456416,-2.57483399777232,0.0542321586050455,-0.525391835497327,-0.977623597324694,-0.0884625048985227,0.19952646776583,0.768767429342939,0.0107519726433821,0.504299588660411
82.225,-1.19299346202766,-1.24891223216336,0.814046774566931,2.28553314472034,-2.62029486326571,-3.32860794407726,-1.00373461812225,-0.738622819796144,-0.617827400348433,4.31192905667884,-1.71226248638943,1.20985501930117,-0.886508249813501,0.677300071900632,0.0444695803115659,-2.26268343131647,0.089473151795527,-0.65396106763508,-0.96803098035922,-0.0897919985075602,0.195445558087794,0.707237479466832,-0.191814433012481,0.528302659518628
82.23,-1.21126604876394,-1.18691571678022,0.717206771882003,2.11013500988165,-2.61757397310559,-3.67104039793034,-0.964311228428738,-0.696736078206807,-0.621510652397169,4.52534225048757,-1.59783438042963,1.11854355540549,-0.93188236662368,0.663544352458001,0.0333844138598836,-1.94357562461315,0.126570950365541,-0.701636215801439,-0.948158095712682,-0.100329444617756,0.200938489826563,0.696440927847266,-0.438224465166823,0.493297295908846
82.235,-1.19724488813514,-1.13015957531872,0.554630357527779,1.97784869634931,-2.5426616000199,-3.94546904317753,-0.919378593654376,-0.646170766077925,-0.613677142492485,4.61431704156354,-1.47947230168723,1.02761561578988,-0.956183862334336,0.632344403289177,0.00525108150130394,-1.70398249445058,0.141943325092085,-0.700050954909758,-0.941291712328038,-0.0994854472510028,0.201944552238432,0.741184467593201,-0.543982726674502,0.448623169208022
82.24,-1.14599803793451,-0.976716570673712,0.394949749069659,1.86890575626302,-2.36869042987567,-4.18784408632586,-0.874630818252128,-0.605069782282546,-0.590728187807275,4.59485346107719,-1.30982238449429,0.90014324152828,-0.958390411101224,0.574531342319571,-0.0493765423729911,-1.58345151212128,0.120664349646869,-0.741197987452751,-0.954909778429602,-0.076087391534068,0.195546693859872,0.825310459880373,-0.613412216318783,0.412995063646488
82.245,-1.08589688056082,-0.757395469697249,0.215975797659429,1.6886965914376,-2.11469538105978,-4.29354255179529,-0.856218335835663,-0.586604113249739,-0.561311794204089,4.46969087475968,-1.15933438019868,0.786533980016785,-0.94945071322521,0.52094695447105,-0.0993798457011897,-1.59576457693704,0.0739270720231117,-0.84589974525218,-0.953579399631958,-0.0510138262575243,0.18903070469773,0.861118111585965,-0.592944352831941,0.420427575309086
82.25,-1.0296345923597,-0.597326995776142,0.0836239202231517,1.46267004018964,-1.78631834927334,-4.29363642528093,-0.851334135212882,-0.578505292277851,-0.499661801892013,4.18596265604951,-0.95088910794613,0.660984517453327,-0.925827604562605,0.474127682091613,-0.167994486803326,-1.63222999754523,0.0444992281707053,-0.941790535783861,-0.945306379585561,-0.0290357303792625,0.166114165304389,0.881249907998486,-0.541268971134317,0.436364312257338
82.255,-0.897316805382592,-0.395293072435166,-0.0803369325733771,1.19134408745929,-1.38579235401887,-4.1965318988086,-0.855558488658604,-0.563334148122037,-0.444716264315606,3.87489046105094,-0.827223123286643,0.519804919015922,-0.918888582826433,0.454896986606732,-0.200943792134826,-1.68448871152262,0.0329464168010639,-1.01621840443923,-0.936476965414455,-0.00178665811307191,0.15613576460673,0.906045396085208,-0.520749524227877,0.442510569102869
82.26,-0.758821109852463,-0.250988767267092,-0.166546287823635,0.867580551153505,-0.921708251794568,-4.00090924310963,-0.854990495967971,-0.539497126930447,-0.379562186910605,3.48434610021598,-0.684184792480491,0.389591029072097,-0.905067219113521,0.44653054142973,-0.256023267498144,-1.78747075753637,-0.007672073158392,-1.04014273031695,-0.929122921367947,0.0149994393161272,0.141532996160059,0.918426770351855,-0.524792124230556,0.458127990378603
82.265,-0.640688109620038,-0.0872369530414837,-0.217990996293921,0.435263598355619,-0.315920393220863,-3.6544476655564,-0.844379856446207,-0.507473619884747,-0.29618851923351,2.97680997174187,-0.538239632443475,0.217956547021707,-0.892634011853289,0.437148210990423,-0.279578794759698,-1.84042850368979,-0.0420048137252227,-1.01037705631716,-0.919272123821622,0.0348594890984845,0.129230587163965,0.941406009312189,-0.544135747551461,0.479958255104886
82.27,-0.651466151326732,0.172307112849523,-0.193221752681359,0.0300176058220154,0.285093419323305,-3.30184539937839,-0.821006355164879,-0.461698244859199,-0.217626894916704,2.45793384007325,-0.417287143684341,0.0458836199649669,-0.851544633824992,0.375808937960959,-0.297610856350576,-1.80839858611028,-0.0789612012775362,-0.895752856452003,-0.91637917986243,0.0475616526522813,0.12271824174383,0.966637330490233,-0.564373587913395,0.503264991718919
82.275,-0.868981705829524,1.05888088411821,0.606647722543751,-0.680879742413496,0.673510349599395,-2.97514924646417,-0.77367205952654,-0.404288920317187,-0.175761037380172,1.92662720616948,-0.323319900898158,-0.146566284942967,-0.844634518027612,0.304109141662666,-0.280723180199831,-1.67928156799935,-0.132969826412751,-0.778050222441438,-0.905675138688072,0.0654052816709102,0.112865554481735,1.0057450934417,-0.600161766896405,0.530724881147885
82.28,-1.36458101769073,2.49806317332864,2.66451443192582,-3.8694896386312,0.226392711905937,-2.25841105437013,-0.76206277571827,-0.273820721320616,-0.135921082891577,1.39112211055527,-0.25937815729057,-0.356239498279154,-0.801894607414512,0.175248626444397,-0.254702839975229,-1.56229990998944,-0.213413563448516,-0.734205656206278,-0.903409083863785,0.0862590044662873,0.107202330338171,1.010250086459,-0.602614627329035,0.582545899522441
82.285,-1.34181242414513,2.62158499744352,3.38324546835569,-7.94837254804677,-0.864412811136964,-1.1774238226182,-0.803612397465286,-0.0727026385200799,-0.0028811639087415,0.819267782356161,-0.249915272275746,-0.493414618000544,-0.780831784638652,0.0524685962831135,-0.221502237712617,-1.46879552986135,-0.300187557935715,-0.732531647559043,-0.899347298422788,0.0924950707857356,0.101784742491896,1.00170235686642,-0.573918761609146,0.646573136280038
82.29,-0.961359918907969,0.733600956658863,1.78711458174642,-7.49420640875708,-1.74210066810247,0.0302191974680258,-0.974283232261499,0.553348274825111,0.211033464007486,-0.0828388928922656,-0.206963060502803,-0.648924528131295,-0.804435647721077,-0.0166793956492464,-0.122802003140126,-1.37817101514945,-0.331498152527189,-0.618729812287537,-0.889819990823863,0.0883466208488305,0.105952931934785,0.966148779506921,-0.493474713950736,0.734503341436629
82.295,-0.876214156896501,0.161274670816363,1.24157485507168,-3.00639467614392,-2.12355213261716,0.201470810160102,-1.18584194590888,1.88348396055559,0.698261666771015,-0.896307641283574,0.0381884308764433,-0.802183626758417,-0.782818188776517,-0.0808070396350686,-0.00776692395970887,-1.19665824486052,-0.419594418614681,-0.385179152619672,-0.879598546679181,0.0750015777755027,0.114902706652515,0.922004805427288,-0.389780375726683,0.819039247712552
82.3,0.125355438132273,1.06574134569354,1.23521895546904,-2.54526253593494,-1.95778164314055,-1.43583091307268,-1.52435383803926,2.891802110336,0.976263575959534,-1.17135393012086,0.241611269366845,-0.653644482617254,-0.87770650335561,-0.08745835856954,0.0715845665731974,-1.11888130960614,-0.374617758433077,-0.268166703065942,-0.874316061418975,0.0601622354845965,0.118378737977144,0.878470217577461,-0.303253922732762,0.898260380951473
82.305,0.119160390023888,0.950960817902794,1.35257440133988,-3.9424310909629,-1.20036516581665,-2.06751791223586,-1.93129964895428,2.52081684041991,0.673003683535311,-1.97079585576251,0.106177908326396,-0.156987643836633,-1.18858668462967,0.0233794947058707,0.183235498030666,-1.03832221860214,-0.17081852647978,-0.153229297534193,-0.88514917216678,0.0440569643503377,0.148522994525333,0.792438465175057,-0.194056795162936,0.96204189144091
82.31,-0.637913801818874,-0.171215421961493,1.50240985038849,-2.74243702028559,-0.672709689661925,-0.426800561699944,-2.26281581260371,0.458493596424814,0.0400845850501576,-3.38942250123401,-0.037764485648053,0.437485826968396,-1.54712145546771,0.275471524570674,0.24759872978564,-0.900584435301061,0.118864804411976,-0.129475034541166,-0.91561122488306,0.0265832928870205,0.17650376210068,0.749080724786568,-0.136410238484283,1.01046080765282
82.315,-0.726493892448685,-0.096136361253678,1.06172437858245,-1.77512253989882,-0.390266816013655,0.27275884569124,-2.39042104708127,-0.996749672884619,-0.374540360459965,-4.05065116084572,0.139731385415282,0.51253777206138,-2.00128203975592,0.617349775531917,0.376855237092036,-0.667095032836747,0.578844500148158,-0.230289845445038,-0.991819761571842,0.021011139334977,0.186799375138755,0.722203343672199,-0.109351017115171,1.05340851442365
82.32,-0.577615260890633,-0.0504868689705883,1.01070854746198,-2.58022699437861,0.127868321167521,0.651656021518468,-2.44683391004521,-1.84988272642399,-0.438261805565518,-4.22670784914674,0.676828340405533,0.0159699644369133,-2.00501606620123,0.913905118221857,0.703073267532022,-0.521865380009226,0.983022226834943,-0.272223803142868,-1.08387706878331,0.0220897870062577,0.160589723655188,0.747133560635111,-0.151999589812669,1.06566128234409
82.325,-0.616545090623719,-0.869633293551817,1.25089922476031,-2.44628000257979,0.0745844688329984,0.643514832884202,-2.43709710544023,-1.50717252134514,-0.195222514986642,-4.06119295165157,1.1307522837379,-0.88379364150114,-2.01186918962993,1.06538773411263,1.19132894728712,-0.508973944130055,1.02998813431241,-0.155748530167221,-1.19139293297222,0.0253682663740171,0.105289010030757,0.781165576072404,-0.220401343892035,1.07293752484133
82.33,-0.478846641152804,-0.682011469659889,1.17820289468676,-1.6938039251179,-0.17594281808353,0.259994147042722,-1.94230743488474,-0.537558462403359,0.129928471964463,-3.47546185726322,1.1206995720411,-1.67717998490865,-2.02016222068665,1.07125314695632,1.73227846982545,-0.366801365483271,0.697820304723593,-0.0680183344491851,-1.31490821352241,0.0153254178612479,-0.000987617903557116,0.760532089161746,-0.385144795048377,1.0923641158804
82.335,-0.31272108669136,0.0709550363121905,0.921485589057913,-1.43677695732206,-0.285521408072176,0.0386199554878203,-1.22650438228951,0.0635365466108253,0.0973518234084947,-3.10399039360685,0.895196054457475,-1.75688421807638,-2.02023344065585,0.964073250940084,1.94987504326785,0.518823827820977,0.244413935720176,-0.120684032136637,-1.38411202633241,-0.0211537828013734,-0.0973305573472698,0.667084504131566,-0.596525318364488,1.10849181355243
82.34,-0.485805842809299,0.349197318301662,0.821880290535264,-1.24007717682571,-0.26380300735534,0.162853513051888,-0.610658669369905,0.149553373972724,-0.142905836888128,-2.66444145153572,0.678510824191529,-1.23027204132316,-1.8820518121222,0.6712312432584,1.57514382911264,1.90386244816706,-0.289948204372953,-0.299244226640674,-1.40184296928667,-0.105617354133127,-0.184295882261479,0.52596373681761,-0.872962525073475,1.08485580200504
82.345,-0.668640943125591,0.384503506558723,0.783818958785087,-0.963357532064501,-0.263823638774638,0.282238382624238,-0.103806041691127,-0.0375188299957376,-0.306135768876266,-1.85516857774707,0.600723740489245,-0.72278895591415,-1.5028131942129,0.425145234294344,1.01597112371692,2.24788596456821,-0.519985704182563,-0.226297177061421,-1.35252295211636,-0.174132764242073,-0.227611227906103,0.388303680510619,-1.08184506950165,1.04296650709687
82.35,-0.730302578269871,0.197593891781498,0.795722558865622,-0.917337656111288,-0.297862720317236,0.218057083271034,0.0413933237789849,-0.340589530523038,-0.431101434358084,-0.66561659553945,0.585445705220325,-0.351700505878189,-1.08942733428033,0.221121365562964,0.34297910611909,1.92814330226287,-0.521163855378655,-0.0130097433081273,-1.28355037366095,-0.233748715206888,-0.242936708574634,0.26433957070332,-1.21092053891982,0.979713914610899
82.355,-0.597826371446647,0.0931563759302442,0.793351088493504,-0.854940287802129,-0.390826502138511,-0.0180074450401054,-0.0633800360305152,-0.333861116214747,-0.461795953028514,0.594688477129811,0.749269002902257,-0.381838022521436,-0.740558168665048,-0.00632381452006655,-0.205937366333531,1.42292068131942,-0.285811155605688,0.125181479448724,-1.21440476639081,-0.269552631254583,-0.227111741409199,0.209230277953704,-1.19907991389401,0.896765883569769
82.36,-0.51427463810163,0.136590261971406,0.803997145839107,-0.601078070798143,-0.463924019987903,-0.104681542621621,-0.320867669513346,-0.126145409073632,-0.387812390172042,1.35922213669342,0.87967673483903,-0.480893402402294,-0.424246692964876,-0.502177883661973,-0.704983076671074,1.13195522032591,0.160004328653851,0.253913830837446,-1.14834998118089,-0.291778794085374,-0.195924794198549,0.21182661227485,-1.09959621435993,0.804068514308261
82.365,-0.418646507504844,0.233354888657902,0.782535054504694,-0.229178058660936,-0.511527405559955,-0.0992585544313328,-0.737344466321386,0.190040765287506,-0.233917930847162,1.49871631613894,0.873487507784821,-0.460305952476769,-0.216154656069578,-0.943033116042566,-1.03315426317553,1.28848174208418,0.487254036317765,0.310959975941689,-1.12073079093279,-0.295115291573769,-0.127362955187734,0.27463290731541,-0.886487245293498,0.568164600008765
82.37,-0.495306839004889,0.330458966686657,0.886736604774467,-0.250688183978247,-0.500142140327043,-0.12418614535836,-1.00002268886617,0.398457271041848,-0.19680490417637,1.52024624028529,0.77339824042086,-0.37679907495643,-0.110241643988903,-1.23980826656694,-1.27026389764872,1.70490143730043,0.716267241701543,0.465044098968842,-1.12122834251981,-0.28357012003481,-0.089719354612621,0.466115123519274,-0.668700488333635,0.408449379483811
82.375,-0.473344197126359,0.298915283528506,0.845629863719529,-0.302213000524343,-0.480649862705103,-0.190330293104903,-1.13021472904545,0.43416632067431,-0.230083929486125,1.46200085310745,0.649521371003428,-0.329243466721033,-0.0768928359721183,-1.18714019162521,-1.35972691059714,1.75692435707164,0.729924098288153,0.657287608762324,-1.21195028174526,-0.254328213383512,-0.0779348087429843,0.749289617987099,-0.429457655293036,0.371834595258457
82.38,-0.470724322968963,0.228767394733137,0.84769177228818,-0.333380397819242,-0.475087384503273,-0.209519688033267,-1.21879749810998,0.425583175401528,-0.264166797676126,1.09678013606403,0.565601355035236,-0.355600431275097,-0.0874689233327171,-0.86615509378306,-1.36239638177837,1.35889407039406,0.600126510204785,0.712992902917497,-1.27291545712236,-0.229657400037532,-0.0845402545266422,0.660774651615163,-0.299506778530699,0.256040572427308
82.385,-0.460977646488483,0.211048074369518,0.844220085669789,-0.302995665107684,-0.492607869974586,-0.231796149107008,-1.25737107579535,0.348882858435256,-0.290373652903504,0.664937852492784,0.546196907287454,-0.401448008051592,-0.178007868172703,-0.203182942597415,-1.26667807242611,0.272471869532897,0.375493611194794,0.593629892694383,-1.26275785007635,-0.226938039384375,-0.0899166319523733,0.536976771779673,-0.354016617481205,0.0518138626562251
82.39,-0.459366349811299,0.20047561619121,0.876650675329526,-0.265187672729008,-0.504847185761078,-0.229251967408126,-1.27401434886942,0.276460669799753,-0.252803871248933,0.119264475807594,0.451676993991569,-0.423456503002502,-0.312411623716197,0.232895795702752,-1.06926725921986,-0.716024585047933,0.20642660850533,0.527097129541164,-1.28055789236113,-0.206359905077065,-0.0942280612205395,0.545167922973633,-0.384286318561605,-0.0389677658786528
82.395,-0.436795747652864,0.149991203684583,0.910719045596729,-0.329771402848426,-0.485393635655068,-0.230243089565944,-1.20589470254284,0.166181098305711,-0.251548895804657,-0.276309487162373,0.428189068456817,-0.516133983582888,-0.509971847418529,0.418397586349388,-0.806025393272379,-1.59173014338037,0.0658991878090021,0.384155433814105,-1.30017544562852,-0.175607001389691,-0.102020864439135,0.594976032803333,-0.430266850737555,-0.113958618050196
82.4,-0.396912199589879,0.0921007861305742,0.886816007962247,-0.369700952019587,-0.410110003780635,-0.224431986946665,-1.1564808760934,0.015592154688865,-0.268987323375722,-0.445541142580734,0.405379798515189,-0.466088038003583,-0.747274016068766,0.285193967598292,-0.534688866802638,-2.25682893546289,-0.027364471529183,0.0533786169364891,-1.28153983013081,-0.141537614249344,-0.10967285979375,0.624411273613174,-0.466278765369948,-0.158705222356954
82.405,-0.402876236494614,0.0615422189915498,0.908736295815104,-0.387467986471729,-0.339978000576528,-0.189983054434916,-1.09462151226851,-0.132863930693492,-0.294972073043972,-0.652990509505258,0.348616097503317,-0.296378970030169,-0.931436071621363,0.0238314603757531,-0.367071225193385,-2.51667764699334,-0.0255718699918469,-0.365520992566733,-1.24714564800059,-0.103515285302583,-0.111375130271427,0.597189439988694,-0.466828601176119,-0.202934213833717
82.41,-0.407590703074416,0.053676018932115,0.905779631482215,-0.330705297566586,-0.268919482439487,-0.160787674711804,-1.07072364437579,-0.175389426018407,-0.319392093915763,-0.682299202932335,0.347492992096949,-0.202024717314757,-1.1360289682371,-0.262573554234482,-0.147740679281145,-2.69772583293131,0.0212952572355678,-0.911664767553609,-1.17315990340401,-0.060772401383922,-0.105723406268161,0.569300803645367,-0.431875752517026,-0.259612588569479
82.415,-0.416408547249132,0.142947994832202,0.886761201738927,-0.318388326344719,-0.218879315086362,-0.13759721502479,-1.05216015623261,-0.176016033419455,-0.318920153791321,-0.536302005211731,0.353954363861374,-0.140042097704268,-1.314996700031,-0.422061662402164,0.0735723981264812,-2.91388209599615,0.0480322238443311,-1.24648830059766,-1.08375313549524,-0.0361456058718013,-0.0814252918637339,0.640585130344214,-0.421695718214445,-0.298425604744056
82.42,-0.440419123652366,0.20104841490816,0.866472707261553,-0.264609768558622,-0.200809839389271,-0.111614194410698,-1.04509372933907,-0.137058606196549,-0.297659756870764,-0.323767421690069,0.313815785629983,-0.101995556573057,-1.50468354198733,-0.504131715462812,0.320770776810867,-3.16580006041616,0.111641359298372,-1.39883571066217,-0.980477340699647,-0.0145686597975411,-0.0486948440328464,0.775633342006953,-0.428682010676548,-0.322654412556733
82.425,-0.412944339999574,0.18562531188439,0.887349180211072,-0.228236647104465,-0.162738239493807,-0.0916220056867689,-1.03987404305186,-0.0847958908214299,-0.266994703083537,0.026002463418059,0.23171589737475,-0.0582138282478179,-1.6768878724915,-0.475908641314586,0.558823866432628,-3.48745921218796,0.0817007138532295,-1.27866180097943,-0.862163506147714,-0.00529003890540785,-0.0141758761578145,0.926441885718938,-0.382901657283879,-0.327798764791779
82.43,-0.41499738699785,0.170919983215645,0.866090928234873,-0.117758755392391,-0.136281905944037,-0.0742757645590156,-1.05295498421953,-0.0119186097190394,-0.239218331982225,0.37774148467104,0.140037557606972,-0.011375584095585,-1.63267180017503,-0.391291946346588,0.747553517513814,-3.53813834852456,0.0979010049800747,-1.19266423296903,-0.800483802644841,-0.0244476111795588,0.0106129102762711,1.0934670014124,-0.281963208613248,-0.335414628899553
82.435,-0.392590559474498,0.196478649022188,0.890197064818626,-0.0458616995684418,-0.0874730388562501,-0.0653598505911798,-1.06711233102195,0.0572849812696568,-0.214745766385264,0.651250240811401,0.0529783907936873,0.0347347798466658,-1.63546777125157,-0.328667392108736,0.802526168725353,-3.18249573748037,0.149638181366056,-0.941856121588746,-0.722545744561118,-0.0151443934765829,0.0479938341084091,1.27150540402639,-0.130352585301271,-0.257590953869553
82.44,-0.428851993778959,0.19909983514943,0.898867310784357,0.0394859577215977,-0.0567834872778167,-0.0456595873031448,-1.09409038378577,0.131763137500266,-0.22564498237944,0.832550548359225,-0.127605057300842,0.0548084474742139,-1.53820896678949,-0.291806900224601,0.756256028469984,-2.79510578211728,0.137741141269691,-0.553370184887964,-0.74015320860641,0.0600075038207452,0.0279908957895786,1.20856517649389,0.0829038603972657,-0.0686391625830447
82.445,-0.403588354877285,0.220269749677569,0.879388593706863,0.109681504160295,-0.0181759816008965,-0.0440432320608811,-1.08702678896572,0.201152511337178,-0.247739856327728,0.857745141989324,-0.247098869423321,0.0485178849158365,-1.39119842347053,-0.278167494480154,0.6573098783532,-2.38234195980507,0.0370458417537233,-0.126717256084757,-0.753990819851372,0.0433587267890426,0.0281435119948009,1.20714699434175,0.343184087940683,0.0442950335430465
82.45,-0.41434652411789,0.191394972766492,0.860481148180737,0.144053037108307,0.0112051172823367,-0.0290364019611149,-1.0711728278624,0.242483295349143,-0.263491166864193,0.802567987143774,-0.309765533316911,0.0348114708831595,-1.26438671051547,-0.255270424350166,0.506898827080143,-1.93679621381576,-0.0736404528476497,0.154474163231813,-0.70964352153615,0.0480375503927514,0.076954222892988,1.36754390946438,0.520671981374475,0.0869803585967736
82.455,-0.435557916413452,0.21991932320112,0.868181500850293,0.207462805022112,0.0287510554088273,-0.0261021510999658,-1.05373256222929,0.25406203525798,-0.253257447093631,0.684029065886087,-0.343525544904238,0.0185407228065949,-1.12631472961316,-0.153997743343609,0.367123696032388,-1.50026514608719,-0.178103350787264,0.242684730697118,-0.740971343649139,0.0579984475894465,0.125282336116506,1.47167510259654,0.522581403992937,0.115525630397001
82.46,-0.428152496165496,0.238766261845763,0.862543411004858,0.206610901958958,0.032282151874296,-0.0379746871130146,-1.03128163712665,0.240009747007852,-0.231939822484935,0.599383518653329,-0.344000058877531,0.020597880610493,-0.991906608996256,-0.0446688124047576,0.27821858120962,-1.16183119994602,-0.214460670157764,0.180374664437892,-0.795088777916449,0.0762528573154588,0.0559036372011457,1.54780617427241,0.461344369749774,0.135824605195063
82.465,-0.439630824409071,0.250286210400287,0.872660840873581,0.19497090824566,0.032879162146899,-0.0411199915196704,-0.987779815261795,0.198386326704279,-0.223017199317034,0.520888275874942,-0.343312453229478,0.0191671624779701,-0.907285251929157,0.0185303034709303,0.25807092306818,-1.08614551405047,-0.172506838843724,0.026567033137327,-0.877657419370687,0.111643823355828,0.0270667432677956,1.54041397616349,0.381576081857564,0.184062351734449
82.47,-0.424972475509688,0.252215850025761,0.857108398209161,0.170524385695231,0.036397181047179,-0.0587032283666231,-0.947547169574422,0.159133349534216,-0.222567657821355,0.494292376378225,-0.309661627174103,0.0169675869861631,-0.879649184446679,0.0291440652673745,0.274709665080239,-1.06827229165405,-0.0480208146299698,-0.166121099660147,-0.986404056161466,0.132470555925651,-0.0159999224374046,1.47167474722637,0.32353696011278,0.239872277913537
82.475,-0.424235630638828,0.25747829007122,0.864074030802367,0.128321210877038,0.0177484175002843,-0.0570100034065179,-0.928438369405423,0.138858370827503,-0.215029095029166,0.512182115360218,-0.270819127559662,0.0297410957548075,-0.894691581298674,-0.0182926320266705,0.291237016554938,-1.10734546876303,0.0882780936117129,-0.338901940632656,-1.10865456543531,0.127554590262883,-0.0328004383175511,1.42551860497089,0.293608879293724,0.255850655429659
82.48,-0.433163692598124,0.255945536193761,0.858114402789641,0.100512197189382,0.0361502273001865,-0.0777563961279799,-0.931248903263555,0.146721358408013,-0.194501003977965,0.571457003399911,-0.270819127559662,0.0236435330409089,-0.882581207472417,-0.0478793430440757,0.308757293824281,-1.17261252812292,0.146324124755114,-0.339857610508365,-1.18227402288049,0.115071269575821,-0.0261258334165677,0.690413310039196,0.192436733389492,0.233773729762153
82.485,-0.426881075986007,0.271706957836901,0.857069715102572,0.0695531085826921,0.0340722627609708,-0.0980977834546174,-0.94397368125019,0.177939189722268,-0.175158158419347,0.627662160340367,-0.274906697129659,0.00650025468422089,-0.844615795319139,-0.0258427542120578,0.328038682670821,-1.21036357259588,0.190218247899143,-0.329696341669313,-1.22412761689596,0.100119745695649,-0.00875467037827611,0.901237705252514,0.0700693309587219,0.196363135649129
82.49,-0.437398129322198,0.279553362828447,0.860240120594894,0.0555879345580593,0.0376326514992018,-0.113774346667927,-0.962589936782077,0.229617308440223,-0.166597235789412,0.693545990574513,-0.291736822403051,-0.00973627264624487,-0.82058826179098,0.0189787324424722,0.324373441864742,-1.24346613656357,0.203944014076014,-0.398705820479952,-1.20277251421323,0.0859985501560558,0.0112111626643008,1.34842634844792,-0.107916612595231,0.154853701188321
82.495,-0.42517815203049,0.262303614796247,0.850612619727012,0.0466089585584102,0.0432203556820569,-0.131011396809105,-0.980115549924253,0.242788598714977,-0.174721167294041,0.741685884403117,-0.323412486516897,-0.0141936561275618,-0.832861052123241,0.0302013624836651,0.294378087201312,-1.28786851549675,0.2097791601653,-0.493261572298845,-1.28879716253532,0.0703047451919861,0.0214842880551747,1.29474184820291,-0.193750360066131,0.125036285473683
82.5,-0.421421293145209,0.252669776151726,0.857848923532234,0.0652361399511494,0.0437802371940348,-0.127893075346947,-0.995948778054725,0.243887383015846,-0.184263364594919,0.727881650266397,-0.320176092508625,0.00524018963969107,-0.89439585968542,0.00222738672946004,0.254899920140084,-1.34746493514926,0.213202538336817,-0.494927559367173,-1.33439035831535,0.0423482998613866,0.0189984731106289,1.23888728975176,-0.215379741002291,0.0842041208200868
82.505,-0.427590192240658,0.245059283379582,0.86047351383947,0.0914587099493658,0.0414496255508352,-0.126304600893586,-1.01248440901826,0.235249654654937,-0.188710771527998,0.731320029470165,-0.327794917029611,-0.000686532124546954,-0.940121115060994,-0.0285605029222271,0.234586103105044,-1.39539416705037,0.195210308052,-0.446759712664385,-1.35250119690173,0.0091679664862711,0.0221737318598864,1.25750589990917,-0.13922111753858,0.0488196266219415
82.51,-0.424718185383954,0.252692695584581,0.858773853278003,0.137706235258635,0.0471305672861839,-0.125449687242508,-1.02102199375244,0.229031214321237,-0.170063215740944,0.744122695693336,-0.341545763676392,-0.0195493794734641,-0.971875572495119,-0.0441015225148967,0.232546298105228,-1.40263177961649,0.180735093339423,-0.433126063916401,-1.34367969564366,-0.0326235120596351,0.0299334361562738,1.3526183974171,-0.0441076123014779,0.00031579071712989
82.515,-0.421407658782189,0.254954332028764,0.862102392513302,0.178315820464211,0.0485721613651574,-0.114828243836013,-1.02280485883438,0.219154904895048,-0.148886185056531,0.745822296002389,-0.361310870887453,-0.0462983793962518,-1.01145389464781,-0.0171143180234243,0.253638621223913,-1.2919927776817,0.145476988103191,-0.462342226471183,-1.31540647405479,-0.0584419988588916,0.0215811660811512,1.44583942211471,-0.0185992692535661,-0.0346256137520925
82.52,-0.409982469328613,0.25826787755014,0.854158803771678,0.206316900629734,0.0598738241012671,-0.114513598500375,-1.01061268835032,0.209731933028078,-0.159305962042847,0.747435790787808,-0.383203708294751,-0.0660912979517981,-1.04648846472599,0.00955126577378568,0.271395716334962,-1.14336171688844,0.100095055978652,-0.461727954021781,-1.27907851348095,-0.0777754288392098,0.0102770803695111,1.52712168457105,-0.0472813807036289,-0.0758252350263504
82.525,-0.417536493628147,0.249086978972355,0.85999430749745,0.221779230696374,0.0645821908811158,-0.111594031683958,-1.00699689779618,0.1984187097662,-0.170505510230606,0.730580221759044,-0.399088227783383,-0.0834463551985636,-1.07924338071898,0.0213286091875821,0.289030771724844,-0.984141348299769,0.0438850624508208,-0.413192557401512,-1.22615394279841,-0.0885221000768868,-0.00948575188468001,1.61074937837144,-0.113690298344799,-0.115195204569929
82.53,-0.418913638851173,0.237639143609551,0.861668251442468,0.245527255643632,0.0684241286599657,-0.107663385064,-1.00109348206434,0.203621809583183,-0.175312991158438,0.69250050701389,-0.40959679624367,-0.0939549303539742,-1.0847071689834,0.0170379734191318,0.302475101658147,-0.903502655279105,0.00376176358178464,-0.360268791911461,-1.17987150655724,-0.0875702779522392,-0.0306819283709107,1.67669602765324,-0.172162979621685,-0.139336946425201
82.535,-0.431660305741881,0.229425131955602,0.860233706508612,0.256874713629098,0.0713153285557703,-0.109950292698082,-0.993442856872998,0.216379321175635,-0.167437512124323,0.641394531636385,-0.428287362787891,-0.0920328232411228,-1.08541170320553,0.00788459260092088,0.301101698069954,-0.938257817194396,-0.00403181170307558,-0.341299802064896,-1.13448643155079,-0.0808401405681205,-0.0431924045235611,1.70393430224277,-0.232802016959013,-0.157064230155876
82.54,-0.425838677506771,0.218310204228531,0.862643898722422,0.26598768664117,0.0772277074571609,-0.121775691352519,-0.960278988901768,0.243340294121528,-0.139541692331673,0.57826848153548,-0.453668922322546,-0.0803804234715647,-1.07449566129317,0.0253789410845461,0.283694145177349,-0.976559542666135,0.0132421111497708,-0.347538286591741,-1.07832380705311,-0.0635526998090553,-0.0562386495067943,1.71914471400191,-0.29276459367965,-0.178569162646405
82.545,-0.420690817428263,0.203687782027253,0.868276392279657,0.26242036254129,0.0743298195322408,-0.130178568398089,-0.957060602670568,0.161635790637809,-0.190367334623986,0.51176323698973,-0.374033972928963,-0.0551467583958192,-1.06959544651377,0.0449776878629476,0.253398799592468,-0.985638996817536,0.0404823781962354,-0.354315168404631,-1.03642199751078,-0.0466012005803027,-0.0622036460068902,1.7126561837563,-0.333183855195632,-0.197942105525969
82.55,-0.412799835372611,0.20919493294964,0.861292440883903,0.257835899513814,0.0948611933494952,-0.141502365623462,-0.975971784846273,0.112138668806982,-0.116814169308552,0.380293433689563,-0.415714106212343,0.0371294110216708,-1.07581491635856,0.0426879095079762,0.226181559578649,-0.956171472205311,0.0976492415167682,-0.346786681522793,-0.981537549513422,-0.0101984641175993,-0.0662549285809571,1.68235627321012,-0.337110820661921,-0.214285550547047
82.555,-0.409441536074494,0.213796413469225,0.863324232038253,0.248559667843264,0.0870865654863147,-0.146101800196275,-1.00334827596096,0.11212564586154,-0.160192362875053,0.407455130462872,-0.428223149542898,0.035294579937809,-1.03229186997451,0.0414779421648197,0.170444522210152,-0.900417904664824,0.15688888541696,-0.311359555810029,-0.949812227658096,0.0169594686224009,-0.0611867337582243,1.66634096221007,-0.302068808274925,-0.235291631580334
82.56,-0.391468314360427,0.229031865371707,0.862160004619395,0.233888249293748,0.085458810569216,-0.155784372116902,-0.996067912782084,0.0940763214561901,-0.134484821299184,0.437081770033179,-0.385932021285747,-0.00959108967229034,-1.01308930926289,0.0490069724143316,0.105483143829713,-0.885448420484625,0.213302217590657,-0.29258043252531,-0.917956193280009,0.0478109355407756,-0.0498733577734258,1.6560866048509,-0.206514577582971,-0.254723381059782
82.565,-0.377614120883558,0.238151126803139,0.863144656789475,0.211742035211019,0.0603271540928279,-0.160076725168676,-1.00564682512595,0.0746467489728045,-0.0984598260418803,0.452008017842574,-0.352301093360659,-0.0361959355550885,-0.996697969977595,0.0689723021404958,0.0414955660408443,-0.944890527936467,0.233624256753729,-0.301364728395452,-0.897552448135734,0.0804268159181731,-0.0331226082128761,1.65134186346071,-0.0785170224149721,-0.24828114356635
82.57,-0.389888062330657,0.232737683320228,0.86414714999361,0.199333678074606,0.0660125987142251,-0.155301046297237,-0.993170306183847,0.0765325015352735,-0.0879062961314483,0.499570319240525,-0.376266585535421,-0.0240729222451554,-1.01295709496951,0.0786716724219309,-0.00755028250023509,-1.02557720953054,0.258882602660442,-0.318415845746662,-0.888130127319009,0.112559748264868,-0.00970540510163594,1.65062954514564,0.0292137834980795,-0.232058120400908
82.575,-0.401461513116255,0.245674893301473,0.861967182829968,0.201114636071841,0.0658630692967601,-0.152907810198532,-0.987682782313766,0.101983377339516,-0.096588222240155,0.583130787807847,-0.393033579769855,-0.0105357259315228,-1.0211513480335,0.0837493743408236,-0.0284444748313018,-1.12207073391646,0.275456909800875,-0.321616433156397,-0.87895464945261,0.131378707342311,0.0147156476331841,1.63741397776048,0.113380798000353,-0.189967750348139
82.58,-0.404264305201475,0.256324597001279,0.85275638735628,0.213708344395296,0.0633162571369488,-0.152557513468575,-0.993566007926108,0.121162695373013,-0.118026875426416,0.699264001839807,-0.425141941864044,0.000132196781615939,-1.01929796288102,0.0981358377005352,-0.0175670173237308,-1.18083029571355,0.279091884451159,-0.310364981975062,-0.871151984575099,0.149688434128967,0.0409714980390417,1.62326129373433,0.148507192059151,-0.155525248719323
82.585,-0.409046828278289,0.276928550777729,0.850191379105936,0.228965228883685,0.052162989205721,-0.141828226550725,-0.970099526241315,0.167903500334995,-0.125735759090943,0.786637613745523,-0.428893515281262,0.00165259788601796,-0.999548125886518,0.106667883816916,0.0119417703483685,-1.24854007336628,0.285058184291087,-0.30092983064536,-0.869518009268701,0.15774745946237,0.0601966046558149,1.59667382552809,0.118929325530392,-0.12182160165118
82.59,-0.4081735594963,0.280012131316314,0.85590914225707,0.245756106071457,0.0456189324309155,-0.146478083989441,-0.962163999260827,0.211522934672469,-0.109763870207906,0.865942648781097,-0.41343324155326,-0.0307406535732495,-0.969797763650903,0.090178646746476,0.0441690702411472,-1.40225129766136,0.279515747645418,-0.318774031310787,-0.864314443057688,0.169634200630064,0.0839047308010275,1.57367178159139,0.0521253061078262,-0.0840953714168032
82.595,-0.412982563838604,0.30571049438893,0.819149038141345,0.264979819796762,0.0228409846684763,-0.149816232215762,-0.972052285155937,0.223500888077462,-0.0922458094341778,0.919911726583941,-0.409325751974368,-0.0351879754721791,-0.964515012930596,0.0494113454212535,0.0639009905267809,-1.57853802764428,0.263028224832045,-0.329745243492545,-0.869111382254465,0.17823587127752,0.103342852749807,1.54075371582537,-0.0336162502821631,-0.0597144800822355
82.6,-0.412533797390194,0.324108739664605,0.828386052165392,0.246827517509329,0.0289661498324369,-0.131402457355267,-0.967786234530556,0.233437599330761,-0.0925600877078888,0.900866353821097,-0.426521107621439,-0.0336390987964294,-0.963057979945881,0.00596592055021077,0.0677608159874214,-1.76780729233705,0.237953074598101,-0.327017622422654,-0.864053457047146,0.160351849968141,0.110546307302319,1.49349916167317,-0.114664628579046,-0.0409043020453251
82.605,-0.418725557492964,0.279858994274448,0.846315300958701,0.226938183230734,0.0191119579066335,-0.128607027815557,-0.951407987782762,0.252107496848956,-0.105128652082886,0.863449593073202,-0.433288499526364,-0.0430913190391093,-0.963636262893592,-0.00864267840788581,0.0701739438665961,-1.90339441143585,0.199897044858136,-0.300173718905342,-0.8653498545997,0.143660642966934,0.115316594443817,1.46032339414466,-0.156134145839737,-0.0319765768945217
82.61,-0.414830811336956,0.301097079033312,0.83151990819017,0.234792372449988,0.00542686939897249,-0.13142334814302,-0.94912643059105,0.264499810935608,-0.0994810821195019,0.782710431924603,-0.403833738118809,-0.0577659300720891,-0.966214046585477,0.00797297131513969,0.0750076875124752,-1.96214430787355,0.168554318060164,-0.254284414026062,-0.86062293861313,0.12246301301613,0.114752572493505,1.4256024399876,-0.172351850779736,-0.0319765768945217
82.615,-0.435203264189916,0.302829997273196,0.849427081258706,0.212950885138604,0.000928518203315827,-0.115889377889196,-0.955667760690583,0.277910333617407,-0.116148317327199,0.685689639101091,-0.390645053967136,-0.0887195456099707,-0.970404017960133,0.0243921507349237,0.0868786611918262,-2.0040578060663,0.127163061775711,-0.196705683950662,-0.86606285433076,0.0948987042078676,0.114982861564225,1.37772630706749,-0.169536687878616,-0.0380850471556187
82.62,-0.43736684551354,0.273634214654407,0.833704479773715,0.190011690614376,-0.0104686689314372,-0.127636661795175,-0.953644183208309,0.269228812162874,-0.13523461215701,0.576402571851825,-0.392907418326222,-0.0897917541694734,-0.977204916090651,0.0307188046975404,0.101875124242892,-2.01226856548159,0.101804622511001,-0.204570355873003,-0.872932497136206,0.0795697531822338,0.113909172336758,1.34859358050232,-0.15481894937785,-0.0412866860768715
82.625,-0.444644180632828,0.291596364920241,0.837544003766875,0.163895169249444,-0.00637669819122894,-0.12960188438878,-0.956034898664819,0.241992729804138,-0.146611509439407,0.47907879802147,-0.381557458085499,-0.0908025154184547,-0.993923696595598,0.0308385781155927,0.11427038015676,-2.03516993214228,0.078602800153851,-0.224595450106037,-0.888086788124208,0.0527109176471214,0.107580051939954,1.32642590797951,-0.128243677806251,-0.045415211468935
82.63,-0.446758947306825,0.256846125405594,0.839903103120985,0.141557162198745,-0.0143256711285788,-0.134456710032469,-0.954026078386612,0.208171254343336,-0.137413964494113,0.42432422118921,-0.367388836021683,-0.0853737183660089,-1.0135255241098,0.0294019727710848,0.127258252155986,-2.05150973745469,0.0645465678445717,-0.208538468170543,-0.901936381727477,0.0304328681728617,0.101545087869964,1.32655893104582,-0.113608306665324,-0.045415211468935
82.635,-0.427043836267792,0.296474575557871,0.856516682454831,0.117547831772218,-0.00898902467959917,-0.132927616949229,-0.973095730880161,0.155924223410534,-0.115200407321594,0.370259740622464,-0.33932397630972,-0.0853326971270298,-1.01130519427859,0.0403529188221411,0.141805651765061,-2.02577255679721,0.0567152116283534,-0.193010465476474,-0.92467175757758,0.00506300709405736,0.0926838200398783,1.34744500580259,-0.115416089932368,-0.0550886809173344
82.64,-0.426752832471343,0.2752261557571,0.861334557793858,0.108562414880662,-0.0121741408444683,-0.131599965524057,-0.981510387253576,0.138250490296334,-0.101327561980437,0.369103658417438,-0.332621299120442,-0.0802165385967284,-0.997717257636388,0.0531748563259738,0.162256509781258,-1.97870040415805,0.0469143335510245,-0.185450250426598,-0.944416551370218,-0.00631809384748821,0.0796334928985269,1.39295863223156,-0.119824298576132,-0.0644000072667451
82.645,-0.419021763075824,0.263808635309584,0.852794725867453,0.106263250751356,-0.0091355494321997,-0.136516970554685,-0.986490803135179,0.126513310076078,-0.093055418729529,0.397884283445123,-0.328702952159885,-0.0789471513562187,-0.990387748602003,0.0518890361557748,0.183745122454346,-1.9449992515322,0.0332529191837296,-0.183673825835744,-0.957144505652169,-0.00845527865426775,0.0682729838727986,1.43145541442798,-0.124122400820564,-0.0849286716464419
82.65,-0.420757041817329,0.255749265234004,0.858655880458264,0.112756944968669,-0.0159076175648011,-0.135223254561424,-0.990997659458256,0.115616987582331,-0.0899448504507135,0.433463173558602,-0.335816764089165,-0.0753902453915783,-0.984574794086094,0.0355190692339871,0.19176094934929,-1.92171457630932,0.0251783725684671,-0.177987894956821,-0.96647228242429,-0.0113801310218951,0.0565748315782496,1.4690818534457,-0.10933290037591,-0.10661376445837
82.655,-0.428105463444034,0.243945706229868,0.848195732609756,0.117572106491593,-0.00771783776515819,-0.136297263150141,-0.992662722428297,0.097264591967295,-0.0962878115251797,0.497089481557732,-0.348647670509085,-0.0682115712139136,-0.98282151958223,0.0228859354071492,0.205257158878119,-1.89852895819079,0.0215527670467052,-0.204746216058772,-0.965986395194621,-0.00490746345294267,0.0369597899776801,1.53253906787834,-0.0718156288886045,-0.12951832313322
82.66,-0.429764570759949,0.235388875237877,0.85828754793895,0.147041220912815,-0.00460799038410187,-0.120801886517305,-0.993085033038215,0.0914911642043768,-0.10554752469572,0.551115394109229,-0.368613924658624,-0.0636281747471753,-0.980946005144517,0.0311537623181666,0.218874455457163,-1.8652090107576,0.0272206023359535,-0.25244461202843,-0.970728888330977,0.00510610598177335,0.0237559988372917,1.59803866959992,-0.0255747146753994,-0.152411614685203
82.665,-0.412821031953718,0.24217684895081,0.852577835650961,0.176619394555626,0.0120819261296754,-0.113777917311772,-0.995517426205331,0.100939348709173,-0.0942202766422863,0.619237955936169,-0.36176283649624,-0.0606602963143804,-0.977563134265201,0.0452142585856481,0.230585712102745,-1.81890028293852,0.0354337669350995,-0.258428541412992,-0.972875201669272,0.0232978067187444,0.00467800569118878,1.69189692327015,0.0331115341459376,-0.180410682963935
82.67,-0.414024009116687,0.245135087793756,0.883565879991117,0.207781735789303,0.00583569988975304,-0.0988371568964631,-0.997484330417612,0.130555694709988,-0.0711672390066583,0.663430838020054,-0.348666013418734,-0.0635308547244736,-0.967017121796721,0.0593275012687174,0.26105461019209,-1.74290747845365,0.0515754270077307,-0.263428365675645,-0.984920405729266,0.0370366931840092,-0.0126826250115453,1.7646260407402,0.0834931911348122,-0.204276372075921
82.675,-0.429381213922808,0.24775155692108,0.822207211462667,0.251292807107993,-0.00202156474473732,-0.111756882479796,-1.00208962925408,0.167762321874603,-0.0670844775342458,0.687632589667787,-0.336412956825703,-0.0669290280853898,-0.96097652936471,0.0695645840178198,0.292399103589131,-1.68093328597185,0.0658901166360179,-0.309602003178316,-1.00187877346202,0.0453872252422914,-0.0294563898374707,1.81126246064349,0.118561747600486,-0.224963321103243
82.68,-0.422983925208868,0.354822677303742,0.815207623069803,0.254808655011066,0.0295264068967023,-0.0625641428581919,-0.999890741506132,0.180830755885147,-0.0771334831987419,0.675409719043917,-0.328745796829659,-0.0771390997627431,-0.966176416546687,0.0784697209372195,0.325227320251633,-1.60805547731163,0.0806979205922247,-0.369403745111165,-1.02835551322887,0.047309990910553,-0.0404552112065609,1.84260716648668,0.157883173240837,-0.241836381530357
82.685,-0.434706774437492,0.300418044405975,0.843976613298193,0.201877689158335,0.0583426634567599,-0.0362021567876103,-0.995385202987169,0.211379986736854,-0.0850920738324136,0.647124677820342,-0.33027347728871,-0.0777553786047394,-0.974398029582641,0.0768893775216933,0.355638626024066,-1.49124164831775,0.105048589003086,-0.392678159302789,-1.05013921015861,0.0497507022429935,-0.044321558361465,1.86348270251938,0.198655163418918,-0.259159063825397
82.69,-0.420544110888014,0.273751057223336,0.837682055533548,0.194611954741295,0.0541592023861325,-0.0311008061776376,-0.98534046080595,0.246215096972779,-0.0718332673366444,0.602523579077136,-0.317530304382726,-0.086114589801378,-0.982492589372118,0.0693583152465729,0.375551460176889,-1.36220693240447,0.129545914009073,-0.391592572631436,-1.05947324845057,0.0596831113066373,-0.0422877264413518,1.86913633396531,0.240051168497194,-0.278760992690011
82.695,-0.428777333106374,0.278944256458973,0.84510376656147,0.209267734612528,0.0455423728165895,-0.0188470325541188,-0.982987621002269,0.27078414382567,-0.0601972550905215,0.517617761172908,-0.304016569257707,-0.10544356886061,-0.997009507473119,0.0655987207011948,0.39158878297352,-1.19677644280166,0.159205826146616,-0.372765985078435,-1.06000675097995,0.0779638218493363,-0.0385711070831573,1.86826312541962,0.303276440632275,-0.298274900834918
82.7,-0.428923806688388,0.304621815030715,0.839223414239615,0.194383365032169,0.034970169841978,-0.0321143413769004,-0.985972432120122,0.292296150627293,-0.0560900666462068,0.393639574052341,-0.296545874136159,-0.119530753383302,-0.996806765292425,0.0614131274734987,0.398376050475259,-1.10362210994391,0.172776254734498,-0.342539704785701,-1.05771912419861,0.0873555776929175,-0.026625267487314,1.86504835338971,0.345451284367146,-0.312301263488194
82.705,-0.425186482315212,0.295610703193219,0.841501542179856,0.173579593200367,0.0187435477897833,-0.0519041745919902,-0.975406412332541,0.300763478051521,-0.0668598275342659,0.29128302921738,-0.324562249473389,-0.136789178738183,-0.988268893047164,0.0609627965629997,0.390353898225588,-0.891493852179907,0.228907865125,-0.341102632709616,-1.05530184758902,0.113844188466737,-0.0110818836612413,1.85413825663478,0.392944377187588,-0.325660228350383
82.71,-0.427889173358989,0.303169210974935,0.819594864185954,0.152256083142453,0.0180583996964718,-0.0617851268101043,-0.958972412811314,0.274280304684138,-0.0758434000064157,0.185283092029722,-0.330302586754158,-0.146224153790325,-1.09412813992854,0.0570695220227613,0.323629968568756,-1.04270023745401,0.089987933628042,-0.276756808852232,-1.03405666305411,0.133117773629262,-0.00121324272712642,1.82850948488516,0.42152127155782,-0.326404958963394
82.715,-0.430557041758338,0.321205217613536,0.831781615080203,0.1197170450403,0.0252301747282081,-0.0549707073956978,-0.960103691977314,0.256667360013335,-0.0840526538559915,0.121198024786869,-0.331708812168821,-0.154306103336769,-0.921338911127,0.0634668185938838,0.342353701208386,-0.819100976608292,0.186800668993756,-0.269749075193656,-1.03645497942135,0.167974690336838,0.0177787818743,1.80289348171484,0.441160621014587,-0.338257261046436
82.72,-0.439754102219072,0.233729320186399,0.837573777596904,0.0890511823908596,0.0154257412500102,-0.0843678302391714,-0.946897825366726,0.220826589447757,-0.0803390443451067,0.0853629894771427,-0.317128026656343,-0.164392943663442,-0.957200746220866,0.0658825894781067,0.222645731897905,-0.776498231848974,0.216983663831438,-0.318154880006452,-0.99425252254845,0.205150992650832,0.0412487546564588,1.69866227855896,0.370854794492902,-0.295392689704049
82.725,-0.422756170986242,0.277729936979007,0.840732233395465,0.0995234994439755,0.0161608159542084,-0.0865830633156645,-0.951746431754309,0.142395200452434,-0.0598737618931038,0.11016043563374,-0.294178029862396,-0.166976766694202,-0.959932913587336,0.0841320618608191,0.148105480623588,-0.767711173525204,0.211742624613986,-0.332273769971682,-1.03492064617271,0.218285281190058,0.0353076969027234,1.58092713511548,0.284943922019508,-0.237251946001649
82.73,-0.403830527352602,0.285569394429423,0.847087758944164,0.0822009413555116,0.00850152065946401,-0.0825628789541356,-0.956447011409616,0.0538357318574109,-0.014084997059328,0.183605257503807,-0.296750563892836,-0.16420525382962,-0.987498355506075,0.109956387672258,0.0616807684179083,-0.732030536977878,0.205043280906839,-0.287522684147475,-1.07244135599293,0.216333942608709,0.0205827125354015,1.47380231502599,0.20783081837483,-0.194323034028151
82.735,-0.394866123927078,0.260759543832709,0.85414148267854,0.0699250225558668,-0.00618447218117403,-0.0870650605117736,-0.955983892647773,0.0248824327974281,0.00607023767697209,0.286619991903979,-0.283677659936895,-0.165409799906223,-1.01900014262055,0.111042988378375,-0.0134790642794531,-0.756607572339995,0.207243445725233,-0.180184832526824,-1.01083033155241,0.199935046611188,0.0337428456963989,1.49396585878261,0.0963375975580436,-0.210383922281318
82.74,-0.397513331666588,0.311824063245335,0.835643774927526,0.0732485059167851,-0.00400255320949318,-0.083175720994711,-0.957321156767877,0.0341063193625349,0.0132286026753056,0.437435653533815,-0.264737278652937,-0.175055643421279,-1.0088619689003,0.113431572021102,-0.0515252371895831,-0.801535417079834,0.196123313204293,-0.141401303265133,-0.996470650656673,0.203860297325668,0.031077788816844,1.56723347106938,-0.014381635791301,-0.240854908188135
82.745,-0.41307646229644,0.328168296588323,0.835479276118047,0.0563431127548019,0.0127730684043708,-0.0511448040254453,-0.980475666571075,0.0562579204883252,-0.0330897547665821,0.561079790988591,-0.265741626041391,-0.173268613977876,-0.987758917040112,0.133175760024756,-0.0600751945664898,-0.913864290637897,0.162962874832194,-0.191889846927268,-0.996610671668644,0.209498035126482,0.01609655697691,1.59712143432059,-0.0889122215339373,-0.242482125727956
82.75,-0.427205772689859,0.270732928009165,0.837708669484998,0.0428206213791439,0.0284117010867076,-0.0432002409708935,-0.986507371974889,0.0994487988011084,-0.0467859761247236,0.693377217106136,-0.228811138366603,-0.165799426479328,-0.986548850204694,0.158077495759117,-0.0452517848055668,-0.996200147262479,0.154382699044094,-0.242188790060349,-1.00713086664879,0.210279407300803,0.0104845980886967,1.6075298012642,-0.0915480601386212,-0.242022659008333
82.755,-0.420788276634186,0.276803707599629,0.85184833525226,0.0577596219100856,0.0346030610856698,-0.0364996480256228,-0.983761364003117,0.122718833890397,-0.0336744849806385,0.7334763068491,-0.228742527663127,-0.129180179500287,-0.992576200312306,0.167363066001975,-0.00970374347430559,-1.05114168212497,0.170340195592551,-0.260188632332246,-1.01144472214786,0.217880200328117,0.00789148857055207,1.59839456089074,-0.058198308538081,-0.225656801992396
82.76,-0.425204198961088,0.295244177967162,0.837361416260029,0.0841833008682225,0.0322572173291404,-0.0201695958268939,-1.01125335057242,0.16370977531655,-0.0363812864322518,0.755323139020349,-0.191060391447962,-0.146342934898068,-0.990938134632762,0.155835300694792,0.0376746132293004,-1.09833889951906,0.179267631601051,-0.269738852269604,-1.02207966944956,0.213914710374284,0.0128896729850716,1.58742950729702,-0.0162422235551371,-0.211189044765233
82.765,-0.421505225003524,0.295763191292597,0.846378055153755,0.0865223948406442,0.0373501532964586,-0.00946849665933098,-1.00297390232523,0.197052858574639,-0.0334002829986472,0.73800254492387,-0.156875260796242,-0.165280692153719,-1.00017478041988,0.13321584168672,0.068835047348757,-1.16680825856334,0.173384240101643,-0.273776290681091,-1.01262224689197,0.201022739664495,0.027142950968679,1.58689836871602,-0.0254401433169353,-0.208275583474635
82.77,-0.4308854515316,0.281023655032448,0.848502218060489,0.0895433178355125,0.0369296222925186,-0.00367552464101849,-1.00664750311957,0.233066911868958,-0.0388291083742413,0.641993147023703,-0.137409689613287,-0.174471662448979,-0.993948232645358,0.0911718355873618,0.106915607735732,-1.27498541738801,0.144540395190017,-0.288800864104247,-1.01224138869375,0.190829964279508,0.0447408274560234,1.58500070645203,-0.0677906655162611,-0.210173208871386
82.775,-0.430095328000265,0.283272200283454,0.849897656804542,0.100925488549476,0.0466344267967376,-0.000836852472275496,-1.00286284248662,0.246928042317903,-0.0507192461566831,0.507580687548541,-0.154112962577754,-0.166960527389634,-0.992470926017553,0.0622163960477316,0.144407794162199,-1.35614152325621,0.12639704303548,-0.298540502786636,-1.00870516878867,0.180073159081794,0.0589367263160061,1.59858709851495,-0.107445698804066,-0.218345263015478
82.78,-0.427425488039392,0.301909771034126,0.840862125264673,0.104654858287174,0.053308423384927,0.00512440154497542,-1.01560911745547,0.238118434572211,-0.0603780330342296,0.379439519635604,-0.170936270412558,-0.166369573468448,-0.982868044804314,0.0162599909659649,0.194756821574488,-1.36548256002085,0.112710051812177,-0.289554201681854,-1.01516364017616,0.1774181408596,0.0717366291289427,1.62351414071737,-0.125819818879749,-0.22893858485834
82.785,-0.4314554624139,0.303055930129217,0.837568958246244,0.0972115012298311,0.052454082589325,0.0122442171192028,-1.0150558415517,0.233348840134734,-0.0717342192638254,0.253632871570583,-0.174702378333288,-0.179969042539597,-0.97914591559076,-0.0299772871816559,0.233891923703933,-1.31702083337314,0.118690877229179,-0.294436981975691,-1.01950666389342,0.181822581673961,0.0879859129918317,1.62250752676994,-0.124469559652551,-0.229793645091207
82.79,-0.437138637974669,0.289166590296854,0.83956990950778,0.0861484718692723,0.0548455713857115,0.0102948879022101,-1.00752501422453,0.227711101656034,-0.0847815525626604,0.152563904303258,-0.166757289684366,-0.194219742010274,-0.980536218405272,-0.0371815938988317,0.26262511628195,-1.2780481954729,0.110242357873576,-0.334825989389511,-1.01863631414741,0.183458695216855,0.0964504488649182,1.59517946353315,-0.104730806074453,-0.23550930390259
82.795,-0.451101754927616,0.293505988587568,0.833094464373788,0.076472722103681,0.0586065743909931,0.00396824622284445,-1.00595499295455,0.213287337123391,-0.102630927920219,0.055683891152436,-0.168935219277088,-0.208414437237695,-0.966314196154787,-0.0484789882730809,0.276813900975725,-1.20613039493389,0.140243070523444,-0.337014109379662,-1.00858465440303,0.185746388259839,0.10664647861458,1.55199249951323,-0.116201288534568,-0.244954360766036
82.8,-0.443541222281088,0.291152234369453,0.832211766791905,0.0653553668231421,0.0703794341327852,-0.0057324250297673,-0.995288851758883,0.193550972836522,-0.111303968193181,0.00115810372835136,-0.173692611871089,-0.210620519734236,-0.966582707092392,-0.0579238753069392,0.273788556814096,-1.14700167888604,0.153235908314946,-0.325068183808799,-0.992518213459154,0.187849058060718,0.10847523914825,1.46616246147697,-0.168644248285803,-0.254566793280522
82.805,-0.446777529088113,0.281841317742592,0.844048057494459,0.0620313401108562,0.0553555556064564,-0.00460244855860475,-0.97845527914375,0.154448899204661,-0.111409611375681,0.00265612109332118,-0.17463174228623,-0.214873527997234,-0.959527726927444,-0.0592733473469421,0.267575681330604,-1.12734152436065,0.146009604374873,-0.338687965210365,-0.99551300425077,0.191997064932008,0.0937117540239013,1.36052271348358,-0.234104028976768,-0.253755695044395
82.81,-0.443959807248385,0.265338152771561,0.834560033622334,0.0619681942794064,0.059360848070113,-0.0140653976348486,-0.970044004866276,0.109540814681842,-0.102035391285464,0.0398714312031066,-0.164872271827172,-0.218202107335628,-0.95952696963141,-0.0487020485877354,0.253204956639879,-1.06987399270991,0.143287569284439,-0.342617990574092,-0.984014425217432,0.185108943318282,0.077800269225194,1.21584141909013,-0.300309220031197,-0.256437695697217
82.815,-0.433311120016163,0.26855111401337,0.85123455707223,0.0687489190924716,0.0681341385436822,-0.0229299590809143,-0.969045178779279,0.0856863788396327,-0.0849709078340388,0.133109855248844,-0.160280276904887,-0.221897555145581,-0.972110572677722,-0.0221781553994792,0.202405981648376,-1.00877635803785,0.153670765517726,-0.326116570371347,-0.969856850945776,0.179477835905133,0.0695951245401922,1.16555965870088,-0.327554163284606,-0.269710714968712
82.82,-0.434585365652348,0.271466875100955,0.838273694108965,0.0777751487883414,0.0635847243351531,-0.0210505115848354,-0.968071451193551,0.0534442665339021,-0.0695999688465375,0.276143150014135,-0.162111927357888,-0.223950058221817,-0.976046175854802,-0.0142169278319014,0.16378997152398,-0.955250433611557,0.173382643202053,-0.324263450968959,-0.953935407961822,0.178735168867139,0.0561529205215883,1.11363239354458,-0.338845105377134,-0.286945344415602
82.825,-0.414201023032465,0.284235809134557,0.832519537081913,0.0892592444413599,0.0605691075411056,-0.0197700220538447,-0.958481039036234,0.0463564818570645,-0.0525646746374814,0.436165683460638,-0.16619653037042,-0.224755537984758,-0.988318425756135,-0.00421326182672249,0.126088564599494,-0.924434421688302,0.192764188921812,-0.350982939364334,-0.945701831663373,0.184725638379027,0.0522068539029348,1.06713259067842,-0.310653974621097,-0.285709700100884
82.83,-0.409238698673116,0.312867538040746,0.822809230411191,0.0944250675316967,0.0525298789417752,-0.017672028311605,-0.956059215233069,0.0656869502552839,-0.0334525928908859,0.560707378302603,-0.159036984116364,-0.221874930298903,-0.999538004288108,0.00177925092030356,0.101082045064787,-0.918541967868805,0.208385309401713,-0.384366659574863,-0.947893224654089,0.186198023982467,0.0473806037365164,0.995434451786937,-0.251095242693792,-0.280398643685749
82.835,-0.411377251919606,0.338003964907036,0.831475962435825,0.0994975321262785,0.0522525550727646,-0.0116457373501394,-0.958830587877217,0.109844301244713,-0.00548085072417846,0.685298179660959,-0.137458167870328,-0.222139591582693,-0.994588539245714,0.0091811843450853,0.081715522517806,-0.911306013319292,0.224013646099367,-0.39439637517831,-0.953624595662483,0.186588115037166,0.0552027327522529,0.941767837725116,-0.205940085227501,-0.274396679583835
82.84,-0.427883427102184,0.309563023112841,0.831967602098188,0.0972081661740136,0.0546002987073776,-0.00813144184782322,-0.980833323228739,0.13461423365027,-0.0148617418752307,0.729311721841326,-0.137444764333585,-0.215521122768326,-0.982330269966773,0.0150177256446422,0.069463019271112,-0.918908063638167,0.22949860491305,-0.385567311196207,-0.966897733137629,0.18217952749864,0.0525772173507986,0.883013887184979,-0.169932104669691,-0.268166466520608
82.845,-0.439742475687071,0.277150457437714,0.84401868799303,0.118487365128435,0.0641430102655001,-0.00761753316388527,-1.00206965207511,0.144707129234333,-0.0510391733901567,0.736321046231961,-0.153874179990058,-0.210511416196823,-0.974884931145775,0.0196389148399222,0.0666088968422686,-0.943033477231485,0.21737380352575,-0.371417858923948,-0.979259487615338,0.177954763576763,0.0517501195798918,0.83489969457496,-0.155352894089221,-0.256607834568927
82.85,-0.434361128966091,0.27350648092643,0.847551203158021,0.146977183914313,0.0693484953497904,-0.000748920894165986,-1.0081674087116,0.144667916150723,-0.061750826748772,0.718027723814003,-0.154463249190381,-0.203975659975764,-0.947910005088063,0.0332963996391509,0.0789468882290221,-1.00849754815292,0.182770112063775,-0.407124472386408,-0.98804991576595,0.173782505756101,0.0511401677692865,0.802116262429537,-0.15670325072872,-0.256483516435759
82.855,-0.44536031991405,0.305768205015854,0.839867284150897,0.171368142865071,0.0746958163509011,0.01138009224087,-1.0263961872746,0.159234920640162,-0.0497531118401197,0.658850793965537,-0.136143498982406,-0.212318663305082,-0.956251549308461,0.0399113325818444,0.0991044243620707,-1.0192427049237,0.174483699830621,-0.442522131837281,-1.00516112062935,0.167411807103903,0.0448608571362039,0.779720322417888,-0.164379608472539,-0.256665451010957
82.86,-0.438490560152077,0.308454360445211,0.83256141783338,0.175080767989772,0.0853097774949793,0.0118688875906015,-1.0409801874061,0.188159923578094,-0.0324357326262426,0.556312164493035,-0.125803742693596,-0.215902108518359,-0.965074834466918,0.0470616953520788,0.130565779471956,-1.02622059063717,0.184860491740129,-0.471209000729748,-1.0269645543608,0.172982015148074,0.0269506212239004,0.73230646175404,-0.174820542305342,-0.240923915119692
