Header,foot_Accel_X,foot_Accel_Y,foot_Accel_Z,foot_Gyro_X,foot_Gyro_Y,foot_Gyro_Z,shank_Accel_X,shank_Accel_Y,shank_Accel_Z,shank_Gyro_X,shank_Gyro_Y,shank_Gyro_Z,thigh_Accel_X,thigh_Accel_Y,thigh_Accel_Z,thigh_Gyro_X,thigh_Gyro_Y,thigh_Gyro_Z,trunk_Accel_X,trunk_Accel_Y,trunk_Accel_Z,trunk_Gyro_X,trunk_Gyro_Y,trunk_Gyro_Z
34.935,-1.85526327619698,1.39574042086631,-1.36981670085914,-0.398903626729398,1.35308854043276,-1.38195324895339,-0.681693534994981,0.00601819671930695,-0.244577536955405,0.676012353711524,2.12354698524502,-0.0420804075060221,-0.674804801792418,0.016140727699023,-0.292285079627461,-2.73623266677106,-1.05960997197062,0.224684299109192,-0.77676337645521,-0.275063801708778,0.30270038361871,-0.924578430488874,0.25422936073699,0.130382568083182
34.94,-0.599111759408963,0.893215370217634,-1.55844898080865,-2.29599094401536,1.56669932182979,-1.18481439028965,-0.882154892737312,-0.176221206964926,1.12727760298481,1.09046537823203,2.56117096519697,-0.158602813020522,-0.700978379467341,0.0415393599570266,-0.161628662711881,-2.42660351729054,-1.05888018307253,0.0620935082797079,-0.804464062265441,-0.283294302940539,0.316675431089105,-0.819984658328208,0.235360243626826,0.0751426178069239
34.945,3.40986927335246,-1.31082960062435,-1.6283161388442,-7.7741303497213,5.60919340884497,-1.29603375200581,-1.68330043982574,-0.522578535710204,2.57385798996065,1.36930783145424,2.4904857631208,-0.107839827235345,-0.697443145245224,0.101978400891498,-0.0817962850708021,-2.11302336519033,-1.08123207117005,-0.0755964589044731,-0.808368793776455,-0.291859111732841,0.357408443573369,-0.752646894054602,0.263301705036021,0.0386259605244329
34.95,1.5819545957364,-2.89183905559117,0.943632783276553,-6.08270172651067,9.31800882996659,-1.75829201430124,-2.35693833888036,-1.05864049013233,2.04038504112917,0.207955266229975,2.23719009721144,-0.0315972241361029,-0.834997141284802,0.196302417504721,0.0195989202071224,-1.86492987324638,-1.11555360694974,-0.308378118812007,-0.833206008715906,-0.303591005030858,0.412287555501077,-0.713689993401884,0.233771367559432,0.0155291147236075
34.955,-2.02037560045169,-2.15840149658317,3.56851313602632,-1.18685787699501,8.68045797183268,-1.75708762066848,-3.13779559270409,-1.00600792918415,1.13773432276511,-2.00232229201961,2.31315303362466,-0.162470924521854,-1.43597641661476,0.410631206668731,0.00447948418747287,-1.52260010405831,-1.11611921993193,-0.473362956886759,-0.916900649090809,-0.313017286231474,0.461454207427322,-0.704824638509569,0.127479818562057,-0.000751950543637148
34.96,-2.86178903829753,0.474876501435832,3.23309942176721,1.22568619177885,6.62447522210722,-1.54066110986515,-2.8704049439332,-0.247807529160761,0.621451328508269,-3.93599664129556,2.28374855645107,-0.538148979387091,-1.43540434955327,0.342702175643308,0.0839816741901707,-0.929375880634922,-1.1260113929207,-0.380607123342237,-1.0174586548848,-0.311032606049778,0.502026072109806,-0.665426279548421,-0.0293487818286952,-0.0177485603292913
34.965,-2.94697693605681,2.29222824158261,4.75815104179687,-2.67797371079412,4.89431485417134,-0.813645561450536,-2.06702177920181,-0.021576057882807,-0.231888252936069,-4.67877222338697,1.86273506971228,-0.7345603565662,-1.99874354847273,0.601236778605157,0.207244211895302,0.166086406319739,-0.859232593045227,-0.205239098188688,-1.22805408206907,-0.269445939994912,0.517868935699724,-0.524475964219595,-0.309300887513551,-0.0603846250953567
34.97,-5.66644681556613,1.5545627530436,7.44088777303065,-11.7759537603358,1.01247243458362,-0.748928369222976,-1.15847756740048,0.263358877990646,-1.14561993923123,-5.61015182285724,1.43849011060268,-0.81355713642786,-1.99910360178367,0.614249970864988,0.234325444903341,1.0444688637752,-0.745865276115647,0.103096564194102,-1.46258728447563,-0.219262166151182,0.469386537950131,-0.351271332298501,-0.511629936401892,-0.0960006719531108
34.975,-5.56560651562525,-3.11151840380049,2.9259278786667,-9.31201608798119,-3.11044852600312,-1.67730677438644,-0.609550806091659,-0.0625902687755972,-1.71360281464895,-5.40454975081129,1.74820949754342,-0.911698246902253,-2.00002228666686,0.758644606089711,0.334668800822927,1.94627580396459,-0.553994670593789,0.441724705553359,-1.78364872143217,-0.143014719178596,0.328973168532725,-0.140811966559864,-0.710973606452757,-0.0874412418073972
34.98,0.231160093339419,-5.33925467355679,0.315096999913554,-0.0481295078912362,-2.95066315893468,-2.48390449516464,-0.766576366946854,-0.560671780111599,-1.28412515328779,-5.08411604911743,2.72654173168465,-1.18259814622481,-2.00213227355776,0.779761451789966,0.477805533914636,2.56299745738828,-0.467862321121032,0.643491077723044,-1.93345039537693,-0.0878496381430765,0.189855732810887,-0.0297634789048957,-0.8024670754274,-0.0440583251149655
34.985,-0.303031141261017,0.87727499292863,0.54347522087794,-0.549667263133625,-2.28370667895897,-3.80013794992328,-1.05990679993703,-0.895368466615744,-0.702209315704357,-5.15057781377869,3.2544456983139,-0.88829979624812,-1.85225555370065,0.620103878380509,0.752905182346239,3.48678923322641,-0.471994367373449,0.472945496040217,-1.84012724498732,-0.0346838979139535,0.0708553666758372,0.0437930972503954,-0.844552161084133,-0.0246262901289454
34.99,-1.50039329332593,5.56571232225653,-0.565755758888449,-1.03227017550881,-1.57597781461055,-2.65730512180812,-1.09358887598779,-1.03360276194945,-0.846595568967025,-4.5098796775361,2.77317850415284,-0.356389391698287,-1.82236373399215,0.243494283766368,0.881728702922335,3.88210641040547,-0.421398410030613,0.0984298283750115,-1.59521003934231,0.0372402923662143,-0.00468738191891866,0.0876214718736764,-0.869871133452933,-0.014688798522403
34.995,-0.849399494953088,3.48722760035563,0.0251484855314508,-2.28377565410841,-0.260834032267464,0.64719255438547,-0.982735460583048,-0.864333331610355,-0.606560951133789,-2.61394161132962,2.93144452961424,0.0332272613198473,-1.81034347302532,-0.127845851139412,0.8012928163882,4.00666604404902,-0.314057525447841,0.0418436793459168,-1.40537182891064,0.105311149748658,-0.0536453243092913,0.179008128863595,-0.788348115005414,-0.00970500853152498
35,-0.431671673104589,-0.455546783207378,1.48397061393951,-4.14574920628103,0.34582409775658,1.44000979667329,-1.19028411083251,-0.693273167054291,-0.238862651252788,-1.32455300989679,3.34488083424567,0.36842686940588,-1.68196219651293,-0.491069468270502,0.59592144397476,3.92109997530166,-0.15187366831318,0.155369066879679,-1.37869432470114,0.173742078542213,-0.0834510953253219,0.334583022087477,-0.566079260738508,-0.00280510262918566
35.005,-0.638725090228579,-2.80283794701936,1.92791166339022,-2.95469140346583,-0.0643773681421974,0.44193382432487,-1.66617782020478,-0.381719645461683,-0.0403298071519815,-1.25807274495155,3.11547375424355,0.47095917377682,-1.32546302933201,-0.951825031338226,0.33002181704869,3.44721311129897,0.0907049818412288,0.437922787860407,-1.46035830942321,0.272326805867523,-0.102171675874037,0.581325493214414,-0.11005090389232,0.0454737112841406
35.01,-0.232635904084336,-1.63856140518652,1.35682114043012,-0.294419436087342,-0.634508156786444,-0.365709189222412,-1.69678834800618,-0.184664908937094,-0.151785189076905,-1.6727041356805,2.58740752506673,0.474238488806763,-0.953814335223432,-1.16432255809481,0.145784866071896,3.06346381643607,0.240294710695015,0.64258743804054,-1.5280861490915,0.31238009701322,-0.105025835314959,0.719628709785661,0.240569561421593,0.0857961900537627
35.015,-0.407767200256051,0.724824480511487,0.624134703746187,0.300641117778892,-0.568543542821664,-0.0286708856963436,-1.48855598270477,-0.186503655298988,-0.479372788922287,-2.33349403629709,2.10843906443123,0.402399800484303,-0.597080108626176,-1.28735612368806,-0.0760190727733215,2.63291365113176,0.257610121529209,0.718764879701038,-1.54913718458782,0.308485926788043,-0.115189632627766,0.75513617658806,0.475521227426226,0.121971767540921
35.02,-0.857804053737656,1.19683913147504,0.529528133626049,-0.486928782532481,-0.197787804995378,0.497526011761635,-1.10874941997364,-0.2805270234402,-0.71930015065835,-2.4473585079286,1.68148559472904,0.286980060169147,-0.376148972038023,-1.30393627271844,-0.298279975156154,2.22754400388953,0.233070276087953,0.725239515304565,-1.52103360484437,0.27379101947484,-0.130581595018154,0.720146638813003,0.498954863059747,0.136552786842268
35.025,-0.8194182286938,0.253727203825476,0.771484669468059,-0.974866661984772,-0.149637175390868,0.426549459318174,-0.946217153918423,-0.422426021798252,-0.660376138526378,-1.847209241345,1.64586908193454,0.0921716145723312,-0.155345280694012,-1.24805106794746,-0.552112519334091,2.03589681406579,0.130539702856784,0.612793180377792,-1.44306434889387,0.208463621114911,-0.119030840339382,0.596156246575217,0.326666388078438,0.118931012308589
35.03,-0.655444054755399,-0.252946807872835,0.914263620461096,-0.645770451997273,-0.321710863817741,0.112603685681598,-0.78833380642611,-0.334013178733313,-0.531377523933825,-1.04361985526939,1.719905936271,-0.262556428057645,0.0376562560347958,-1.13301933987685,-0.77387289955846,2.07022990353186,0.0393466796562088,0.245039432697581,-1.36903140866264,0.15038291032545,-0.084552090015386,0.455395323614588,0.126907692890031,0.0833648738913192
35.035,-0.627833300711871,0.316001987234698,0.753776307005517,-0.181974195517455,-0.437715666913995,-0.0216153270037299,-0.740165154991943,-0.0659171418764831,-0.581128625078583,-0.565659326674952,1.69584537968479,-0.325067412178615,0.158431145125061,-0.964486866101007,-0.944419626283605,1.86021405221835,-0.0351231150374521,-0.203513615168195,-1.30768523264456,0.0983904784133608,-0.0358879190219688,0.270516931075219,-0.0243434994595122,0.0415544224537854
35.04,-0.670127902921855,0.545896071268086,0.69918441970532,-0.284572240105005,-0.393303048885798,-0.0304041157066843,-0.739819812999825,-0.0490317138705456,-0.771381037977686,0.188904754076472,1.47848892980825,-0.0586129046401304,0.163716799256507,-0.738945373712402,-1.00768110607779,0.814173888304775,-0.107308661477724,-0.589797882167138,-1.25473801304998,0.0651169530736403,0.0116003803714291,0.0511350016670694,-0.0730701148906785,0.00457291909419041
35.045,-0.543830293978743,0.234900760025656,0.845962023897461,-0.486972449687756,-0.364330970483689,-0.119484830150034,-0.829903470907302,-0.195355221951822,-0.690098660043909,0.857463072237084,1.4085655323447,0.169747069346814,0.0690072931991302,-0.390386595659828,-0.868799313027257,-0.134132939148195,-0.17671912714012,-0.834516695328095,-1.19566719449907,0.0243454208996663,0.0660701232667995,-0.175259629806934,-0.0778719410852787,-0.055775111889442
35.05,-0.406656548609116,0.0794794869194774,0.90346441005521,-0.490943686005956,-0.376919652967683,-0.204693111761898,-0.946762361295953,-0.303256498605749,-0.399662263419334,1.31446550586139,1.27050461524019,0.247676594240916,-0.158200075754292,-0.188573805054364,-0.584731713840819,-0.612000952238511,-0.240979420833323,-1.17782760169427,-1.136495492718,0.0191885098836597,0.108876218675851,-0.325243161008157,-0.0653759599689082,-0.119731740353362
35.055,-0.427492049976431,0.155438584003496,0.893419700949526,-0.401595721536421,-0.348778860726824,-0.18037055493991,-1.10053386053957,-0.275802179705472,-0.18898654379231,1.37401592361525,1.149295346212,0.147425552038685,-0.407382544607406,-0.131288533556213,-0.298135912613942,-0.561083787616291,-0.308658662207998,-1.59489572950708,-1.06840671982202,0.0214880271729468,0.156127159969716,-0.503160278698077,-0.0425559823103161,-0.201052921500815
35.06,-0.444660732591979,0.202920571236435,0.890131831503022,-0.289230271576572,-0.300237342322331,-0.101807534175322,-1.209569788798,-0.21413234370951,-0.12832182903376,1.34423324992747,1.03818430803338,0.0571358641039998,-0.79428754568668,-0.255578315005138,0.0198665544287877,-0.333403149858508,-0.349047431431153,-1.93431504482452,-1.0165515273616,0.0213977097157555,0.175969033755717,-0.636836207004651,-0.0134315967661742,-0.29736347041834
35.065,-0.482802763077819,0.255642613534242,0.861799721672835,-0.2427759756175,-0.254680109573319,-0.0530874455278144,-1.23055785390269,-0.0862064108102598,-0.132706139179567,1.23546168982255,0.947210311889648,0.0982648085437342,-1.10263925240552,-0.442527370928436,0.160786980199149,-0.289596410826724,-0.355750707020671,-2.23304538456406,-0.95006319749565,0.0393472094763511,0.172114475501711,-0.804766213601782,0.0669226273636102,-0.424342514585645
35.07,-0.386907824762927,0.0636574136709012,0.905198326607894,-0.218950065591523,-0.219818093798809,-0.0499663074943343,-1.22699232260121,-0.0255530780480573,-0.114477384510371,1.06241437516458,0.958456092170377,0.180476752422519,-1.41503245542575,-0.57539839474283,0.326864342785687,-0.460722391266765,-0.377090958656267,-2.43741102964379,-0.911163926813209,0.0751110352265416,0.144561257486268,-0.958403550937232,0.170514987037254,-0.488867558136834
35.075,-0.390726611983016,0.0826559700487584,0.913375659040006,-0.132500728436877,-0.195185526303431,-0.0115945099834279,-1.25676166712669,-0.00197181006953392,-0.060523448474906,0.794775977149974,0.968617953820556,0.32779625692628,-1.69742494386275,-0.547954847315356,0.525116938409933,-0.629175471495092,-0.452091656993343,-2.60920857748406,-0.859876273187303,0.106690708107974,0.113542723383154,-1.11591217941564,0.290523392689822,-0.511646362278513
35.08,-0.390861076951439,0.19028196957894,0.885877136930414,-0.029155771199134,-0.158497288604909,0.0415461496165883,-1.29246586332894,-0.0164618021892118,-0.0197010615549205,0.590291333745496,0.915671956808989,0.414869156233464,-1.83322272572525,-0.421167422796277,0.659673994066243,-0.689791608587247,-0.525795283379035,-2.57250245378466,-0.777478815326488,0.151992813390033,0.0569090963912708,-1.28059872093619,0.421190241776922,-0.484951782001247
35.085,-0.410839673513147,0.242875323737861,0.874850248987015,-0.0143864822882426,-0.121759468783981,0.0749082043766975,-1.24994083178706,0.00582531962216064,0.0373414958852526,0.299008539842465,0.717358103267623,0.396907336588262,-1.78007849840552,-0.228787438982271,0.674672675899697,-0.452512853874922,-0.624843860209418,-2.19990567283689,-0.696067590253878,0.192660241769772,0.0229308210739359,-1.37803459897082,0.505430892397281,-0.428126297174765
35.09,-0.392702665238276,0.24562371661688,0.885012916169309,-0.0345004238442247,-0.101770897596332,0.081780010988906,-1.14386480110563,0.0570467248602394,0.0285106464609792,0.151074428159266,0.618908759183999,0.30121195336709,-1.60412212675254,-0.138849809413568,0.523795919201511,-0.0749473411944155,-0.639209894684865,-1.75237403199365,-0.622363744560683,0.242718431996605,-0.0227093310059768,-1.45092510191404,0.530086618819441,-0.329569898624364
35.095,-0.382472047623113,0.213019306954271,0.899345205574259,-0.0538404743039831,-0.0728264654349835,0.0957581551662839,-1.03488325961991,0.14980444103596,0.00938246281224575,-0.0890232496688612,0.579119592178501,0.232205026487796,-1.36804346198376,-0.0846044554098358,0.374689904502842,0.462322556066542,-0.653320772401222,-1.2721669896793,-0.574939745257304,0.287145144204556,-0.0577073157474803,-1.51822661198478,0.520595126960385,-0.204896767146735
35.1,-0.381786703319091,0.16870001692833,0.895385871645672,-0.046403202203006,-0.0340203147240009,0.109790116033152,-0.984348695392156,0.282880309023043,-0.0159263541736576,-0.472235153491511,0.575769657825958,0.214774732451751,-1.22579933240063,-0.104456954513238,0.20614695620681,0.920359036143824,-0.643732964500691,-1.00156264400288,-0.556154059049483,0.318106850480703,-0.0678790406726397,-1.55729361434034,0.479425452143265,-0.072584656261212
35.105,-0.388694158555188,0.179426256289959,0.892145603503013,-0.0411860111784049,-0.0204886288961211,0.131921697281111,-0.956072259519386,0.36911079665517,-0.0480888631702399,-1.09109455351991,0.604466496088112,0.254424621209388,-1.12486976929939,-0.141401635428589,0.0772048552962608,1.00428852832017,-0.591424019239949,-0.903576555461868,-0.560258624340834,0.350117700965986,-0.0605209178929779,-1.56520698098856,0.39508701177031,0.0727264505264614
35.11,-0.392776056875758,0.213178099236169,0.879097518695071,-0.0444627394865597,0.0167984392404958,0.155946466189206,-0.998212730728377,0.396581312475023,-0.0838076474681712,-1.62583445920889,0.620083651187671,0.292885964713888,-1.05271224288759,-0.151345489657314,-0.021527064287681,0.878700008168432,-0.503317414547169,-0.872142647211609,-0.578634745473038,0.363432304286283,-0.0422016966651814,-1.53411592402398,0.293082915440303,0.22882896038046
35.115,-0.373883197745512,0.23902421604245,0.876781975372115,-0.055967794521563,0.036755340724569,0.151481967761945,-1.03620385333689,0.319422719352158,-0.0804977289555569,-2.11205237287249,0.639835402066369,0.3238137314861,-0.998237621551808,-0.114335930874433,-0.0597529646563549,0.770280241467652,-0.412042431099079,-0.881392928982063,-0.608118463743856,0.359175361019428,-0.0221093883288526,-1.46765336531134,0.231357194116395,0.354183270881769
35.12,-0.389503749641485,0.254578249867856,0.874140313003562,-0.0964597545495278,0.0603091885351197,0.129599946666743,-1.04559618255291,0.1628346336936,-0.0618412995236162,-2.30735503069524,0.641835382678801,0.321218193180375,-0.928220320275093,-0.0227047414007297,-0.0883320610508192,0.750337881266361,-0.291111676335901,-0.882533063591163,-0.650988384034089,0.341583815133895,0.00970498772239446,-1.33925909958186,0.203319570484586,0.497628125754362
35.125,-0.409801766461184,0.261863984211773,0.870282944620631,-0.13181300169841,0.0734516127911876,0.101034664339096,-1.02780212213447,-0.0574290901084112,-0.073956703676423,-2.1629829243259,0.622728028365784,0.270819189594018,-0.869642398859325,0.0507677824873673,-0.0894674443100628,0.748617505695689,-0.195117646541322,-0.8704859205232,-0.700958334723515,0.301644283159455,0.0125727519415208,-1.19454951000214,0.244006895899773,0.590041868448257
35.13,-0.405949674835931,0.306413164865621,0.86098045263419,-0.151509971034092,0.0597479890984012,0.0568641161027502,-1.01789878471202,-0.287527734747256,-0.103286540162302,-1.63983384268031,0.654158183762908,0.212275794907411,-0.825315135250099,0.111500532337287,-0.0840892059527326,0.636881635400516,-0.0917380495465263,-0.862945219634731,-0.764930492615418,0.254429009177668,0.0148932476070432,-1.03438514987622,0.306456045514202,0.656257493779623
35.135,-0.418873427912747,0.320432109504356,0.845313894998649,-0.180075536000916,0.0460374373948127,0.0200440741976576,-1.01324236742177,-0.449385742793756,-0.111123633660567,-0.945774873220849,0.657362990889883,0.253020944707292,-0.793406478381131,0.132462686651576,-0.0466890979046921,0.444670592599,0.00688718070205563,-0.864515252174477,-0.854934971908078,0.195136328743552,0.0187638652686898,-0.85837236387958,0.395640039456555,0.720995332016672
35.14,-0.430162180525536,0.306479926312399,0.839756706343007,-0.188653575318617,0.0215631992673542,-0.0255185250305852,-1.00350910398953,-0.483478220020334,-0.10646474641336,0.0650325366738564,0.663591143013103,0.171091233129391,-0.787534514278764,0.125238177423955,0.00151719405388859,0.211645148401357,0.0900069852783078,-0.882676372287251,-0.925349625105778,0.12801308486198,0.0284532967841434,-0.756461988551848,0.432059145703218,0.761441600940885
35.145,-0.427566229390327,0.254704279178794,0.859027107450658,-0.165128337167578,-0.00947448727469789,-0.0514019397499873,-0.961590182834554,-0.382902089539866,-0.12576809631569,0.705858006061894,0.625464717544436,0.171674565260805,-0.795335047182792,0.0970466528911609,0.0487197593280353,-0.0759682554897758,0.197890803087406,-0.921224291906103,-0.994391855870481,0.059822939112416,0.0369825006536533,-0.677299910361981,0.372739273220744,0.778767400438504
35.15,-0.415163044097188,0.228433158242411,0.870135825016096,-0.114759309168593,-0.0339378484903137,-0.0740583086514572,-0.942144236579814,-0.204688022645855,-0.126482330609427,1.42868391259803,0.609830618624314,0.136774771278832,-0.819836400292628,0.0728509055353086,0.141613630294964,-0.278012996853492,0.233620746053546,-0.935632499473745,-1.0597577225569,-0.0150524563942177,0.0479311332447104,-0.61719862509146,0.241711006920535,0.770590902390729
35.155,-0.407188842853591,0.228262396358669,0.86899428881273,-0.0544359786044415,-0.0463423076431527,-0.0771202890201361,-0.926829890248495,-0.0531509603776227,-0.104818658770661,1.79125280974017,0.664114477212979,0.0637054649793601,-0.836920998771488,0.0485118412209837,0.200293010646343,-0.282324712900347,0.216877529855077,-0.926483263317665,-1.10465354185272,-0.0764891491563347,0.0470305221002588,-0.54360687553783,0.117948618107736,0.739849704913112
35.16,-0.418741468064597,0.238355611875678,0.863118484369349,0.0243402728288901,-0.0497414472311324,-0.0742423754022142,-0.963858237232666,0.0882403250713022,-0.0650662487982485,1.9980437135024,0.670138774063111,0.0364733978563355,-0.862366692695923,0.0177598601421124,0.219001524228844,-0.196522175212807,0.118855604876901,-0.871516306493511,-1.1575620400513,-0.134591053571835,0.0467634283208798,-0.45746049342768,0.0518475233241052,0.673054644721294
35.165,-0.413158658603062,0.243958834331194,0.865686647963908,0.0679560487131527,-0.027847200997138,-0.0633145980225648,-0.999512161907264,0.162311493118891,-0.00839499835528115,1.95572692847704,0.625890834832743,0.0505956322573965,-0.906638238433141,-0.0039145898992718,0.207574256754201,-0.172170332590303,0.0271168521157615,-0.86936007534014,-1.19140467997262,-0.196435876709774,0.0225132128206146,-0.319453452461239,0.0736849393092706,0.572542326528184
35.17,-0.401198549292088,0.215842717039955,0.879483971113264,0.0955670128989409,-0.0336370837636489,-0.0476675991837893,-1.00063534429074,0.22449890223826,0.00968119670941852,1.76435999919671,0.609691311729584,0.0533746108412743,-0.955858760022636,-0.0110067775851939,0.163922496475819,-0.247091063085589,-0.0358608029554804,-0.912065797994748,-1.20510414000613,-0.232545194835498,-0.0039140772643084,-0.23262365688859,0.148970159607438,0.484202822053734
35.175,-0.391675295624186,0.184588012910137,0.88433160645956,0.106825854544651,-0.0364445136966543,-0.021702605646383,-1.00120527950908,0.255586604088203,0.00816252669839802,1.44424156844471,0.647303244515535,0.0397787207846027,-0.989718270979854,-0.00983235633791536,0.118293016876615,-0.379610027467656,-0.0543368264635238,-0.981912431315696,-1.18488910794658,-0.258768996414318,-0.0388622536523486,-0.199944725780526,0.275090712176129,0.374871412648816
35.18,-0.391784946478298,0.192794202388958,0.878546296867188,0.120006413274557,-0.0435993791556644,0.00943854878635297,-1.00020388340386,0.280156292702,0.00745080594920866,1.05980729654654,0.68755758807206,0.0230835681668436,-1.01673877727303,0.0018074813555425,0.0896290113816422,-0.47013355997804,-0.0460812295588386,-1.07670194899876,-1.1563298685629,-0.269435259333469,-0.0680477573778204,-0.216590771623826,0.36343288645943,0.300439436688174
35.185,-0.399053460236172,0.225398986021478,0.873765762776605,0.0973984304464373,-0.022322355900355,0.0366868513227894,-1.07077644858102,0.298348822787409,0.013635606392087,0.468275198598862,0.678839075505896,-0.00730535001597069,-1.01287120258591,0.0158887682233176,-0.000814274278829574,-0.431074118549571,-0.0522865852114804,-1.19543791405602,-1.10776069090939,-0.269325786546448,-0.100521669543524,-0.279154700317468,0.495752184450672,0.199524697186065
35.19,-0.392966612036831,0.248318798889175,0.877321236783095,0.0622642280904081,-0.0074703757282304,0.0461086016543934,-1.06697728451627,0.328637123821495,-0.00438540389504115,-0.0683836209180531,0.659953438815365,-0.0795070445003422,-0.96534041968232,0.0220823834867653,-0.0562956944731007,-0.326755290806323,-0.10449985255213,-1.27507708838285,-1.05950068231259,-0.242353949956144,-0.114336031125762,-0.321450262036594,0.577347401979975,0.146249408511539
35.195,-0.398067782146259,0.249042609600976,0.872196930148688,0.00614125103797233,0.0139535737585267,0.0409148756758199,-0.970784572537179,0.386134534712266,-0.0537447281898842,-0.479579590514681,0.717957892673764,-0.0320044561475101,-0.975098593456817,0.0476190300588697,-0.0804584090595794,-0.207481466782665,-0.17729781074371,-1.3512576852418,-1.01274161447421,-0.183956774377654,-0.107918160463466,-0.346130792976901,0.6112899991557,0.108294506627127
35.2,-0.397346904842274,0.268389587362159,0.871561422493668,-0.0599760409398486,0.0422958226332686,0.0240424055464396,-1.01660379553337,0.193297566022619,-0.0409789630436868,-1.00676923009517,0.539883835239004,0.144198243830941,-1.08102038337299,0.0819432245245321,-0.00245836685016743,-0.091712866531985,-0.221910716306797,-1.39553729192179,-0.973624595196089,-0.114548970993691,-0.0959731435185013,-0.34563345983276,0.612475204408964,0.0902501469677735
35.205,-0.390544158994245,0.246903844960028,0.870651877709464,-0.124542956775108,0.0705703676938881,0.000764885025196637,-1.03629089402645,0.176563273797025,-0.0962315003718875,-1.22037501044324,0.559324306795579,0.0691277599359607,-1.14904413555472,0.0494563345187624,0.020528633966195,-0.0649936658652875,-0.196097475441663,-1.44261033767384,-0.925754967154796,-0.0279896671031896,-0.071736515386925,-0.359665179472178,0.608605129657036,0.0974095373430947
35.21,-0.393147537841844,0.263021546053417,0.870072886185939,-0.18242190635605,0.0809106230735779,-0.0207214852265141,-0.994852361959733,0.0598605147390371,-0.129751884267257,-1.21645969347061,0.643927216151559,-0.0193242144325993,-1.19826742373929,0.0346534774685078,0.0763152687200614,-0.0712643884901254,-0.156881493338348,-1.44480871361313,-0.900630195860968,0.0386450812207494,-0.0477342781623723,-0.357130228315813,0.598312046441552,0.111905261528052
35.215,-0.398627710486432,0.277556704682754,0.864616365236075,-0.230737774464403,0.0862018361443124,-0.0356509474906071,-1.01551844269058,-0.0775957974982227,-0.121036369185399,-1.16572437788135,0.669496471455982,-0.047784655480298,-1.21316757615378,0.0323339136408028,0.116737290018208,-0.0360356686676235,-0.135551902021203,-1.3775363658963,-0.88337856396005,0.119664323568145,-0.0180038809610975,-0.353223912589034,0.589723705747964,0.124231941059356
35.22,-0.410102154245824,0.260093106244069,0.857971960922793,-0.244785251856144,0.077702144664691,-0.0527609205922021,-1.00112759348256,-0.114194040911413,-0.106036441317733,-1.03037838981349,0.616521498067946,-0.000447972431131246,-1.19420084851098,0.0378793512612463,0.111348158086183,0.00224487899115002,-0.136464358600814,-1.26979114530312,-0.8873442412515,0.172376125295692,0.0154359483453908,-0.330802845303963,0.586834885725865,0.125622019171715
35.225,-0.407937968807579,0.24015998150649,0.869142108525454,-0.228536512982606,0.0698818229496051,-0.0682309111374406,-1.00692362194786,-0.142575752879755,-0.145449631921423,-0.648464751459617,0.64897537383945,0.0401917402211001,-1.14360587330302,0.0141937276916935,0.0987908633621608,0.0560502009647045,-0.158880106776883,-1.0474029166769,-0.888847005367282,0.235422167672834,0.0638059329491103,-0.292106711856973,0.561592296527649,0.109050423503487
35.23,-0.404442668539466,0.244440724075442,0.865460546240411,-0.189251058699606,0.0530543320014108,-0.0769804200972344,-1.02899719308311,-0.157545555829487,-0.153552614307327,-0.314242274055842,0.670400659199696,0.0281431596548493,-1.08970794976904,-0.0131027127839303,0.0925278193523485,0.0514711430213386,-0.191481364894999,-0.894538580669184,-0.899529433741418,0.287216258042826,0.098535380355749,-0.271325482065414,0.530665318748212,0.0937183972690719
35.235,-0.403476705663537,0.233673785804335,0.867732034919978,-0.143351678933379,0.0488119013972624,-0.0903389511634971,-1.03678607350186,-0.144277089262987,-0.156369812552251,0.0542689593345506,0.686936172183225,-0.0425118659941166,-1.02716919367958,-0.0445975125010451,0.0592390202125023,0.0266086197623049,-0.209852853720809,-0.741702305828166,-0.908063861227814,0.320503280391634,0.13080646784003,-0.271686465731718,0.482080104165311,0.0920759628650747
35.24,-0.406323782879581,0.210100288549666,0.869606857294207,-0.0995626403050054,0.0444235968673029,-0.0948663852343013,-1.04836932434014,-0.134752295251475,-0.156789436222319,0.359724109317916,0.632485850420556,-0.054312870896645,-0.97911862323348,-0.0573758640433214,0.0406735677280362,-0.016795595233356,-0.2012755668705,-0.631135690051153,-0.904706354769806,0.35249788090666,0.165006175714672,-0.257321468323215,0.413969872358375,0.10004207885855
35.245,-0.420851861331633,0.213408305435055,0.871336667275449,-0.028218834601116,0.0438747633592928,-0.0967929484713975,-1.01129988328955,-0.0831232660103136,-0.150361396109554,0.560187071321277,0.578193921793471,-0.0642478851450667,-0.935756338197496,-0.0657990665347329,0.0242474965083092,-0.0757798587066997,-0.172792857419966,-0.536733046619391,-0.908335530989805,0.355592244150125,0.181150738285357,-0.236922000471714,0.337542743653311,0.110974787084423
35.25,-0.419917321451451,0.219357914731946,0.867858511397721,0.0162788471543777,0.0450063928341601,-0.0937761396032337,-0.990905670669896,-0.0268599641855366,-0.167156204381199,0.761023754871416,0.565725135444491,-0.0667249584842163,-0.889360025294889,-0.0774934382084612,0.00139403604441031,-0.157373713516205,-0.140165284433789,-0.492794291875721,-0.905830870431653,0.345914215546208,0.182678647429245,-0.232635015597793,0.236173167266319,0.137006077867454
35.255,-0.419410396016188,0.218473926442731,0.863872518556807,0.0549646007646896,0.0412690385348768,-0.0889258174433651,-0.998088452067211,0.0154423373379328,-0.163220195536866,0.842766167360516,0.565322848916572,-0.0787201843651599,-0.860954466122363,-0.0867492829696429,0.00329201505591975,-0.286105787235844,-0.119950417513425,-0.505986368967153,-0.905194006916371,0.321600512433139,0.185853734093594,-0.254428715431099,0.124310950423922,0.174038167148574
35.26,-0.425033845294158,0.222589199750817,0.861711937782303,0.0783134180134033,0.0370363743216726,-0.0887632742879646,-0.990110360036065,0.0601381938989518,-0.163776369708712,0.838343058047692,0.550423893054196,-0.0977454633271404,-0.841787826381771,-0.0972329515613011,-0.0100712327915066,-0.463840559209221,-0.0888790493654401,-0.58430052311743,-0.901201751812909,0.291140578801842,0.184073803447764,-0.28085769647415,0.0200683819308725,0.200465662957342
35.265,-0.427239588627141,0.222846700665636,0.864591337449475,0.087840359719892,0.0287697267567177,-0.0864534612566515,-0.967496373890823,0.0969279517951017,-0.16400550106906,0.70948580253095,0.565883937909344,-0.104775698272191,-0.818975670273114,-0.100204971724764,-0.0161777171714645,-0.598578344637538,-0.0738537263358666,-0.645433203738353,-0.905738523420933,0.230412026879873,0.178034465862289,-0.29010308764117,-0.0903578851466271,0.229375302687909
35.27,-0.42282246650876,0.210236587981365,0.866463597237317,0.074917731469753,0.0160218823910184,-0.0803859334229999,-0.956355210752629,0.0939972198138291,-0.153189282850242,0.564866577816287,0.57891947592014,-0.1043908928655,-0.72241592416569,-0.108501352893067,-0.0469751162119717,-0.823857670650301,-0.0453339300458367,-0.744269682258695,-0.91054517969343,0.186389715009402,0.174969179864174,-0.271870001469353,-0.153522359017388,0.238743616071083
35.275,-0.418050138809204,0.203803562840105,0.865791957241907,0.0490474443016559,0.0159229338185256,-0.0661847658722274,-0.944574603437664,0.0858140739329959,-0.139855568516754,0.343051320746101,0.57703685760498,-0.0963079952903238,-0.790187747624845,-0.127766536989886,-0.107023663884498,-0.975469556649069,0.00669960744448698,-0.854504592677994,-0.91823027865971,0.153023188498754,0.155631178193119,-0.245944519693751,-0.178830476261559,0.249231398744277
35.28,-0.421321278360904,0.210816069292932,0.861003716367244,0.0184740704742239,0.0244138000780701,-0.0512625694667675,-0.961430965048566,0.0855876900997809,-0.112709383503697,0.147353313670185,0.569870629219041,-0.113587664963238,-0.880254451489435,-0.0931900490710176,0.00449581950299743,-1.16630241240761,0.0833353420319774,-0.903244938669297,-0.938384822738443,0.11184640511675,0.136652208168869,-0.203272217343605,-0.177695359216399,0.251426973080505
35.285,-0.411576317219736,0.223577149108141,0.870108821250048,-0.017712709309065,0.0191009353120323,-0.0399325683709756,-0.96852669873726,0.100613474822623,-0.118555566624623,-0.0452055315014618,0.573740503352331,-0.107082300303997,-0.866829254332322,-0.124448656770011,0.0114153875645091,-1.06589247961659,-0.0266075895665078,-0.929060526246603,-0.94165168024352,0.08139773968728,0.127327718750293,-0.155596450539243,-0.148240307167177,0.245702893717423
35.29,-0.404328801444686,0.246205350345702,0.87064636857326,-0.0626218807441143,0.0477366783161558,-0.0425626635114752,-0.975386708124029,0.105509273211719,-0.122095307931865,-0.246840763848481,0.566204598522292,-0.111303175168834,-0.898269216955323,-0.105783567705403,0.0103464551021897,-1.04440902647956,-0.0326429361732222,-1.01739407144495,-0.956550090742824,0.0460339793284688,0.110142149011178,-0.100946029096682,-0.0782876656508222,0.229250255130344
35.295,-0.405615841444866,0.250020587312154,0.869326786383746,-0.0875406258498599,0.0556905649898295,-0.0470274811114075,-0.985378583783314,0.102499418868752,-0.120892146242296,-0.336650017896495,0.52026094717735,-0.104440516457429,-0.932308599264174,-0.102608356533461,0.0358618297220169,-1.00304653268483,-0.0100964609799195,-1.06947453591023,-0.96127591260199,0.0191820755227025,0.0950233722268805,-0.0631732276194714,0.00655328914623765,0.213634593946597
35.3,-0.405690912765738,0.251399012093055,0.860337261500685,-0.119554745017519,0.0660159870647608,-0.0639633000781568,-1.00076204352876,0.0607695181495585,-0.116073758001095,-0.384136558793581,0.543422752485688,-0.0801767746132987,-0.982630887827699,-0.0880247796704664,0.0713631700867428,-0.914832340541486,0.00279641260154887,-1.14030973399091,-0.974937953900402,-0.00490302839001841,0.0816434198463753,-0.0620308820328168,0.1064188331058,0.181520216606167
35.305,-0.40514477079982,0.235616374915434,0.870173504610735,-0.125346271761646,0.0704587854105282,-0.0779404397204639,-0.99282310258193,0.0326283345859694,-0.116166589484908,-0.392462036188631,0.561229572010021,-0.0870323908107069,-1.0185767125138,-0.0702292742258558,0.100732877776066,-0.78831563996764,0.0161323414171033,-1.20091060710132,-0.987230582269305,-0.0228128113505058,0.0650452406024367,-0.071601167652265,0.198996936388926,0.147114295668848
35.31,-0.400034392268505,0.228286232301725,0.875078113035266,-0.112797444326985,0.0776080874346358,-0.0838569033352617,-1.03270684553663,-0.015235522231542,-0.126174620643605,-0.366102681553786,0.581888313708424,-0.0938572422162258,-1.05254358580124,-0.049480327706267,0.116604697743178,-0.652662378514434,0.0321414384514614,-1.23996137820514,-0.997215204969162,-0.028620260640546,0.0461372951054427,-0.0944116114230063,0.301627836982063,0.0963052878318819
35.315,-0.400149988120016,0.227016670567862,0.877168268685958,-0.099659416661169,0.0797925349270427,-0.0860241456365819,-1.04543268258505,-0.0377343662153425,-0.12854572901162,-0.304796755272147,0.598442781228897,-0.0950284343649945,-1.08836909693674,-0.0335484596237758,0.131721515390286,-0.521458286569924,0.0345567613840103,-1.23698770838499,-1.00711126551032,-0.0222715268757544,0.0265122917892168,-0.079905624603164,0.382334723163986,0.063438172739717
35.32,-0.405512250013703,0.22722955079396,0.870277910560756,-0.0697241659671137,0.0899112146760051,-0.0840666755753699,-1.04273510753232,-0.0522546274540403,-0.14180941354937,-0.168163910408869,0.616769385870109,-0.137743829530834,-1.11698749224399,-0.0265993677448235,0.12744346716523,-0.458284236683922,0.0487028456450415,-1.20012923118498,-1.00446240326908,0.00542410033488404,0.00399280926754944,-0.0657776608324563,0.456719657417985,0.0245655937897386
35.325,-0.39795893363798,0.214949212099258,0.876889584618025,-0.0385631366570974,0.0923332744233866,-0.0826903879642487,-1.03783426112637,-0.0630957347688213,-0.139951517397235,-0.0786505483121419,0.647907366739376,-0.153172987413517,-1.14122585836521,-0.0266671665628578,0.124722542053405,-0.422138429742478,0.0543696184099831,-1.09392735266168,-1.0133412483402,0.0272616385000691,-0.00442698445474227,-0.0807451089902488,0.491213424303435,0.0129828465323205
35.33,-0.400802222149424,0.21497470537273,0.88209090334603,-0.0222234977501156,0.104924017464789,-0.0803871670445891,-1.03469417754408,-0.0452268969465862,-0.130801459308813,0.0319437377944446,0.667371465724468,-0.168902999765309,-1.14628131733649,-0.0164323615244081,0.120419733256159,-0.342614329661825,0.0400620097120989,-0.99375442431533,-1.01078108550776,0.0588035245191027,-0.0182309370425668,-0.108843246970073,0.528011664222937,-0.000949810791960924
35.335,-0.411995719918806,0.223109353437451,0.877688381417207,0.000918816845220697,0.120655153358754,-0.0751434568825038,-1.03182843103288,-0.0141206789767059,-0.1413920841959,0.124557310077616,0.663903416015812,-0.174439862167312,-1.14429409088028,-0.00289041210340794,0.0967514035379026,-0.226675859652232,0.037623091159675,-0.874348757702502,-1.01033273215943,0.0809298801361557,-0.0198570781743729,-0.126678635990763,0.540788288535773,-0.00952190378710144
35.34,-0.413209576152771,0.231942720402338,0.866737022668199,0.0162549129894526,0.134343428898474,-0.0776963577363551,-1.02272225954488,0.0171059614979239,-0.158935677318172,0.179877155324246,0.644602051188868,-0.178667645104167,-1.13591647488031,0.00174685837347815,0.084908387199933,-0.168494482119077,0.0370024281019715,-0.810501104217431,-1.00699067231776,0.102651531055556,-0.00455145799842845,-0.124234410348607,0.542579827219608,-0.025925596295334
35.345,-0.415825427020103,0.232943871661,0.876619562302612,0.0277716715501685,0.142403308699247,-0.0894759079784739,-1.00093589115166,0.0386586073439343,-0.169571117177114,0.189312495583777,0.630637045494948,-0.199469681980038,-1.09494211894889,0.000655919916040811,0.092570113758358,-0.0957286523613307,0.0471406278250107,-0.731579901144631,-1.00329426165072,0.120356911924622,0.00506180018765875,-0.112999942915786,0.515982752267742,-0.0314199718307871
35.35,-0.406111998604994,0.229006235405405,0.873667575529711,0.0287221167236567,0.151507167956085,-0.0995448005897484,-0.998585193459377,0.0436811833182424,-0.156752655962871,0.174871840391768,0.618574440479279,-0.207865693227208,-1.06233817623401,-0.00428061110288918,0.0983697577185675,-0.0640947420468555,0.0516604855656624,-0.692716273995643,-0.99479343783509,0.137646125300103,0.0238627613187301,-0.0886148995542747,0.498097644881968,-0.0356919511398051
35.355,-0.418351810723742,0.231234418777463,0.875669154443122,0.0251950989150887,0.1581535170012,-0.105222702534664,-0.995400845957916,0.0544342369473644,-0.14805722111676,0.146190810569246,0.614094085678519,-0.215643014995816,-1.01745703093238,-0.014521273343859,0.114623052868286,-0.000607173616901182,0.060846378875227,-0.659500219605503,-0.986801209767721,0.148986451719159,0.0455666353895855,-0.0341687359128277,0.457480419494559,-0.0418381486840714
35.36,-0.419683204477907,0.243341169454816,0.873904881705985,0.0191008134602704,0.166086682351628,-0.11537163639995,-0.983945658632924,0.0647682233420826,-0.160858222801459,0.0999996188197178,0.623199738791799,-0.219005154407984,-0.982385708731815,-0.0220460886601444,0.131676210629188,0.084230171589012,0.0577906869528256,-0.635789027614475,-0.990127805120074,0.152075290712857,0.0644244221357189,0.0301265407909808,0.404347505767738,-0.0466846900368401
35.365,-0.424994418935121,0.243360501118847,0.866364311569104,0.00575473143363357,0.18263650893825,-0.1239831919227,-0.985904498882388,0.069880921912904,-0.172159532264542,0.0652626829527614,0.625534953523547,-0.235168112668816,-0.959801641284429,-0.0376462274322554,0.134438124738959,0.161519560351747,0.0519810056383934,-0.624472801322651,-0.994965375019126,0.146184454921472,0.0721570714320945,0.103640848744618,0.334195051231616,-0.0545464414310165
35.37,-0.430097359938274,0.243989475878678,0.857855761077229,-0.00955530284916588,0.196912764720033,-0.139293229406515,-0.996955270122904,0.0869754353976291,-0.182672534746525,0.0197345236700986,0.636152115579969,-0.249410048905998,-0.944611332535523,-0.0636164305144659,0.120382632210596,0.201742332002963,0.0516509372208965,-0.626560682363576,-0.998542644384959,0.129217413848263,0.077987877776386,0.184319556254662,0.23569937988407,-0.0656749130926887
35.375,-0.434049934877931,0.25067781106451,0.855725322160186,-0.0140371918678284,0.206256710044582,-0.160797867233334,-0.995921315426118,0.102953192574597,-0.175830731212087,-0.0297024340496665,0.647823527685053,-0.261158019585755,-0.942190393606048,-0.0870927123615351,0.108447279397604,0.196804153230916,0.0606853824410743,-0.628749158470031,-0.997738437458998,0.111011095397961,0.082878327078834,0.245569010644386,0.14642608145109,-0.0790399660322918
35.38,-0.419269571936148,0.254820014513134,0.855437314718718,-0.0176060156042833,0.228222277305105,-0.195537904711929,-0.985652214382473,0.096266714631876,-0.163656500604652,-0.0522891412629115,0.657545014056394,-0.267848580470318,-0.945202030926051,-0.118204704069175,0.0798462940544145,0.167407187529079,0.0773493413090834,-0.629607240133521,-0.991917701616377,0.0918563715419018,0.0902953867887944,0.317845274886677,0.0208879938848335,-0.093288139478602
35.385,-0.423072513727034,0.250656903002623,0.854659721934141,-0.00093082887807633,0.207159414020549,-0.211340469870859,-0.984517658986748,0.0919547086545578,-0.158938657481244,-0.0588182291985514,0.686859446079399,-0.258919916412122,-0.952558981303507,-0.130337475225207,0.0666789420359429,0.119579424900424,0.0870896279811859,-0.626273330210458,-0.993163071589031,0.0815175346424259,0.100659317532352,0.370810089422941,-0.0510175516428919,-0.10561541088228
35.39,-0.424214340652231,0.283123923013059,0.856171529947182,0.0452844704759231,0.202043972238982,-0.239739918697611,-0.980439475719705,0.109870722766661,-0.155162153150332,-0.0239370516329422,0.702701720725298,-0.247709462110899,-0.96270021535776,-0.142619010213552,0.0453329875481765,0.0809088452671185,0.0846611957520498,-0.63446158517993,-0.994093348234209,0.0760293437736021,0.104577596045346,0.418016219393184,-0.116957457414311,-0.123202772598978
35.395,-0.43276078061524,0.294506881676114,0.85387386508656,0.0649731658529063,0.208225937896085,-0.2922958863784,-1.00669565781132,0.121179999079921,-0.142078675641142,0.0365290918417,0.737670076227171,-0.229664348788611,-0.976577628268511,-0.153388740825037,0.0288925995654588,0.0136071754228498,0.0692157102259173,-0.646474897718242,-0.996377924786063,0.0656155761372093,0.114412383267019,0.464252009529088,-0.159655140729121,-0.136331128111326
35.4,-0.436139595672589,0.283714374930686,0.859797406586966,0.0771678461221702,0.221124137061803,-0.340669655324461,-1.01011772853989,0.112706826566477,-0.163886579582398,0.0871862164041236,0.700202575525365,-0.199989396803824,-1.00079707383087,-0.156736965123335,0.0122965468140287,-0.0462510723608687,0.047995805140466,-0.66749175174335,-0.999166893268012,0.0633833259253631,0.119703921534109,0.502745843771573,-0.161936325897468,-0.14573868775882
35.405,-0.416101943159824,0.248523259325001,0.875070803909569,0.113116116096856,0.244339901920684,-0.372893605520033,-0.956208603307076,0.111631383171395,-0.187577899889466,0.174488438787221,0.737932680533282,-0.238557844120627,-1.03497591391885,-0.154676969883007,-0.000368907909595551,-0.137448989826578,0.0137405308319378,-0.709854078403825,-1.01770888661809,0.0545727422092382,0.116908078520179,0.531720258988438,-0.141987780651421,-0.158916007889416
35.41,-0.436880239449437,0.264296462125872,0.86664376822005,0.139591023408879,0.266657532684571,-0.401828657266311,-1.01315713096136,0.0750597623494099,-0.220437972514571,0.20650378247578,0.76750330779536,-0.236363469449321,-1.07475582830683,-0.146656834083493,-0.0331532069107383,-0.201654758528045,0.00025933157771454,-0.729832387081331,-1.02681220034154,0.0517078199806305,0.11784537698154,0.54845526413681,-0.109994447160876,-0.16766943970793
35.415,-0.44184160007134,0.255549487077164,0.868540766526205,0.175281886135331,0.293783666909707,-0.43288043675898,-1.07543558262752,0.0535283551082508,-0.211646458364417,0.225689714194647,0.801940487253017,-0.245385640078459,-1.09141867655163,-0.13619003216132,-0.0533205047125471,-0.256075607950451,-0.0159088126649637,-0.725126433057189,-1.04560826380817,0.0415330064396177,0.119950527179952,0.554941475391388,-0.0785589480121719,-0.182269535080323
35.42,-0.417030258699877,0.260900070730529,0.879335589081171,0.210429722163722,0.321630756756583,-0.45437927475003,-1.13639475710202,0.0263091790444694,-0.192336202465779,0.250586415629695,0.826867679209596,-0.290618007105656,-1.09985757594679,-0.121189266408849,-0.0773390660921096,-0.310391790652228,-0.0263496455813115,-0.69974031697514,-1.06006855908118,0.0304600930361386,0.12028291568789,0.548868849839234,-0.0558633879052752,-0.190768197171319
35.425,-0.409915901059165,0.218071561432661,0.877136025606629,0.20802906604484,0.363973840456534,-0.499290912319018,-1.12216596850442,-0.0502185553827538,-0.150110211899129,0.282681495851986,0.814497929114511,-0.303221283802567,-1.09959785929376,-0.107776212025413,-0.0925042654797392,-0.357568132663603,-0.0382769651062909,-0.655891483461448,-1.06779132505171,0.0245246871758205,0.119540110113817,0.530374241960709,-0.0596764796566484,-0.203582502302749
35.43,-0.418789764255114,0.21102925253309,0.895052661444185,0.214556334512989,0.407877789608506,-0.505187092722917,-1.11479452783208,-0.0914074871939492,-0.190019370800387,0.311634914559966,0.804159943737938,-0.286886001340872,-1.09805668144207,-0.0881202103874107,-0.105563287911784,-0.41964550709778,-0.0528458336160546,-0.619686145480412,-1.08228919481382,0.025724122212476,0.115945293267104,0.510119010492081,-0.0813043869648256,-0.211565673351288
35.435,-0.407041950289313,0.197567171922456,0.899324290077604,0.207772333373322,0.469565590233723,-0.492702100396553,-1.08667086809085,-0.112273761335309,-0.217541729787031,0.364790616206147,0.829632193901681,-0.285352506841358,-1.09150993799039,-0.0677060620669312,-0.112121600711321,-0.478073936152587,-0.0582920238375664,-0.588806227101509,-1.09283628541454,0.0316845137112084,0.118033327901416,0.490403957714819,-0.115655947759096,-0.221013109094193
35.44,-0.421594726510869,0.178147539642083,0.917653272073169,0.168999270538999,0.533910844498182,-0.490736365318298,-1.09092765876377,-0.132975805757579,-0.220266148400121,0.383474482337605,0.839647596897945,-0.293399114471908,-1.0785130765529,-0.0471023349872435,-0.114916757311791,-0.516558905330209,-0.0607310712031788,-0.577099888144898,-1.10458686423313,0.0316077639281809,0.115706773780277,0.476462289571085,-0.138074756773448,-0.22630252757037
35.445,-0.419223419940801,0.148334878669934,0.917360381312048,0.152921331979296,0.597838837444899,-0.458695757432635,-1.11049530153776,-0.148305957428494,-0.221820272483374,0.360745526502128,0.838566828365513,-0.319438276477541,-1.07259480221124,-0.0225161212109704,-0.0966313593781483,-0.545566385602626,-0.0483504103428188,-0.571936674776444,-1.11450038864207,0.0399142745237014,0.112144978320239,0.445853639232576,-0.174731197071025,-0.235008317889817
35.45,-0.406643325533063,0.161101525322217,0.918084602767304,0.13069231761648,0.67837626901723,-0.422990672423497,-1.12881491329414,-0.137711156842364,-0.214523194906795,0.310544302240184,0.841121639966784,-0.372269574766853,-1.02463644159077,-0.0142584991052138,-0.0640395101843693,-0.561203736312163,-0.012178824084491,-0.578264066639158,-1.11570471632503,0.0460697674711772,0.108046164905779,0.414190294941831,-0.188544849827464,-0.248358921822486
35.455,-0.415625846403107,0.180378246356727,0.907385870485383,0.124269419433075,0.738255903062064,-0.382433616720565,-1.13272792762089,-0.11406943083228,-0.200037185846166,0.254186246392442,0.867186793697524,-0.418266928757316,-1.14478797422344,0.00974839369483618,-0.0815675680137559,-0.634148493974254,-0.0257521721394432,-0.601283892931309,-1.09845449379097,0.0575927431552785,0.101213739085753,0.383711853397837,-0.199373884883784,-0.261844795657563
35.46,-0.419244433674417,0.201193262256988,0.912638950375213,0.102624492108314,0.800133538399939,-0.355728955327956,-1.1389278154117,-0.0823369408516954,-0.177697687507849,0.191745255536645,0.872686922550201,-0.46379201898792,-0.998348622672936,0.0235738717248347,-0.0226850104269012,-0.635156836824412,0.0173368047625076,-0.525944963321388,-1.12591792808848,0.0642978532634962,0.111129194780866,0.42489519644771,-0.206272484435786,-0.320176489851124
35.465,-0.428054186780168,0.188908771799909,0.902003794926103,0.085290555636123,0.871724607818203,-0.338742035293056,-1.12630318943838,-0.0816934001411824,-0.192221672858219,0.156050028350599,0.853434183291579,-0.484626952584752,-1.00891115860813,0.0225861377989856,0.00981685050816228,-0.61503191894707,0.107912362379817,-0.622664081884452,-1.12636522057968,0.139076103421687,0.0890787131965184,0.315730175236804,-0.230834072859397,-0.290208714884888
35.47,-0.434734103813848,0.184991812293903,0.901042681329694,0.0836462068939697,0.944242337364236,-0.315657923079848,-1.1077026685161,-0.0753138055025361,-0.208060624844844,0.118856982200287,0.857334792044561,-0.504745457557874,-1.03606621252267,0.00611471760729972,0.0361781372349008,-0.563615762238796,0.197217668832715,-0.694305689716554,-1.12891086722345,0.152263794233358,0.0730954578608468,0.123020235887974,-0.249717064353971,-0.237128605146726
35.475,-0.433531680489668,0.196470468558396,0.897383108005172,0.0911705269741511,1.0155145452093,-0.297424651246435,-1.09708531464068,-0.0669292427057505,-0.200061157465512,0.0779689172150361,0.874919667237328,-0.521301006682201,-1.05212825239154,-0.000757907332863723,0.0533166178154106,-0.608135044059213,0.221599449599304,-0.658906347556041,-1.08210481395834,0.151099556787711,0.083787878589576,0.121785087607726,-0.263951294437833,-0.263981278239525
35.48,-0.432516790007595,0.199441150413069,0.901587267332335,0.0958138290577984,1.07476481954954,-0.282283284608845,-1.09188544509793,-0.0612365943861935,-0.183553170765373,0.043127538492231,0.912524694792983,-0.541342699231449,-1.0716390009893,-0.0187509286632336,0.0996188375254372,-0.715331747378673,0.247034733478465,-0.598081617125177,-1.06533350965388,0.177104196562152,0.0876221166358916,0.244445136172936,-0.258000265779314,-0.316617955645285
35.485,-0.443121765843232,0.206949549075764,0.894641334276729,0.0981609700854434,1.13164418732263,-0.279099329281782,-1.09052725079039,-0.0478594627541818,-0.174891280670766,0.0168656350670397,0.941736104513407,-0.572098493321935,-1.0713817885993,-0.031815655314075,0.126767532025173,-0.733480586825853,0.285308100277843,-0.555760754593975,-1.02239856943626,0.205852485210533,0.102411872426328,0.361100556530314,-0.193736443860106,-0.315742403224857
35.49,-0.453873006924252,0.223758474827844,0.888257755847007,0.0957450717196757,1.18526727825118,-0.276456665544056,-1.07636736820214,-0.0356430976460734,-0.169383600498092,0.0348369322395572,0.940468655493923,-0.609604015307257,-1.06180828008897,-0.0522200209799548,0.14681779023146,-0.732250811884502,0.322786906612915,-0.503854194371214,-1.01862026638134,0.229647074652681,0.121723129811934,0.469786984926497,-0.154601073338956,-0.322249223593374
35.495,-0.46390491728937,0.234487792321494,0.882751152069111,0.092120480810701,1.24853710428679,-0.283408167241104,-1.06145109083357,-0.0196896903523585,-0.175161999538705,0.030574577253354,0.957433224094504,-0.632795662246944,-1.05948570552234,-0.0643876978847805,0.163046002360492,-0.744974333220471,0.346191615362799,-0.484135269622171,-1.04418708639284,0.261238217424405,0.129107300199869,0.543631339002841,-0.163739894986596,-0.313457524264086
35.5,-0.475338719185741,0.233828923654282,0.883897093444644,0.0721931606202409,1.32344488236658,-0.301978565660374,-1.05206893818333,0.00157515139568843,-0.177083689180837,0.0317280414565491,1.00166894692155,-0.659787657342768,-1.06101752334996,-0.0631026393010816,0.186458051945117,-0.73411533748821,0.36923662318554,-0.47083352503457,-1.05116458916457,0.273109314809574,0.126398261259115,0.508503384187322,-0.192963418314926,-0.274956773023098
35.505,-0.476317612664007,0.232212543964119,0.886167416657058,0.0755643127934535,1.3682364357174,-0.320171583191549,-1.04998733916043,0.0298276753587009,-0.179332619732941,0.0287467485668677,1.0578427358226,-0.676876321954519,-1.06633742413198,-0.0576035980268656,0.202149224124279,-0.70936657340526,0.370469686157332,-0.462353974844817,-1.04955556044658,0.262869324058222,0.140349375693501,0.516296637738256,-0.241040208963801,-0.25987642403277
35.51,-0.502702680558978,0.234966820884439,0.875905921017733,0.0681521852050741,1.44915187338413,-0.354605650369503,-1.06178408109633,0.0515200660839439,-0.181905808449076,0.0578525289645426,1.07916080492618,-0.721972380078681,-1.07997179511037,-0.0517759468822594,0.222566135871696,-0.688672397807823,0.36501003923462,-0.421094598259342,-1.04286891124381,0.261957523894517,0.145155179199574,0.556078377076011,-0.296829948100606,-0.245562703808237
35.515,-0.550872373910904,0.221841084296679,0.854429184759289,0.0531230177870722,1.52221284574838,-0.395411101944442,-1.06717376346084,0.0678823323688628,-0.178664074842746,0.0668752634270441,1.13538253402539,-0.748300523964833,-1.10324223997235,-0.0395656733152073,0.243968552101505,-0.634995733412418,0.361334670591027,-0.352029747955637,-1.04819241430032,0.247744564711305,0.149815441611216,0.611443895575231,-0.33767554998088,-0.209435532494942
35.52,-0.563565084333181,0.275990692941188,0.872747991903242,0.059897272712468,1.61008029321675,-0.477996748872141,-1.07362822460507,0.0858635699417555,-0.176047154298194,0.0931162993619668,1.18637191118236,-0.792926009567921,-1.11535649321558,-0.0273835962195537,0.266447626305626,-0.586113580227386,0.352429428773882,-0.280618133872842,-1.05944464090527,0.235766678597249,0.148832115556093,0.667169695227593,-0.356276953665169,-0.182314860760228
35.525,-0.5277019734951,0.300743584110846,0.873898564021688,0.0413171590404043,1.67314775224865,-0.544107450255187,-1.08552749715092,0.103836406367694,-0.159554542473897,0.124013159125083,1.2668498656793,-0.832000155881216,-1.13088596130186,-0.0197951356784024,0.286433351639404,-0.434288235117857,0.354503143703741,-0.229441836448032,-1.09121711221908,0.227301496716648,0.143248520348453,0.683239083948927,-0.403114847234548,-0.147518039172383
35.53,-0.514363684264254,0.309550900426371,0.879569624235067,0.0209600835990948,1.74638714551927,-0.626532016514146,-1.1208653999457,0.123294432264093,-0.144228213382173,0.158596316093377,1.31431949529479,-0.877837034301796,-1.16157679027769,-0.0122631343995683,0.295995664722082,-0.325599791724889,0.33553034676217,-0.19209236117401,-1.12587309649739,0.214729686695849,0.128820807372843,0.656869415712432,-0.465636056330258,-0.113773244777297
35.535,-0.514963247241763,0.314217179312571,0.870144884885414,-0.00253726635122395,1.84668382691284,-0.727049013382488,-1.15209484720388,0.13410697269794,-0.127837690492139,0.191166299167483,1.38703288494005,-0.916335941151797,-1.19406924350267,-0.000136744326047017,0.313046672717372,-0.198961174904051,0.303665742523985,-0.144142184496428,-1.15919288075013,0.151490689403594,0.105640336416708,0.593602618813147,-0.536230598507409,-0.0708879021159597
35.54,-0.504885671078033,0.351905789049842,0.892851273063438,-0.0055983229696906,1.93233792723458,-0.81848468542688,-1.18719277521105,0.139079664314344,-0.1270423162756,0.214645934562232,1.43151203975785,-0.932322202854856,-1.20599562975284,0.0132477201250527,0.315165179749577,-0.0890951607656631,0.265487346682159,-0.0603804562944291,-1.16542869263477,0.104201795934869,0.0825342036196013,0.568153823863964,-0.5689795991935,-0.0475719679905993
35.545,-0.49071980252038,0.342388830130659,0.883810925422213,-0.0391071243791077,2.03564746052245,-0.915083179581194,-1.21076849739591,0.131442808990136,-0.0856657059420886,0.282066011348829,1.47782391200598,-0.944096415878364,-1.19811834563238,0.031301774863767,0.307044456682725,0.0508828557523087,0.228228519982298,0.0672228451415733,-1.18777312196204,0.0501104103451548,0.0526268271072048,0.549378238041503,-0.577910455046534,-0.0205875326991303
35.55,-0.504127879672306,0.356886862397066,0.906264230667985,-0.0672920647375088,2.16647545978527,-1.03438038811068,-1.22686466978279,0.130441730851122,-0.0758615727292368,0.319969150817923,1.52790543241632,-0.953759373609273,-1.18091144576293,0.0593780813538327,0.305611756582491,0.224065432671161,0.187208747033485,0.216646035899763,-1.19038493843632,0.00926631028345594,0.031177016614837,0.541951351780314,-0.577296644771494,-0.00181056792217319
35.555,-0.504296237170819,0.378434640842471,0.919269011201709,-0.0978616630242945,2.28458532742215,-1.14021163113541,-1.2537122022434,0.143362637827512,-0.0785968639197901,0.369394755830282,1.58495494989016,-0.982273813540451,-1.17988750674813,0.0805298571455748,0.29081812685833,0.381550039094739,0.153929303454986,0.323739161078457,-1.19930518787721,-0.036341958717755,0.0127208447845151,0.536616086959839,-0.567878176854961,0.0180535591566329
35.56,-0.497375916732526,0.419857404571614,0.915853944957742,-0.150763628164817,2.44702293658223,-1.28976324191633,-1.28928015250618,0.163474002116624,-0.0720432805099947,0.438548404337803,1.6461886495768,-1.01748658525495,-1.20474334276636,0.106470421679951,0.256765894223007,0.55960548419352,0.117652410484913,0.419762305122194,-1.22816519423413,-0.0773994261710892,-0.00609090301769646,0.537748439214312,-0.566609432305493,0.0206902462929909
35.565,-0.502437961936636,0.441346924686539,0.909955547373418,-0.176218306547873,2.58183319801612,-1.41105553878024,-1.34468878655343,0.177598059156482,-0.0277273446220505,0.51289221636261,1.69350379666427,-1.07251994263056,-1.24544241681018,0.126163980371327,0.213049401169732,0.684258752609761,0.106592381097871,0.486503059734903,-1.26483400657603,-0.116336181979271,-0.0206042928814895,0.525198237018561,-0.578556966908481,0.0315515398979187
35.57,-0.523554546468544,0.484504435116678,0.901005930715108,-0.23414637747319,2.72356936640071,-1.57341676552168,-1.38713900146295,0.183950055856302,-0.013703656116076,0.542500982335324,1.7246973284797,-1.0811625448659,-1.28699386395442,0.152246582881674,0.166951456416119,0.819502531994593,0.112681980960578,0.562477525008896,-1.30012010686744,-0.159711205154459,-0.0361836692992092,0.504044729668854,-0.573740144403765,0.0258932039911896
35.575,-0.538834936252958,0.49479789152903,0.894671451645967,-0.296162548524277,2.84799447314602,-1.71694168041376,-1.42929064731051,0.185151229885199,-0.00707237920317979,0.575462192441937,1.7759879537565,-1.06012499270711,-1.31927700770641,0.177965418402748,0.118011958553394,0.962609929923731,0.146548111745903,0.656344792596133,-1.32192349657566,-0.196096497893112,-0.0487377873437876,0.488092526923987,-0.560295999148917,0.00546935265037376
35.58,-0.540966876044157,0.500472523617145,0.890093410830934,-0.370725937261297,3.00180128955056,-1.89474831379469,-1.50886041662143,0.146574665054012,-0.0115864195971647,0.581522881984711,1.82247250591657,-1.02473723386996,-1.3316263956958,0.182623016103752,0.0906051862573287,1.08643760753959,0.185716218851817,0.765797925863913,-1.31469861117325,-0.214043986353789,-0.0694374562666557,0.466452464479847,-0.530167363863,-0.0153999207740599
35.585,-0.561611455477361,0.482691705321049,0.864049612473153,-0.446485901297439,3.12534595147826,-2.02658310790584,-1.45225136241285,0.146063550531022,-0.0196430393816529,0.6307146343315,1.84525036211981,-0.9873600571643,-1.3203288130815,0.157501257830613,0.0651227128668626,1.20427458025236,0.229812353196754,0.908108353854463,-1.24277149949249,-0.202144967166854,-0.0885161492473788,0.441993045579593,-0.489928381552629,-0.037529120268066
35.59,-0.61835561614975,0.428266985468331,0.861402352746586,-0.557859639120616,3.27278125824903,-2.18382208577589,-1.44020035946719,0.0938026783999789,-0.0302029549080103,0.698250076818569,1.86528845738489,-0.914298757089742,-1.27916989444953,0.102521052321715,0.0295784083041189,1.3235165752948,0.277400680250931,1.08850070025643,-1.16708702896935,-0.174704665695592,-0.109595552388123,0.417739239717523,-0.475443772180692,-0.0393067412078381
35.595,-0.622990524594151,0.400113468116771,0.867252666825178,-0.647141477798132,3.39597916968926,-2.31377885982065,-1.41093486105837,0.0494164101022849,-0.0469514472574683,0.710445574865465,1.86142793656658,-0.848846012537033,-1.23074298754083,0.0399396441902343,-0.0246909157373321,1.36148838254598,0.316846455716795,1.23780667758755,-1.09253275518781,-0.139115794853317,-0.126513244413109,0.359083669566131,-0.461970922223872,-0.0280512531818099
35.6,-0.617419666698692,0.320607307056796,0.847291869717308,-0.753547310165345,3.5356988693521,-2.4562238840306,-1.35156742295251,0.0337104941421972,-0.0583180495017501,0.759174030931726,1.86704143093387,-0.845670298193755,-1.17058976841415,-0.0374665464018541,-0.0973501859977754,1.34645148129134,0.34366235715558,1.41472593440645,-1.03247369152516,-0.101883128261425,-0.136161129573539,0.230032193550912,-0.421160926926694,0.0151094679465132
35.605,-0.652953968509579,0.279298008061047,0.846188275946962,-0.798087229839862,3.64638261554058,-2.55241270168766,-1.29103806742563,0.00686531484538661,-0.0645550291009964,0.771793467344197,1.89337970450902,-0.874337362156553,-0.985321509805011,-0.0426313729472744,-0.183245065471533,1.31219345579528,0.352946082863132,1.54112774676781,-1.01941536604134,-0.0899379339911178,-0.126297631143621,0.120871417880471,-0.364045106581782,0.0447768886498806
35.61,-0.675972750479372,0.299489889190365,0.842895687732486,-0.791911396524188,3.74951442836152,-2.65583821327069,-1.24947839382448,-0.00790046955218412,-0.0842647754634806,0.762686060128371,1.89051749906638,-0.895484409757714,-1.0609010314748,-0.104205152683689,-0.230376484109042,1.14968379091273,0.414907006425957,1.66938544482483,-1.02005015361914,-0.0783613614609281,-0.115069912723309,0.000906045616286693,-0.269173964683421,0.0728733208122536
35.615,-0.67751509373114,0.320999837127374,0.845378984855013,-0.796715723366046,3.81707631953433,-2.72612146231386,-1.20137024988715,-0.024631079458935,-0.12374574989371,0.766375918648441,1.88998126610403,-0.902687447901585,-1.11209150515927,-0.0987537224043548,-0.207247309442602,1.01755093945394,0.440244346549295,1.75685350836235,-1.02301139854978,-0.0648461772318355,-0.102912663702604,-0.0952899289938765,-0.199601147233402,0.0972714918744705
35.62,-0.679509648808699,0.310181035780873,0.790321572530533,-0.864025188823175,3.90938266477272,-2.7913093700741,-1.16025520474394,-0.0487836789234392,-0.155395598834045,0.779855453203033,1.8695424421304,-0.920486740092175,-1.06519892599334,-0.0859989619374478,-0.206617479769008,1.0197308016658,0.392508584290428,1.82442151948786,-0.999578419380153,-0.0477255447211296,-0.0838647253940411,-0.180944604079261,-0.108016854087592,0.103604988181789
35.625,-0.695419663391148,0.282005439377033,0.777507203927446,-0.862079002283468,3.95548476408538,-2.8189758414923,-1.12527882573854,-0.056591900748993,-0.203327562568793,0.763901329138747,1.84951276798819,-0.957334408233953,-1.06032300279965,-0.0466900441290079,-0.209617460297932,1.00211541851362,0.319847428746391,1.87599002896694,-0.97621674796274,-0.0265110891562719,-0.0853021620372418,-0.21472604572773,-0.0531194205239925,0.113405078649521
35.63,-0.706292443067019,0.332565194903625,0.767476061125917,-0.825994451811804,4.07732858051744,-2.81480087492348,-1.08996032007382,-0.0576248120592692,-0.24412656260264,0.764071775869362,1.83979038373761,-0.985317641370679,-1.05213667843785,-0.0266290307912402,-0.198340902999971,0.922922521708947,0.321037963296235,1.92999031274505,-0.931151653461841,0.000122394841343308,-0.0761136909387179,-0.201449398877271,-0.0182378355859241,0.112772853698888
35.635,-0.746607188022024,0.401961000398595,0.858373738193864,-0.810246406688725,4.19815544552475,-2.76494065836523,-1.06092125358058,-0.0511641351541913,-0.294594714304033,0.75734866034958,1.8362796349737,-1.02061604857529,-1.03978315420069,-0.0170823711602883,-0.182514377621338,0.83109813127422,0.310289271591955,1.98259960869967,-0.885998414186035,0.00916051891123608,-0.0731310095939759,-0.151531704084581,-0.0199593675976996,0.102798693096041
35.64,-0.765308336605681,0.336782940894369,0.929544763962622,-0.858036435181957,4.21854270855887,-2.75334982822541,-1.03918714898241,-0.0293705732979618,-0.301230827592757,0.768151013640711,1.81864235873445,-1.0601798802098,-1.02022189482654,-0.0183774334363181,-0.175702874762989,0.701295217808323,0.306995765134578,2.02148704660251,-0.828641065725917,0.0166117953452719,-0.0683165941875589,-0.108112381571454,-0.0439756577228103,0.0702898615480495
35.645,-0.853597960137927,0.187680806385352,1.06049134544603,-0.919071783130856,4.11508911560936,-2.66238132256107,-1.01754545569743,-0.0188736219346421,-0.348113844157097,0.722709666960594,1.77132497428157,-1.08881089978462,-1.01689831945715,-0.0515421492435717,-0.177590709694125,0.510924662420342,0.308859873149116,2.05869136864282,-0.802054865914164,0.00897633177970377,-0.0601214201669679,-0.0899571127988513,-0.0764651504538746,0.0462358784727475
35.65,-1.05349490441175,-0.00985917966695483,1.14581238263143,-0.632648695681117,3.84351650493399,-2.61475980081157,-0.97347220754866,-0.0262802502666612,-0.485595891239153,0.612850772210224,1.69742926399521,-1.10400321218271,-0.999087803810662,-0.101019943847424,-0.178015094821681,0.314196766853645,0.301505957517142,2.07337987550063,-0.761198382870111,-0.00972222647582789,-0.0459950253360466,-0.0773002167898803,-0.141232903986743,0.00366370191234706
35.655,-1.36995763370259,-0.146507394274724,1.42731901911038,0.0318562768613322,3.46059334818522,-2.65775907394066,-0.911724542995888,-0.0556494518979588,-0.623645636734718,0.500201642351157,1.62685576604759,-1.1093494224473,-0.992625527463629,-0.180034849154054,-0.176049611046964,0.139108480274727,0.235371877535081,2.05163716418238,-0.737443069920671,-0.0352095926990075,-0.0311645619766608,-0.0853874534201929,-0.186696463870269,-0.0349030342723537
35.66,-1.4997751497834,1.13236514917583,1.79247508455594,1.47119413403908,2.36404839593204,-2.14505394441739,-0.826783345179018,-0.0752938407422683,-0.693117275334692,0.389981613643646,1.59743592205931,-1.10847870830119,-0.976657751566437,-0.26415129170739,-0.179679453626182,-0.0464174159312332,0.13707736203333,2.00676123186088,-0.72617149381511,-0.0679213944594725,-0.0228872980517391,-0.0802125891317751,-0.21537465367411,-0.066596968927524
35.665,-1.21978876076006,1.7455181661015,1.3230706294847,1.54373713716124,1.5040948221865,-1.39351815700765,-0.807747433526171,0.0214850089960415,-0.619600869758375,0.337680617715979,1.60830390172442,-1.10257687774204,-0.969697842643378,-0.358613509166952,-0.188596123759564,-0.172486248966377,0.065695647032358,1.97376674752844,-0.726604298627304,-0.112459886248686,-0.0112424028503533,-0.0687771762328517,-0.190371020579782,-0.0877403841997112
35.67,-1.11475665719391,1.343963979164,1.10903815529347,0.636072177514754,1.00499205867819,-1.21955210821805,-0.84892533225696,0.180724014595726,-0.513859289591164,0.392625071654284,1.59545443070122,-1.05852029367475,-0.978265804980117,-0.452057178989745,-0.21945789944022,-0.372512266218403,-0.0261972697051555,1.9002232212451,-0.742138410956907,-0.157437112141816,-0.00293242899937149,-0.0427954405313222,-0.149828462893821,-0.108528078139279
35.675,-0.875280831001106,0.74453611513658,0.822917059675537,-0.270425161180678,0.695991680632261,-1.33194978456086,-0.896196059633413,0.292098099467329,-0.44494185889399,0.451871075752699,1.51483770727604,-0.968239142682523,-0.99472259200834,-0.5090620803278,-0.241270369366329,-0.52959201221274,-0.100853982109245,1.81937971848713,-0.763092756337773,-0.198091993543439,0.00341185984564574,-0.0086557581653645,-0.0788359889772737,-0.123287681167898
35.68,-0.72249375932288,0.298687567750324,1.16517113194463,-0.581347415982126,0.62502939937711,-1.38854504900717,-0.891899425942713,0.358177711794183,-0.386790202012245,0.37294160119673,1.42259821350956,-0.828447055596239,-1.03320413907212,-0.580515211240854,-0.269063494449277,-0.680248573665411,-0.196713008566491,1.73748941707778,-0.781149511480023,-0.239894810783474,0.00314751378580082,0.0163308522199067,-0.0309989061087979,-0.145641153508414
35.685,-0.574041923094975,0.292537076913142,1.69439543064463,-0.248011360468311,0.0121889774377714,-1.54890740304795,-0.847757380758449,0.377748323197162,-0.166315805002262,0.163591392377594,1.30056360741632,-0.665938760441469,-1.06392889778028,-0.630577461926333,-0.291164954798057,-0.739045184968614,-0.273648735128468,1.65887116272929,-0.824866373776154,-0.270721272776841,0.0111062906960514,0.0293751527102704,-0.00315422606683759,-0.153195209992693
35.69,0.0307281747903203,0.659712997236716,0.988754182289304,-0.246176543910844,-0.357158660395156,-1.18802683044571,-0.84792412011709,0.200268853962629,-0.0611193556061871,-0.14968811694919,1.18280372052766,-0.529689741597909,-1.09457033805035,-0.655535056847108,-0.310523921051707,-0.723508841111456,-0.345599254766118,1.57772504586403,-0.88078287912059,-0.291776991033819,0.0137316674788415,0.0301634949939314,-0.00336493539197952,-0.167705084880816
35.695,-0.130242264492443,1.30045145686257,0.869892800955329,-0.210469958508589,-0.368629880645209,-0.941711242057842,-0.866682146183303,0.0930272911424533,-0.0929003103465198,-0.293928697109224,0.97220104567174,-0.418654379337441,-1.12537956618518,-0.64702673157414,-0.319133655439841,-0.636258456191097,-0.39753989790132,1.50182333174084,-0.929844993880789,-0.307150801858148,0.0172348215450955,0.0217968037511385,-0.0191562700454508,-0.173133861636644
35.7,-0.0536656772771392,1.77677680649367,0.915414773324321,-0.619930624854566,-0.560827997452483,-0.654964459300881,-0.798613479313121,-0.0411959119015201,0.0196599940803791,-0.20274133783997,0.683016475026357,-0.29727732742115,-1.14904032803427,-0.621704363100778,-0.324130452443039,-0.497372900375462,-0.402825415385444,1.45986608563463,-0.974282349813775,-0.314239822911607,0.0146563198699177,0.0147701919621844,-0.0498726968422575,-0.185995896527145
35.705,-0.117049771642204,1.22560645423755,0.902030180593366,-1.01195260618982,-0.688693975770605,-0.330864940489038,-0.757880302369137,-0.00198500438580321,0.0314405473899354,-0.139131496931095,0.51610522700138,-0.281242176845014,-1.16124148518366,-0.581910109216246,-0.30297105160688,-0.333321007728316,-0.391828276891191,1.44181109476551,-1.03309804363743,-0.313732753114627,0.0134719261977974,-0.00581628084182739,-0.0767697670445231,-0.197627971737851
35.71,-0.0233771922653405,0.759981282005835,0.780863636749654,-0.866502595336483,-0.83072505046309,-0.101141946307941,-0.728088266763427,0.116474784196818,0.0595494064942467,-0.105579775401695,0.359153237904346,-0.253322944779706,-1.17188014384571,-0.541061953031512,-0.268203444983975,-0.213277369895394,-0.38199420552405,1.42770449604709,-1.07211497969664,-0.303180106545401,0.0084355131495226,-0.0102366989839188,-0.0843839946333461,-0.206171243838648
35.715,0.0848758520147859,0.882353653363184,0.683594035182547,-0.755431127833756,-0.878119587898254,0.0783929632352865,-0.688646739231325,0.217276135193229,0.0721654130244437,-0.141155954083928,0.191843968992563,-0.173963151630152,-1.17264130492211,-0.487547335309461,-0.220150624813202,-0.0813983279672944,-0.362045918187921,1.41260550573264,-1.10764729570753,-0.290433159462449,-0.00161774738533171,0.00445549927025349,-0.0579034096088174,-0.211945821555004
35.72,0.115516379076744,1.01613146587847,0.677083814287833,-0.69898307027699,-0.901544126597873,0.274561703274173,-0.646790054056642,0.234764402517055,0.0521876830744823,-0.205894311742084,0.0458490917518723,-0.0290078488800406,-1.16306206805348,-0.445354755656885,-0.174286488016745,0.0259892319273278,-0.345550887466416,1.4069611745628,-1.13069280383718,-0.265388869252223,-0.00939502452270558,0.0296260854894398,-0.00932917974537628,-0.207899260980752
35.725,0.0990780000456403,0.888065646374545,0.668299181485227,-0.647943382754255,-0.975757340255636,0.46730565553041,-0.644926927371359,0.200424396895952,0.0716938283175031,-0.270943952312316,-0.131676166373484,0.172738676548495,-1.14167342129044,-0.412539278958854,-0.121009955703287,0.0941117407200872,-0.333122790254335,1.38252616737419,-1.14767142210265,-0.239177518821196,-0.0118154511759176,0.0587157981589814,0.0442996120678995,-0.203456176190194
35.73,0.095746468148601,0.715203522132488,0.650339802533846,-0.546970943601165,-1.07922191314828,0.614719268202778,-0.656199400089942,0.162590377254404,0.0989296341480551,-0.342519897862118,-0.280528578025628,0.286212398825772,-1.11376469076387,-0.378373872149977,-0.0665971119743042,0.135862817066255,-0.322095612985549,1.35124120966226,-1.15241582162421,-0.201441556730696,-0.0148167828343754,0.0895196525957803,0.0953939573005533,-0.198760454989494
35.735,0.118477746721831,0.66075427312219,0.652099207488165,-0.361360871205669,-1.15662184175443,0.724887560361467,-0.651514744094884,0.159422217399483,0.102306340152087,-0.405213768882242,-0.450200742024148,0.372528045803177,-1.08879664318747,-0.351110039466108,-0.0272149252464353,0.165277556536543,-0.32038962574215,1.31695928485737,-1.15623936135302,-0.161142573246093,-0.0205436638993727,0.125367435862653,0.131137020620228,-0.196530554220635
35.74,0.105941090645179,0.656334655081376,0.692273200079365,-0.0953565761365035,-1.2566433708165,0.87370430531754,-0.612767969250683,0.146893120405836,0.0628929393851581,-0.453648096364308,-0.678125233769703,0.475320365662352,-1.06012806111943,-0.323824263709291,0.00899780941746724,0.184624333708879,-0.330713226056053,1.25921765960589,-1.14984770708615,-0.129122547831444,-0.02367958305124,0.150793143271069,0.13080083347712,-0.182167492714856
35.745,0.0834043280418213,0.645305385757904,0.732268258001266,0.0838306369594022,-1.36665885330537,0.989683501366102,-0.582848697922437,0.113960616332946,0.0298455809895542,-0.446444445405723,-0.830211114971931,0.570561630396675,-1.0361892211668,-0.309381278241097,0.0565445766505046,0.221685355305122,-0.354199668733141,1.1844025715018,-1.13559300356395,-0.0876130351277755,-0.0304436033638062,0.17628503575945,0.0918208251033728,-0.173109672666736
35.75,0.0346716938612977,0.629031417709788,0.785893300657153,0.222472757703816,-1.4976432079724,1.08931347733137,-0.564721241476669,0.0857796476187621,0.0201869985283517,-0.378359662996546,-0.984119698117425,0.674252598725752,-1.0186229975025,-0.299482039713198,0.0853480966337419,0.24937380871818,-0.380771041346501,1.10410498831944,-1.11750239319296,-0.0657156609201081,-0.0385162201030085,0.197636425733052,0.0422038457551427,-0.160770674101429
35.755,-0.0100658866280853,0.615978982540035,0.832081159235133,0.349794382895616,-1.66287571910306,1.1921935911766,-0.56477208737533,0.0614052352413634,0.0063353353291639,-0.286156962638284,-1.14294961591698,0.774401929457896,-1.0059009823156,-0.298427569739368,0.103273131523625,0.264763842348931,-0.412476865319258,0.997253728571415,-1.10124894901697,-0.0451122515662444,-0.0460919297557172,0.203198674446119,-0.0116266586687511,-0.149991422885105
35.76,-0.0597702091837276,0.60407093163241,0.872212124555501,0.470306086088338,-1.83276871292865,1.28452331042775,-0.571833464845,0.0550433757155801,-0.01623268460911,-0.231842236422498,-1.28215727787298,0.874773516847828,-0.998914531186439,-0.299189815197747,0.116411260071636,0.237307794275746,-0.439374519891968,0.924583677798743,-1.08720277043388,-0.0384584508379567,-0.0570810325935996,0.206747094655419,-0.0928184936380481,-0.138149212556978
35.765,-0.0841548910913359,0.590648144217389,0.875149206873709,0.59356855562001,-2.0533802778851,1.39614314807004,-0.574519546504169,0.0509900905156213,-0.0340037475821926,-0.179085502634888,-1.45086614484979,0.755286631959897,-0.976196127179569,-0.293907848163435,0.101109855229694,0.216281534444431,-0.470825582239709,0.854237975163824,-1.07284718541383,-0.0446373279803024,-0.0581558819927266,0.202846536304631,-0.144727112048517,-0.12369302701784
35.77,-0.0876983582247332,0.576805981842484,0.854399936523524,0.660890527734631,-2.20474798785545,1.46286917840821,-0.587468996163471,0.0576263354727645,-0.041453138932576,-0.129219949506606,-1.63785916181627,1.07386365216143,-0.96738572938852,-0.273549062953256,0.0677930258343275,0.109797590101353,-0.45431708091738,0.803398263262724,-1.05314815283884,-0.0512910029680232,-0.0569771158390109,0.190083477763636,-0.190099556140339,-0.111815359314015
35.775,-0.0888659614406273,0.559070143043422,0.815696738884108,0.731842478904401,-2.38375333895835,1.53981155657647,-0.61687875510457,0.0512051934649728,-0.0376649072125382,-0.114902068146248,-1.79003066755338,1.14756467001138,-0.956527592931969,-0.285983161131292,0.103775895247095,0.0601873005773344,-0.421461111562689,0.830405500792044,-1.03998787366745,-0.0682818141434923,-0.0475026867900038,0.180999810173365,-0.208871995262947,-0.0989634518641422
35.78,-0.0908343706595559,0.549240983384074,0.789433938710931,0.790866475771392,-2.49918256182972,1.59935271955038,-0.663232696078117,0.0416542069056013,-0.0309100139440703,-0.111230031552875,-1.97780095565799,1.24160980950219,-0.938853225613672,-0.274674100783481,0.0810908133817241,0.23825649734726,-0.482177759450305,0.7753849655902,-1.0197730568217,-0.0908163732228512,-0.0448004640865069,0.1638685819849,-0.206777453728373,-0.089330884881604
35.785,-0.117512877738631,0.533256322126037,0.79272193019078,0.88349962934036,-2.61290045884631,1.67708335641659,-0.699875975356506,0.0334276611991774,-0.0589424283707084,-0.133746691892745,-2.14578000784881,1.3084305807021,-0.933559144604818,-0.26826912199849,0.0756198731681196,0.273837528090459,-0.456184039433506,0.784475040729149,-1.01237239383367,-0.125326518192014,-0.0202701779856285,0.154179050345889,-0.18302197155191,-0.0859661501136062
35.79,-0.161299158257112,0.527473564956609,0.789874275438135,0.962090423018435,-2.68059841262613,1.75761263978264,-0.744967114553064,0.0078270526113113,-0.0894235619166632,-0.143813885093144,-2.30677942391126,1.40730715855113,-0.897242982396361,-0.278426569110342,0.0533429415128978,0.365487094612449,-0.41131953763102,0.755139368510475,-0.996567772244295,-0.160827612440227,-0.00224875588181036,0.137024034389703,-0.163188558845971,-0.0832877457141876
35.795,-0.232869461585477,0.52506446067143,0.785545472911961,1.04533819292496,-2.75213391170448,1.87172538415585,-0.785985855059125,-0.0194274154880718,-0.108300732127132,-0.17615886664481,-2.46009062302037,1.49535020128167,-0.880245223497542,-0.281136225399351,0.0480100528647457,0.442717666156364,-0.349688636784452,0.686905870314965,-0.983464925341232,-0.18865607737452,0.0201500233601398,0.12309788809896,-0.153971046778328,-0.088938104971929
35.8,-0.306455660648835,0.51918627635036,0.77184438455285,1.10982888295281,-2.80850613083326,1.99278281506864,-0.814985015832866,-0.0433380763808326,-0.122658574250441,-0.222792995787306,-2.58515102126855,1.55628028739819,-0.855720608434182,-0.287960908392276,0.0399088883291321,0.52918320898824,-0.307504538769162,0.628713419957314,-0.963333679432196,-0.214278392820115,0.0355333442128567,0.0953487186427421,-0.146300597548708,-0.0980659110879544
35.805,-0.367717847818509,0.489099459998889,0.753427705751884,1.14292364971287,-2.82916569709778,2.04154917509636,-0.832119253188767,-0.058861772490363,-0.143789155947527,-0.250991655812069,-2.71140274946961,1.63534133425544,-0.833270054888995,-0.299064235020764,0.020664187785092,0.629182991206121,-0.231774445654415,0.553727021140869,-0.955263167695475,-0.228670936135436,0.0483791038904565,0.0728013802501838,-0.153732418355909,-0.107502163114581
35.81,-0.419457957820561,0.4398489699489,0.740108380786925,1.18539674965203,-2.81576981198674,2.07089896435437,-0.853379332256388,-0.0893832790937153,-0.172752548805491,-0.266741941346296,-2.79424581326644,1.69004135383232,-0.827442358646893,-0.305139166349259,0.0128935196314466,0.711706584125785,-0.178308383821534,0.494073138588114,-0.943901938633715,-0.232183342352735,0.0625257867074829,0.0462456052505094,-0.151706560422298,-0.114624121854965
35.815,-0.473513953390803,0.389859496284267,0.737224636143194,1.24164807809885,-2.80284385300376,2.30906032554855,-0.871967556704955,-0.111792424534974,-0.201252752584055,-0.289959270761435,-2.87139497497983,1.74549816456846,-0.810557811007018,-0.311046340344495,-0.00316262755197531,0.821643143861007,-0.117611255836869,0.439743191855996,-0.933629968671362,-0.226242916659385,0.0718808976537165,0.0291215767428715,-0.153234077424299,-0.123430999164254
35.82,-0.528332595031847,0.360399397221342,0.756198993465548,1.28784054928216,-2.795375717185,2.36936744015283,-0.894763027673372,-0.128521993016884,-0.233093182783539,-0.321383810490286,-2.97440309288515,1.81505750341102,-0.805495302527927,-0.32256158277395,-0.0182952765681923,0.904105587970152,-0.0748832311735049,0.398509240172978,-0.913764222051942,-0.215336276313918,0.086246202602678,0.0259550413478988,-0.137725363344215,-0.127254215182945
35.825,-0.614817680872838,0.338013337980171,0.781660796678376,1.35904165917534,-2.77010604257271,2.44394742108948,-0.911821791550086,-0.131388132749718,-0.260957924329003,-0.404539157614495,-3.01596155206179,1.87813253815983,-0.791231194987307,-0.352304221532647,-0.0301295854159096,1.03699213261946,-0.037249812723345,0.331619534217714,-0.910370707891255,-0.192830926538336,0.0819310576977502,0.0358186497737838,-0.133246788034679,-0.121954902646299
35.83,-0.680640428891821,0.33405120035208,0.816887502464907,1.41524259814416,-2.74304864266737,2.50909730183718,-0.935816347420086,-0.14225133058898,-0.298756366460516,-0.496768823932636,-3.07736814394792,1.92372119605947,-0.779708391456658,-0.380527022089057,-0.0390533555669069,1.14088295416003,-0.0039763552887043,0.289224661840251,-0.903245699723505,-0.171880409890633,0.0892282374775679,0.0444093904530504,-0.101759128343994,-0.114983707709337
35.835,-0.761105996557588,0.346673876261419,0.852674507274379,1.46709993361728,-2.72127138830858,2.60069111497328,-0.961104706797529,-0.16832197198493,-0.342909999834749,-0.618945616935512,-3.12771468795395,1.97434283069999,-0.771909172914641,-0.418253145849707,-0.05439211370484,1.29537071651422,0.0197214017859884,0.225824471651099,-0.900567857470403,-0.151615908167829,0.0928280388215803,0.0566952603838248,-0.061830056750729,-0.102247395929902
35.84,-0.817728354454215,0.343092051415005,0.898782559085494,1.47887361049652,-2.69209998710918,2.69389516758244,-0.989916117411822,-0.19039578486338,-0.376956710902175,-0.735998033465038,-3.14407087501879,2.01958374715304,-0.762542118593017,-0.44254845048994,-0.0703755086953362,1.42348437714503,0.0440935744322601,0.166265701695303,-0.898761660109648,-0.123454309367427,0.0925841758929858,0.0689449245476419,-0.00782349491021533,-0.0918116296753604
35.845,-0.869664528453135,0.310420832274757,0.937158800093527,1.47105585916048,-2.67755498362513,2.81490521519645,-1.0434567378473,-0.230892612883343,-0.42020251778506,-0.851129360972496,-3.19630952888884,2.06205403788207,-0.758316508525545,-0.457023914882425,-0.0993000806441122,1.59280892526204,0.0479295460560386,0.0916040957161224,-0.907788840484526,-0.112204479826226,0.0913327969246897,0.0985487894626069,0.0298350929139155,-0.0856998537403785
35.85,-0.917677464108494,0.244605474550195,0.941852619860452,1.47446573133295,-2.66404385670849,2.95448653638173,-1.07457874180821,-0.279434386797046,-0.445795638581757,-0.940032013453917,-3.22335804334112,2.08219395492051,-0.760280491078825,-0.466403294280268,-0.154317722744252,1.7965292714883,0.0425375724419321,-0.00214749271584725,-0.91209402355177,-0.0948491223895913,0.0861312692616143,0.137377491733766,0.0721132817488394,-0.0709856306478004
35.855,-0.943790412882633,0.188844005916849,0.922685594984659,1.49112082096334,-2.63532699582882,3.06451074571074,-1.1083101537929,-0.326799994265837,-0.467349421426011,-1.04429018137815,-3.234218408002,2.09472534902555,-0.765198357404575,-0.464971540450724,-0.214637377503816,1.96305564636243,0.0342750676011962,-0.0836547965264641,-0.921202310373182,-0.079776475896086,0.0746273324469546,0.171433630861235,0.10436882229859,-0.0605693572496838
35.86,-0.958367334575217,0.149821398983917,0.907081068146903,1.47122838882393,-2.57940543842233,3.15804532502709,-1.1325276168178,-0.348064468210122,-0.483405690196136,-1.13723316260693,-3.24186026149094,2.09724557313093,-0.764162775308336,-0.468017581928533,-0.297704442372253,2.14257033155852,0.0236592763385382,-0.159790687044251,-0.929401840847012,-0.0712426836034948,0.0660618066301664,0.221712818021464,0.136126634181554,-0.0526474112045189
35.865,-0.964604026563695,0.0529841167475064,0.900196056537607,1.40575247388208,-2.46767910150469,3.25703079871752,-1.16563524062906,-0.351383674325222,-0.516759200637002,-1.19953950438526,-3.2882181194647,2.06631820653112,-0.762055849619901,-0.467599973556311,-0.353861861844867,2.21021454370688,0.0210541660866292,-0.223564496509099,-0.933365001007222,-0.0701027509692274,0.0544405623720061,0.252788630328325,0.145252770298086,-0.0431851379776146
35.87,-0.991621403323828,-0.0422982667910287,0.909797770660361,1.34737275014404,-2.34998319698528,3.3008929738702,-1.1961177588842,-0.358569641667109,-0.557072827285642,-1.26781134219707,-3.31456197612386,2.03038753808668,-0.755388881128985,-0.446020161224545,-0.399939517704097,2.2138384615815,0.0052183055492534,-0.275977373649448,-0.944815576681044,-0.0703003071702933,0.0516135790699878,0.283653350452134,0.145759104671476,-0.0405284352600574
35.875,-1.05709553199514,-0.163988706216822,0.915258969032526,1.30221570066905,-2.22665952900211,3.32181973889639,-1.22040209359279,-0.36271204215846,-0.603141418142014,-1.35422051361805,-3.34237250077543,1.98091889489712,-0.745099339649116,-0.4082114861174,-0.423270641109978,2.11886652889525,-0.0290862380742733,-0.327074137136708,-0.955941073567711,-0.0758175844260092,0.0476214892202161,0.31346109449058,0.127620663954139,-0.0339329383159811
35.88,-1.14120783185588,-0.251363548045999,0.916334385457893,1.2813543333571,-2.13264916649035,3.31638013487783,-1.24493112427556,-0.379569357250352,-0.662117855735524,-1.44601864882919,-3.35920159765668,1.9156124433445,-0.733576898201856,-0.360696526997119,-0.430788391606635,1.97862771801754,-0.0706977341125562,-0.390294615754327,-0.960359055989997,-0.0849678411453372,0.0482776344448438,0.32783298002608,0.102441353327614,-0.0271214614483898
35.885,-1.21606555152093,-0.278031985708538,0.878713932724835,1.23895286444287,-2.05497959928329,3.27907839856935,-1.2698319048304,-0.412969317544704,-0.704745430141355,-1.5169420294338,-3.36083618888251,1.85130684190578,-0.731941361038736,-0.280514446657698,-0.417049247248316,1.68484912968981,-0.146317416023654,-0.440798889989985,-0.960890821483393,-0.102330731615872,0.0454472205470841,0.337220661664539,0.0742115504377374,-0.0259977204975816
35.89,-1.2955147202553,-0.303442209690321,0.841640884625793,1.10021224245951,-1.94570909574402,3.19784942648517,-1.28100267350274,-0.442852582779945,-0.755671252244827,-1.56959139997718,-3.33446342653246,1.73790710850247,-0.738081248150687,-0.20400425834237,-0.39740015789842,1.36323255511485,-0.210588666395816,-0.479459505933337,-0.962104099799755,-0.12518390338427,0.0523207298151453,0.353483408545684,0.0533820462424918,-0.0197596289217472
35.895,-1.38407361162559,-0.338117250146758,0.836607381479539,0.908410832221233,-1.84062833261203,3.09587695940386,-1.27186328262644,-0.482794535808766,-0.786727304939912,-1.57094089980605,-3.30556218315977,1.6513071465745,-0.754682909484192,-0.105220792260343,-0.350955929406076,0.907161009467524,-0.284633541847913,-0.508242083155492,-0.967796638133981,-0.143081639135835,0.0579181595262879,0.360803309782322,0.0348495459936338,-0.0140951555908091
35.9,-1.48553313695138,-0.392538201010866,0.852926488949633,0.710786637247665,-1.7510169563791,2.98479725049198,-1.23731897032906,-0.48956670094943,-0.846824477109547,-1.55314099060671,-3.27424907932072,1.50214347973955,-0.768701392099452,-0.0255120769725798,-0.317433573964323,0.472855457484284,-0.338216760240553,-0.531909404624399,-0.965026768558489,-0.158215650402539,0.0538390721522235,0.358183932041014,0.0134705393969372,-0.003909991615733
35.905,-1.60179358110443,-0.437467179309598,0.886344470432531,0.52201023153718,-1.68976924578989,2.83460672170882,-1.1814651865954,-0.483720555100679,-0.905937754950856,-1.50681016667619,-3.20047982170639,1.3616819590006,-0.798175540028244,0.0997216290839653,-0.25881419508886,0.0703719475481532,-0.38726792472017,-0.542526728044749,-0.966921560917857,-0.170343552083109,0.0572532961741469,0.353440389181059,-0.00553095850964304,-0.00273437915434482
35.91,-1.64398706636001,-0.473951013402373,0.867276316996928,0.425445283601337,-1.66589775992277,2.71030383413022,-1.14541886114285,-0.47895066886867,-0.961056391788994,-1.46467208042313,-3.10737141765508,1.21519512637238,-0.827431302804246,0.202672144647064,-0.196111924724917,-0.349697232087579,-0.436675078346979,-0.552615907020249,-0.971019640167736,-0.181903189092789,0.0595172059255858,0.342805402035439,-0.0217174539355141,0.00790060335855347
35.915,-1.64583171699602,-0.5352924939779,0.797754057973331,0.341907556177485,-1.63852222374151,2.54988073689145,-1.12568289251274,-0.466953624157058,-0.993045089418318,-1.45820416920272,-2.99100602167888,1.09118374936109,-0.855009650344075,0.291794168333404,-0.144561801834953,-0.745152639310462,-0.477277752307739,-0.54465196684003,-0.969527303611928,-0.187436072509487,0.0588184217825205,0.330228819974913,-0.0355906173319724,0.0185943562964931
35.92,-1.62506500482227,-0.558083613315577,0.692944028405151,0.306860239424033,-1.60622086502117,2.42446637898263,-1.12989141083349,-0.44726399737915,-0.989187326026799,-1.4443996039932,-2.87596780658757,0.993189121805105,-0.874558821181896,0.351657192859906,-0.108746251455547,-1.06305307894991,-0.525034218307233,-0.51720874701014,-0.972848290200746,-0.183928196509342,0.0542415425129444,0.309204900256582,-0.0663723490810555,0.0328905794574761
35.925,-1.60512729599573,-0.516617902734617,0.545390043435306,0.241474172848606,-1.52229607563429,2.19085808675728,-1.14752697998018,-0.437289768401425,-0.962911064714039,-1.37947048614909,-2.7207031335519,0.890409025730722,-0.88273002862703,0.392254351434134,-0.0708818845116063,-1.42004390785369,-0.580487900189625,-0.508212388209092,-0.970234029314502,-0.189541177306891,0.0514350283518478,0.298707784375707,-0.114133107921326,0.0423401578235579
35.93,-1.57824170730083,-0.484384195626432,0.427861502047546,0.105344906031433,-1.41419312421451,1.94126570218705,-1.14716593052561,-0.422379399055653,-0.9526495970586,-1.30956268523016,-2.6196585892237,0.834299513191018,-0.887148034264704,0.385193175446845,-0.043057349824994,-1.61191213545019,-0.619255757447785,-0.534469150321638,-0.970262511420313,-0.182993399637413,0.0442226101015653,0.286645184362459,-0.162494831066864,0.0605032504060568
35.935,-1.53877246295268,-0.479757754719202,0.305878814977668,-0.0528584351991292,-1.25293423737624,1.65994645523723,-1.11937954288301,-0.345108882592899,-0.95557976388436,-1.23334387294137,-2.48700193845796,0.792264173157855,-0.892806100545042,0.355903316558463,-0.012330703133706,-1.71747255727568,-0.66366096369348,-0.635026092958069,-0.974789984644651,-0.176045435016161,0.0413099860676334,0.277116167259664,-0.211493251080698,0.0723681365363902
35.94,-1.50194941501397,-0.494315604241272,0.219123344410426,-0.15890282196748,-1.08484396747691,1.43161895680964,-1.08075156819988,-0.313619414129835,-0.958007055737679,-1.19038074998505,-2.39153499630322,0.765906706559685,-0.905432756521807,0.339590940131203,0.00714499847054033,-1.69758871545446,-0.696077592989591,-0.770537144706705,-0.970723784576721,-0.16933984966148,0.0409716623307993,0.272434788306594,-0.249362884157452,0.0893649082599538
35.945,-1.44585699623211,-0.488889795974685,0.0855418170453109,-0.180117025908571,-0.849630605229778,1.14321314829802,-1.01996275706587,-0.288461679742565,-0.945058047452845,-1.16315026056677,-2.20665076868361,0.735564602532523,-0.932561431459859,0.329807647005914,0.0204131748363291,-1.53994210289496,-0.710287604015332,-0.909387397851397,-0.973067563667176,-0.160354623184743,0.0414050933717092,0.25702475802753,-0.274283999841628,0.108005156329047
35.95,-1.40145782037756,-0.416340480577079,-0.0284486326753111,-0.169582440718089,-0.640726249719524,0.927095901223484,-0.98231040113131,-0.265620368266376,-0.927025433106507,-1.14033601679904,-2.05420825442407,0.705517159099738,-0.959735674728387,0.293266479241515,0.0259843050041914,-1.30430895380972,-0.698543520583044,-1.00996169876855,-0.97890166437354,-0.143775184254421,0.0461154652029823,0.234000777825177,-0.284176379942629,0.125141355102661
35.955,-1.36139479539279,-0.346822742180409,-0.192240267132977,-0.172846228737213,-0.346331276425337,0.652181061382037,-0.980934749814871,-0.24789357736627,-0.893801684123685,-1.12131836882926,-1.87537077828203,0.692380576389361,-0.973244392167404,0.244498891867837,0.0272836200720468,-1.0858634705695,-0.668981438623907,-1.06233641377877,-0.981990945900187,-0.137126380029849,0.0495490929396705,0.210659340046624,-0.269530978999112,0.139939471764392
35.96,-1.4500356592427,-0.462467194382599,-0.288101405401059,-0.384311618049564,0.0383897307615185,0.415136083176748,-0.997850595652147,-0.265194376949607,-0.870553954555165,-1.08558546481274,-1.70642767127251,0.679138265830317,-0.973667531837503,0.186764994815582,0.0273198205622637,-0.818706198044143,-0.616675801917616,-1.13530560666388,-0.985776799244681,-0.121944461845782,0.0589388353225097,0.166820726849501,-0.228664351192703,0.156414335598275
35.965,-1.37017765235821,-0.559518975013744,-0.270468093932931,-0.60322254491365,0.62317524152824,0.0966732324155128,-0.97161516324269,-0.310534203012857,-0.874162652171058,-1.00091805549329,-1.54293155049033,0.674623183565536,-0.975353427593178,0.155485241800507,0.0190255486283766,-0.650292835847131,-0.570289452827107,-1.18428242686753,-0.998962536563199,-0.118413606800591,0.0657432823836966,0.124594850973686,-0.199323318245243,0.167954676794341
35.97,-1.3253048976705,-0.591227225558465,-0.233359969770307,-0.554948648411359,1.01425237874286,-0.0453781826969895,-0.952199209393478,-0.383328334925946,-0.872384921932767,-0.880448460848562,-1.33992376595157,0.65437362267296,-0.984853461176838,0.127878143205784,0.00740742621861038,-0.536830719875785,-0.508044643141373,-1.20879593393756,-0.995176992818168,-0.105924809452699,0.0701340741856208,0.0745788375988995,-0.167035576024712,0.180239394185243
35.975,-1.39399312036304,-0.612503629032485,-0.2126526828468,-0.455925968262945,1.45724216894788,-0.205514352308033,-0.961554280597917,-0.428164071788891,-0.851300055286397,-0.770377756049275,-1.13677980823461,0.61317562511111,-0.995861241838173,0.10607328965116,-0.00624286144384449,-0.466738305331586,-0.431854653122005,-1.22067899318497,-0.995277605042979,-0.101719850307126,0.0744244674684229,0.0084275399823854,-0.141232778433856,0.192374502374048
35.98,-1.45155801996528,-0.654936510960236,-0.19145025315911,-0.454107508474611,1.85011684914777,-0.341081784940235,-0.990419654545549,-0.471652299528974,-0.850272333492175,-0.619290187239982,-0.915330776350037,0.522759082736859,-1.02783500403117,0.0771765258362543,-0.0174147375959719,-0.438559937929156,-0.365333100906379,-1.19910019583561,-0.991566331177146,-0.106074525454168,0.0824752313690217,-0.0501284430779496,-0.128954859815152,0.195279299852156
35.985,-1.45190327556446,-0.669030572694307,-0.101200718091321,-0.475909253584074,2.29450475637305,-0.450355570997084,-0.992688072709377,-0.501221843512448,-0.85110735718845,-0.483462321600776,-0.752015696440048,0.448921577757381,-1.06029127183579,0.0356502616618935,-0.0339836814312855,-0.41253540162673,-0.266841711734294,-1.05033917127217,-0.987404177445578,-0.0977932316113909,0.0926305489548564,-0.0988615060922792,-0.11873905016791,0.197701990604401
35.99,-1.68884169206307,-0.373591301072206,0.747674746808954,-0.836749443000759,2.39109651858657,-0.463376804037949,-0.989296405275859,-0.518393874536105,-0.901173634825703,-0.358388018966552,-0.56057822403505,0.365652888819235,-1.08213500109364,0.0163014919272379,-0.0477219516374278,-0.33711766597547,-0.200076042032367,-0.865016733007241,-0.982332380207378,-0.0970074070289413,0.102826161942046,-0.136210013814975,-0.130928251790233,0.20083954364462
35.995,-2.56156105769677,0.32468602551598,2.91812113361861,-2.93971926725579,1.6472654469522,-0.437160646120002,-0.989987848691991,-0.460737004046849,-1.14276705123282,-0.317784113923544,-0.394187940997171,0.271410134799313,-1.09929151775964,0.0112458994123799,-0.0516184585005274,-0.162346521410083,-0.107233639127413,-0.520253667594367,-0.981928581274428,-0.0976504348943171,0.112267757529718,-0.160493614862953,-0.136249927803178,0.19908297585135
36,-4.21102385345377,-0.106114612475498,3.35008991868932,-6.40288853987945,-0.142348686356159,-0.401209942465582,-0.924600518616255,-0.251873605219693,-1.44176736201519,-0.302176108987781,-0.330239576967772,0.161561164249429,-1.09968403220924,0.0138891701653095,-0.059801557537244,0.124755762763345,-0.0582957478612792,-0.302223036857204,-0.978091621434002,-0.102205239654228,0.131007251756933,-0.169540362463244,-0.135034366030216,0.197736028435566
36.005,-3.18220769155744,-2.3493122381341,0.792032991833722,-3.92719243245992,-1.51773187303502,-0.281069857360642,-0.770633255141295,-0.283060998446516,-1.50951898818462,0.0542005752086779,-0.107011813089528,-0.0146146304130607,-1.09944558295697,0.0234424947799055,-0.0444501455790227,0.55320596355,0.00746189448066356,0.00782220223568836,-0.980174612827931,-0.105267221849832,0.138912142142339,-0.16974818965463,-0.127182838956571,0.200477665157158
36.01,-1.11637752416801,-2.57227188202052,0.182622763198496,-0.178752613724799,-1.52564434103219,-0.630743472536545,-0.796125492038136,-0.552312483928027,-1.32204804757668,-0.0805980892097049,0.344426380394906,-0.0521422120582493,-1.10546010794945,0.0413943883675904,-0.0226127745126596,0.889591689313952,0.0530261209090339,0.19258760467627,-0.982060438686974,-0.118589164156285,0.150764185672224,-0.162022941282962,-0.131394768225558,0.206424094268109
36.015,-0.509173676362113,-1.0415131345723,0.413287559485297,1.24175750510783,-1.42117416129828,-1.14709165309936,-0.948003430379091,-0.533613988105437,-0.94133506622205,-0.473966038819452,0.783083105059933,-0.0973441967707736,-1.13314587319452,0.0532783152513164,0.00774512013920044,1.21369602306915,0.0953409632100758,0.354961549411492,-0.981040598386327,-0.125272040166149,0.168029358418798,-0.138474310918387,-0.128798955547053,0.220556672888606
36.02,-0.834074378678298,1.08551883589066,0.755618016775604,1.33139982570439,-1.36579022388515,-1.2021480885484,-1.13190264732071,-0.414291322729254,-0.413668875853228,-0.252591745785242,0.962272117140796,-0.200114489275941,-1.14882429864183,0.0697572967307414,0.0462245291056788,1.43185288619648,0.124942699967919,0.442975439887586,-0.986649260232062,-0.130634965848623,0.164564826171698,-0.12014921307786,-0.124341202153735,0.227082233722877
36.025,-0.542174254229034,1.71127961085867,0.756706112025849,0.481105306457315,-1.16886214132613,-0.799160082405937,-1.2090124539088,-0.281039637759856,-0.0224793145888159,0.148847242242978,0.855432086935721,-0.275132357906231,-1.14423519588122,0.0760900804316113,0.0936457300978272,1.53484876356492,0.131980917665773,0.505813136757514,-0.993871090448743,-0.141043951852027,0.163615734792996,-0.0938641743164966,-0.132642848413479,0.230804402809626
36.03,-0.0487473641347557,1.59709202663069,0.86096687060803,-0.22928775723781,-0.960903954570247,-0.324658374279509,-1.25224375745064,-0.00606621680390124,0.358340260774304,0.362735923589169,0.674733229399449,-0.247050177640803,-1.12721611927433,0.0606600773002407,0.129707892169908,1.57898099860539,0.130451199171805,0.537167128282841,-1.00561598398183,-0.142858409459256,0.159020686758176,-0.0709141520460079,-0.145834703962045,0.234352827072144
36.035,0.275800631776885,1.27737863859625,0.860764693765974,-0.252868142480045,-0.774089177946222,0.197760913170597,-1.24395060995001,0.35949367672294,0.670965334309068,0.438204989961916,0.424860681303072,-0.0921045375308014,-1.11382712082173,0.0193437891360101,0.147091596006951,1.49236118946417,0.114110870484659,0.518841114888889,-1.01916408076895,-0.146147736582249,0.152523395154586,-0.0493944998290045,-0.168295812170072,0.230587049039735
36.04,0.317070964804987,1.00934735281078,0.870293664408331,-0.811293239866968,-0.464592175714501,0.327620483371223,-1.16440163679721,0.555724039685876,0.83050032168337,0.448312712769872,0.239886903676497,0.0250177774149419,-1.10928476590079,-0.0410893495051055,0.153125605386349,1.24287741633377,0.0637498179215982,0.414404987022628,-1.03593069022591,-0.146706216793789,0.138922644057545,-0.0323953357984307,-0.197891574281216,0.226923254134393
36.045,-0.214288184142504,0.30947491037568,1.08244601276102,-1.2973589842323,-0.319947097282384,0.26986728897082,-1.14047514437256,0.469350621480869,0.679779581429506,0.18263503940961,-0.0246599060526495,0.262752619005885,-1.11993287899383,-0.106896201660926,0.12170109813691,0.890945647557191,0.0235894836922497,0.227070373549029,-1.04904688323169,-0.144183884832963,0.127073532928623,-0.0200258652782278,-0.217506092172304,0.221350639543891
36.05,-0.607984929656181,-0.141407440999272,1.04738445378551,-1.2654994947065,-0.344185014808721,0.234806547960159,-1.11069086559071,0.348801171515535,0.322265055423495,-0.180199054691347,-0.190708317654439,0.363796005221632,-1.1281269813101,-0.211399703302988,0.0455577710789981,0.35639452996034,0.000938035652403311,-0.039463848692405,-1.06998484373369,-0.132873896388507,0.113688676150152,-0.00993241245917298,-0.244902038308806,0.206598367323177
36.055,-0.763717377122557,-0.139529341774708,0.915768683429255,-0.725147307855643,-0.405357606256983,0.138346143162145,-1.0788942208711,0.210534686927731,-0.140571475070672,-0.465321349218813,-0.325877328408874,0.393072120940916,-1.11604905892102,-0.340888590459342,-0.0481231933115297,-0.270052948451428,-0.00824399428907889,-0.329938346952424,-1.0897480349578,-0.11746407588707,0.106140410815368,-0.000819677056253046,-0.268681692069301,0.189208444423774
36.06,-0.810766595485772,0.0196330575134052,0.832199716430916,-0.331981057547512,-0.44947361648221,0.0712247295512516,-1.04584264906007,-0.0122335961469854,-0.587699210009881,-0.545410043906869,-0.282251341013955,0.349992235283602,-1.0807440078507,-0.425348844687756,-0.111285871586392,-0.80152378333374,-0.0411161619167193,-0.57176445888151,-1.11201535222091,-0.097352448708274,0.103425323891649,0.0175059606369172,-0.284344298862997,0.179349061542853
36.065,-0.718925826748237,0.231145338105118,0.782888345242999,-0.301208620647608,-0.436039817446086,0.0136566167934596,-1.06612343740611,-0.178943832927141,-0.628660329746857,-0.594828262157208,0.0641443220455251,0.23454600617712,-1.05208999373329,-0.402484402601141,-0.135761314698449,-1.18291858632418,-0.0840234323329989,-0.833269738640038,-1.14419805387859,-0.065450573472756,0.106621108902929,0.0348647027575439,-0.299695583836412,0.174925733240163
36.07,-0.566623593876183,0.306489953904075,0.815424306688551,-0.420214642616063,-0.372481817486214,0.00268449827817732,-1.20482992381848,-0.166867506342273,-0.393974336031374,-0.66015137894257,0.498093407566576,0.0805300766774987,-1.02135596372071,-0.28708773131008,-0.146530889298969,-1.2362681987956,-0.124791863069232,-0.99770086494818,-1.16554448008242,-0.0432663120831173,0.112649662488669,0.0640898732981614,-0.316036810454147,0.167082613229737
36.075,-0.422151270035797,0.21102390611293,0.894309116724885,-0.501999352243989,-0.303318846057115,0.0150803870484924,-1.33487430681266,-0.0487797758466731,-0.0695966881646058,-0.70800326557921,0.696540637042694,-0.0267682406852372,-1.02424761559856,-0.149618633661698,-0.131745950205918,-1.10050611795807,-0.171010440460536,-1.09342108826163,-1.18001940632386,-0.0154858071720265,0.0758839433573177,0.0837123297399978,-0.310604902477717,0.158101143808818
36.08,-0.3304266471005,0.128250341811833,0.92191951580976,-0.523347087345401,-0.243303004045102,0.026943095866833,-1.35042892424703,-0.00751051834272329,0.129441149738697,-0.762672583885213,0.5662002092041,-0.0227128196379211,-1.04776358905634,0.0189480403150628,-0.116313910687887,-0.721822489615289,-0.213098867294567,-1.08917039416249,-1.18720931619527,0.0187213513659367,0.0641566935086151,0.0833674222230911,-0.287768832051628,0.156236868790641
36.085,-0.346175727110158,0.12872690524247,0.904142672989599,-0.519311326602638,-0.197664850017508,0.0468705530843019,-1.21999002360782,-0.0407029467648226,0.137325825932953,-0.853172577296401,0.250804740129168,0.0515194775171653,-1.07501230724125,0.103102643010503,-0.10045890984632,-0.355350863796636,-0.214233638437186,-1.01515567935147,-1.16563592038059,0.0482165060936225,0.0608252990024675,0.076707267682157,-0.272574979897172,0.16460390663171
36.09,-0.422769045887432,0.157731550891354,0.865583180245269,-0.472148494014782,-0.190776553904588,0.0671070441136495,-1.07126266061902,-0.103276546722211,0.0273880493334193,-0.836236796330123,0.0337272309688669,0.117861119283263,-1.10022341866697,0.143423315677424,-0.0790348446924016,-0.0393384794073706,-0.178573419463336,-0.919078022168557,-1.13096748767084,0.0801702611251572,0.0578368713648933,0.033294990224269,-0.257270073725573,0.176452680003137
36.095,-0.477863455662009,0.189157870210574,0.854805374924339,-0.385390843376345,-0.228847371044326,0.0528083565242198,-0.901311610665088,-0.196270668061138,-0.105372624895242,-0.616320240594524,-0.120875528318524,0.1730493864525,-1.11217968319253,0.138682642660315,-0.0421453872832893,0.176442013629306,-0.116526312367344,-0.815042646205073,-1.09128351422551,0.103053935651693,0.0440113193810406,-0.0260884638490772,-0.251803649959636,0.19503767614758
36.1,-0.486233957820956,0.253825570416971,0.831109317235083,-0.233731582399951,-0.270686088161844,0.0468706091383962,-0.806284197410555,-0.233568372804785,-0.16714222079068,-0.595453069393656,-0.13577816312332,0.173564690881313,-1.10338223462289,0.101394699690843,-0.0112683816997684,0.287811512490841,-0.0605192599304831,-0.731320575548738,-1.03706961164988,0.130797935241303,0.0328372615108462,-0.100769673106273,-0.242741387565143,0.213507315618709
36.105,-0.455964746016081,0.247233521384996,0.840953190668315,-0.104810546171962,-0.267939360795481,0.0691676930381161,-0.769871343644236,-0.234283079395831,-0.148036237243105,0.132040629174912,0.00109176992945255,0.174954674943912,-1.05684978615873,0.0193511793556966,0.0135041903984375,0.273175296556464,-0.0149885175553629,-0.63723408549998,-1.00976636952521,0.146944051897065,0.0265771084720571,-0.196600439664274,-0.213886915387437,0.235585134380841
36.11,-0.438636918039471,0.239750595141044,0.858206880384208,-0.110161663855527,-0.225124901137813,0.0611090463884545,-0.848758412569353,-0.145828127397354,-0.077365126562076,0.544687340131701,0.114168022839912,0.190877103440517,-0.997547303801454,-0.049525357410706,0.0131212381669064,0.226523078797305,0.00899937002163519,-0.575626671468542,-0.984248248453825,0.153596361045356,0.0183595006652676,-0.32067411751325,-0.142669638270968,0.251679416345373
36.115,-0.425275938861844,0.247424712613639,0.864289125591955,-0.0924748060830296,-0.159593332342516,0.0571363030260925,-0.966189991268796,0.00702861407312618,-0.0134489543083835,0.754731158840486,0.135279494543107,0.233077018557376,-0.938153111063259,-0.114081758698059,0.0018529740926801,0.235296203216497,0.0857922959076371,-0.553249333127151,-0.973239756997522,0.153112216089079,0.023523045501543,-0.434362323028816,-0.0580227920494409,0.267904275943192
36.12,-0.399933850530517,0.258948166540472,0.869950359946672,-0.0456332936202787,-0.148530006934628,0.0578044839203358,-1.01315394260401,0.128918860916967,0.0263857806993522,0.819171410529703,0.109685570159226,0.28701856282882,-0.917117474083647,-0.151902749092437,-0.0383021497372757,-0.0376942030642766,0.00771046658637697,-0.492805216621939,-0.949296031709884,0.133181454746001,0.0310901840185422,-0.585642409615279,0.0502904318575717,0.284252255031945
36.125,-0.392999266601374,0.287169956638302,0.867336200993771,-0.0227721425561571,-0.139933546726916,0.0733203331294728,-1.05823687991998,0.23049130259215,0.0712619158768165,0.667649524204881,0.0965288004270383,0.33119527891255,-0.809063707144097,-0.179363132542474,-0.00458839875091278,-0.0480141965389613,0.112569275978346,-0.552579345929727,-0.974223755748402,0.136853568061197,0.0501340542598626,-0.668794077562999,0.130155695968842,0.277009103432238
36.13,-0.403547349263037,0.285685427590314,0.867821474900562,-0.0170181426505078,-0.137235135426106,0.0912789409524581,-1.07382744947527,0.282928364755233,0.0961543758878386,0.42471952261753,0.0875615568009782,0.304137882474664,-0.817886595151398,-0.190721794355895,-0.027712217560451,-0.138653465639722,0.173752954453882,-0.616638648610627,-0.958744842836429,0.152500836981773,0.0588645049311463,-0.861782697953013,0.191815540126243,0.323555380442333
36.135,-0.412420123216097,0.278415690547859,0.867365444197252,-0.018034901878997,-0.144219978946787,0.103345984061906,-1.09162626848868,0.299316295519655,0.0871541766144715,0.0811976901841592,0.0956892371177673,0.255343127485995,-0.867678785671473,-0.201187007629367,-0.0135659841732591,-0.135641083057087,0.264132925036413,-0.66401202997232,-0.974141194296042,0.148318747357293,0.0607905784480942,-1.01976839611695,0.237156480558258,0.368562971525401
36.14,-0.416679627206309,0.267498623583896,0.865894597578838,-0.0532777557381817,-0.126200964565604,0.101928861288155,-1.077228912388,0.2679098947222,0.0600285770509555,-0.241424573992169,0.0897141344622046,0.226006961104349,-0.930888382667608,-0.197860266771437,0.00732087467833342,-0.111030685397221,0.320382503036859,-0.615037184983966,-0.920320920764264,0.14178716740983,0.0814586933836435,-1.08438556711332,0.253404829301161,0.361081842075397
36.145,-0.431766941354828,0.253323352981204,0.859781436879814,-0.0953835073607801,-0.104717009334532,0.1021452551139,-1.05940253713481,0.207235792955418,0.00647996747421872,-0.466185815607395,0.100013693337661,0.231412319670286,-0.986338585268408,-0.169985510117784,0.0609609908452029,-0.00868824677593181,0.341717951818752,-0.539589883416195,-0.911372232712322,0.137730939504422,0.0803205044151374,-1.06655554961097,0.260977178176787,0.330718494078877
36.15,-0.443387430272899,0.259868169251983,0.856268629651259,-0.13833775747651,-0.0873588516216597,0.0958680016760667,-1.02347678684172,0.146687562563172,-0.0369770997193217,-0.626699774410991,0.0956444233370438,0.233008520942103,-1.04665973558943,-0.144816367106958,0.114751147652097,0.132827828046065,0.343008030757718,-0.41326401019833,-0.880854701728349,0.1332235642905,0.0809234104891614,-1.04513943471434,0.273163474680247,0.309894542314473
36.155,-0.442694023772226,0.269019015223474,0.850376375707774,-0.189093601273986,-0.0797903967889706,0.0857667287889578,-0.98922947488047,0.111861839182831,-0.0615688071963823,-0.686510100573836,0.106830487438642,0.227233120694382,-1.06667694655787,-0.129697659324371,0.169088120238035,0.217842203909501,0.315041872967716,-0.31535206171702,-0.874525491245357,0.128960128144266,0.0748430737795337,-1.01627218189809,0.300842900093443,0.296160806189577
36.16,-0.441483482933709,0.275387630668767,0.849507899928168,-0.221139317340996,-0.066071844265084,0.0704005643264726,-0.956694804679683,0.109764632324202,-0.0636629779192767,-0.689165917566358,0.13786661176666,0.218455177767595,-1.07786359954757,-0.119128304971965,0.234450481181314,0.29575024240748,0.276489714738044,-0.230203262743987,-0.872658280678252,0.128418745161318,0.0782011462837913,-0.995359667873999,0.289568002457352,0.285736986514867
36.165,-0.439492693632865,0.289684877528002,0.852061655986101,-0.230011429699791,-0.0705794990062714,0.0651868023647894,-0.943913706187488,0.119531737499751,-0.0519838143279588,-0.648628473002817,0.138793077593218,0.208634100712595,-1.07421461294793,-0.10203071483112,0.274370518208976,0.319233068963231,0.23732845621755,-0.192302691226289,-0.873587092572457,0.122293577356665,0.077057639291897,-0.993944817617398,0.237323056896908,0.293771105676614
36.17,-0.434164747696569,0.29824044344538,0.85147384895061,-0.226172423305456,-0.0711560984251014,0.0536997751917136,-0.946351710844703,0.133419258801513,-0.0487667613823513,-0.559102034294587,0.134217844958372,0.197029238760929,-1.07486404581097,-0.0837975830581508,0.305457329933082,0.331836086204167,0.193096941085494,-0.198396550849137,-0.87355448372461,0.113397730792584,0.0840917895852591,-0.992802644215793,0.154432984487266,0.299737285307376
36.175,-0.430366618607882,0.287754940953101,0.853542048360427,-0.208632367245058,-0.0798531499064223,0.0477903305981562,-0.956385183658812,0.147233396599841,-0.0598932675072162,-0.453297035514511,0.133244485914371,0.184508118113272,-1.07659633560722,-0.0711034196263325,0.323498596704385,0.330957275859482,0.158990459443521,-0.201732405642099,-0.873824553233624,0.0967965283054801,0.0913414969421124,-0.961005574155353,0.0829003640950608,0.301266831937043
36.18,-0.43158508673758,0.264015747694851,0.864348198829789,-0.173967831919669,-0.0722009129033642,0.0303273109979497,-0.990711129580146,0.142922625657471,-0.0705270689355342,-0.355459804655203,0.126348069034798,0.176843403435045,-1.07384381655525,-0.0675164535122492,0.321871613168975,0.365658680965075,0.14687379708934,-0.223948779526009,-0.868959622398968,0.0928194278440245,0.108176012658122,-0.871295071594937,-0.00643808062881714,0.29993292613658
36.185,-0.425317662905819,0.254018979638728,0.86439559021884,-0.141556085568483,-0.0671404116143171,0.0228785198363518,-1.01579916534655,0.135418974525982,-0.0825313771290578,-0.254142457988887,0.114865435267751,0.162379620308268,-1.07389793669101,-0.0777321350645853,0.303630808750649,0.428578362796535,0.126737224851527,-0.216640112857727,-0.880692371674655,0.0759121739315479,0.125142017669016,-0.782324174416098,-0.0354373370998653,0.286324179836731
36.19,-0.424278983079151,0.255213553270398,0.865328189502124,-0.0907443366971611,-0.0607319327273145,0.0174145588853135,-1.04525287735595,0.124883353526667,-0.0770264931494967,-0.156582765317898,0.100627533031119,0.133987988415533,-1.07577649790351,-0.0826268068350274,0.287801111716828,0.519347929755265,0.120686861956456,-0.26369865062159,-0.896402623050467,0.0678188966474429,0.133338165446102,-0.680761626378581,-0.0586883903888182,0.287480964509229
36.195,-0.42142756711739,0.264060612912253,0.86313079753226,-0.0417284577321844,-0.0504100508380741,0.0169229398247635,-1.05920491802411,0.121556310171189,-0.0748524885916916,-0.0456361453324396,0.0993543267250061,0.0912818829796133,-1.08554381023376,-0.0839750097718811,0.266109560290863,0.652372093397894,0.107983997987953,-0.337479385709464,-0.939815535467475,0.055548960743753,0.146738969712094,-0.546545572096002,-0.0963923365821018,0.28405053907843
36.2,-0.425923769657437,0.270738761310768,0.85889477892916,-0.0062885535000511,-0.0508717345739753,0.0103592041500285,-1.05660825403524,0.130701242875526,-0.070284099785575,0.0435452416324053,0.0802714354989233,0.0468858397818186,-1.09259474202318,-0.0794174264069705,0.2418429287527,0.770890923425253,0.0932188488680073,-0.392537187150446,-0.986573099184207,0.0493691270133431,0.159028477766742,-0.420046098929574,-0.128270028313241,0.291757170960748
36.205,-0.42262629998126,0.274767887339808,0.864163257532668,0.011780230702109,-0.051096199490356,-0.00250985343610639,-1.04932602678733,0.141887013733048,-0.0743459849179964,0.0982272794480967,0.0773894834323604,0.0192697982027246,-1.09429939531277,-0.0803871632237289,0.218202845034941,0.906932471060786,0.0691679718333748,-0.430695553610731,-1.03598886995032,0.0448859139003464,0.165193370257914,-0.300829739576765,-0.175041860817195,0.290212704899738
36.21,-0.425873921092097,0.26573374364393,0.864807192264488,0.0195860160169636,-0.0461988104868484,-0.0135848223418486,-1.03044719489887,0.140941365343445,-0.0797291531886406,0.126717571265713,0.0671636634906448,-0.00262234525751093,-1.09012268102569,-0.0892031242699318,0.191576240394426,1.00096996348043,0.0282644040986045,-0.435912153919092,-1.09791869845935,0.0320813369102814,0.173277625269987,-0.187709564968679,-0.221023678098209,0.287428491948885
36.215,-0.428423133085503,0.257920711059489,0.86466203616865,0.0171672482181712,-0.0431425891954823,-0.0217317815266191,-1.00940788149731,0.139940063783464,-0.0884708672189047,0.136566080244217,0.0566555430158767,-0.0182637557658218,-1.08003622633858,-0.0967628113274635,0.166866351521142,1.01721366827312,-0.0149149153885826,-0.406410115950399,-1.14664431281311,0.0136910210230706,0.1709573974843,-0.0997364465449125,-0.242428778680596,0.28378246231199
36.22,-0.426037452597213,0.249836671604306,0.862585093114322,0.00938752489798728,-0.0365491507206354,-0.0335392429458379,-1.00126921222066,0.125063487387542,-0.0933240378579597,0.123582793038755,0.0337343849805352,-0.0199465954434448,-1.04880911824692,-0.112879970215218,0.134796104004342,0.947798682808562,-0.0681830493716715,-0.359528183439019,-1.18694187565577,0.00817161228274044,0.165339022208542,-0.0218339629319104,-0.24808107755824,0.272953411076688
36.225,-0.429567157055583,0.253594605951392,0.861287353567958,-0.00604380471586814,-0.0232196383345019,-0.0372968617609044,-0.996569806141055,0.117991795144302,-0.0928372346131522,0.106854106239743,0.0201114979280988,-0.019052622747991,-1.01547586540682,-0.134500536478511,0.105248343566527,0.823901423570332,-0.103123429743811,-0.333882526417025,-1.21361863420456,-0.00202178346794963,0.1626169167809,0.0227008610574662,-0.211317938217758,0.249816698514261
36.23,-0.420171579098004,0.25125952382218,0.86542374279471,-0.0236464296519787,-0.0160223849569283,-0.0465682365909541,-1.00266188870088,0.110359039913655,-0.0763066808370282,0.0832494082084613,-0.00231925804423574,-0.0186342285714115,-0.986797194672736,-0.138454378160548,0.0762906309643679,0.695919073141254,-0.12922400817777,-0.327257687013084,-1.23747365189843,-0.0139089355019329,0.146384284904044,0.0464504648870804,-0.1644525663108,0.229870058693629
36.235,-0.41761413454426,0.24261649252929,0.867709108114631,-0.0364002623135003,-0.00978069758427678,-0.0466980505349845,-1.01894283538601,0.100743184774554,-0.0655021910410655,0.0580122581258096,-0.0214826324644684,-0.012124552440771,-0.964425954086649,-0.125409308041764,0.0422114996880061,0.538503818430822,-0.138042866649804,-0.34085355430798,-1.24634579093769,-0.0220330029845854,0.131670542022035,0.0562128211035205,-0.103963274983184,0.203803051474128
36.24,-0.418320869962253,0.229438178391982,0.864731466718401,-0.0420730178746203,-0.00820991672005448,-0.0508000308688548,-1.03288034639318,0.0890712003018724,-0.0647745391513522,0.0296858989590213,-0.0540668287721608,-0.00652941062110392,-0.953764516616528,-0.108970244915188,0.0109315690847282,0.392002273434021,-0.134002841408313,-0.369475837220703,-1.24030111960259,-0.0321557404399778,0.115301888496851,0.047802786787935,-0.0572384686876105,0.1890485080241
36.245,-0.420751255495794,0.232719930472544,0.86543314435748,-0.0384162048615429,0.0083743102548408,-0.0530780121034033,-1.03023119901534,0.0777403711391213,-0.0698196592940701,0.000630640937509518,-0.0814408268142314,-0.00496521454034816,-0.946156451838362,-0.0938256954799907,-0.0250901137615251,0.264526736621766,-0.120686622645124,-0.401794814707541,-1.21888544852075,-0.0420242875239886,0.110135587339463,0.0413592026575402,-0.0180531918648071,0.180069694863222
36.25,-0.418225197780482,0.234730534424689,0.866225309555029,-0.0289447311715119,0.0203248288381476,-0.0469861561635352,-1.03416111296717,0.0704588869229723,-0.0769201843406363,-0.00255912041096905,-0.0961953432139099,-0.00695918997749256,-0.937180844927554,-0.0861868552795916,-0.0679827358295405,0.123253027758152,-0.102322512559231,-0.444451680071734,-1.18966254510292,-0.0497377303314127,0.0979382842013689,0.0344487249224615,-0.00381717787003294,0.152219275467435
36.255,-0.423524609362803,0.236685701544451,0.866317436689025,-0.00150255530947354,0.0213739628731629,-0.0465247563186758,-1.03247198729498,0.0647156705979439,-0.0785476277690199,0.00905324092472795,-0.11105081538975,-0.00924781552414177,-0.929881037810521,-0.091620383927078,-0.100538482238444,-0.00261303836214443,-0.0808335342192548,-0.486198814436497,-1.15555896936434,-0.056912612652428,0.0956177531032222,0.0301821814781377,-0.00670798463222301,0.12969032739407
