Header,foot_Accel_X,foot_Accel_Y,foot_Accel_Z,foot_Gyro_X,foot_Gyro_Y,foot_Gyro_Z,shank_Accel_X,shank_Accel_Y,shank_Accel_Z,shank_Gyro_X,shank_Gyro_Y,shank_Gyro_Z,thigh_Accel_X,thigh_Accel_Y,thigh_Accel_Z,thigh_Gyro_X,thigh_Gyro_Y,thigh_Gyro_Z,trunk_Accel_X,trunk_Accel_Y,trunk_Accel_Z,trunk_Gyro_X,trunk_Gyro_Y,trunk_Gyro_Z
0,-0.255225150181457,-0.0641204638082443,0.960939582378418,0.293944252210383,0.0441096993047188,0.112771540842883,-0.99539511768242,-0.068101284376871,0.0700474030554068,0.262313365202378,0.019158099856642,-0.00776753236613213,-0.994813457087532,-0.0748719912963956,-0.0758881960436545,0.260847277219214,-0.0435853384245531,0.028750621940296,-0.972683540952125,-0.042783097063849,0.228340774126202,-0.00871094718795807,-0.0057855931068695,0.0223784575500057
0.005,-0.251480685892857,-0.0715494035165002,0.95809417715709,0.288377366045689,0.0434740644001015,0.110798518883571,-0.995711059183136,-0.0657734131544659,0.0708229841446431,0.257409187543292,0.0187069213199902,-0.00752004269805306,-0.994612464208623,-0.0782391065379339,-0.0810046392494027,0.255965144544885,-0.0428466764996485,0.0282472620313779,-0.972431243166323,-0.043001369141984,0.229083893159905,-0.00867690776256139,-0.00575627230323744,0.022035977325537
0.01,-0.245045184235964,-0.0837154097073545,0.953016018335501,0.273324862023764,0.0414821775655623,0.105285067447974,-0.996284149995568,-0.0619133578648033,0.0722350327216651,0.24400740329182,0.0174097641531668,-0.00691677340227721,-0.994198155273565,-0.0841436261156563,-0.0903105450778153,0.242617308974033,-0.0409564693729914,0.0269133496127706,-0.971736630966821,-0.04331209988902,0.230683106213418,-0.00860500946659942,-0.00574680880984884,0.0211035757698914
0.015,-0.240202304448687,-0.0934329170188652,0.949051359333606,0.251186948884502,0.0382394866264089,0.0971665620786726,-0.996690500149052,-0.059207136305382,0.073486024021653,0.22420725732646,0.0154378424683607,-0.00611745403258756,-0.993850158376431,-0.0883842902551443,-0.0970088279803675,0.222904044714854,-0.0381746163710933,0.0249026488458167,-0.970830327870414,-0.0433305695960059,0.231926766342463,-0.00850006896728783,-0.00585746348718327,0.0197029264894012
0.02,-0.237020191491838,-0.100268018791743,0.946256386816528,0.223926674744382,0.0340457315852816,0.0871240489951435,-0.996884184889684,-0.0573683790473215,0.0745908212816287,0.199776947726547,0.0129966035256276,-0.00520774602590126,-0.993614828190646,-0.0909821110588277,-0.100939149570536,0.198587866499337,-0.0346750335033905,0.0223795887368837,-0.969792104515108,-0.0429036097160437,0.232494409729157,-0.00831695271687164,-0.006151872491886,0.0179060085514582
0.025,-0.235544059077709,-0.104051091270344,0.944753195808754,0.193760117923953,0.0292591847692876,0.0759481081680371,-0.996900883605665,-0.0564287379315663,0.0753697344589924,0.172711690465024,0.0102980043039655,-0.00427121158659353,-0.993498764359183,-0.0919188178479656,-0.102235711054635,0.171656215886245,-0.0306779153563184,0.0195383540703212,-0.968479777400055,-0.0422213742356754,0.232802014611881,-0.00803302137007167,-0.00671837787907105,0.0158120436754571
0.03,-0.235591505430076,-0.105057834232395,0.944473686501873,0.162814578265175,0.0242400716850009,0.0644166983254898,-0.996791885332061,-0.0563063872822393,0.0757418840545746,0.144924681975673,0.00753114766203165,-0.00337762374525097,-0.993497225099581,-0.0914180589092683,-0.101336188395913,0.14401373155902,-0.02641267984207,0.0165723346271816,-0.966826425665457,-0.0414592181394864,0.233175741912341,-0.00764686327818665,-0.00765524147490956,0.0135307644832742
0.035,-0.23684297890546,-0.103859580181053,0.945213558509651,0.13285573893385,0.019305106292085,0.0531921464115953,-0.996607222477142,-0.0568435796016853,0.0757371083308109,0.118000921946368,0.00484659617741574,-0.00257677651877221,-0.993599027827865,-0.0898473604610836,-0.0988081753919015,0.117237463983236,-0.0220798898864926,0.0136474325815672,-0.964851953118018,-0.0407260552821228,0.233765176857613,-0.0071685850966936,-0.00905431214883622,0.0111642791904813
0.04,-0.238940291657696,-0.101124738136691,0.946714431040523,0.105164185906433,0.0147046453318722,0.042771785297383,-0.996389003580072,-0.0578576176593732,0.0754495063216084,0.0930855001058294,0.00235286481598555,-0.00189770133915278,-0.99379030789825,-0.0876048823728872,-0.0952151722127186,0.0924659955487372,-0.0178309734762405,0.0108886632047358,-0.962639803371824,-0.0400670763610931,0.234579718103169,-0.00661137974081265,-0.0109886861057485,0.00879729394062453
0.045,-0.241551887513523,-0.097469521823143,0.948724390123912,0.0805423227094801,0.0106181300216752,0.0334855275978193,-0.996170143070465,-0.0591776853686755,0.0749855559395518,0.0708902326972939,0.000120387270440513,-0.00135167584859204,-0.994055649453062,-0.0850387974288105,-0.0910438395164494,0.0704063268238574,-0.013766493789328,0.00837903463683358,-0.960312042349095,-0.039481320197608,0.23555198048903,-0.00598559754401838,-0.0135049103845903,0.00649486498712219
0.05,-0.244400745046426,-0.0933856177019426,0.951026296069767,0.0593933996154797,0.00715872697314486,0.025518787634121,-0.995975102656741,-0.0606614846151174,0.0744320894936727,0.05176656287484,-0.00181174908651688,-0.000936988392921128,-0.994377386846742,-0.0824113292946478,-0.0866821866806702,0.0514066755463133,-0.00994610460264116,0.00616541980875539,-0.95801771143874,-0.0389377422189252,0.236582403000188,-0.00529411344491295,-0.0166174242085712,0.00430391501034541
0.055,-0.247268810583421,-0.0892279549686817,0.953443773617442,0.0418210331574801,0.00438105233547384,0.0189430003354551,-0.995820666781083,-0.0621972726332908,0.07384757494244,0.0357974791040919,-0.00342893143416111,-0.000643762487623117,-0.994734581921315,-0.0798968121879443,-0.0824250069331832,0.0355481556391834,-0.0064033593470425,0.00426664776764966,-0.955934300428404,-0.0383879200577125,0.237556099959152,-0.00452886749182747,-0.0203022869497657,0.00225635076957568
0.06,-0.249991348983227,-0.0852339473481793,0.955836680823214,0.0277194848902712,0.00228959227753538,0.0137443488647599,-0.995715862498704,-0.0636989650872526,0.0732684238588707,0.0228806623480816,-0.00473482620891124,-0.000457860500728163,-0.995102397136121,-0.0775968997043558,-0.0784874734080158,0.0227276657719376,-0.00316086147830687,0.00268107782380163,-0.954271505032777,-0.0377791949742416,0.238343205311693,-0.0036696317161812,-0.0244888041202963,0.000373111192750725
0.065,-0.252448598686446,-0.0815517111090475,0.958093302820897,0.0168441244510776,0.00084723576887194,0.00984727573285994,-0.995660719153189,-0.0650999258585002,0.072719663432667,0.0127929338265695,-0.00574589885421313,-0.000363646957166338,-0.995451831126096,-0.0755595542514268,-0.07501695321155,0.0127221129389812,-0.000242851028200814,0.0013926148778672,-0.953261326650073,-0.037072550291752,0.238800383548569,-0.00268625852756458,-0.0290508844287667,-0.00133165353411625
0.07,-0.254558110410248,-0.0782654440726819,0.960123071038318,0.0088626675209876,-1.60032581894374e-05,0.00713235328364171,-0.99564418026748,-0.0663484472403055,0.0722225609141828,0.00523677837898441,-0.00648660054031565,-0.000345887496101611,-0.995749919238093,-0.0737951036994221,-0.0720999749532791,0.00523476911923441,0.00231728371966253,0.000375071500220526,-0.95312122119111,-0.0362662232564579,0.238787861773331,-0.00154539339488745,-0.0338036121257372,-0.0028478271223611
0.075,-0.256269618292787,-0.0754142489626985,0.96185233235268,0.00339210128932188,-0.000393601268259417,0.00544944113935705,-0.995642694866437,-0.0674059384768634,0.0717963954222975,-0.000126183352108698,-0.00698534194204281,-0.000391164069184459,-0.995961249351272,-0.0722881958832362,-0.0697659505299513,-7.13642155435734e-05,0.00447692255921329,-0.000404789571219077,-0.953990905277166,-0.035417879359061,0.238205330543298,-0.000221800851678719,-0.0385125665293875,-0.00416967276489322
0.08,-0.257563249206984,-0.0730047259609571,0.963225121844906,2.6550888088383e-05,-0.000392020148248457,0.00462774477747285,-0.9956223721172,-0.0682475128735026,0.0714553391993779,-0.0036497915183601,-0.00727156879599596,-0.000488967163364033,-0.996052106138082,-0.0710074264091207,-0.0679927219097348,-0.00354822875372869,0.00619231748568421,-0.000984987173195627,-0.955867840532619,-0.0346479208092986,0.237033145623459,0.00128792342658254,-0.0429207726609402,-0.00529967332157355
0.085,-0.258449873508098,-0.0710191967566801,0.964209120583519,-0.00164013406846736,-0.000119429379669749,0.00448470704906083,-0.995547130864663,-0.068863720449509,0.0712037665971987,-0.00568274434335856,-0.0073742751574164,-0.000632261735641788,-0.995997650264979,-0.0699147740772029,-0.0667196171675638,-0.00554221096932274,0.00743176725371083,-0.00140616822330864,-0.95858476095687,-0.0341067759285443,0.235351868655987,0.00295524018095184,-0.0467890031439458,-0.00625361743464416
0.09,-0.258969862052184,-0.0694220447439913,0.964803199425438,-0.0019954871811479,0.000324683762870914,0.00483525133462849,-0.995391418207903,-0.0692616218960762,0.0710336508693151,-0.00655178159235558,-0.00732197931098639,-0.000817136537647693,-0.995789995610231,-0.0689751835491869,-0.065868917542008,-0.006377522199947,0.00818679148447526,-0.00170903850510956,-0.961858344602794,-0.0339120851035102,0.233319248769672,0.00472068076958712,-0.049934040152856,-0.00706246064314754
0.095,-0.259186132954571,-0.0681664145079597,0.965039982948837,-0.00139376073820439,0.000856573430519662,0.00550138393294721,-0.995151191791927,-0.0694636957756782,0.0709257178348667,-0.00654942307592857,-0.00714365329099386,-0.00104144408549221,-0.995442925119345,-0.0681642693210275,-0.0653686699781527,-0.00634423242722567,0.00847468408047479,-0.00193138961709738,-0.965388817230303,-0.0340933930098016,0.231112591909099,0.00650826589329606,-0.052246986646909,-0.00776745588007038
0.1,-0.259171503127454,-0.0672017272102054,0.964979481565831,-0.000146849312533945,0.00141032150136128,0.00632054241504816,-0.994846515429562,-0.0695044524537562,0.0708530457313437,-0.0059273571394486,-0.00686975671983361,-0.00130294677854105,-0.994990349266392,-0.0674717110347583,-0.0651661982628135,-0.00569197225297094,0.00833198958092182,-0.00210538474422106,-0.968945726838812,-0.034584151181005,0.228874059604876,0.00824576855180492,-0.0536855236196562,-0.00840941510619797
0.105,-0.258996076381544,-0.0664800776046119,0.964697004582227,0.00147923783892182,0.00193569280088846,0.00715133322355188,-0.994514696461977,-0.0694260894092716,0.0707845879152374,-0.00489515290865957,-0.00653270960261905,-0.00159773933611579,-0.994479796819769,-0.0668999749109527,-0.0652269102239173,-0.00462887384640759,0.00780529820123823,-0.00225582686917365,-0.972382535277283,-0.0352627481524735,0.226696601282967,0.0098787782839531,-0.0542521886456152,-0.00901699939181424
0.11,-0.25872063902925,-0.0659592470046126,0.964271977196063,0.00326472022620333,0.00239479551873852,0.00787725373491625,-0.994198543503626,-0.0692743831830545,0.0706882417989565,-0.00362209471909168,-0.00616659783919285,-0.0019193484282979,-0.993964291043527,-0.0664598375516132,-0.0655222975696163,-0.0033235137678121,0.00694676610391033,-0.00239951157045506,-0.975584991949625,-0.0360073037528878,0.224652109798328,0.011372708087049,-0.0539791469900481,-0.00959915249864983
0.115,-0.258395679096571,-0.0656025462170074,0.963780014895563,0.00503574196628558,0.00276051727354429,0.00840954153869789,-0.993934803215943,-0.0690943736093304,0.0705361784752675,-0.00223973830377411,-0.00580600691432002,-0.00225850634258495,-0.993493844367719,-0.0661639059261712,-0.066016204109058,-0.00190747886133694,0.00581585386333619,-0.00254533818261063,-0.978420145947185,-0.0367313243880694,0.222822647853693,0.0127064380252481,-0.0529293250218135,-0.010143947717985
0.12,-0.258061108969332,-0.0653780581521285,0.963285821129925,0.00666343707398028,0.00301719463088934,0.00868844097959719,-0.993745233358527,-0.0689247299360667,0.0703140200074025,-0.000844662239394868,-0.00548359062037523,-0.00260365216257399,-0.993106042104862,-0.066018840071641,-0.0666570265279859,-0.000478025121955938,0.00448160951704757,-0.00269516491837356,-0.980746585568227,-0.0373938172714881,0.221295776112769,0.0138647527603717,-0.0512037129075408,-0.0106233637101922
0.125,-0.257744707328738,-0.065259351955985,0.96283600765613,0.00806075984622612,0.00316168988113369,0.00868159170610295,-0.993631799137285,-0.0687914874977726,0.070029152399175,0.000497352050229058,-0.00522624716270849,-0.00294230730081179,-0.992817590372121,-0.0660184588657001,-0.0673794313863234,0.000897969802959468,0.00301878962736175,-0.0028457269503845,-0.982473790069618,-0.0379926716716189,0.220129230135486,0.0148341555367095,-0.0489370265760892,-0.011002345514581
0.13,-0.257461938031731,-0.0652273568662779,0.962455017402999,0.00917708284619199,0.00320291088537638,0.00838104816448729,-0.993578055345277,-0.0687040944133203,0.0697095788722489,0.00174475251813617,-0.00505116382713795,-0.0032630516020124,-0.9926217209549,-0.0661414602913809,-0.068115587133141,0.0021777728897776,0.00149759623299422,-0.00299148156937913,-0.983604581109272,-0.0385488802959482,0.219324896216383,0.0156033095332165,-0.0462772636285228,-0.0112499833256272
0.135,-0.257219115950169,-0.0652713633071672,0.962147227411658,0.00999260952159374,0.00315897573012958,0.00780245606841686,-0.993557133182818,-0.0686565515728833,0.0693911375809956,0.00287196617983622,-0.00496417545948268,-0.00355725309314524,-0.992494339121653,-0.0663557202121326,-0.0688110741302439,0.00333486241894912,-2.6323411022373e-05,-0.00312744652849425,-0.98422117912999,-0.0390876167367596,0.218836567398965,0.0161670961812845,-0.043361709266028,-0.0113497044073919
0.14,-0.257018126183303,-0.0653871412221543,0.961904475065059,0.0105138209345958,0.0030525952197575,0.00698675857267364,-0.993542436020104,-0.0686338871454896,0.0691027498030241,0.00386159229931222,-0.00496177445225484,-0.00381977544533915,-0.992405750168515,-0.0666267032393193,-0.0694348685976559,0.0043512934435259,-0.00151539923866464,-0.00325097025727595,-0.984438390181867,-0.0396245688968161,0.218597378012776,0.0165312973770992,-0.0403030231145494,-0.0113048504707595
0.145,-0.256859733960657,-0.065571786507678,0.961715188571019,0.0107687858575236,0.00290663435822296,0.00599935840690944,-0.993515071274805,-0.0686214529841857,0.0688618527953242,0.00469963762294081,-0.00503508860610614,-0.00404865239509776,-0.992331251365722,-0.066924916812159,-0.0699744009960153,0.00521293386692589,-0.00294754431821313,-0.00336206358629708,-0.984368924126634,-0.0401636838758328,0.218539929153196,0.0167140828882299,-0.0371870704924715,-0.0111374503377955
0.15,-0.256744172472542,-0.0658174333376564,0.961570827703711,0.0108006656050837,0.0027420058874745,0.00492092964598386,-0.993465632513434,-0.0686130765231913,0.0686805016234183,0.00537558343120212,-0.00517256264966337,-0.00424438091606869,-0.992256325468958,-0.0672291563706595,-0.0704199318333958,0.00590943339972129,-0.00431252508386919,-0.00346268983813282,-0.984117767772411,-0.0407039553290972,0.218599162551779,0.0167423357052566,-0.0340753339111349,-0.0108810650812337
0.155,-0.256669350239218,-0.0661077189929693,0.961467062878057,0.0106596268727694,0.00257774341854584,0.00383007750456871,-0.99339321805765,-0.0686144321556297,0.068570854472423,0.00588669392760024,-0.00536008361109837,-0.00440941089268203,-0.992177097367969,-0.0675262038359093,-0.070754497869005,0.00643842015998625,-0.00561067600212563,-0.00355566575340922,-0.983792561600411,-0.0412472124915345,0.218705575877554,0.0166442243395339,-0.0310057193778868,-0.0105709974827357
0.16,-0.256628335604235,-0.0664199651046296,0.961400595944818,0.0103951122393372,0.00243035818372019,0.00278519335645995,-0.993305081979627,-0.0686402541430678,0.0685414937840267,0.00624308755444232,-0.00558053881258931,-0.0045478375228058,-0.99209869516095,-0.067809560488821,-0.0709603980619753,0.00681048070497063,-0.00685270508508014,-0.0036436588223364,-0.98351107773447,-0.0418013192671805,0.218779982922773,0.0164413329210523,-0.0279906302674472,-0.0102353714364374
0.165,-0.256609156167322,-0.0667324570961884,0.96136580108257,0.0100503714710533,0.00231036000918071,0.00181451122877867,-0.993216283077188,-0.0687072753241975,0.0685884067137195,0.00646918871262082,-0.00581539740076898,-0.00466496078716739,-0.992032498892477,-0.0680784670270271,-0.071035514561193,0.0070505367397479,-0.00805751779997944,-0.00372855285026185,-0.983393304341025,-0.0423780318936256,0.218738529267648,0.0161433080847413,-0.0250148083295959,-0.00988953822772708
0.17,-0.256599242467282,-0.0670326394513344,0.961355185963875,0.00966015971067522,0.00221801306878675,0.000918660375528818,-0.993146527918714,-0.068826911389292,0.0686903716929672,0.0065995887603065,-0.00604853189665883,-0.00476659258414858,-0.991991859302401,-0.0683364777731722,-0.0710034484982436,0.00719364989816576,-0.0092469943738205,-0.00381133483166375,-0.983534257581026,-0.0429864294644093,0.21851204233334,0.0157472502671697,-0.0220373343292773,-0.00953555565462099
0.175,-0.256592691184484,-0.0673215932338628,0.961363805929153,0.00925158033197291,0.0021428906096488,8.32573709765401e-05,-0.993114291787593,-0.0690013255249455,0.0688133480949623,0.00667114980583644,-0.00627023726542608,-0.0048583720308632,-0.991987327369087,-0.0685892061895077,-0.0709089541818469,0.00727710656496152,-0.010439300287063,-0.00389250753250238,-0.983968237554116,-0.0436241374055654,0.2180729699715,0.0152432674100628,-0.0190017854715446,-0.00916751777285651
0.18,-0.25659467358927,-0.0676129497372582,0.961394227548115,0.00884695296561837,0.00206917503384684,-0.000705258804646513,-0.993132057394269,-0.0692242657885447,0.0689213609909409,0.00671505011987716,-0.00647928375885149,-0.0049453484454496,-0.992024512538576,-0.0688428381851653,-0.0708025679281541,0.0073324819495245,-0.0116432528433358,-0.00397277419378217,-0.984648404621729,-0.0442716144714962,0.217452626413008,0.0146247355621544,-0.0158540309175861,-0.00878065340440324
0.185,-0.256618706353392,-0.067927463627858,0.961458636193835,0.00846643943378974,0.00198379595414571,-0.00144771158845806,-0.993206082609125,-0.0694855664004287,0.0689885862665942,0.00675145474303566,-0.00668205489533272,-0.00503173094679749,-0.992106685145101,-0.0691051087288482,-0.0707235630847742,0.00738032729755367,-0.0128557253137882,-0.00405352509078072,-0.985458437749501,-0.0448941647494897,0.216735790583594,0.0138977385502719,-0.0125610592880842,-0.00837871692688562
0.19,-0.256678025578982,-0.0682855529391106,0.961576883992066,0.00812828772867195,0.00188246423357834,-0.00212851964342063,-0.993340281923165,-0.0697766258907552,0.0690067408197689,0.0067875859916404,-0.00688914405234767,-0.00512048875704722,-0.992240434366843,-0.0693877545736702,-0.0706892424171971,0.00742820390904266,-0.0140626905118092,-0.00413670647350164,-0.986247616294964,-0.0454497061718636,0.216037299782405,0.0130837247148941,-0.00912299794143735,-0.00797433364722215
0.195,-0.256776088778876,-0.0686999266533487,0.961770890150895,0.00784646231967995,0.00177042018103456,-0.00272039699856163,-0.993540979174894,-0.0700941168563368,0.0689826942617261,0.00681899106191864,-0.0071110037661267,-0.00521268705431314,-0.992440084421207,-0.0697074108786814,-0.07069549568281,0.00747184727470147,-0.0152425216486886,-0.00422398628691648,-0.986864789248875,-0.0458957099639158,0.215476402987916,0.0122144129606653,-0.0055757948626338,-0.00758174147694187
0.2,-0.256900838795185,-0.0691704544625589,0.962056766270034,0.00762747487381096,0.00165753103058472,-0.00319406326673237,-0.993819276793208,-0.0704403737085227,0.0689266740928487,0.00683346643891476,-0.0073549684849245,-0.00530678631599311,-0.992727445809506,-0.0700830736379852,-0.0707280467692633,0.00749895779117055,-0.0163687183202373,-0.00431551758191939,-0.987176970354019,-0.0461924801850632,0.215158685943913,0.0113233724081839,-0.001987852496579,-0.0072065220423737
0.205,-0.257025502591654,-0.0696832408242674,0.962437511337601,0.0074685810667162,0.00154966276167426,-0.00352818849314859,-0.994189008372546,-0.0708202620489335,0.0688396050922255,0.0068163934418646,-0.00762521881638667,-0.0053982716677375,-0.993126001541748,-0.0705305649686653,-0.0707766622778381,0.00749443495487334,-0.0174100951131105,-0.00440883498082295,-0.987079304486178,-0.0463062913573962,0.215163346697231,0.0104392997307047,0.00154559610395401,-0.00683809450668533
0.21,-0.257116829112774,-0.0702141184012828,0.962899887392645,0.00735839217588652,0.00144043320346124,-0.00371551980541984,-0.99465973374423,-0.071235369408055,0.0687101120533693,0.00675550722413642,-0.00792508890961942,-0.00547994409485389,-0.993650556026713,-0.0710550844648181,-0.0708422158070495,0.00744514190105631,-0.0183296127964212,-0.00449848578059653,-0.986511550416118,-0.0462161999782822,0.215529253784783,0.00958298345044425,0.00491043398331365,-0.00644851828260474
0.215,-0.257148289793437,-0.0707342980578564,0.963417053089841,0.00727985634099801,0.00130860379159413,-0.00376350501356592,-0.995226828346365,-0.0716776074921245,0.0685236068962182,0.00664364966212687,-0.0082593475067811,-0.0055431755407374,-0.994295270956181,-0.0716431042642431,-0.070932669599788,0.00734280575605825,-0.0190856766161736,-0.00457689455279802,-0.985485332231667,-0.0459230580378429,0.216238736159451,0.00876759374350606,0.00798724653905193,-0.00599859301301965
0.22,-0.257111520189764,-0.0712154007132019,0.963954840746825,0.00721500234191734,0.00112409238916244,-0.00369063843266418,-0.995864003125918,-0.0721256252164303,0.0682755450393946,0.00647970085670826,-0.00863437054757142,-0.00558023859208053,-0.995025856257123,-0.0722573109653513,-0.0710530282206592,0.00718526125954363,-0.0196388180776402,-0.00463654398773333,-0.984104659193757,-0.0454550511879922,0.217208934784031,0.0080015260934082,0.0106723824462129,-0.00545017883723416
0.225,-0.257018522952571,-0.0716330434483308,0.964477848216398,0.00715011411781437,0.00085989766630574,-0.00352131610934806,-0.996524409773094,-0.0725471306744459,0.0679784835557173,0.00626865002789256,-0.00905610452104452,-0.00558713046600811,-0.995782840135976,-0.0728408046019927,-0.0711976349495606,0.00697690887073651,-0.0199620318334046,-0.00467276485046276,-0.982549300173581,-0.0448648579934455,0.218307244284614,0.00729265136213452,0.0129012379489887,-0.00478090271590856
0.23,-0.256892959028762,-0.0719696569132577,0.964953433852539,0.00707912359565879,0.000502388460050612,-0.00328126968723241,-0.997152041447781,-0.072907093170621,0.0676591932574601,0.00602078200446479,-0.00952750333302482,-0.00556545388797592,-0.996497903579562,-0.0733331549251542,-0.0713490753194693,0.00672816606065917,-0.0200484544715467,-0.00468571402635701,-0.98100881886474,-0.0442180503105372,0.21939687682163,0.00665170221775075,0.0146611324469706,-0.00399475009738262
0.235,-0.256757623440843,-0.0722164715628011,0.965354967416644,0.00700332984390269,5.35692249873728e-05,-0.00299399380179717,-0.997697755585092,-0.0731776443949691,0.0673506269778743,0.00574908591432816,-0.0100471773795941,-0.00552196902128569,-0.997115775605574,-0.0736913626849071,-0.0714816385451193,0.00645283707789056,-0.0199106283768319,-0.00468028956669017,-0.979598163240542,-0.0435771268635751,0.220393195161704,0.00609246350022255,0.0159829585152568,-0.00312281902063646
0.24,-0.256628091359738,-0.0723735425524347,0.965666367637845,0.0069276422055561,-0.000474112974462372,-0.00267782569849325,-0.998130820286567,-0.0733442750093205,0.0670861774085283,0.00546494499443351,-0.0106095180004751,-0.0054657915308862,-0.997609233709174,-0.0739031834406084,-0.0715648369822506,0.00616345720375576,-0.0195718218861522,-0.00466394855210855,-0.978310143772549,-0.0429877001720103,0.221296441201625,0.00562856235486599,0.0169138478314228,-0.00221376308448905
0.245,-0.256515513144515,-0.0724472628759874,0.965886774718051,0.00685572207776887,-0.00106399088293688,-0.00234375686943528,-0.998440940097599,-0.0734060456289766,0.0668987216730508,0.00517389268853499,-0.0112052306062092,-0.00540474693442308,-0.997979978527115,-0.0739855166851703,-0.0715653323250325,0.00586658790871445,-0.0190558547784884,-0.00464367793495119,-0.9770366026094,-0.0424722441829185,0.222179864821733,0.00526910165211006,0.0174862404465623,-0.00131915319357438
0.25,-0.256432173488174,-0.0724461845930584,0.966030890958102,0.00678673778899711,-0.00169716907320791,-0.00199483656939612,-0.998632644850021,-0.0733716998658787,0.0668205774615167,0.00487376661016847,-0.011821351063721,-0.0053427731541825,-0.998247835856918,-0.0739707656715217,-0.0714495595618039,0.00556063212834916,-0.0183819465125638,-0.00462367317404207,-0.975643720221273,-0.0420336008120707,0.223140218303532,0.00501579971903735,0.0177003425878077,-0.000480778432185908
0.255,-0.256392175237751,-0.0723767598318472,0.966122128806896,0.00671509148743887,-0.00235091403118412,-0.00162832831406594,-0.998717296223777,-0.0732549918448343,0.0668799672693302,0.00455663314824582,-0.0124409577141061,-0.00527947694174187,-0.998436084131643,-0.0738897494747538,-0.0711893292216263,0.00523768055013437,-0.0175664427493038,-0.0046046331474949,-0.974059414152261,-0.0416660810875411,0.224236417496713,0.004862847314763,0.0175280767947118,0.000275294760125154
0.26,-0.256406449163347,-0.0722409048291561,0.966181658943923,0.00663282401938943,-0.0029976249407479,-0.00124091766108695,-0.998706904102103,-0.0730712586057301,0.0670947507713561,0.00421413741979907,-0.0130434376472617,-0.00521180882970375,-0.998560194422121,-0.0737593430256109,-0.0707687671069676,0.00488904129668948,-0.016628984015629,-0.00458468498447323,-0.972329784398111,-0.0413678746097811,0.225446564676468,0.00479903433669116,0.0169356302932229,0.00093692437058963
0.265,-0.256477048931826,-0.0720370372278642,0.966220207374746,0.0065332506582916,-0.00360699766338656,-0.000835253462588817,-0.998611520627164,-0.0728356503800147,0.0674679630718482,0.00384404305696569,-0.0136057153406323,-0.00513686176489913,-0.998624212323525,-0.0735798613845557,-0.0701883308664078,0.00451210178719629,-0.0155990708243833,-0.00456126009516955,-0.970615077881682,-0.0411476162606828,0.226666915419721,0.00481073438823349,0.0159130917588167,0.00149905362712477
0.27,-0.256595119271907,-0.0717646170008345,0.96623692507822,0.00641391397993351,-0.00415069746950041,-0.000424404082626483,-0.998440171736414,-0.0725626522047556,0.0679875107298413,0.00345455569642434,-0.0141041357902349,-0.00505429296281711,-0.998625070277888,-0.073342479054096,-0.069464235506645,0.00411494315757019,-0.0145190859123064,-0.00453290115503775,-0.969124175009715,-0.0410217380775487,0.227755592735416,0.00488415201920783,0.014495372540773,0.00195660553554174
0.275,-0.256743272751286,-0.0714297531439676,0.966224137341791,0.00627743773365085,-0.00460744578262977,-3.13083784512923e-05,-0.998203970569222,-0.0722662472284579,0.0686280763559179,0.00306383815664972,-0.0145166658237645,-0.00496714122296409,-0.998560964289657,-0.0730414650099894,-0.068626115829142,0.00371597173914295,-0.0134412565476584,-0.00450013795168233,-0.968024919166646,-0.0410049907655049,0.228594893258677,0.00500590816687145,0.0127627915106535,0.00230123730257068
0.28,-0.256900385577951,-0.0710484489103341,0.966173486278872,0.00613022518671736,-0.00496689187550203,0.0003169172175471,-0.997918865419964,-0.0719600623256553,0.0693533112054713,0.0026948750787497,-0.0148254256575542,-0.00488083632071551,-0.998437885792946,-0.0726833875560583,-0.0677152393121129,0.00333869633526412,-0.0124191517982521,-0.00446520854234002,-0.967383481923513,-0.0411007781565568,0.229134323059297,0.00516221857166121,0.0108223174669336,0.00252317766302986
0.285,-0.257045804057787,-0.0706457383627626,0.966079439135383,0.00598017037845038,-0.00523152898900231,0.000596933936294729,-0.997605204893923,-0.0716571877716361,0.0701200338224033,0.00236848502537488,-0.0150192349747798,-0.00480127659151373,-0.998270301460011,-0.0722883857384447,-0.0667805312502758,0.00300454307386774,-0.011497581769162,-0.00443111077752348,-0.967159026265613,-0.041298431631776,0.229395804212235,0.00533758737781126,0.00878157211357059,0.00261614204936424
0.29,-0.257161449321272,-0.0702516972256283,0.965939279405475,0.00583470456848206,-0.00541653743866279,0.000795487914094749,-0.997283261259,-0.071369711163621,0.0708863857892547,0.00209780052270681,-0.0150949687198943,-0.00473320163152803,-0.998076278818546,-0.0718844766359953,-0.0658692316318888,0.00272716503685613,-0.0107055463945669,-0.00440074561357221,-0.967239008872283,-0.0415795202232953,0.229450930946941,0.00551367776586235,0.00672811655368772,0.00258169190702846
0.295,-0.257234005024711,-0.0698968135520801,0.965752307214613,0.00569977943223032,-0.00554741229086298,0.00091178053234919,-0.996967280731361,-0.071107958118716,0.0716207493368535,0.00188592817907255,-0.0150566295302451,-0.00467958105925109,-0.997870632690197,-0.0714996659484521,-0.0650163918525351,0.00251004127830438,-0.0100546517391171,-0.00437663233577174,-0.967485469431401,-0.0419271488161672,0.229389970032733,0.00566873814952001,0.00471934676415426,0.00243024442114496
0.3,-0.257260496965569,-0.0696087608514202,0.965521610506221,0.00557965149535662,-0.00565465957873126,0.0009565631563836,-0.996662184260388,-0.0708793545282772,0.0723050494643978,0.00172631138807819,-0.0149127497648414,-0.00464191355083927,-0.997659996361347,-0.071156281349851,-0.0642421868551828,0.00234687762431192,-0.00954221880380778,-0.00436115614352386,-0.967773670388985,-0.0423292989078317,0.229294813226467,0.00577831129511095,0.00278233165162156,0.00217848876482235
0.305,-0.257255525454088,-0.0694108984393418,0.965258039580741,0.00547704637092248,-0.0057651133211932,0.000950432304162659,-0.996364819329121,-0.0706872181136308,0.0729306005729349,0.00160414043504929,-0.014674196448022,-0.00462083494652437,-0.997441851784332,-0.0708690759985226,-0.063559217827292,0.00222308722909515,-0.00915645366697682,-0.00435697883008762,-0.968016549445299,-0.042774304927891,0.229220939471513,0.00581800230197571,0.000920890227409728,0.0018451621691616
0.31,-0.257252502914266,-0.0693211812222157,0.964981875961153,0.00539334558687101,-0.0058917314937059,0.00092297337049969,-0.996068124949583,-0.0705302959812608,0.0734917601565985,0.00149757595872424,-0.0143537291318382,-0.00461651468101847,-0.997207384777837,-0.0706459947306955,-0.0629811758294215,0.00211705707027761,-0.00888123750688495,-0.00436726535457499,-0.968172090637559,-0.0432458133132527,0.229191914896866,0.00576775169853048,-0.00087365486272176,0.00144746125997037
0.315,-0.25729350139603,-0.0693499996185038,0.964718564727375,0.00532862372746689,-0.00602648962263607,0.000912040801625555,-0.995765315524336,-0.0704037168149844,0.073983446447137,0.00137886849806629,-0.0139665499959594,-0.0046287141153717,-0.996946586846189,-0.070489632794155,-0.0625233858337063,0.00200126497997545,-0.00869941489145224,-0.00439558934957413,-0.968234229645722,-0.0437245221364757,0.229206965903631,0.00561530929392162,-0.00261249869321427,0.00099920916711676
0.32,-0.257412230119099,-0.0694969397875246,0.964490381086284,0.00528155491233015,-0.00614068944308561,0.00096113859230376,-0.995452545229435,-0.0703011831598571,0.0744027857846232,0.00121637034291913,-0.0135301076596298,-0.00465668318847578,-0.996653331506336,-0.0703981277319148,-0.062195585174435,0.00184425820869102,-0.00859463534325706,-0.00444555534819165,-0.968215227230011,-0.044194910896576,0.229255392929087,0.00535671256771454,-0.00430379511157361,0.000510650965569869
0.325,-0.257621104195969,-0.0697480640549922,0.964309724370855,0.00524934052332914,-0.00619281462386723,0.00111375372162153,-0.995130197696423,-0.0702174646812572,0.0747505523540879,0.000978242819558298,-0.0130624998759302,-0.00469911472318894,-0.996328419993545,-0.0703654109356796,-0.061995310910755,0.00161431915811257,-0.00855229174704326,-0.00452024452238528,-0.968131405384978,-0.044648853399082,0.229327812372072,0.0049939577004455,-0.00595203874410814,-1.07960137077793e-05
0.33,-0.257909160094958,-0.0700756423388946,0.964177814676411,0.00522780418568979,-0.00613976891153215,0.00140548635958794,-0.994803446651668,-0.0701501650379096,0.0750295531396964,0.000637657202818358,-0.0125803883071492,-0.00475424436670262,-0.99597997546211,-0.0703815753974928,-0.0619081777786006,0.00128463047896885,-0.00856005929248027,-0.00462159867813168,-0.967999336357281,-0.0450818419297382,0.229418231156618,0.00453219971469049,-0.00755982309046202,-0.000559380476142359
0.335,-0.258248538788097,-0.0704412818007101,0.964087867721787,0.00521164403039701,-0.0059467552584412,0.00185627573177606,-0.994482404930472,-0.0701002414136258,0.0752413788424338,0.00017818850028656,-0.0120976615003876,-0.00482002334928089,-0.995622115827422,-0.070434237586212,-0.0619139982805664,0.000838641140498721,-0.00860829864767502,-0.00474984915920653,-0.967840962896524,-0.0454855606857478,0.229518435005251,0.00397841085662857,-0.00912878463986476,-0.00112951301052644
0.34,-0.258602955965206,-0.070801792340489,0.964029364740149,0.00519466946043555,-0.0055936510941307,0.00246519205516167,-0.994181841516016,-0.0700714908385927,0.075384383371711,-0.000402391780722779,-0.0116252614016255,-0.00489420545105717,-0.995273226998919,-0.0705110949582222,-0.0619938850566134,0.000273834859239482,-0.00869037307956342,-0.00490308037658328,-0.967691481517047,-0.0458429857730654,0.229610165771282,0.00334130976346686,-0.0106580728947415,-0.00171358909857277
0.345,-0.258933783512541,-0.0711157552232348,0.963990870502365,0.00516986832445571,-0.00507833247452885,0.00320911592264526,-0.993920271321295,-0.0700697388880319,0.0754537454884839,-0.00109109720459151,-0.0111718078403236,-0.00497424340138217,-0.994954298360499,-0.0706027997234993,-0.0621349095351983,-0.000397275636333217,-0.00880284472421682,-0.00507698591981961,-0.967604296386187,-0.0461282245771198,0.229659925825704,0.00263116902717486,-0.0121405119328485,-0.00229889700645854
0.35,-0.259203557162738,-0.0713487434922152,0.963960867561195,0.00512935370782242,-0.00441814358180478,0.00404482361216904,-0.993717980161719,-0.0701022463657256,0.07544259057219,-0.00186123713849764,-0.0107445107978937,-0.00505706005875218,-0.994686731669239,-0.0707046843445288,-0.0623315597045465,-0.00114867662127663,-0.00894552715393535,-0.00526484872814279,-0.967649285675713,-0.0463097301232172,0.22961926648586,0.00185880260597125,-0.0135577583567595,-0.00286405836508412
0.355,-0.259379204068924,-0.0714767265522525,0.963927510897771,0.00506441666367511,-0.00364984485509729,0.00491299342167112,-0.993593268085073,-0.0701769043147943,0.0753435584308134,-0.00267529070735778,-0.0103500536617456,-0.00513891279742941,-0.994488665704311,-0.0708163014185976,-0.0625843088289405,-0.00194371875117882,-0.00912133497814343,-0.00545780162656473,-0.967901884877302,-0.0463563325026406,0.229432137787415,0.00103426600667792,-0.014876410871416,-0.00337642330618141
0.36,-0.259437175209934,-0.0714887618357228,0.963878579066379,0.00496589627213479,-0.00282696811705047,0.0057433205510163,-0.993556446902855,-0.0703001485943981,0.0751513642065627,-0.003488434080292,-0.00999523705734461,-0.00521559199834904,-0.994369397981117,-0.0709387482916758,-0.0628956617342538,-0.00273858352728863,-0.00933569642718075,-0.00564550920987456,-0.96842234733079,-0.0462474725395591,0.229049433359911,0.000166093407293496,-0.0160474739408102,-0.00379259192031539
0.365,-0.259370253628818,-0.071389656489407,0.963802306968116,0.00482492649793467,-0.00201280213014766,0.0064612610256964,-0.993602725744734,-0.070473352148426,0.0748663882599406,-0.00425308312167844,-0.00968716837834262,-0.00528309311691305,-0.994323059574455,-0.0710707615657565,-0.0632648139226081,-0.00348669028161891,-0.00959512280673086,-0.00581745880843359,-0.969229715614137,-0.045986844458154,0.22844732036701,-0.000738676536426188,-0.0170114280191815,-0.00406416352254241
0.37,-0.259192244119312,-0.0712010129703066,0.963688720946115,0.00463396635644602,-0.0012685528319754,0.00699692299929403,-0.99370785500898,-0.0706895410077637,0.0744971527137776,-0.00492489146748307,-0.00943292315826259,-0.00533871302587959,-0.994325003403508,-0.0712054769834268,-0.0636838087515998,-0.00414448636657228,-0.00990469535584197,-0.00596487199343392,-0.97028335476058,-0.045612221187816,0.227640493074064,-0.00167391523994405,-0.0177093554169187,-0.00414908994173068
0.375,-0.258935238692936,-0.0709577544511118,0.963530532292257,0.00438790976327564,-0.00063985003088897,0.00729457315838112,-0.993831546001598,-0.0709335238530276,0.0740586300121153,-0.00546913944364089,-0.00923899343843225,-0.00538225527651323,-0.994335276264669,-0.071330095225712,-0.0641385901754362,-0.0046776094734494,-0.0102649308461839,-0.00608277771312124,-0.971488337549044,-0.0451906999870383,0.226679555146881,-0.00263342177599571,-0.0180967421862788,-0.00402538606580243
0.38,-0.258638183591727,-0.0706996832316754,0.963323410812546,0.00408500004113349,-0.000148007964763,0.00731911337831522,-0.993929824945361,-0.0711866333137436,0.0735664945334529,-0.00586487362487411,-0.00911110921533536,-0.00541680855969954,-0.994310262004229,-0.0714294598117994,-0.0646150425638916,-0.00506488065853232,-0.0106693359233851,-0.00617135329125575,-0.972728945983539,-0.0447959696170645,0.22563020801421,-0.00360947855748033,-0.0181531863474317,-0.00370064974070854
0.385,-0.258333045883568,-0.0704623770008325,0.963066879957339,0.00372728000971694,0.000209114458075618,0.00705687661795571,-0.993970239106487,-0.0714331690499641,0.0730326115545923,-0.00610491190527022,-0.00905462349435546,-0.00544863546246508,-0.994217369289255,-0.0714919623575674,-0.0651047515941986,-0.00529832454443096,-0.0111041092472253,-0.0062358154820247,-0.973911881568702,-0.0444790835186812,0.224547106319786,-0.00459107789614419,-0.0178825685324512,-0.00321176641186386
0.39,-0.258037801811982,-0.0702730324513546,0.962766991841801,0.00332043486117544,0.000448385651680537,0.00651230058860866,-0.993940735507308,-0.0716637572129891,0.072467555420497,-0.00619297301612689,-0.00907473364451517,-0.00548612142433982,-0.994044694950247,-0.0715144407167749,-0.0656042183855682,-0.00538047060109134,-0.0115505337712842,-0.00628498490003643,-0.974990904180034,-0.0442509398333789,0.223461020642111,-0.00556251110017731,-0.0173046950441106,-0.00261491810952597
0.395,-0.257759329590944,-0.0701520327035631,0.96243951383156,0.00287313138500431,0.000591815463197851,0.00570509485589158,-0.993848323186182,-0.0718737914333071,0.071888976464616,-0.0061413717692779,-0.00917546116505064,-0.00553817107980886,-0.993801562197502,-0.0715034546156652,-0.0661075307697184,-0.00532229089487576,-0.0119892650002003,-0.00632938021916372,-0.975961003074437,-0.0440843941676885,0.222385607230301,-0.0065030856516474,-0.0164451248683669,-0.00197166406437264
0.4,-0.257500732143488,-0.0701153739563192,0.962110259364942,0.00239626998732243,0.000661538720643567,0.00467072419932444,-0.993711565372992,-0.0720596230420086,0.0713274902767419,-0.00597114943594994,-0.00935729218192625,-0.00561259055592754,-0.993512355882682,-0.0714725827107293,-0.066599450093972,-0.00514355191207318,-0.0124048621115271,-0.00637963241661705,-0.976834927942141,-0.0439282016741859,0.2213330229473,-0.00738778208741485,-0.0153293778684588,-0.00133758695599807
0.405,-0.257266119294697,-0.0701735276913,0.961810781013809,0.00190273657502588,0.000678985287354651,0.00346251656331071,-0.993553170095746,-0.0722162184144051,0.0708238174373741,-0.00571298303305819,-0.00961479005415603,-0.00571487736692306,-0.993208662462063,-0.0714373638219712,-0.0670548572901799,-0.00487388192424747,-0.012788921103215,-0.0064454092143643,-0.977621689507084,-0.0437206436919144,0.220324732645509,-0.00818757259167693,-0.0139827697287566,-0.000756551907025767
0.41,-0.257061349947356,-0.0703277997606901,0.961571721158538,0.00140795766232367,0.000664887027179834,0.00215174845256308,-0.993395174024122,-0.0723373046817561,0.0704200926087698,-0.00540601214101599,-0.00993561476578655,-0.00584761928014472,-0.992922733812055,-0.0714103677341242,-0.0674431272230303,-0.00455169189970674,-0.0131410289948188,-0.0065346565314658,-0.978314877532481,-0.0433985242890863,0.21939434656221,-0.00886845222459967,-0.0124335687180412,-0.000259975708602179
0.415,-0.256893488175893,-0.0705684401459527,0.961417574826773,0.000930876644454481,0.000638680148329286,0.000824222019173357,-0.993255795073165,-0.0724165466354507,0.0701525832593248,-0.00509394865706179,-0.0103010913571633,-0.006010471468455,-0.992682719163261,-0.0713984095832507,-0.0677325692612341,-0.00422032553944436,-0.0134679389319548,-0.00665304007475734,-0.978888852324896,-0.0429048492071913,0.218586256041926,-0.00938994829829426,-0.0107171782896755,0.000131092735582723
0.42,-0.25677060658359,-0.0708763385480908,0.96136380964945,0.000494445048142775,0.000618138382862957,-0.000425475979818511,-0.993147346753249,-0.0724484969184723,0.0700476361877337,-0.00482029254281182,-0.0106875927586575,-0.00620052267507204,-0.992509344629786,-0.0714023168637645,-0.0678944647521623,-0.00392327022505842,-0.0137818396084974,-0.00680365043210062,-0.979303234624435,-0.0421988963288884,0.217949751044179,-0.00970505609056993,-0.00887983650004726,0.000403090420859771
0.425,-0.256701340476753,-0.0712264366327506,0.961414819758949,0.000124680561120981,0.000619501202902873,-0.00150100732201343,-0.993075845085559,-0.0724293755609114,0.0701169104618436,-0.00462442013107573,-0.0110686229390376,-0.00641287820983392,-0.992413854859764,-0.0714180516967609,-0.0679100673424681,-0.00370020240073535,-0.0140979923849335,-0.00698704366275346,-0.979519531689811,-0.041269589460721,0.217524321869908,-0.00976317876795698,-0.00697960717398923,0.000547353339789964
0.43,-0.256694189154825,-0.0715905739550225,0.96156252429242,-0.000152476300416771,0.000657371357469273,-0.00231349519189666,-0.993042207754029,-0.0723579679013861,0.0703506006094759,-0.00453877502954926,-0.0114182770067346,-0.00664144168793355,-0.992397027511213,-0.0714377590076436,-0.067780118332191,-0.0035840977487903,-0.0144313615520478,-0.00720163066734021,-0.979526443139569,-0.0401505183599851,0.217318493161246,-0.00951687505138519,-0.00508185737747372,0.000558119512017776
0.435,-0.256757341250538,-0.0719393458150332,0.961787485097542,-0.000316720109677275,0.000744665271226786,-0.00279389902616069,-0.993043778629949,-0.0722364132315076,0.0707137052736822,-0.00458666750737753,-0.0117161201344746,-0.00687993440776108,-0.992449518688386,-0.0714506429411165,-0.067530185079788,-0.00359891133124049,-0.0147922291959703,-0.00744438562932121,-0.979358052949045,-0.0389296207340437,0.217295578752963,-0.00893245217080518,-0.00324867520111318,0.000431103798007078
0.44,-0.256898154204307,-0.0722435273486096,0.962063472393387,-0.000359905158618842,0.000893606692314245,-0.0029062650627615,-0.99307552510657,-0.07207065979132,0.0711511824681976,-0.00478053218601014,-0.0119519565080296,-0.00712295230376586,-0.992554705034356,-0.0714449814897136,-0.0672052703670636,-0.00375770631859333,-0.0151818496668828,-0.00771165452970186,-0.979086861259151,-0.0377407529189371,0.217381361228838,-0.00800205854944889,-0.00152639681867341,0.000162733149552378
0.445,-0.257120580586963,-0.0724752669558972,0.962364095339628,-0.000290028897232167,0.0011170852303136,-0.00265570933968282,-0.993131444005481,-0.0718707051711204,0.071602210272621,-0.00512082044486804,-0.0121281475625982,-0.00736650513337454,-0.992694734575463,-0.0714121570086684,-0.0668538887049143,-0.00406148222308225,-0.0155898498204877,-0.00799953790513204,-0.978787900675901,-0.0367301809936686,0.217496394452557,-0.00675148847427089,6.11629120683986e-05,-0.00024964596120841
0.45,-0.25742128800155,-0.0726089521089833,0.962669384849264,-0.000129328204512173,0.00142837702689549,-0.00208546895045364,-0.993206509614801,-0.0716507361963313,0.0720174669623406,-0.00559560043875441,-0.012257929294121,-0.00760751125873377,-0.9928580893978,-0.071351399058618,-0.0665088231746598,-0.00449884714871454,-0.0159946607259104,-0.00830333643535948,-0.978491317854889,-0.0360104237600118,0.217598208563329,-0.00523799086396219,0.00150783985563607,-0.000806235217099133
0.455,-0.25778700561457,-0.0726218268026981,0.962970246802291,9.352526801481e-05,0.00183870476934642,-0.00126335074181259,-0.993298635921844,-0.0714291463363119,0.0723707634209941,-0.00618067491900557,-0.0123600846660333,-0.00784231757437271,-0.993045140095219,-0.071272502780074,-0.0661743142163105,-0.00504633659018912,-0.0163668795869586,-0.0086161024446524,-0.978150959798283,-0.0356275076881577,0.217710061299968,-0.00353811830000306,0.00280915311328895,-0.00150187697757796
0.46,-0.258193640861704,-0.0724947606404605,0.96326828655308,0.000353551817685098,0.00235382491608837,-0.00026430989834786,-0.993410016910594,-0.071228289859545,0.0726588913798912,-0.0068398267556901,-0.012452206056029,-0.00806498667786387,-0.993269014648735,-0.0711947629867802,-0.0658266527855282,-0.00566889065480563,-0.0166738346037175,-0.00892697889739628,-0.977647874116687,-0.035559035634366,0.217919470831283,-0.00173207166815921,0.00394229710667211,-0.00232234069924213
0.465,-0.258605977475956,-0.0722141552354088,0.963569738659571,0.000637556017807561,0.00297015552192754,0.000842949216993745,-0.99354729343395,-0.0710731750815768,0.0728905132044304,-0.00752502573919573,-0.0125455125979207,-0.00826626784268458,-0.993551161195611,-0.0711423972871024,-0.065428679767235,-0.00632019923024289,-0.0168830091268479,-0.00922021071735685,-0.976830548592615,-0.0357390162384654,0.218344961541787,0.00010800669607669,0.00485144681528229,-0.00324112398797908
0.47,-0.258978958121578,-0.0717765140850228,0.963876202654724,0.000947331352077655,0.00367025718626201,0.00200151798077873,-0.993719583030752,-0.0709875110728343,0.0730722772056504,-0.0081775702626756,-0.0126432557402082,-0.00843384941955623,-0.993912236162026,-0.0711378784659342,-0.0649518998788886,-0.00694379766475813,-0.0169633796891099,-0.00947555354272293,-0.975581176252576,-0.0360919796113054,0.219082483269493,0.00192261231196419,0.00544615910868311,-0.00421867872566394
0.475,-0.259263584289922,-0.0711959059566706,0.964177847008359,0.0012967674078088,0.00441937167912555,0.00316517011012064,-0.993933829508716,-0.0709866464904367,0.0732018039484368,-0.00873260113969571,-0.0127427343529514,-0.00855403474995068,-0.994360324029673,-0.0711950580979493,-0.0643963134221069,-0.00747730793332397,-0.0168863618581904,-0.00967055428761295,-0.973888072822937,-0.03656020729716,0.220150653650218,0.00366400980989588,0.00561734237729033,-0.00520591848857999
0.48,-0.259417341125636,-0.0705105281169945,0.964453166334878,0.00170324526754552,0.00516658537742429,0.00429430462429588,-0.994189261692107,-0.0710706890101102,0.0732708489644403,-0.00912895789455247,-0.0128392111032668,-0.0086145248105404,-0.994881408178125,-0.0713147477147489,-0.0637985649157059,-0.00786182080602678,-0.0166291893959911,-0.00978465893351721,-0.971892346754894,-0.0371158780250597,0.221458815106584,0.00529357356742434,0.00526964639386998,-0.00615244674126271
0.485,-0.259414027313695,-0.0697814642346632,0.964675113793455,0.00217626597805421,0.00585211176001319,0.00535212598266028,-0.994474827400573,-0.0712238531938207,0.0732739399791835,-0.00932244035971357,-0.0129295015401671,-0.00860745572711731,-0.995438785780473,-0.071485626385671,-0.0632228845448707,-0.00805461724616873,-0.0161812726669644,-0.00980403717723157,-0.969872917960253,-0.0377568226509058,0.222819890476916,0.00677994169837546,0.00435995922089822,-0.0070169836885092
0.49,-0.259247877240059,-0.069080182897762,0.964820295824574,0.00270873732982458,0.00641766845976322,0.00630233604527391,-0.994771991073188,-0.0714229511087808,0.0732154491934653,-0.00929590395095977,-0.0130135796951635,-0.00853145023064957,-0.995984033394992,-0.0716909625715532,-0.0627370790972672,-0.00803888947321357,-0.015550342752589,-0.0097249938956536,-0.968160425057189,-0.0384900163809072,0.224010740128402,0.00809847124756406,0.00292375918517461,-0.0077748246799362
0.495,-0.258931758915311,-0.0684702907371505,0.964876865623835,0.00327570489766035,0.00681510484081418,0.00710836173281305,-0.995060940770294,-0.0716502111699283,0.0731114526139601,-0.00905976888224913,-0.0130937221400619,-0.00839173743264866,-0.996473549268774,-0.0719174555596805,-0.0623856013727128,-0.00782423149311877,-0.0147641779485051,-0.00955415244619625,-0.96702078411934,-0.0393122679418008,0.224851013608476,0.0092313145416599,0.00107413949267528,-0.00841802417183012
0.5,-0.258492598496702,-0.0679942490909358,0.964847381835888,0.00384086482110281,0.00701078033950961,0.00773410419571803,-0.995325727389384,-0.0719013808274343,0.0729866139858966,-0.00864272930088559,-0.0131720684302253,-0.00819843092362589,-0.996880271327699,-0.072160660907214,-0.0621752146795925,-0.00743767383419883,-0.0138666273549895,-0.00930547195393724,-0.966575133288122,-0.0401993206234144,0.225256256083294,0.0101675525503518,-0.00102592786638774,-0.0089487343520976
0.505,-0.257966493403233,-0.067671264413445,0.964745683217401,0.00436667383153026,0.00698624531416879,0.00814648055992604,-0.995555664161363,-0.0721841749731989,0.0728680522265488,-0.00807890780914185,-0.013248331910404,-0.00796401275865239,-0.99719493786592,-0.0724242818298833,-0.0620801750648193,-0.00691130486874911,-0.0129101670041226,-0.00899599343375625,-0.966792901731821,-0.0411087075153265,0.225241618614214,0.0109032265590819,-0.00320212630871668,-0.00937060854724787
0.51,-0.257394269960779,-0.0675037397452251,0.964590665786089,0.00482305675009979,0.00673694567586039,0.00831978251847965,-0.995743816014582,-0.0725098393816277,0.0727788664112528,-0.00739853799809975,-0.0133190892350939,-0.00770116091439486,-0.997419717871869,-0.0727152156009482,-0.0620601024478821,-0.00627333864062749,-0.0119481371706949,-0.00864241179220867,-0.967540713071054,-0.0419920397920933,0.22488840547368,0.0114412377807937,-0.0053003661494453,-0.00968346400312984
0.515,-0.256817310870643,-0.0674852260426862,0.964401193093229,0.00519204875207894,0.00627046582026527,0.0082409140001225,-0.995885122634193,-0.0728844403292119,0.0727340056904131,-0.00662509643913724,-0.0133788069647311,-0.0074214262084113,-0.997560994871165,-0.0730383481767045,-0.0620774128649322,-0.0055454541347045,-0.0110285750632248,-0.0082593741467455,-0.968644619192516,-0.0428076242423021,0.224302364714495,0.0117910526341221,-0.00720339301740152,-0.00988303184906061
0.52,-0.256273135670989,-0.0676047003656998,0.964194030349881,0.00546824716496759,0.0056049730294439,0.00791337310853444,-0.995976075461635,-0.0733046597419449,0.0727394788166042,-0.00577724395041183,-0.0134216193582163,-0.00713462914901851,-0.99762593995605,-0.0733937294305504,-0.0621059941777255,-0.00474479946156418,-0.0101901956998695,-0.00785915060382866,-0.969936042550309,-0.0435269845984951,0.22358378597099,0.0119680181427136,-0.00883432626816031,-0.0099640150289025
0.525,-0.255790907243839,-0.0678462984173117,0.963983815030737,0.00565627434948458,0.00476744734270583,0.00735760888281272,-0.996016275325143,-0.0737587478697218,0.072793635481885,-0.00487200066774046,-0.0134427615433802,-0.00684863990109384,-0.997623233160255,-0.0737762008370925,-0.0621313906839604,-0.00388716569733202,-0.0094603646517639,-0.00745185361640392,-0.971275223128676,-0.0441340892124762,0.222813502741282,0.0119921162746413,-0.0101527561675001,-0.00992339140177278
0.53,-0.255388015824234,-0.0681866071591608,0.963783395237513,0.00576690344148911,0.00379081993674959,0.00660675270585837,-0.996010902747422,-0.0742305035344928,0.0728889177119301,-0.00392621385594418,-0.0134392572706673,-0.00656932019354565,-0.997565745493291,-0.0741762925622185,-0.0621469244432017,-0.00298844759624095,-0.00885468875081946,-0.00704558362474502,-0.972559206769155,-0.0446197468924473,0.2220496783197,0.01188639401139,-0.0111480166337946,-0.00976189719803094
0.535,-0.255069013006159,-0.0685927658141,0.963603946692993,0.00581339273486404,0.00270955934481198,0.00569878849668304,-0.995972429557906,-0.0747035028358108,0.0730140715274453,-0.00295520122629727,-0.0134100030573786,-0.00630053873361307,-0.997472687675238,-0.0745816104510897,-0.0621490986965731,-0.00206329675988385,-0.00837792194112711,-0.00664625990241539,-0.973722282064312,-0.0449755805315651,0.221329387435384,0.0116754958457066,-0.0118318632149544,-0.00948316005329432
0.54,-0.254828325478,-0.0690246876944964,0.96345555785539,0.0058089313858079,0.00155449570151578,0.00466808268383738,-0.995919634701763,-0.0751631193763174,0.0731577609398338,-0.00196964720154543,-0.0133553816536143,-0.00604421153486915,-0.997369076167255,-0.0749784518544282,-0.0621337928279249,-0.00112204128342517,-0.00802591546287394,-0.00625723570760479,-0.974730725952734,-0.0451919940512075,0.220673277352367,0.0113843327113381,-0.0122314033133067,-0.00909115649156099
0.545,-0.254657707112984,-0.0694426650868876,0.963349002343407,0.00576526618652149,0.000349566033029487,0.00354040388509286,-0.995872963478074,-0.0755951581827648,0.0733131473157006,-0.000973716051598121,-0.0132764593391554,-0.00580036846630014,-0.997281315593523,-0.0753531732655916,-0.0620945465483462,-0.000168807615504336,-0.00778808556129211,-0.0058791052639857,-0.975569861980664,-0.0452613595300042,0.220094672072814,0.0110367975726487,-0.0123834644546389,-0.00858790871785478
0.55,-0.254555689166924,-0.0698169727451704,0.963297660324143,0.00569211259456377,-0.000886427006977497,0.00233450755872274,-0.995848122498304,-0.0759828010935408,0.0734806639531941,3.28621101539059e-05,-0.0131740656334744,-0.00556733901802965,-0.997230420558928,-0.0756928156864407,-0.0620239177365481,0.00079643833202464,-0.00764961857597129,-0.00551017314916709,-0.976226478704178,-0.0451828529356553,0.219611047535914,0.0106550225049969,-0.0123320176943828,-0.00797382930886639
0.555,-0.254532059653216,-0.0701329813263135,0.963316974105003,0.00559700722893782,-0.00213327498396718,0.00106903136708396,-0.995852188722176,-0.0763059081138723,0.0736661713690644,0.00104921085203364,-0.0130483114387473,-0.00534215873398577,-0.997227189236726,-0.0759853538506996,-0.0619170778686795,0.00177241886339236,-0.00759286128147518,-0.00514762189248334,-0.976677476887859,-0.0449637566358247,0.219250154345564,0.0102598853370269,-0.0121287458591799,-0.00725129119850887
0.56,-0.254602644703461,-0.0703883875436738,0.9634201086518,0.00548549279524833,-0.00336299389873589,-0.000230955703848325,-0.995884924684455,-0.0765451072592822,0.0738751761839185,0.00206824810538279,-0.0128989045344144,-0.00512115855800425,-0.99727266224609,-0.0762206120844203,-0.0617749479614297,0.00275161365925107,-0.00759799341198374,-0.00478879000315823,-0.976893348021431,-0.0446159234692196,0.219044863308234,0.00987249511797729,-0.0118342078564946,-0.00642881894396894
0.565,-0.254778158097623,-0.0705859813693144,0.963611903975386,0.00536159168788336,-0.00453920004747517,-0.00153299527883864,-0.995943269112273,-0.0766883947001723,0.0741075708219512,0.00307600281340168,-0.0127260449549688,-0.00490054334370943,-0.997362540125635,-0.0763921942879784,-0.0616043992287203,0.00371966219524912,-0.00764357259101756,-0.00443183917240416,-0.976852323961835,-0.0441513531202119,0.219020339949009,0.00951523293989902,-0.0115163996144674,-0.00552224817282027
0.57,-0.255056143898496,-0.0707283859143633,0.963884961171485,0.00522843183921396,-0.00562302243161044,-0.00280196229808992,-0.99602435420916,-0.0767353453389275,0.0743569458089776,0.00405531940635092,-0.0125312670442175,-0.00467676558523357,-0.997491003168576,-0.0764993924462066,-0.0614153704943584,0.00465908440472932,-0.00770746995153973,-0.00407561602613215,-0.976552224775613,-0.0435815672554548,0.219183569377703,0.00921111722295977,-0.0112458973449072,-0.00455175666292568
0.575,-0.255421184605837,-0.0708177535795966,0.964219882598909,0.00508884361345547,-0.00658123686227944,-0.00400612506716979,-0.996124681464993,-0.0766962476041362,0.0746142723003356,0.00499064026062929,-0.0123177134565761,-0.00444665300739326,-0.99765100695497,-0.0765476622734787,-0.0612170442064857,0.00555403525308393,-0.00776824503150592,-0.00371912128314659,-0.976011727777137,-0.0429214854812985,0.219521549896519,0.0089816419516893,-0.0110895947129703,-0.00353708029366668
0.58,-0.255850990946949,-0.0708584617218296,0.964588595768499,0.00494580943668273,-0.00739177282888979,-0.00512038574416233,-0.996237068628512,-0.0765874952881595,0.074872471816,0.00587069662856652,-0.0120898000383722,-0.0042073921369689,-0.997832026699129,-0.0765472514414309,-0.0610154740420856,0.00639296771157197,-0.00780661065440203,-0.00336112284969227,-0.975263674214397,-0.0421948578439988,0.220006238101301,0.00884422891953189,-0.0111055499066818,-0.00249410577884934
0.585,-0.256322811426921,-0.0708594317638051,0.964958475847567,0.00480272585267901,-0.00804490927434992,-0.00612565887254813,-0.996348386653833,-0.0764263212902893,0.0751288551676955,0.00668824715197843,-0.0118525865280053,-0.00395649540186521,-0.998018029206077,-0.0765106767019166,-0.0608135090841963,0.00716836897418214,-0.00780658018694481,-0.00300015801479876,-0.974348066019714,-0.0414380719760057,0.220600488696706,0.00881020243929814,-0.0113399068273573,-0.00143432619476087
0.59,-0.256816773314502,-0.0708343372212349,0.965295878390351,0.00466349977614636,-0.00854138673553752,-0.00700583580253491,-0.996439709194141,-0.076227048583509,0.0753847217972805,0.00743787193150422,-0.011611182370812,-0.00369183538050921,-0.998187412175239,-0.0764499590986192,-0.060612347641631,0.00787457990340567,-0.00775608649141232,-0.00263486963951154,-0.973309489491397,-0.0407007279901905,0.221261332229208,0.00888347028318808,-0.0118252948468527,-0.000366684667071075
0.595,-0.257316158313901,-0.0707998020380036,0.965568915161278,0.00453256468536586,-0.0088894347919358,-0.00774444148157793,-0.996488708890117,-0.0759994518289273,0.075643031715791,0.00811339304428265,-0.0113703578963231,-0.0034117986874533,-0.998314951821929,-0.0763741854094584,-0.0604136292499977,0.00850526097013928,-0.00764710348782541,-0.00226451272018928,-0.972198502330991,-0.0400425606021925,0.221940875764857,0.0090598094781611,-0.0125796846290167,0.00069943472886743
0.6,-0.25780634800361,-0.0707725159047967,0.965749914174487,0.00441490215008021,-0.00910209732994548,-0.00832260484649512,-0.996473377728393,-0.0757488988580015,0.0759056342363212,0.00870618084977046,-0.0111344071556981,-0.00311558073062664,-0.998375068379707,-0.0762878535689922,-0.0602211412421645,0.00905175502418689,-0.00747546771939749,-0.0018894792571193,-0.971073444349013,-0.0395267879708751,0.222587470022574,0.00932677807792388,-0.0136051691310194,0.00175123469731432
0.605,-0.25827412344112,-0.0707663208639767,0.965818239870922,0.00431602621666052,-0.00919532669655946,-0.00871912210436551,-0.996376188008759,-0.0754777499209718,0.0761715560470516,0.00920493373179514,-0.0109072119785156,-0.00280356087931802,-0.998345868724609,-0.0761906538056547,-0.0600412984977574,0.00950292066000481,-0.00724065879946694,-0.00151170059053891,-0.969998979338643,-0.0392103149099101,0.223149612138648,0.00966436381639832,-0.0148869424806979,0.00277058490676177
0.61,-0.258708059671787,-0.0707901082200792,0.965763961512198,0.00424169367251203,-0.00918654607112382,-0.00891259699426216,-0.996188003739022,-0.0751875688597391,0.0764373474341393,0.0095968248894285,-0.0106923054009562,-0.00247758151274554,-0.998213615307081,-0.076079233635123,-0.0598817666618958,0.0098463065240321,-0.00694575001848864,-0.00113476676840903,-0.969039832862738,-0.0391319539387306,0.223582982457579,0.0100464084756276,-0.0163933727949365,0.00373417361092406
0.615,-0.259099609995165,-0.0708468258586823,0.965591679814964,0.00419700507445177,-0.0090930144055956,-0.00888511713252054,-0.995911028580038,-0.0748815978755521,0.0766991881555689,0.00986945169837709,-0.0104926179191655,-0.00214090167834284,-0.997976800374175,-0.0759504464474101,-0.0597486158044357,0.010070075902347,-0.00659762673502165,-0.000763613298869863,-0.968252143041513,-0.0393013602280756,0.223858030318382,0.0104426933498903,-0.0180780861366918,0.00461651286494297
0.62,-0.259443536784835,-0.0709333754531797,0.965321901367074,0.00418477945457543,-0.00892970311546445,-0.0086268618162411,-0.995559707049458,-0.0745665099195492,0.076954800506567,0.0100130589720531,-0.0103097555748102,-0.00179775095483831,-0.99764786226538,-0.0758038473751813,-0.0596440075179941,0.0101651476739871,-0.00620747122594681,-0.000403774185020527,-0.96767941628599,-0.0396937659641095,0.223962505600743,0.0108214517301366,-0.0198839548583172,0.0053955852279911
0.625,-0.259736318820674,-0.0710414182599811,0.964986801749034,0.00420366918261863,-0.0087073884318456,-0.00814111655502458,-0.995158271998132,-0.0742521004489205,0.0772030202378086,0.0100228344202511,-0.010143125498162,-0.00145279353347675,-0.997250161577823,-0.075640727515638,-0.0595668388704768,0.0101273964392275,-0.00579143749387578,-6.05359582629235e-05,-0.967360579061125,-0.0402568345488267,0.223893269361856,0.0111519029339025,-0.0217468523611345,0.0060589928496372
0.63,-0.259972873760503,-0.0711596669874723,0.964620444383911,0.00424699129474879,-0.00843231749150413,-0.00744859081543888,-0.994734811664301,-0.0739484041408097,0.0774412334526981,0.00990092655962687,-0.00998954706120745,-0.0011110851472193,-0.996810209373513,-0.07545973120003,-0.0595163967624639,0.00995964552438233,-0.0053712957896311,0.000261382257071846,-0.967347679825772,-0.0409309017245496,0.223639308879715,0.0114059953217119,-0.0235957494331185,0.00660692814683429
0.635,-0.260144536117404,-0.0712775133801268,0.964249084978577,0.00430309364326612,-0.00810805198212568,-0.0065889130505699,-0.994314449849179,-0.0736620673734049,0.0776635040454184,0.00965722852209945,-0.00984370854953649,-0.00077876999669419,-0.996349653198208,-0.0752534729530835,-0.0594954985669122,0.00967253945385611,-0.00497453882984425,0.000557246464913028,-0.967713897572588,-0.0416716434750767,0.223170780899347,0.0115584939837177,-0.0253481525984957,0.00704952233205464
0.64,-0.260241741474269,-0.071387997982761,0.963889126681543,0.00435736589836916,-0.00773823595183325,-0.00561721975097043,-0.993915888574891,-0.0733955960172781,0.0778616452587172,0.00930816138277218,-0.00969916286300221,-0.000463884489957904,-0.995883474708276,-0.0750116121835277,-0.0595089002912738,0.00928344977323865,-0.00463306354707803,0.000821345073439504,-0.968527109366191,-0.0424561844939697,0.222453168748227,0.0115858683614869,-0.0269062062062818,0.00740034788348695
0.645,-0.260261473480587,-0.0714877613245252,0.963554741090108,0.00439551784178957,-0.00732791547049991,-0.00459557537647917,-0.993553428982127,-0.0731514894601405,0.0780282150891858,0.00887420774042794,-0.00954922237892475,-0.000176047711480855,-0.995426530870659,-0.0747309473254133,-0.0595566478244151,0.00881398990597551,-0.00437938152177108,0.00104695730694543,-0.96978644278203,-0.0432634287698494,0.22148936222109,0.0114665336454868,-0.0281636420652179,0.00767140201253648
0.65,-0.260214609328071,-0.0715741809573486,0.963268204102894,0.00440765922799676,-0.00688204568419575,-0.00358145591336019,-0.993241781424591,-0.0729385482733653,0.0781586405577173,0.00837822597481337,-0.00938742350519041,7.56843781630412e-05,-0.995002711334765,-0.0744258913885463,-0.0596272435697448,0.00828805036845284,-0.00424003140767351,0.00122824805319355,-0.971359334677117,-0.0440435172665585,0.220363541434214,0.0111852445943723,-0.029030072999075,0.00787391929218285
0.655,-0.260126597985573,-0.0716430847001004,0.963062173693423,0.00439230314044315,-0.00640223181898132,-0.00261711108438359,-0.992998020746952,-0.0727741919713556,0.0782513428053921,0.00784566954341147,-0.00920772479064677,0.000286097633380634,-0.994646998717304,-0.0741300386539604,-0.0596970121345133,0.00773156439375505,-0.00422786368656418,0.00136354712156036,-0.972977609130035,-0.0447073350274703,0.219246055745812,0.0107410205256773,-0.0294658426433409,0.00802423114014505
0.66,-0.260028907153098,-0.0716903249866046,0.962969001011903,0.00435861655371472,-0.00588448377387114,-0.0017234225031831,-0.992837353028473,-0.072678883120167,0.0783069619991814,0.00730528643546595,-0.00900474874497251,0.000456293411213241,-0.994395564558026,-0.0738850466549062,-0.0597380377856414,0.00717285925530293,-0.00433692284000563,0.00145789717893088,-0.974319664547273,-0.0451545212842106,0.218340352016558,0.0101532831273367,-0.0295074331134952,0.00814902281683888
0.665,-0.259945552394067,-0.0717166340752856,0.963003089173868,0.00432534121666951,-0.00532034959321492,-0.000899915492094277,-0.99276518564374,-0.0726654730410236,0.0783276700781717,0.00678764534331519,-0.00877421191447976,0.000593584137791666,-0.994269236280415,-0.0737227688097581,-0.0597306720851169,0.00664120964875208,-0.00454328351642154,0.00152274831513669,-0.975138622393494,-0.0453250900944194,0.217798874069493,0.00946024364956382,-0.0292644452180337,0.00828414417120707
0.67,-0.259882524448879,-0.0717318303700466,0.963148014278174,0.0043164570496796,-0.00470163570282439,-0.000129851162823175,-0.992771494108054,-0.0727306390951969,0.0783162281291674,0.00632052413467425,-0.00851353378935,0.000708629743671928,-0.994261369368914,-0.0736514950458614,-0.0596735100181103,0.00616266357994712,-0.00481183801025766,0.00157248651430626,-0.975358516848526,-0.0452390034609614,0.217660275466934,0.00870868518089792,-0.0288865655922556,0.0084657562775532
0.675,-0.259825118927982,-0.0717551331749027,0.963355786050843,0.00435546185643887,-0.00402687326482394,0.000612482162582322,-0.992831378150607,-0.0728533466693074,0.0782743050260389,0.00592282710434363,-0.00822257378518153,0.000811253255124149,-0.994337101657085,-0.0736529903254497,-0.0595862689565818,0.00575459378735767,-0.00510558846389929,0.00161944994870972,-0.975090515570158,-0.0450000367822933,0.217840003268966,0.00794016803519667,-0.0285170874636335,0.00871764712644035
0.68,-0.259742973972428,-0.0718113186458632,0.963557477658,0.00446047005502579,-0.00330710243041498,0.00135500280628031,-0.992911191134345,-0.0730000638067453,0.0782005940870967,0.00559965258630524,-0.00790440216035291,0.000906743509675162,-0.994442888484222,-0.073689335812065,-0.0595056132543963,0.00542132219687752,-0.00539344877426005,0.00166958546196612,-0.974579776947824,-0.0447669958421792,0.218166917369224,0.00717993232275175,-0.0282531667771702,0.00904008733982092
0.685,-0.259600317885589,-0.0719240318971942,0.963680852705884,0.00464141590460928,-0.00256901141818198,0.00212283009155977,-0.992977531926185,-0.0731339985329542,0.0780899062565375,0.00534044305356316,-0.00756589518989715,0.000993787547678676,-0.994521483736253,-0.0737150498619816,-0.0594760311296487,0.00515257325242407,-0.00565449026244161,0.00172014393291789,-0.974121209407458,-0.0447083269422523,0.21844017404414,0.0064318986919782,-0.0281242969593275,0.00940419048846429
0.69,-0.25936953885861,-0.072107333370762,0.963671656010273,0.00489977313986914,-0.00185388958034929,0.00293487236987884,-0.993007076436513,-0.0732263180862919,0.0779340805660394,0.00512141977018366,-0.00721780912396015,0.00106448387453433,-0.994528756662629,-0.0736911129464971,-0.0595373714337851,0.0049258840735793,-0.00587856806365686,0.00176002771294379,-0.973972114632727,-0.0449523688375401,0.21848766771068,0.00568016359093053,-0.0280914922165565,0.00975422327617946
0.695,-0.259045732210592,-0.0723568938301828,0.963514857705495,0.00523086852337166,-0.0012111916432021,0.00380130483956881,-0.99299558293013,-0.0732673956419032,0.0777246281546008,0.00491314900920637,-0.00687396209184353,0.00110656077253116,-0.994449505943411,-0.0735984185948519,-0.0597110429157761,0.00471379299695918,-0.00606412421300795,0.00177303010171109,-0.974276096282529,-0.0455419532979094,0.218216576624141,0.00489611499584007,-0.0280657828897467,0.0100194100090797
0.7,-0.258656530677387,-0.0726443409185498,0.963247610157749,0.00562848048096928,-0.00068693907601388,0.00472150257932692,-0.992962741894932,-0.0732737501786948,0.0774560399859093,0.00469287926388021,-0.00654940815388627,0.00110750992350079,-0.994306825905053,-0.0734461513173652,-0.0599896839363962,0.00449548929737511,-0.00621418354213185,0.00174363002878333,-0.975016881191389,-0.0464082650174671,0.217643749886603,0.00404959498970694,-0.0279419881659784,0.01013448297635
0.705,-0.25825934263104,-0.0729196648125847,0.962952965985027,0.00609043526632507,-0.00031033151777917,0.00568273047949564,-0.992948211239742,-0.073284716911498,0.0771284166660117,0.00445834810005559,-0.00625803448963834,0.00105942700253648,-0.994157576967269,-0.073269006800048,-0.0603366423892488,0.00426982096455468,-0.00633191907427511,0.00166368969387477,-0.976026997255686,-0.0473837196948633,0.216889389385917,0.00312101832960791,-0.0276380022354383,0.010063122730851
0.71,-0.257923317806881,-0.0731235380404415,0.962731386930073,0.00662300194289982,-8.47132208273657e-05,0.00666069585379896,-0.992997225815774,-0.0733470037575438,0.0767491600981948,0.00423688777760359,-0.00601040411458642,0.000962459038196042,-0.994071695643786,-0.0731115109846013,-0.0606967646608805,0.00406383825466144,-0.00641756313485871,0.00153712403908177,-0.977056225680916,-0.0482589381915462,0.216130771964581,0.00210984711310693,-0.0271243124238926,0.00981361242029141
0.715,-0.257704406622065,-0.0732047252992793,0.962663133878785,0.00724243113844005,1.2270920935619e-05,0.00762335701187994,-0.993141315685002,-0.0734940825603379,0.0763346977471583,0.00408452533505352,-0.00581231746209198,0.000825100038138654,-0.994104330303327,-0.0730069413124712,-0.0610114045277067,0.00393186182520786,-0.00646805426273913,0.00138006909341187,-0.977864155307908,-0.0488584098727347,0.21553980620423,0.00103575351509815,-0.0264317661462595,0.0094377254449888
0.72,-0.257627593252383,-0.0731340769277623,0.962782370261442,0.00797385447476183,2.00311429191446e-05,0.00853843960818484,-0.993384424824538,-0.0737321454963947,0.0759121456571105,0.00407504553803422,-0.00566378303266517,0.000661367806740688,-0.994276022556048,-0.0729633128791481,-0.0612287326968768,0.00394503953278356,-0.00647936690061674,0.0012165777399149,-0.97828536638596,-0.0490937703353683,0.215238552285705,-6.73529017651121e-05,-0.0256385330435994,0.00901321725108941
0.725,-0.257683908053081,-0.0729100359613888,0.963073701458675,0.0088487510974696,-1.67882970256942e-05,0.0093828301310074,-0.993701679200023,-0.0740393547367788,0.0755181532095966,0.00428415505562352,-0.00555805119894212,0.00048662299573582,-0.994569907350178,-0.0729635131186447,-0.0613085309695964,0.0041762382787143,-0.0064499568265959,0.0010722958793427,-0.978247264816476,-0.0489720255958787,0.215285519409346,-0.0011605972727459,-0.0248478248033228,0.00861960827936202
0.73,-0.257838760082766,-0.0725567334727629,0.96348544377813,0.00990113060027127,-5.83982523530875e-05,0.0101498732872225,-0.99404978585851,-0.0743755647147268,0.0751924420154326,0.00477453792148022,-0.00548131848091672,0.000313998376543218,-0.994942854576078,-0.0729765110159731,-0.0612272917210324,0.00468573427898329,-0.00638337037630013,0.000968866539498897,-0.977760428002087,-0.0485685149202621,0.215679319732339,-0.00220844832503989,-0.0241666845619074,0.00831837702098316
0.735,-0.258043678048228,-0.0721181743890711,0.963947475843857,0.0111614213979499,-7.66257388698849e-05,0.0108508647752264,-0.994381788456265,-0.0746947676723259,0.0749680258216658,0.0055846858005168,-0.00541421610649642,0.000152390476780969,-0.995341073280474,-0.0729710941792005,-0.060985620376479,0.00551042651566191,-0.0062889353509374,0.000920402223520718,-0.9769054221105,-0.0479892935355261,0.216364787453456,-0.00318395140371653,-0.023688563567703,0.00814307200293434
0.74,-0.258246636402279,-0.0716506813546781,0.964386239013423,0.0126478705393407,-5.86988083743113e-05,0.0115098573063106,-0.994658788264544,-0.074954560916071,0.0748634477547022,0.00672186993736778,-0.00533526971679549,5.93806900755665e-06,-0.995712682687364,-0.0729253672811609,-0.0606128807130444,0.00665694729560339,-0.006180730356263,0.000932000687019731,-0.975818849247585,-0.0473399636687101,0.21724168104021,-0.00407075544916004,-0.0234789223414594,0.00809858136251959
0.745,-0.258400389254701,-0.0712147914230326,0.964735948304035,0.0143570901437513,-8.12336558840727e-06,0.0121537344215671,-0.99485556329391,-0.0751214438629755,0.0748805923811559,0.00815909153509248,-0.00522518584055111,-0.000125528101526532,-0.996014990707181,-0.0728304104669906,-0.0601642547338462,0.00809857947610461,-0.00607578388552401,0.000999770365282117,-0.974670867070355,-0.0467052307029027,0.218182091662759,-0.00486249737587875,-0.0235648083617283,0.00816606123020342
0.75,-0.25846942981995,-0.0708686285413221,0.964947204742869,0.0162559350470008,5.79659611884449e-05,0.0128005452512213,-0.994961189295958,-0.0751730758370092,0.0750077356464458,0.00983578295527927,-0.00507049574580605,-0.000245530748368827,-0.996217693937162,-0.0726904383609197,-0.059711360548753,0.00977581930949612,-0.00599232324760161,0.0011118719559643,-0.973634936469546,-0.0461385043763632,0.219054820449901,-0.00556047818910548,-0.0239307297456228,0.0083106380376922
0.755,-0.258434484696572,-0.0706650844431713,0.964992237116907,0.0182757707024688,0.000115141705212049,0.0134490309152067,-0.99497692849825,-0.0750981256333551,0.0752255386102743,0.0116609686444449,-0.00486574279539071,-0.000359714442703956,-0.996303508654575,-0.0725220408017894,-0.0593315369227505,0.0115993374964071,-0.00594830060053107,0.00125017301078515,-0.972861494946799,-0.0456618093718303,0.219746573402981,-0.00617119487833863,-0.0245214678105191,0.00849041209184829
0.76,-0.258291883478178,-0.0706525477045687,0.964864082737092,0.0203090192000618,0.000139929507915661,0.0140719746024928,-0.994912769715462,-0.0748937337810854,0.0755132760452982,0.0135164060982123,-0.00461418797331569,-0.000474470094745642,-0.996266648612368,-0.0723523991663675,-0.0590997569211882,0.0134529006212009,-0.00596010731928593,0.00139204285367733,-0.972466811489175,-0.0452753960628946,0.220170959696226,-0.00670519093979063,-0.0252493983521303,0.00866523835991809
0.765,-0.258047595128982,-0.0708739614927542,0.964569798405295,0.0222086169831573,0.000116168040735836,0.0146152543171562,-0.994783553945115,-0.074562277674097,0.0758522054792786,0.0152584381112011,-0.00432740999777878,-0.000595703421619689,-0.996109892741011,-0.0722141610016998,-0.059082288604363,0.0151950358270803,-0.00604150750833146,0.00151182880318596,-0.972534176673014,-0.0449710840826409,0.220267248184657,-0.00717716101199911,-0.0260025627932552,0.00880271479234016
0.77,-0.257711449553061,-0.0713562530467653,0.964124081250687,0.023794355542982,3.62651288377102e-05,0.0150033712550114,-0.99460610438574,-0.0741115126331283,0.0762236623717136,0.0167221635704684,-0.00402407520823703,-0.000728129240599785,-0.995842848324434,-0.0721355974590727,-0.0593265498682017,0.0166630640964062,-0.00620282771052647,0.00158213312415889,-0.973108004854894,-0.044739019170411,0.220002759700401,-0.00760553681630542,-0.0266526044020167,0.00887954830435425
0.775,-0.257298609785347,-0.0720881749493965,0.963550912692869,0.0248733008225848,-0.00010211650728033,0.0151514272174154,-0.994398485988982,-0.0735605933637863,0.0766028426125183,0.0177366288892827,-0.00372773319355641,-0.000875207619134609,-0.995483908053327,-0.0721284151152651,-0.0598435073143022,0.0176881372815146,-0.00645005314741747,0.00157597438805489,-0.974164773038368,-0.0445621598808331,0.219390503005515,-0.00800972041756548,-0.0270671075598827,0.0088798099870098
0.78,-0.256837843328776,-0.0729993263703958,0.962892054086271,0.0252782960142474,-0.000299931979884116,0.014982686151829,-0.994180574057177,-0.0729476853549515,0.076953891285775,0.0181572215743587,-0.00346334144139709,-0.00103939886887762,-0.99506419614575,-0.0721795958031042,-0.0605899543342429,0.0181273572081922,-0.00678331511032497,0.0014710028993921,-0.97557622210323,-0.0444059194770395,0.218512298704936,-0.00840498666825179,-0.0271318370159913,0.00879406357078018
0.785,-0.256376704195626,-0.0739627472847091,0.96221100287868,0.0249155638457255,-0.000557580493366931,0.0144485580326773,-0.993973455275752,-0.0723295626098193,0.0772330881236968,0.0179075992738706,-0.00325288913702438,-0.00122224419552759,-0.994627501665631,-0.0722541748493231,-0.0614679139378534,0.0179053158321243,-0.00719496739678855,0.00125519920655243,-0.977109171606514,-0.0442187977619578,0.217518167001069,-0.00879737174971022,-0.026779824063759,0.00862146559917508
0.79,-0.25597448115339,-0.074831339837787,0.961582763059858,0.023798454954108,-0.000872582035616186,0.0135445651905107,-0.993796223119239,-0.0717680523309479,0.0774013444535081,0.0170085647294897,-0.00311158746880656,-0.00142403400743353,-0.994222070251405,-0.0723100724726916,-0.0623515330888213,0.0170426498645679,-0.00766852432699882,0.000931176847752842,-0.97848945612876,-0.043951404745216,0.216583915966122,-0.00918165096456629,-0.0260126993113729,0.00837247160228197
0.795,-0.25568520894786,-0.0754899498253944,0.96107325431106,0.0220461445348167,-0.00123669629885982,0.012315389569294,-0.993661688113808,-0.0713101547572566,0.0774387644450846,0.0155731795577934,-0.00304630842466863,-0.00164324636344295,-0.993887630425884,-0.072316936527528,-0.0631295200037277,0.0156511252803922,-0.00817981272725273,0.00051605682609431,-0.979500868810631,-0.0435826980477884,0.215846310292266,-0.00954391479896475,-0.024899162631819,0.00806803094369985
0.8,-0.255542145506376,-0.0758894138683681,0.960722100145988,0.019846988678192,-0.00163480940913323,0.0108466839096712,-0.993574038533497,-0.0709753735466589,0.0773512193269401,0.0137690255726124,-0.00305668958025997,-0.00187616258394893,-0.993645932794267,-0.0722672578462426,-0.0637367528634231,0.0138962072202679,-0.00870037418245443,3.66402231422201e-05,-0.980054768401918,-0.0431338570210819,0.215358242554079,-0.00986742547489446,-0.0235497408797449,0.00773412432754525
0.805,-0.255552380989112,-0.0760438966464781,0.960538451014658,0.0174075795367099,-0.00204603562734101,0.00924721240776363,-0.993529899896736,-0.0707577828609879,0.0771650441420751,0.0117700497312265,-0.00313773593221447,-0.0021169773148307,-0.993499943026343,-0.0721742585179862,-0.0641584132640326,0.0119493804888234,-0.00920173067061965,-0.000477340178111166,-0.980191670020871,-0.0426608685731018,0.215089108471633,-0.0101387056040653,-0.0220823720427424,0.0073945789181732
0.81,-0.255701093898232,-0.0760013742149554,0.960508300899552,0.0149114268191745,-0.00244616003943723,0.0076271284974729,-0.993521525453034,-0.0706388022164533,0.0769148104859187,0.00972251331190846,-0.00328225619562119,-0.00235846683664546,-0.993439876211493,-0.0720608507144047,-0.0644116029148077,0.00995451598621832,-0.00965895448090041,-0.000998573569814467,-0.980029851144672,-0.0422338279244959,0.214960011342372,-0.0103514871951094,-0.0205956875814224,0.00706613777365247
0.815,-0.255959934284242,-0.0758115626565805,0.960605632824597,0.0124982401985192,-0.00281030876342908,0.0060772997027662,-0.993539828205348,-0.0706007355725611,0.076632253916537,0.00773476976604513,-0.00348211053977162,-0.00259303916487523,-0.993450692582758,-0.071948296649636,-0.0645216737641887,0.00801789065605156,-0.0100528460808541,-0.00150461796957378,-0.97970345334144,-0.0419174283046085,0.214885234746299,-0.010508279017095,-0.0191575846859441,0.00675769590281343
0.82,-0.256295253845971,-0.0755092364257086,0.960801159027953,0.0102612597996312,-0.00311509581109602,0.00465407723114198,-0.993576082588752,-0.0706334479347015,0.076340502889051,0.00588470149076844,-0.00372831136856483,-0.00281382715925303,-0.99351702030778,-0.0718504186270438,-0.0645083286630664,0.00621570363070157,-0.010370746660896,-0.00197795721449319,-0.979322589688836,-0.0417607639415868,0.214798059188119,-0.0106206745069632,-0.0178065189213213,0.0064728897298692
0.825,-0.256674664004179,-0.0751155650199757,0.961066532802473,0.00825456739093328,-0.00334014827575654,0.00337391807333838,-0.993622584228055,-0.070732696563598,0.0760526261063424,0.00423195900342517,-0.00401095116384517,-0.00301545012757392,-0.993624587428485,-0.0717737908776417,-0.0643864938574293,0.00460630316867865,-0.0106061181990627,-0.00240506874754865,-0.978963500701218,-0.0417951221960146,0.214655778462763,-0.0107089967468112,-0.0165583693906031,0.00621359339470731
0.83,-0.257071543659482,-0.0746485099485226,0.96137511015856,0.00650331745629792,-0.0034693862197077,0.0022198197010763,-0.993672828180057,-0.0708939365433012,0.0757724704292561,0.0028251057795281,-0.0043200630397411,-0.00319423261086067,-0.993759445147888,-0.0717207221932812,-0.0641757543513267,0.00323729285817163,-0.0107570869128059,-0.00277565477895856,-0.97867766316375,-0.0420346299293379,0.214432408400163,-0.010800730886169,-0.0154127204454189,0.00598197851789984
0.835,-0.257467183896991,-0.074131334472804,0.961701606592499,0.00501302273231295,-0.00349219881185787,0.00115639099392386,-0.99372126910796,-0.0711070461002356,0.0754974317765828,0.00170135553105038,-0.0046475120853428,-0.00334797037069543,-0.993906837713546,-0.0716916499888659,-0.0639070608575451,0.00214523828867482,-0.0108246067054585,-0.00308244325204016,-0.978503120907756,-0.0424767060915382,0.214111340171107,-0.0109273094598201,-0.0143562953715034,0.00578039579384337
0.84,-0.25785041705034,-0.0735940891105974,0.962022211125947,0.00377672383983194,-0.00340414669358847,0.000146712930394161,-0.993762785006792,-0.0713551042937065,0.0752225632684864,0.000882509936832297,-0.0049888546317514,-0.00347554644224349,-0.994050935759785,-0.0716856358902406,-0.0636208710994525,0.00135158961470095,-0.0108112174223798,-0.00332136183689075,-0.978468899877968,-0.0431019506504681,0.213683712231344,-0.0111199252863201,-0.0133646730253949,0.00561002698911399
0.845,-0.258215129657549,-0.0730696242619475,0.962315126858395,0.00278032047163565,-0.00320702653356191,-0.000834975786703352,-0.9937925440155,-0.0716168054543003,0.0749434516591753,0.000371778769675703,-0.00534416236064499,-0.00357668630474735,-0.994175658248837,-0.0716995491840898,-0.0633603873341544,0.000859497298767967,-0.0107208890465346,-0.00349172790096864,-0.978594469677882,-0.0438735501546304,0.213149699973269,-0.0114053049719559,-0.012404083039999,0.00546956757323381
0.85,-0.258556963264672,-0.0725882920888752,0.962561167816179,0.00200675256584936,-0.0029088477423679,-0.00179703141037263,-0.993806705102511,-0.0718702314361208,0.074656442765761,0.000153924791038807,-0.00571785387728431,-0.00365198529711044,-0.994266168512942,-0.0717271501767539,-0.0631657263132522,0.000653958586510406,-0.0105595883250369,-0.00359625151511931,-0.978889472399477,-0.0447369418917227,0.212518471994005,-0.0118014998536828,-0.011433774435831,0.00535431947121853
0.855,-0.258871253339001,-0.0721745955912142,0.962745161205405,0.00143941379816567,-0.00252404598438953,-0.00272966337017497,-0.993803086190913,-0.0720959506349323,0.0743595236142548,0.000198520953486949,-0.00611799000206995,-0.00370315892229646,-0.994310510193039,-0.0717592007387105,-0.0630687233412724,0.000705077540235146,-0.0103360167332006,-0.00364083265869358,-0.979354030420266,-0.0456228385020966,0.211807490066705,-0.0123136039628598,-0.0104086207407808,0.00525546062407493
0.86,-0.259153604934991,-0.0718468808039004,0.962859106999725,0.00106454579745372,-0.0020728051005086,-0.00360735328069664,-0.993780503215708,-0.0722786193458256,0.0740583123442116,0.000464450470412476,-0.0065546847845193,-0.00373330863466994,-0.994301017279199,-0.0717851707296763,-0.0630844328905347,0.000972558454915357,-0.0100625838367005,-0.00363420444483992,-0.979976426132326,-0.0464566783140046,0.211044420973358,-0.0129307408708734,-0.00928219067770603,0.00515963023748598
0.865,-0.25940211016223,-0.0716188036206754,0.962905850961232,0.000872096791384509,-0.00157776250859328,-0.0043922971031162,-0.993737181793204,-0.0724075089908217,0.0737746803834906,0.000903666989652115,-0.00703677440454525,-0.00374696446644282,-0.994235350020148,-0.0717958807447719,-0.0632012716425716,0.00140943591667414,-0.00975703345513977,-0.00358745829658125,-0.980728755726479,-0.0471720194852246,0.210270639940702,-0.0136265546272184,-0.0080110460617497,0.00504947879809831
0.87,-0.259618291447678,-0.0714998706978998,0.962899937705395,0.000855091287197058,-0.00105842538099677,-0.00503811126765691,-0.993670663441744,-0.0724771011328121,0.073547967668798,0.00146374255024908,-0.00756715787507067,-0.00374983899269748,-0.994117234833724,-0.0717854267394853,-0.0633794432090179,0.00196456467317855,-0.00944435617018785,-0.00351345088012842,-0.981566989793634,-0.0477201975034359,0.209539725818351,-0.0143636456071561,-0.00656003856506719,0.00490546911769248
0.875,-0.259805109282748,-0.0714931896637688,0.962863889602333,0.00100839730939182,-0.00052655447802812,-0.00549465854141469,-0.993581013000113,-0.0724886344474112,0.0734218950915704,0.0020906809984612,-0.00813925958060673,-0.00374846322619801,-0.993957137940456,-0.0717512757621974,-0.0635641553482735,0.00258535646525595,-0.00915733383345736,-0.00342605885307084,-0.982440495620014,-0.0480720465442591,0.208906092252375,-0.0150995992722014,-0.0049066129473433,0.00470837585473981
0.88,-0.259963710650259,-0.0715914389185096,0.9628222607175,0.00132783334983565,1.42016517203193e-05,-0.00571548644259518,-0.993475841350773,-0.0724522506154018,0.0734233473954587,0.00273400072361844,-0.00873726311870547,-0.00374992848202062,-0.993772868223354,-0.0716931847181785,-0.0637070184197618,0.00322277952537729,-0.00893389267402324,-0.00333922820273943,-0.983306882135368,-0.0482162069670967,0.208408198257061,-0.0157922221230461,-0.00304185000166051,0.00444183316308396
0.885,-0.260091586406015,-0.0717749106534345,0.962797245178994,0.00180968811972048,0.000564521011992336,-0.0056680469968602,-0.993373095037347,-0.0723878500417704,0.0735484875427328,0.00335430174623485,-0.00934032805695382,-0.00376176388483308,-0.993589443860674,-0.0716128378904127,-0.0637808313784422,0.00383883779804245,-0.00881109695201312,-0.00326581749072725,-0.98414066707683,-0.0481594717476438,0.208058137232831,-0.0164042279982469,-0.000968103433224677,0.00409494627213289
0.89,-0.260182172725596,-0.072015540020323,0.962806636761797,0.00244999145601649,0.00112437126101238,-0.00534356537248451,-0.993298605375195,-0.0723223650401687,0.0737669744708213,0.00393035728868181,-0.00992812382609302,-0.00379170504201808,-0.993437174109473,-0.0715155538431935,-0.0637791971362006,0.00441356431507488,-0.00881793115815459,-0.00321639795696181,-0.984927243789431,-0.0479255109998403,0.207846507197961,-0.0169083116961482,0.00130413659713982,0.00366501509785652
0.895,-0.260224162533917,-0.0722866815101212,0.962862149355756,0.00324309779274554,0.00168892517148464,-0.00476070609018721,-0.993279157353782,-0.0722831908312889,0.0740409065251708,0.00446090102668277,-0.0104843335618728,-0.00384701243061097,-0.993347587987819,-0.0714133077635159,-0.063705358005671,0.00494669852145076,-0.00897006552230942,-0.00319833404270806,-0.985644968416936,-0.0475441447305069,0.207760231532631,-0.0172905394438382,0.00375665987407911,0.00315937175646329
0.9,-0.260201280519439,-0.0725727741325051,0.962967502472942,0.00417990458571701,0.00224556973614282,-0.00395919384700352,-0.993334934021347,-0.0722908794387636,0.0743443599780605,0.00495848436392728,-0.0109966769118535,-0.00393325031664733,-0.993348220618554,-0.0713262913543179,-0.0635611293737505,0.00545143433211481,-0.00926863256689907,-0.00321541644941058,-0.986248353253389,-0.0470336972349742,0.207800867358671,-0.0175481547947126,0.00635977954278159,0.00259485439353223
0.905,-0.260096432414746,-0.0728719526741604,0.963118708417439,0.00524645659701512,0.002772181254302,-0.00298627772171757,-0.993475104761427,-0.0723553090367023,0.0746706024727763,0.00543827384291826,-0.0114546933890354,-0.00405291781332445,-0.993457987193839,-0.0712803975717081,-0.0633433634124901,0.00594313561363941,-0.00970253592404519,-0.00326804276486416,-0.986665831905256,-0.046391221167781,0.207990300391917,-0.0176815265839594,0.00906653079825742,0.00199477039945006
0.91,-0.259902000925689,-0.0731902567114473,0.963308584832168,0.00642350546268451,0.00323862046091482,-0.00188404681824569,-0.993697607177352,-0.0724767776906005,0.075025068704835,0.00590840909966968,-0.011847882064916,-0.0042045993775857,-0.993684424944587,-0.0713009532413593,-0.0630477834151638,0.00642966855820604,-0.0102519686140933,-0.0033536989068974,-0.986814669683431,-0.0456017280861062,0.208360790627897,-0.0176857113719786,0.0118092645552307,0.0013850520527296
0.915,-0.259630697266451,-0.0735327920241985,0.963533082422764,0.0076869868982255,0.00361343145284627,-0.000683922733772674,-0.993991690005577,-0.0726498961187854,0.0754128510665216,0.00636671072030759,-0.0121659712566145,-0.0043830328703869,-0.994023461642741,-0.0714064955589788,-0.0626748143148641,0.00690814978921427,-0.0108909022007148,-0.0034674783767007,-0.986620528462331,-0.0446593793453362,0.208939817705223,-0.0175481632960198,0.0145017321718785,0.00079165934058188
0.92,-0.259316656002628,-0.0738983624619465,0.963793531351291,0.00900862571775112,0.0038740048728118,0.000591305327118403,-0.994341372740803,-0.072867303016164,0.0758312334974547,0.00680316074299659,-0.0124010411493123,-0.00457985820996274,-0.994461984844631,-0.0716068328258048,-0.0622319404258198,0.00736750601584601,-0.0115877811024372,-0.00360248319354266,-0.986024187616058,-0.0435805339338252,0.209744775465976,-0.0172536700736164,0.0170450789042852,0.000239978490552498
0.925,-0.259002435947569,-0.0742795587066123,0.964091533923437,0.0103556501192801,0.00401401079436294,0.00192176983913904,-0.994728543298217,-0.0731216708855634,0.0762709807160389,0.00720393494875743,-0.0125497163518361,-0.00478441382790634,-0.994982146015966,-0.0719055460157433,-0.0617310638792757,0.00779257755890573,-0.0123051800702362,-0.00375005860625669,-0.984973281258172,-0.0423972366462305,0.210790433233822,-0.0167909572491635,0.0193324724596133,-0.000244652052955295
0.93,-0.258720951695513,-0.0746651582520317,0.964420485797891,0.0116897374639732,0.00404262042247995,0.00328517542256192,-0.995134491213361,-0.0734058125968388,0.0767219070600871,0.00755375154417178,-0.0126138020067544,-0.00498426804152351,-0.995564180817934,-0.0723017535500341,-0.0611837862839634,0.00816651805568741,-0.0130000167307559,-0.00389999579675488,-0.98342114938389,-0.0411430266469283,0.212092647835282,-0.0161547739729472,0.0212497724624932,-0.000636997395761037
0.935,-0.258487200702222,-0.0750406608466379,0.964761555153692,0.0129673320614695,0.003976912899603,0.00465373195361828,-0.995539142038342,-0.073711345794614,0.0771758261924197,0.00783723254437228,-0.0125991915516907,-0.00516595931466273,-0.996184827607022,-0.0727858436905245,-0.06059882268133,0.00847224507949386,-0.0136259312181568,-0.00404107678737965,-0.98135625548122,-0.0398528651906611,0.213649728013131,-0.0153435168265554,0.0226776841181173,-0.000914084516711737
0.94,-0.258304542237101,-0.0753864656272091,0.965087662793903,0.0141439459182683,0.00383471676970243,0.00599330670201772,-0.995919364274483,-0.0740271078676305,0.0776245420240796,0.00804233583498623,-0.0125141604115689,-0.00531672189381948,-0.996813073393413,-0.0733312198432083,-0.0599831042283953,0.00869607715708909,-0.0141384914565105,-0.0041623113238371,-0.978850534771519,-0.0385801377497411,0.21540870828071,-0.014358037079228,0.0235044271994724,-0.00105984984759551
0.945,-0.258175663023861,-0.075677406258323,0.965371839618145,0.0151822687207514,0.00363315286497073,0.00726401358261859,-0.996249666907931,-0.0743390136756147,0.0780564459092698,0.00816678969518664,-0.0123681739828949,-0.00542715770251381,-0.997409509675437,-0.0738914184736635,-0.0593446591508439,0.00883447455886001,-0.014501955898448,-0.00425469965902731,-0.976079769869006,-0.0374081073030049,0.217250459108582,-0.0132052674241515,0.0236494398401645,-0.00107083033440567
0.95,-0.258106473519364,-0.0758868950009402,0.965594213944675,0.0160601667795005,0.00339114542489821,0.00842197257962348,-0.99650711469958,-0.0746320603021233,0.0784560872614443,0.00822417136017703,-0.0121714376548098,-0.00549358545565606,-0.997933409185315,-0.0744091807994598,-0.058694679684166,0.00890038283276587,-0.0146946022978561,-0.00431272578581584,-0.973283935141067,-0.0364348487301888,0.219017349628595,-0.0119035321133459,0.0230853413846067,-0.000959925572037773
0.955,-0.258101983709885,-0.0759940875136219,0.965745139355015,0.0167744661761836,0.00313069131784105,0.00942296814071625,-0.996677931712527,-0.0748931501067592,0.0788069769320699,0.00824513863612209,-0.01193475863454,-0.00551861227315678,-0.998353808732878,-0.0748327634253217,-0.0580480722275403,0.00892453087992171,-0.0147100791091066,-0.00433475657382876,-0.970691851076274,-0.0357390685455488,0.220566127580607,-0.0104836323296028,0.0218435289520161,-0.000755650855576534
0.96,-0.258161001472283,-0.0759894629763155,0.965824925119932,0.0173401868804983,0.00287460798884445,0.0102287546974742,-0.996761031624479,-0.0751127808371069,0.0790948250362565,0.0082728594368119,-0.0116693513610788,-0.00550969219410284,-0.998656636091863,-0.0751284192935616,-0.0574230198777849,0.00895070530064793,-0.0145549149969639,-0.00432224364201777,-0.968464546448511,-0.035353919087557,0.221806663728745,-0.00898398775096064,0.020001764925981,-0.000496890325091812
0.965,-0.258273233031179,-0.0758766176417872,0.965840662069431,0.0177874680428543,0.00264246363805625,0.0108146122325489,-0.996766330441842,-0.0752852833047599,0.0793097431734432,0.00835547153614253,-0.0113864851311304,-0.00547674183998254,-0.998844208466522,-0.0752837437489607,-0.0568393326365093,0.00902795363980974,-0.0142444393669541,-0.0042783982118743,-0.966680951791191,-0.0352651365466686,0.222709644590359,-0.00744331751342586,0.0176642496613698,-0.000225833866766179
0.97,-0.258417329942174,-0.0756718305742245,0.965800787368523,0.0181567800000859,0.0024466975052224,0.0111740314044549,-0.996709687063788,-0.0754086596094099,0.079448423093922,0.008538429144131,-0.0110968550464954,-0.00543001606353958,-0.998929969820372,-0.0753053330646484,-0.0563149084593827,0.00920271135541421,-0.0137989171253563,-0.00420713770367405,-0.965346182529828,-0.0354267302629916,0.2232981165272,-0.00589479761590568,0.0149432493396222,1.77405949573251e-05
0.975,-0.258560713166502,-0.0754030155512328,0.965710299051919,0.0184911826267059,0.00228957147648983,0.0113171194774891,-0.996607371326246,-0.0754842934962537,0.0795168361822901,0.00885746059889242,-0.010809484333604,-0.00537870595390664,-0.998932508399196,-0.0752151154122321,-0.0558613005183822,0.00951163342518542,-0.0132402654533683,-0.0041126626480419,-0.964401290596657,-0.0357790513948544,0.223638948553621,-0.00436282973134534,0.0119434529279363,0.00019935628660851
0.98,-0.258665793751155,-0.0751071145251886,0.965570479068393,0.0188266057246762,0.00216208233629822,0.0112643139874621,-0.996471644699569,-0.0755157582724626,0.0795313127166078,0.0093322843765102,-0.0105302562773572,-0.00533015650304829,-0.998870064627952,-0.0750452624831009,-0.0554814525582816,0.00997526224906215,-0.0125895725894647,-0.00399954235775719,-0.96373892496059,-0.0362615523712284,0.223831100769914,-0.00286192427125276,0.00874857690622042,0.00029047233142745
0.985,-0.258703228357265,-0.0748240193914613,0.965383301842779,0.0191847323833423,0.00204694994052354,0.0110410044407024,-0.996308275408118,-0.0755069099425339,0.0795145352895692,0.00996262476081409,-0.0102607564371082,-0.00528956573792277,-0.998755508749964,-0.07483029102895,-0.0551724991861591,0.0105940396029169,-0.0118662254689631,-0.00387296164320204,-0.963236871276921,-0.036820602284147,0.223980816555312,-0.00139748032817235,0.00541383505578761,0.000268395094478637
0.99,-0.258664452283914,-0.0745872534790938,0.965155688985517,0.0195727713819476,0.00192591677739084,0.0106766010820414,-0.996116892995565,-0.0754610117420076,0.0794853562852207,0.0107290734788595,-0.00999851279741908,-0.00526015874275591,-0.99859301955671,-0.0745981044228393,-0.0549336974060494,0.0113491839735417,-0.0110889560336853,-0.00373877356790129,-0.962804651075116,-0.0374142831123596,0.224165603896347,3.16263172724659e-05,0.00196914687726308,0.000116597290897805
0.995,-0.258563768083766,-0.0744153412792664,0.96489867294091,0.0199898008844678,0.00178772468503862,0.0102057759916559,-0.99589420813343,-0.0753819004217383,0.0794471519670341,0.0116000111084585,-0.00973939328474425,-0.00524379487886666,-0.99837828997704,-0.074364424117065,-0.0547753332937029,0.0122096299175566,-0.0102777173983391,-0.00360315112429511,-0.96242220313328,-0.0380147147712633,0.224402480326515,0.00142944410661223,-0.00156644311067985,-0.000174437579160456
1,-0.258427847187565,-0.0743097104948992,0.964621909478792,0.0204345922613138,0.00163177395507215,0.00966698454336317,-0.99563816031489,-0.0752755948365929,0.0793842294858682,0.012542068555702,-0.00948155630796615,-0.00524174319858149,-0.998102528247673,-0.0741340440169158,-0.0547215794487612,0.0131424972157363,-0.00945483324710024,-0.00347192103396162,-0.962149689705026,-0.0386077109867477,0.224638815442146,0.00279956179998476,-0.00516475292933008,-0.000606369524519379
1.005,-0.258280199034996,-0.0742616595104107,0.964328843297269,0.0209087565234172,0.00146564961414686,0.00909664009989199,-0.995350244769473,-0.0751497760600856,0.079272568583976,0.0135280852252765,-0.00922870505885072,-0.00525515971858819,-0.997758302257366,-0.0739080761625777,-0.0548026185531112,0.0141210395512967,-0.00864500046614947,-0.00334994608699859,-0.962101842402569,-0.0391895824632945,0.224773932034523,0.00414270843806809,-0.00877180471425103,-0.00117258468687577
1.01,-0.258131283911782,-0.0742636616637539,0.964017226955834,0.0214126784232226,0.00129938211457556,0.00852218889771782,-0.995034962859642,-0.075010824866107,0.07909955420507,0.0145373430014002,-0.00899019873907164,-0.00528491318360407,-0.997344368275065,-0.0736918770712873,-0.0550391100007823,0.0151248526190474,-0.00787505912731544,-0.003240921461308,-0.962399462010499,-0.0397612780810241,0.22470199801439,0.0054554596936814,-0.0123019395118728,-0.00185824591956762
1.015,-0.257979419629124,-0.0743163115255259,0.963684746344315,0.0219374841108248,0.0011411636075647,0.00795860698195187,-0.994697900315626,-0.0748609229595012,0.0788781709005046,0.0155486939096841,-0.00877754969466073,-0.00533087896539849,-0.996867611484724,-0.0734976993564456,-0.055428870895761,0.0161329700378402,-0.00717438694264749,-0.00314761883505786,-0.9631221655635,-0.0403211616684862,0.224354097304943,0.00673002933300007,-0.0156446229216505,-0.00264073692949581
1.02,-0.257818808064172,-0.0744263562440574,0.963335047285995,0.022459458998644,0.000997040587097858,0.00740996049661898,-0.994344801350766,-0.0746978886036626,0.0786445879964419,0.0165328657401022,-0.00859942669161181,-0.00539127244930345,-0.99634214651401,-0.0733405148936641,-0.0559447820499727,0.0171161502989543,-0.00657544078240323,-0.00307228289448509,-0.964282983015242,-0.040859128947366,0.223719286308725,0.0079552197394544,-0.0186799849668375,-0.00349064727805041
1.025,-0.257646738701118,-0.0745991111102293,0.962979316234847,0.0229411559915146,0.000873226869444483,0.00687386193235647,-0.993982612364609,-0.0745180362684527,0.0784411041820358,0.0174503224074193,-0.00845826071660436,-0.00546259883496028,-0.995786949271816,-0.0732309398881781,-0.0565450050437175,0.0180347504110953,-0.00611293383638182,-0.00301687731743624,-0.965831752868663,-0.0413547044564983,0.222838041268366,0.00911841175728156,-0.0212962378667923,-0.00437358417145538
1.03,-0.257465393916089,-0.0748321033441681,0.962632648431135,0.0233382692775025,0.000777658511015493,0.00634517426322555,-0.993621334102666,-0.0743199554365068,0.0782967691015398,0.0182561241363656,-0.00835025903156457,-0.00554035983005329,-0.995223342743957,-0.0731706335970952,-0.0571882835222821,0.0188436369847511,-0.00582070990681534,-0.00298312043319108,-0.967679510779645,-0.041779681520678,0.221776854284673,0.0102080811149597,-0.0234027753320119,-0.00525281525249541
1.035,-0.25728021726421,-0.0751136030281417,0.962308802787597,0.0236081954760764,0.000718812834545352,0.00581718982182355,-0.993274469603167,-0.0741066798322449,0.0782172537924107,0.0189083837094417,-0.0082683215335638,-0.00562016142481531,-0.994672760323031,-0.0731522158178722,-0.0578446305506905,0.0195007144086935,-0.00572702969725075,-0.00297242362934145,-0.969725231388994,-0.0421038208108599,0.220602275490089,0.0112162226896953,-0.0249360973472926,-0.00609237223068874
1.04,-0.257099544871754,-0.0754245386467353,0.962017559366204,0.0237175761181792,0.000702905422566765,0.00528205863545703,-0.992956760283939,-0.0738853310359069,0.0781864100872109,0.0193761390955596,-0.00820587229833116,-0.00569868432400424,-0.994154589935113,-0.0731617537290584,-0.0584963068458399,0.0199748561189252,-0.00584982211365252,-0.00298577148089344,-0.971865694971789,-0.0423016369982588,0.219371147224854,0.0121404078666675,-0.0258606321938419,-0.00686043199574215
1.045,-0.256936661279887,-0.0757411236588442,0.961765628267457,0.0236493080488261,0.000732204278313765,0.00473392120089051,-0.992680242639121,-0.0736653789717568,0.0781744292640234,0.0196449799281556,-0.00815979356391561,-0.00577417230490592,-0.9936842210014,-0.0731815633550498,-0.0591316272709167,0.0202515448561786,-0.00619282300842328,-0.00302343010681485,-0.973986218144044,-0.0423582865310774,0.218138812923339,0.0129855197595658,-0.0261698718421208,-0.00753316448426221
1.05,-0.256810209001893,-0.076038372321224,0.96155852331947,0.0234093859187013,0.000805855384394354,0.00417543902576697,-0.992451483466139,-0.0734572597388591,0.0781474931456926,0.0197204339708825,-0.0081317228354627,-0.00584640084408593,-0.993272136584036,-0.0731938114753213,-0.0597386738712692,0.0203362228194495,-0.00674302818116065,-0.00308444643941542,-0.975953940154869,-0.0422723061820278,0.216968846669827,0.0137648697544181,-0.0258906246107119,-0.00809845072737155
1.055,-0.256739206871778,-0.0762958706962301,0.961400646637289,0.023030114512544,0.000921888167052074,0.00362338511585249,-0.992272019862119,-0.0732718546464116,0.0780773544769112,0.0196280841408426,-0.00812778484138386,-0.00591624025320821,-0.992924679699486,-0.0731861001294757,-0.0603038607462576,0.0202543477152815,-0.00747056231803072,-0.00316619433305595,-0.977636911977687,-0.0420541266134065,0.21592655093665,0.01449966942136,-0.0250860030401197,-0.00855722008129948
1.06,-0.256735424883349,-0.0765041577385774,0.961293871417512,0.0225649482288089,0.00107815683763963,0.0031077765510824,-0.992140880464829,-0.0731198898417614,0.0779501881683116,0.0194086666762756,-0.00815707355029656,-0.00598495159971913,-0.992645672477351,-0.0731569756322152,-0.0608139459116665,0.0200464408484692,-0.00833236104021442,-0.00326434632209859,-0.978943245883554,-0.0417223781031724,0.215058269883382,0.0152159837811341,-0.0238497874232916,-0.00892032711869236
1.065,-0.256800138985257,-0.0766675724146072,0.961237217705432,0.0220753772698342,0.00127198591978641,0.00266417648579117,-0.992056020784708,-0.0730103854335389,0.0777724406176919,0.0191087424525019,-0.00822922838525495,-0.00605342140515122,-0.992437068189359,-0.0731169896817313,-0.0612564839584113,0.0197587419280109,-0.00927949079849371,-0.00337339500617598,-0.979849221963601,-0.041301786756536,0.214375838632604,0.0159398023635682,-0.0222909358770054,-0.00920203144698447
1.07,-0.256928080053245,-0.0768015264876583,0.961228891569988,0.0216166575521329,0.00150058534671123,0.00232476587287175,-0.992013217569254,-0.0729486510979892,0.0775709141464436,0.018770716276564,-0.00835153608255626,-0.00612162784441762,-0.992297948977707,-0.0730837589008057,-0.061616829064282,0.0194332498090617,-0.0102657572595678,-0.00348749578831871,-0.980394932470675,-0.0408242074583469,0.213859559734008,0.0166923002082581,-0.020515338490267,-0.00941416980367095
1.075,-0.257113476791133,-0.0769261893940377,0.961268776624146,0.0212294793756714,0.00176371250366829,0.00211390597900502,-0.992004685820144,-0.0729353448475352,0.0773858739106767,0.0184262932354923,-0.00852621001673231,-0.00618855699853259,-0.99222360615465,-0.0730745238527471,-0.0618756753575375,0.0191012294417432,-0.0112545764488965,-0.00360128500737204,-0.98065600228921,-0.0403302279472846,0.213474139504096,0.0174870993916177,-0.0186131985196561,-0.00956445453177667
1.08,-0.257350689656938,-0.0770601016726901,0.961358297448549,0.0209390237523062,0.00206685848288675,0.00204851593419097,-0.992021036390324,-0.0729676728235185,0.0772584503051054,0.0180948538886498,-0.0087487947205514,-0.00625252380268238,-0.9922073365012,-0.0731014438723679,-0.0620125929146053,0.0187816464970953,-0.012222035523886,-0.00371042383803515,-0.98071508504709,-0.0398674040552624,0.213183035454808,0.0183296204177607,-0.0166548622856434,-0.00965855649658653
1.085,-0.257627653940251,-0.0772159631761747,0.96149681753713,0.0207573169516877,0.00242092373276317,0.00213868977083123,-0.992057128256658,-0.0730421919029139,0.0772166157309446,0.0177854082957621,-0.00900863773438452,-0.00631159344168378,-0.992245291011918,-0.0731719205432613,-0.0620158228741274,0.0184831606054383,-0.0131555626290166,-0.00381174970853499,-0.980647701880831,-0.0394840067322619,0.212953355848569,0.0192171099119027,-0.0146923346920049,-0.00970248083504823
1.09,-0.257918372334651,-0.0773990367299555,0.96167725803176,0.0206840268491139,0.00283600381691872,0.00238433134376757,-0.992117729656966,-0.0731571886608606,0.0772661391759561,0.0174996880575657,-0.00929159960851794,-0.00636376950762958,-0.99234107280685,-0.0732917487614219,-0.0618918057065043,0.0182072137915436,-0.0140491776834371,-0.00390303939495916,-0.980520518258164,-0.0392209764358701,0.212754209047589,0.0201380279265534,-0.0127623624749033,-0.00970207477163983
1.095,-0.258183122844332,-0.0776076553493693,0.961885049562555,0.0207045405477594,0.00331173278669382,0.00276851577767618,-0.992217717884847,-0.0733126209350658,0.0773912523481628,0.0172346211368692,-0.00958389642871509,-0.00640685953774023,-0.992505709996328,-0.0734668061450136,-0.0616667746381298,0.0179504633403355,-0.0148976920935018,-0.00398253612765729,-0.980393002371032,-0.039105623958923,0.21255519198409,0.0210710851594141,-0.0108888527249409,-0.00965977186723515
1.1,-0.258379625406423,-0.077835147202265,0.962102431845903,0.0207884195854067,0.00383032238017563,0.00325304530638344,-0.99237532571875,-0.0735072542609458,0.0775642974549215,0.0169838106928679,-0.00987523723159941,-0.0064382433236824,-0.992751625695696,-0.0737007495945664,-0.0613785761076965,0.017706214893992,-0.0156927096411773,-0.00404851619946953,-0.98031736029155,-0.0391483548619644,0.212327825965896,0.0219858046266558,-0.00908443253512443,-0.00957167633091782
1.105,-0.258480087028127,-0.078072370110838,0.962316154842908,0.0208925379626556,0.00435763586694536,0.00378217836872904,-0.992602022364143,-0.0737346373114614,0.0777587378154521,0.0167385598147277,-0.010159886878001,-0.00645488503381551,-0.993083615801705,-0.073989814550681,-0.0610635866526161,0.0174654392736381,-0.016422340782731,-0.00409915907246699,-0.980337683574155,-0.0393417396484411,0.212048010315392,0.0228464799682395,-0.00735144206421438,-0.00942822388787422
1.11,-0.258483864743929,-0.0783096927652948,0.962523543233128,0.0209707076086144,0.00485295095769196,0.00429624293823731,-0.992894857069476,-0.0739806530086343,0.0779590749138604,0.0164891564682806,-0.0104354847042278,-0.00645376994704366,-0.993492163036079,-0.0743184144420172,-0.0607455259124561,0.0172181052420074,-0.0170746626696076,-0.00413280276354856,-0.980489793787526,-0.0396620268575118,0.211697367055364,0.0236195574323195,-0.00568232656868388,-0.00921913497757395
1.115,-0.258416429667322,-0.0785374598449102,0.962731741136343,0.0209870492069543,0.00528246075222694,0.00475007361579765,-0.993235593660496,-0.0742249374348152,0.0781636892593042,0.0162268417955786,-0.0107005237458961,-0.00643264431362863,-0.993953373450987,-0.0746594007935417,-0.0604306836486664,0.0169552305511122,-0.0176430008549626,-0.00414840673605914,-0.980799961455023,-0.0400750387147155,0.211264098917884,0.0242817205329876,-0.00405971921022278,-0.00894020009381362
1.12,-0.258313346417194,-0.0787453062264038,0.962949024782708,0.0209266442067646,0.00562841563083619,0.00512625489962615,-0.993596890841341,-0.0744462463346525,0.0783803748655532,0.0159462644174709,-0.0109519164571785,-0.00639070034341591,-0.994435838441067,-0.0749802569948024,-0.0601106553626675,0.0166714066797075,-0.0181298887626755,-0.00414589497932044,-0.981280149229683,-0.0405472082425305,0.210744868450613,0.02482413947472,-0.002457449575957,-0.0085977408173753
1.125,-0.258199733299586,-0.0789219473301112,0.963173824815019,0.0207974923365146,0.00588817636324821,0.00543499983623615,-0.993951276647118,-0.0746288242705594,0.0786182540791775,0.0156475264662379,-0.0111838979714341,-0.00632886288216163,-0.99490992606951,-0.0752521780925919,-0.0597701782338836,0.016366864461285,-0.0185470984680754,-0.00412616134967255,-0.981921601854187,-0.0410573084651193,0.210147193419332,0.0252497296824999,-0.000843796867136464,-0.00820788741521791
1.13,-0.258080944644102,-0.0790566580370759,0.963390596063649,0.0206233150331331,0.00606501530128423,0.00570150953443619,-0.994277054206935,-0.07476562876284,0.0788818951649648,0.0153368290783648,-0.0113886171762808,-0.00624961271476464,-0.995353358365668,-0.0754564211479011,-0.0593950092757866,0.0160480889348821,-0.0189117518603135,-0.0040908079431686,-0.982692226248842,-0.0416007707492576,0.209490183793329,0.0255649937324968,0.000813187109909271,-0.00779155227703517
1.135,-0.257951245219946,-0.0791419969243299,0.963576779357091,0.0204329153307461,0.00615926198886694,0.00595052803341413,-0.994558438013003,-0.074856634452129,0.0791712106243879,0.0150254529893148,-0.0115576350070019,-0.00615657487212916,-0.995750525828923,-0.0755845670386045,-0.0589755333369195,0.0157267529354516,-0.0192413754103374,-0.00404187819506598,-0.983541041369672,-0.0421827609181068,0.208802469841672,0.0257722368210473,0.00254020360554973,-0.00736900362747752
1.14,-0.257810657709245,-0.0791762193263852,0.963715045896699,0.0202528930476408,0.00616753859808235,0.00619823653682992,-0.994782475254187,-0.0749045350120272,0.0794849653796517,0.0147276544032455,-0.0116831534007268,-0.0060541549511439,-0.996088601500582,-0.075634514167323,-0.0585062343119072,0.0154175828837472,-0.0195510523259729,-0.00398178529822316,-0.984406586938211,-0.0428058465862297,0.208118712010023,0.0258672522915576,0.004355075343323,-0.00695747562028385
1.145,-0.257672431082211,-0.0791640037372425,0.963799831528018,0.0201059356889692,0.0060895723583751,0.00645351539930951,-0.994937669773247,-0.0749120375925928,0.0798220660971191,0.0144583801464188,-0.0117585216288847,-0.0059473576641976,-0.996355776513871,-0.0756069395097066,-0.05798491240125,0.015136070585184,-0.019853085976192,-0.00391344526638819,-0.985222352160462,-0.0434629598846239,0.20747742424692,0.0258423606406369,0.00626510568838252,-0.00657200562565657
1.15,-0.257553517884242,-0.0791151571829425,0.963833078873889,0.0200116205856285,0.00593434823069309,0.00672213362681829,-0.995016689016392,-0.0748827478547271,0.0801777521893833,0.0142315278680647,-0.0117785730515692,-0.00584174616879851,-0.996544090436709,-0.0755052518912664,-0.0574144532003654,0.0148967442434232,-0.0201566635500968,-0.00384047446895655,-0.985915951736028,-0.0441404693975263,0.206921244656968,0.0256900130653511,0.00826563884108461,-0.00622686273812195
1.155,-0.257458546115993,-0.0790420823147681,0.96381555359737,0.0199856131726689,0.00571816929298035,0.00700675126125817,-0.995020956190782,-0.0748237039146301,0.0805383443668245,0.0140589473948084,-0.0117404853871613,-0.00574335697407697,-0.996654474546637,-0.0753381031388769,-0.0568058217886352,0.0147121675907927,-0.020465131442845,-0.00376724138854346,-0.986407139665701,-0.0448249096530675,0.206497204792728,0.0254026021999658,0.0103372229470623,-0.00593486830092356
1.16,-0.25737457721314,-0.0789570408356336,0.963744394573772,0.020036554486769,0.00545581681143536,0.00730248752560375,-0.994962920217407,-0.0747461251216007,0.0808804632022795,0.0139498694413948,-0.0116450741035231,-0.00565831964724319,-0.996699357080339,-0.0751210879671562,-0.0561790336905709,0.0145923220054885,-0.0207716382333942,-0.00369856703567736,-0.986613541790131,-0.04550218396714,0.206252922863112,0.0249692195884904,0.0124422784440921,-0.00570424087755457
1.165,-0.257281862373358,-0.0788697152166099,0.963619552312491,0.020163616801487,0.00515296789128833,0.00759384186563569,-0.994863811622133,-0.0746630852351752,0.0811762927834755,0.0139105901053367,-0.0114977573489482,-0.00559207309968628,-0.99670021543668,-0.0748751372706731,-0.0555607183761338,0.0145441869221213,-0.0210566065429321,-0.00363899031689793,-0.986466409028187,-0.0461464967634013,0.20622804293999,0.0243745305882967,0.0145243955906997,-0.00553495494455023
1.17,-0.257169309685049,-0.078785715555818,0.9634512328635,0.0203577093940994,0.00480597200839493,0.007857606540134,-0.994747888234529,-0.0745855454913448,0.0814018024119881,0.0139446571387563,-0.0113085370381023,-0.00554838381581358,-0.99668125991234,-0.07462214906986,-0.0549791475217102,0.0145717903917575,-0.0212898027333499,-0.00359176844712358,-0.98592800499283,-0.0467100783113958,0.206445739417603,0.0236036743217485,0.0165126081785061,-0.00541701431294475
1.175,-0.257041096500544,-0.078707404023695,0.963260018005819,0.0206061076628513,0.00440759670531499,0.00807110885162746,-0.994635688355825,-0.0745187896501987,0.0815446141256412,0.0140532624584757,-0.0110907856394173,-0.00552855729741195,-0.996662552182257,-0.0743807358473077,-0.0544580542836967,0.014676490556842,-0.0214366228636962,-0.00355804078423403,-0.984999317030621,-0.0471274249978059,0.206910153206895,0.022651239834722,0.0183297744188684,-0.0053316505245615
1.18,-0.256912329734384,-0.0786373004420467,0.9630700442272,0.0208976351891487,0.00395334780177071,0.00822213444333025,-0.994538879517078,-0.0744606910353916,0.0816092727711463,0.0142344938136023,-0.0108589403855321,-0.00553109421609058,-0.99665559780071,-0.0741646302671855,-0.0540109373072757,0.0148561878806684,-0.0214658022801399,-0.00353658933513594,-0.983713437587915,-0.0473345026704461,0.207611202783875,0.0215283755432569,0.0199016989524343,-0.00525479069609332
1.185,-0.256801073514396,-0.0785814051140178,0.962901752843985,0.0212256248157214,0.00344505287953213,0.0083169565635308,-0.994458848203604,-0.0744029494953623,0.0816169984177951,0.0144806717112936,-0.0106256598946929,-0.00555175033045322,-0.996663007419501,-0.0739840089612435,-0.0536385310183808,0.0151026957007648,-0.0213554463132054,-0.00352426061465359,-0.982117357785219,-0.0472895505909352,0.208534067993609,0.0202639714298188,0.0211634061355951,-0.00516131466455624
1.19,-0.25672294516225,-0.0785490361280265,0.962768608258628,0.0215875117798896,0.00289180924667431,0.00838304343777294,-0.994389657595249,-0.0743356370391315,0.0815980755152723,0.0147753449017249,-0.0103996309744292,-0.00558382760377596,-0.99668187993507,-0.0738480120777822,-0.0533311980542268,0.0153988039311629,-0.0210951591501408,-0.00351666257764894,-0.980249265959331,-0.0469830128781423,0.209669358591514,0.0189005941247877,0.0220600763953503,-0.00502873384528848
1.195,-0.256688731966898,-0.0785490932708536,0.962677210464669,0.0219814095743403,0.00230940170839132,0.00846365456700838,-0.994323485452999,-0.0742532746887211,0.0815803621439545,0.0150928259939729,-0.0101851654356495,-0.00561862286637234,-0.996708659808052,-0.0737664411322515,-0.0530744229933411,0.0157178804138071,-0.0206836304580073,-0.00350867054662912,-0.978122881588002,-0.0464356265384577,0.211018689336124,0.0174883642065627,0.022542318388397,-0.00483955979624776
1.2,-0.256702571133698,-0.0785860755452972,0.962628125588274,0.0224010351053403,0.00171864935555564,0.00860484623650305,-0.994255170053858,-0.0741590670731241,0.0815815681544491,0.0154015111722782,-0.00998352521980063,-0.00564608441392558,-0.996742522791947,-0.0737495274282675,-0.0528530772013929,0.0160272491952027,-0.0201233595252067,-0.00349462334619858,-0.975732343642993,-0.0456922988873337,0.212589162418684,0.0160790524584224,0.0225589659939664,-0.0045822532109057
1.205,-0.256759462677851,-0.0786584802052698,0.962615685607481,0.0228308724056265,0.00114252619759988,0.00883947562731327,-0.994183414925418,-0.0740648525847831,0.0816098841810642,0.0156694877987294,-0.00979457381576439,-0.00565574647423347,-0.996785190047618,-0.0738052330591484,-0.0526520461758796,0.0162938730897531,-0.0194160755284532,-0.00346848413140594,-0.973085145769458,-0.0448189904587563,0.214372516130569,0.0147204666443126,0.022053801076035,-0.00425096524182522
1.21,-0.256844161419389,-0.0787594009287088,0.962627280018916,0.0232436671692088,0.00060212219004635,0.00917396378574742,-0.994108629565368,-0.0739868107907954,0.0816700706131525,0.0158702365488766,-0.0096172635317822,-0.00563804040068328,-0.996836852284975,-0.073933900279314,-0.0524555127123767,0.0164901810632313,-0.0185624586464925,-0.0034243635259612,-0.970255780469469,-0.0439028214664397,0.216312683572197,0.0134503002360378,0.0209732274362005,-0.0038446620819317
1.215,-0.256934847114622,-0.078879360789271,0.962644425887688,0.0236020777258627,0.000112729098401463,0.00958211670344015,-0.994029770895339,-0.0739387154388734,0.0817683222551923,0.015987263357733,-0.00944875497899417,-0.00558607035575833,-0.996890635545644,-0.0741226402036466,-0.0522497994138921,0.0165988983673045,-0.0175676392349565,-0.00335765087195257,-0.967430601955417,-0.0430486919438853,0.218279642852147,0.0122900890002547,0.0192880597507022,-0.00336685956346851
1.22,-0.257011355035249,-0.0790135302326947,0.962647120179408,0.023864194483623,-0.000317859934917701,0.0100086238211573,-0.993943602891356,-0.0739252033086765,0.0819119375567536,0.016015848781531,-0.00928349250833847,-0.00549752559390411,-0.996930692861104,-0.0743455010442462,-0.0520320147167171,0.0166150391513225,-0.0164498115315554,-0.0032666750919499,-0.964899908389984,-0.0423658147396636,0.220077426463479,0.0112419320035759,0.0170226915018456,-0.00282713652139562
1.225,-0.257062540519191,-0.0791722040242437,0.962620155441218,0.0239890959967088,-0.000688038021536564,0.0103825535615078,-0.99384814875642,-0.0739382039816404,0.0821046733890123,0.0159582144393625,-0.00911400005044952,-0.00537573054857795,-0.996937785701428,-0.0745732342554127,-0.0518200516072731,0.0165412597860886,-0.01524530769297,-0.00315440770434239,-0.962977231072121,-0.041945514666501,0.221498728970584,0.0102903586264911,0.0142740551573796,-0.00224408205114016
1.23,-0.257087443902781,-0.079384993924999,0.96255844556732,0.0239381526459433,-0.000999642838510707,0.0106365096643526,-0.993748189504321,-0.0739598013460096,0.0823411307380019,0.0158111889453312,-0.00893390990416156,-0.00522888650187101,-0.996900084192816,-0.0747869708767346,-0.051654220627068,0.0163755353944127,-0.0140043664898967,-0.00302939273433556,-0.961885051221071,-0.0418401269601242,0.222399799574914,0.00940898681429817,0.0112039532679702,-0.00164747665500677
1.235,-0.257091276683102,-0.0796880150936103,0.962469753173217,0.0236732415040464,-0.00125610523939015,0.0107228229797829,-0.993657985081661,-0.073972360525503,0.0826031566509869,0.0155541081211272,-0.00874160784813083,-0.00506770493297312,-0.996821729057717,-0.0749842142192387,-0.0515833649563058,0.0160988501173924,-0.0127787535050948,-0.00290504776090432,-0.961679012943169,-0.0420534201963659,0.222748150771549,0.00856888543535323,0.00800530407908645,-0.00107706599552072
1.24,-0.25708272569364,-0.0800962920723549,0.962375404102943,0.0231596107003643,-0.00146203641043384,0.0106202612840844,-0.993598046313464,-0.0739719021185602,0.0828596570309481,0.0151499997484811,-0.00854185093960115,-0.00490271951374963,-0.996723220792122,-0.0751719274645041,-0.0516393275050299,0.0156760054722145,-0.0116088981852733,-0.00279683726000183,-0.962248152962694,-0.0425452124182634,0.222619050235001,0.00774510777422306,0.00485979496015932,-0.000576646645186659
1.245,-0.257076636257375,-0.0805791455463125,0.962309301807692,0.0223807077441433,-0.00162261197270669,0.0103328203853865,-0.993587378310851,-0.0739769780286268,0.0830699338105837,0.0145665612464611,-0.00834398718416469,-0.00474246922565959,-0.996633842495024,-0.0753531627677304,-0.0518146026941869,0.0150761568946306,-0.0105177459543625,-0.0027176176485667,-0.963370324768943,-0.0432451322359577,0.222155882030095,0.00691983508506439,0.00190547257423747,-0.000184575779323202
